timestamp,ax,ay,az,gx,gy,gz,qw,qx,qy,qz,label
37163,4.421875,8.933594,0.195312,0.017578,-0.070312,-0.113281,0.157471,-0.177185,-0.677856,-0.695923,down
37168,4.382812,9.011719,0.230469,0.017578,-0.070312,-0.113281,0.157471,-0.177185,-0.677856,-0.695923,down
37174,4.382812,9.011719,0.195312,0.029297,-0.066406,-0.101563,0.157471,-0.177185,-0.677856,-0.695923,down
37179,4.382812,9.011719,0.195312,0.027344,-0.058594,-0.101563,0.157471,-0.177185,-0.677856,-0.695923,down
37184,4.382812,9.046875,0.195312,0.023437,-0.056641,-0.105469,0.157471,-0.177185,-0.677856,-0.695923,down
37189,4.34375,9.085938,0.117188,0.023437,-0.056641,-0.105469,0.157471,-0.177185,-0.677856,-0.695923,down
37195,4.382812,9.121094,0.15625,0.023437,-0.056641,-0.105469,0.155396,-0.176453,-0.678589,-0.695862,down
37201,4.304687,9.089844,0.117188,-0.007813,-0.037109,-0.099609,0.155396,-0.176453,-0.678589,-0.695862,down
37206,4.269531,9.046875,0.230469,-0.007813,-0.037109,-0.099609,0.154907,-0.176208,-0.67865,-0.695984,down
37211,4.304687,9.050781,0.195312,-0.058594,-0.03125,-0.085937,0.154907,-0.176208,-0.67865,-0.695984,down
37216,4.304687,9.007813,0.195312,-0.058594,-0.03125,-0.085937,0.154358,-0.175964,-0.678589,-0.696228,down
37221,4.269531,9.046875,0.195312,-0.058594,-0.03125,-0.085937,0.154114,-0.175842,-0.678528,-0.696411,down
37226,4.269531,9.046875,0.195312,-0.058594,-0.03125,-0.085937,0.153625,-0.175659,-0.678345,-0.696655,down
37231,4.230469,9.050781,0.230469,-0.058594,-0.03125,-0.085937,0.153625,-0.175659,-0.678345,-0.696655,down
37236,4.230469,9.050781,0.230469,-0.041016,-0.037109,-0.060547,0.153625,-0.175659,-0.678345,-0.696655,down
37241,4.230469,9.007813,0.195312,-0.041016,-0.037109,-0.060547,0.153015,-0.175537,-0.678284,-0.696899,down
37246,4.191406,9.007813,0.230469,-0.041016,-0.037109,-0.060547,0.153015,-0.175537,-0.678284,-0.696899,down
37251,4.191406,8.972656,0.269531,0.029297,-0.03125,-0.023437,0.152832,-0.175537,-0.678406,-0.696838,down
37256,4.191406,8.929688,0.269531,0.029297,-0.03125,-0.023437,0.152832,-0.175537,-0.678406,-0.696838,down
37261,4.191406,8.933594,0.230469,0.029297,-0.03125,-0.023437,0.152771,-0.175537,-0.67865,-0.696594,down
37266,4.191406,8.96875,0.230469,0.029297,-0.03125,-0.023437,0.152771,-0.175537,-0.67865,-0.696594,down
37271,4.191406,8.96875,0.195312,0.076172,-0.029297,0.007813,0.15271,-0.175598,-0.678894,-0.69635,down
37276,4.191406,9.007813,0.230469,0.076172,-0.029297,0.007813,0.15271,-0.175598,-0.678894,-0.69635,down
37281,4.191406,8.96875,0.230469,0.076172,-0.029297,0.007813,0.152649,-0.175598,-0.679016,-0.696228,down
37286,4.191406,8.96875,0.195312,0.044922,-0.023437,0.011719,0.152649,-0.175598,-0.679016,-0.696228,down
37291,4.191406,8.972656,0.15625,0.044922,-0.023437,0.011719,0.152649,-0.175659,-0.67926,-0.696045,down
37296,4.230469,8.96875,0.195312,0.044922,-0.023437,0.011719,0.152527,-0.175598,-0.679321,-0.695984,down
37301,4.230469,8.96875,0.195312,0.044922,-0.023437,0.011719,0.152527,-0.175598,-0.679321,-0.695984,down
37306,4.230469,8.96875,0.195312,-0.013672,-0.015625,-0.021484,0.152283,-0.175537,-0.67926,-0.696106,down
37311,4.269531,9.007813,0.15625,-0.013672,-0.015625,-0.021484,0.152283,-0.175537,-0.67926,-0.696106,down
37317,4.269531,8.972656,0.195312,-0.076172,-0.03125,-0.056641,0.152161,-0.175476,-0.679199,-0.696228,down
37322,4.269531,8.929688,0.195312,-0.076172,-0.03125,-0.056641,0.151733,-0.175354,-0.678955,-0.696594,down
37327,4.230469,8.894531,0.195312,-0.076172,-0.03125,-0.056641,0.151489,-0.175293,-0.678772,-0.696838,down
37332,4.269531,8.855469,0.195312,-0.076172,-0.03125,-0.056641,0.151245,-0.175293,-0.67865,-0.697021,down
37337,4.230469,8.8125,0.230469,-0.113281,-0.042969,-0.068359,0.15094,-0.175232,-0.678467,-0.697266,down
37342,4.269531,8.777344,0.269531,-0.113281,-0.042969,-0.068359,0.150696,-0.175171,-0.678284,-0.69751,down
37347,4.269531,8.773438,0.230469,-0.113281,-0.042969,-0.068359,0.150391,-0.17511,-0.678162,-0.697754,down
37352,4.269531,8.773438,0.195312,-0.113281,-0.042969,-0.068359,0.150085,-0.175049,-0.677917,-0.697998,down
37357,4.269531,8.816406,0.195312,-0.097656,-0.037109,-0.072266,0.149841,-0.174988,-0.677795,-0.698242,down
37362,4.230469,8.777344,0.195312,-0.082031,-0.042969,-0.064453,0.149597,-0.174927,-0.677673,-0.698425,down
37367,4.230469,8.777344,0.230469,-0.082031,-0.042969,-0.064453,0.149353,-0.174866,-0.677551,-0.698547,down
37373,4.269531,8.734375,0.230469,-0.082031,-0.042969,-0.064453,0.14917,-0.174805,-0.67749,-0.698669,down
37378,4.269531,8.777344,0.15625,-0.001953,-0.021484,-0.035156,0.148987,-0.174744,-0.67749,-0.698792,down
37384,4.230469,8.851563,0.195312,-0.001953,-0.021484,-0.035156,0.148865,-0.174683,-0.67749,-0.698792,down
37390,4.230469,8.933594,0.195312,0.029297,-0.011719,-0.035156,0.148865,-0.174683,-0.67749,-0.698792,down
37395,4.191406,8.972656,0.15625,0.035156,-0.005859,-0.033203,0.148865,-0.174683,-0.67749,-0.698792,down
37401,4.191406,9.046875,0.15625,0.041016,0.0,-0.033203,0.148865,-0.174683,-0.67749,-0.698792,down
37407,4.152344,9.011719,0.195312,0.033203,-0.013672,-0.027344,0.148865,-0.174683,-0.67749,-0.698792,down
37412,4.191406,9.007813,0.230469,0.033203,-0.013672,-0.027344,0.148376,-0.174133,-0.677917,-0.698669,down
37417,4.191406,8.894531,0.195312,0.033203,-0.013672,-0.027344,0.148376,-0.174133,-0.677917,-0.698669,down
37422,4.113281,8.890625,0.230469,0.033203,-0.013672,-0.027344,0.148132,-0.174011,-0.677917,-0.698669,down
37428,4.152344,8.855469,0.195312,0.033203,-0.013672,-0.027344,0.14801,-0.17395,-0.677917,-0.698792,down
37433,4.191406,8.894531,0.230469,-0.046875,-0.037109,-0.033203,0.14801,-0.17395,-0.677917,-0.698792,down
37438,4.191406,8.894531,0.230469,-0.046875,-0.037109,-0.033203,0.147644,-0.17395,-0.677795,-0.698975,down
37444,4.152344,8.929688,0.195312,-0.046875,-0.037109,-0.033203,0.147461,-0.17395,-0.677673,-0.699097,down
37450,4.152344,8.929688,0.195312,-0.070312,-0.042969,-0.042969,0.147461,-0.17395,-0.677673,-0.699097,down
37456,4.152344,8.855469,0.230469,-0.068359,-0.050781,-0.035156,0.147461,-0.17395,-0.677673,-0.699097,down
37461,4.230469,8.8125,0.195312,-0.037109,-0.037109,-0.035156,0.146851,-0.17395,-0.677368,-0.699524,down
37466,4.230469,8.8125,0.195312,-0.037109,-0.037109,-0.035156,0.146667,-0.17395,-0.677307,-0.699646,down
37472,4.230469,8.8125,0.195312,-0.013672,-0.035156,-0.033203,0.146667,-0.17395,-0.677307,-0.699646,down
37477,4.304687,8.855469,0.15625,-0.013672,-0.035156,-0.033203,0.14624,-0.173767,-0.677368,-0.699707,down
37482,4.230469,8.851563,0.230469,-0.013672,-0.035156,-0.033203,0.146179,-0.173706,-0.677429,-0.699646,down
37488,4.230469,8.851563,0.195312,0.0625,-0.013672,-0.03125,0.146057,-0.173645,-0.677551,-0.699585,down
37493,4.191406,8.890625,0.269531,0.0625,-0.013672,-0.03125,0.145996,-0.173584,-0.677673,-0.699524,down
37499,4.230469,8.855469,0.308594,0.066406,-0.023437,-0.009766,0.145996,-0.173584,-0.677673,-0.699524,down
37505,4.230469,8.855469,0.308594,0.0625,-0.025391,0.001953,0.145874,-0.173523,-0.677917,-0.699341,down
37510,4.230469,8.738281,0.230469,0.056641,-0.029297,-0.001953,0.145874,-0.173523,-0.677917,-0.699341,down
37515,4.230469,8.734375,0.269531,0.050781,-0.029297,0.003906,0.145874,-0.173523,-0.677917,-0.699341,down
37520,4.269531,8.695313,0.269531,0.042969,-0.035156,0.005859,0.145874,-0.173523,-0.677917,-0.699341,down
37525,4.230469,8.738281,0.347656,0.037109,-0.029297,-0.005859,0.145874,-0.173523,-0.677917,-0.699341,down
37530,4.230469,8.773438,0.269531,0.037109,-0.029297,-0.005859,0.145874,-0.173523,-0.677917,-0.699341,down
37535,4.269531,8.773438,0.230469,0.037109,-0.029297,-0.005859,0.145508,-0.173462,-0.678345,-0.698975,down
37540,4.191406,8.8125,0.230469,0.035156,-0.048828,-0.037109,0.145508,-0.173462,-0.678345,-0.698975,down
37545,4.191406,8.8125,0.230469,0.015625,-0.041016,-0.048828,0.145508,-0.173462,-0.678345,-0.698975,down
37550,4.191406,8.8125,0.195312,0.015625,-0.041016,-0.048828,0.145508,-0.173462,-0.678345,-0.698975,down
37556,4.230469,8.851563,0.230469,0.015625,-0.041016,-0.048828,0.144775,-0.173279,-0.678589,-0.698914,down
37562,4.230469,8.894531,0.195312,-0.001953,-0.044922,-0.078125,0.144287,-0.173096,-0.678711,-0.698975,down
37567,4.191406,8.851563,0.195312,-0.050781,-0.046875,-0.113281,0.143982,-0.172974,-0.67865,-0.699097,down
37572,4.191406,8.894531,0.195312,-0.050781,-0.046875,-0.113281,0.143982,-0.172974,-0.67865,-0.699097,down
37577,4.230469,8.933594,0.195312,-0.091797,-0.064453,-0.130859,0.143982,-0.172974,-0.67865,-0.699097,down
37582,4.152344,8.929688,0.195312,-0.091797,-0.064453,-0.130859,0.142822,-0.172668,-0.678467,-0.699646,down
37587,4.191406,8.972656,0.15625,-0.091797,-0.064453,-0.130859,0.142822,-0.172668,-0.678467,-0.699646,down
37592,4.191406,8.972656,0.15625,-0.144531,-0.070312,-0.152344,0.142334,-0.172546,-0.678284,-0.699951,down
37598,4.191406,8.933594,0.195312,-0.144531,-0.070312,-0.152344,0.141479,-0.172302,-0.677917,-0.7005,down
37604,4.152344,8.890625,0.195312,-0.144531,-0.070312,-0.152344,0.140991,-0.17218,-0.677734,-0.700806,down
37609,4.113281,8.855469,0.195312,-0.15625,-0.046875,-0.150391,0.140991,-0.17218,-0.677734,-0.700806,down
37614,4.152344,8.890625,0.230469,-0.125,-0.054687,-0.146484,0.140076,-0.171814,-0.677307,-0.701477,down
37620,4.152344,8.933594,0.269531,-0.125,-0.054687,-0.146484,0.139709,-0.171692,-0.677185,-0.701721,down
37625,4.113281,8.894531,0.269531,-0.089844,-0.048828,-0.126953,0.139709,-0.171692,-0.677185,-0.701721,down
37630,4.152344,8.894531,0.308594,-0.070312,-0.050781,-0.115234,0.139709,-0.171692,-0.677185,-0.701721,down
37636,4.152344,8.933594,0.308594,-0.070312,-0.050781,-0.115234,0.138611,-0.171326,-0.676941,-0.702209,down
37642,4.152344,8.933594,0.308594,-0.070312,-0.050781,-0.115234,0.138611,-0.171326,-0.676941,-0.702209,down
37647,4.152344,8.890625,0.347656,-0.021484,-0.060547,-0.082031,0.137756,-0.171143,-0.676941,-0.702454,down
37652,4.113281,8.894531,0.269531,-0.021484,-0.060547,-0.082031,0.137756,-0.171143,-0.676941,-0.702454,down
37657,4.152344,8.933594,0.269531,-0.021484,-0.060547,-0.082031,0.137329,-0.171021,-0.677063,-0.702515,down
37662,4.113281,8.933594,0.269531,-0.021484,-0.060547,-0.082031,0.137085,-0.171021,-0.677124,-0.702454,down
37667,4.152344,8.96875,0.269531,-0.021484,-0.060547,-0.082031,0.137085,-0.171021,-0.677124,-0.702454,down
37672,4.152344,9.011719,0.230469,0.046875,-0.052734,-0.044922,0.137085,-0.171021,-0.677124,-0.702454,down
37677,4.152344,9.050781,0.269531,0.046875,-0.052734,-0.044922,0.136536,-0.170959,-0.67749,-0.702271,down
37682,4.113281,9.050781,0.269531,0.048828,-0.064453,-0.029297,0.136536,-0.170959,-0.67749,-0.702271,down
37687,4.152344,9.046875,0.195312,0.048828,-0.064453,-0.029297,0.136414,-0.170959,-0.677551,-0.702209,down
37692,4.152344,9.046875,0.195312,0.048828,-0.064453,-0.029297,0.136047,-0.171021,-0.677795,-0.702026,down
37697,4.152344,8.972656,0.195312,0.048828,-0.064453,-0.029297,0.136047,-0.171021,-0.677795,-0.702026,down
37702,4.152344,8.972656,0.230469,0.029297,-0.068359,-0.046875,0.136047,-0.171021,-0.677795,-0.702026,down
37707,4.152344,8.972656,0.195312,0.029297,-0.068359,-0.046875,0.135681,-0.171021,-0.677979,-0.701965,down
37712,4.152344,8.972656,0.195312,0.029297,-0.068359,-0.046875,0.135193,-0.171021,-0.678101,-0.701904,down
37717,4.191406,8.96875,0.195312,0.029297,-0.068359,-0.046875,0.135193,-0.171021,-0.678101,-0.701904,down
37722,4.152344,8.933594,0.15625,-0.009766,-0.068359,-0.070312,0.135193,-0.171021,-0.678101,-0.701904,down
37727,4.152344,8.929688,0.195312,-0.009766,-0.068359,-0.070312,0.134705,-0.170959,-0.678162,-0.701904,down
37732,4.113281,8.890625,0.230469,-0.009766,-0.068359,-0.070312,0.13446,-0.170898,-0.678223,-0.701965,down
37737,4.152344,8.890625,0.195312,-0.027344,-0.050781,-0.083984,0.134155,-0.170837,-0.678223,-0.702026,down
37742,4.152344,8.855469,0.195312,-0.027344,-0.050781,-0.083984,0.133911,-0.170776,-0.678162,-0.702148,down
37748,4.152344,8.855469,0.195312,-0.027344,-0.050781,-0.083984,0.133362,-0.170593,-0.678162,-0.702271,down
37753,4.113281,8.855469,0.195312,-0.03125,-0.033203,-0.099609,0.133057,-0.170471,-0.678162,-0.702393,down
37759,4.152344,8.855469,0.230469,-0.03125,-0.033203,-0.099609,0.132812,-0.170288,-0.678162,-0.702454,down
37764,4.113281,8.855469,0.195312,-0.03125,-0.033203,-0.099609,0.132568,-0.170166,-0.678162,-0.702576,down
37769,4.078125,8.855469,0.195312,-0.03125,-0.033203,-0.099609,0.132263,-0.169983,-0.678162,-0.702637,down
37774,4.078125,8.890625,0.230469,-0.025391,-0.021484,-0.119141,0.132263,-0.169983,-0.678162,-0.702637,down
37780,4.078125,8.855469,0.195312,-0.025391,-0.021484,-0.119141,0.131714,-0.169617,-0.678162,-0.70282,down
37785,4.078125,8.816406,0.195312,-0.025391,-0.021484,-0.119141,0.13147,-0.169434,-0.678162,-0.702942,down
37790,4.078125,8.816406,0.230469,-0.035156,-0.017578,-0.125,0.13147,-0.169434,-0.678162,-0.702942,down
37795,4.039062,8.816406,0.230469,-0.027344,-0.009766,-0.140625,0.13147,-0.169434,-0.678162,-0.702942,down
37800,4.039062,8.773438,0.230469,-0.037109,-0.003906,-0.144531,0.13147,-0.169434,-0.678162,-0.702942,down
37806,4.0,8.816406,0.230469,-0.037109,-0.003906,-0.144531,0.13147,-0.169434,-0.678162,-0.702942,down
37812,4.039062,8.855469,0.230469,-0.044922,-0.017578,-0.167969,0.13147,-0.169434,-0.678162,-0.702942,down
37817,4.039062,8.816406,0.230469,-0.044922,-0.017578,-0.167969,0.129639,-0.167969,-0.678101,-0.703674,down
37822,4.0,8.816406,0.195312,-0.044922,-0.017578,-0.167969,0.129211,-0.167725,-0.678101,-0.703796,down
37827,4.0,8.816406,0.195312,-0.044922,-0.017578,-0.167969,0.128845,-0.167419,-0.67804,-0.703979,down
37833,4.0,8.8125,0.15625,-0.072266,-0.005859,-0.205078,0.127991,-0.166687,-0.677979,-0.704407,down
37839,3.960938,8.773438,0.195312,-0.072266,-0.005859,-0.205078,0.127625,-0.166382,-0.677917,-0.704651,down
37844,3.960938,8.773438,0.195312,-0.091797,0.015625,-0.253906,0.127075,-0.165894,-0.677795,-0.704895,down
37849,3.921875,8.777344,0.195312,-0.091797,0.015625,-0.253906,0.126648,-0.165466,-0.677734,-0.705139,down
37854,3.847656,8.777344,0.230469,-0.091797,0.015625,-0.253906,0.126099,-0.164917,-0.677673,-0.705505,down
37859,3.847656,8.8125,0.230469,-0.091797,0.015625,-0.253906,0.126099,-0.164917,-0.677673,-0.705505,down
37864,3.847656,8.8125,0.230469,-0.134766,0.056641,-0.349609,0.126099,-0.164917,-0.677673,-0.705505,down
37871,3.808594,8.851563,0.308594,-0.134766,0.056641,-0.349609,0.126099,-0.164917,-0.677673,-0.705505,down
37876,3.730469,8.851563,0.386719,-0.177734,0.060547,-0.396484,0.126099,-0.164917,-0.677673,-0.705505,down
37882,3.695313,8.894531,0.347656,-0.197266,0.070312,-0.427734,0.126099,-0.164917,-0.677673,-0.705505,down
37887,3.65625,8.933594,0.308594,-0.234375,0.074219,-0.460937,0.121399,-0.159851,-0.676392,-0.708618,down
37892,3.617188,8.890625,0.347656,-0.234375,0.074219,-0.460937,0.121399,-0.159851,-0.676392,-0.708618,down
37897,3.578125,8.816406,0.347656,-0.234375,0.074219,-0.460937,0.120544,-0.158936,-0.676086,-0.709351,down
37902,3.617188,8.777344,0.5,-0.417969,0.078125,-0.5625,0.120544,-0.158936,-0.676086,-0.709351,down
37907,3.578125,8.738281,0.539062,-0.417969,0.078125,-0.5625,0.11853,-0.156982,-0.675171,-0.710999,down
37913,3.503906,8.667969,0.539062,-0.417969,0.078125,-0.5625,0.116272,-0.154785,-0.67395,-0.712952,down
37919,3.503906,8.628906,0.578125,-0.464844,0.111328,-0.636719,0.115112,-0.153625,-0.67334,-0.713989,down
37924,3.464844,8.734375,0.613281,-0.464844,0.111328,-0.636719,0.114075,-0.152527,-0.672729,-0.714966,down
37930,3.386719,8.734375,0.613281,-0.464844,0.111328,-0.636719,0.112854,-0.151306,-0.672119,-0.716003,down
37936,3.3125,8.777344,0.691406,-0.470703,0.132812,-0.699219,0.112854,-0.151306,-0.672119,-0.716003,down
37941,3.3125,8.855469,0.652344,-0.470703,0.132812,-0.699219,0.110352,-0.148682,-0.670837,-0.71814,down
37947,3.195313,8.894531,0.691406,-0.470703,0.132812,-0.699219,0.109131,-0.1474,-0.670288,-0.719055,down
37953,3.234375,8.816406,0.691406,-0.421875,0.125,-0.777344,0.109131,-0.1474,-0.670288,-0.719055,down
37958,3.195313,8.816406,0.769531,-0.423828,0.117188,-0.798828,0.106506,-0.144531,-0.669189,-0.721069,down
37963,3.15625,8.8125,0.769531,-0.423828,0.117188,-0.798828,0.103638,-0.141663,-0.668152,-0.723022,down
37968,3.117188,8.777344,0.769531,-0.423828,0.117188,-0.798828,0.102173,-0.140137,-0.667664,-0.723999,down
37973,3.042969,8.855469,0.84375,-0.458984,0.078125,-0.876953,0.102173,-0.140137,-0.667664,-0.723999,down
37978,3.042969,8.816406,0.84375,-0.458984,0.078125,-0.876953,0.100464,-0.13855,-0.667053,-0.725037,down
37984,3.042969,8.816406,0.84375,-0.552734,0.066406,-0.953125,0.097168,-0.13562,-0.665894,-0.727173,down
37989,2.890625,8.8125,0.882812,-0.597656,0.054687,-0.996094,0.095032,-0.133789,-0.665039,-0.728577,down
37994,2.890625,8.851563,0.84375,-0.597656,0.054687,-0.996094,0.093079,-0.132141,-0.664246,-0.729858,down
37999,2.8125,8.890625,0.882812,-0.597656,0.054687,-0.996094,0.091187,-0.130615,-0.663452,-0.731079,down
38005,2.734375,8.851563,0.882812,-0.597656,0.054687,-0.996094,0.088867,-0.128784,-0.662415,-0.732605,down
38011,2.734375,8.773438,0.921875,-0.824219,0.025391,-1.197266,0.088867,-0.128784,-0.662415,-0.732605,down
38017,2.660156,8.816406,0.882812,-0.869141,0.044922,-1.248047,0.088867,-0.128784,-0.662415,-0.732605,down
38022,2.621094,8.855469,0.882812,-0.869141,0.044922,-1.248047,0.081482,-0.122986,-0.658875,-0.73761,down
38027,2.621094,8.855469,0.882812,-0.910156,0.046875,-1.345703,0.078857,-0.120911,-0.657654,-0.73938,down
38032,2.582031,8.890625,0.960937,-0.927734,0.042969,-1.386719,0.078857,-0.120911,-0.657654,-0.73938,down
38037,2.46875,9.046875,1.0,-0.935547,0.048828,-1.423828,0.078857,-0.120911,-0.657654,-0.73938,down
38043,2.390625,9.117188,1.074219,-0.949219,0.056641,-1.453125,0.078857,-0.120911,-0.657654,-0.73938,down
38048,2.316406,9.160156,1.035156,-0.923828,0.052734,-1.494141,0.078857,-0.120911,-0.657654,-0.73938,down
38054,2.160156,9.199219,1.152344,-0.923828,0.052734,-1.494141,0.061401,-0.106934,-0.649597,-0.750244,down
38059,2.121094,9.273438,1.226563,-0.923828,0.052734,-1.494141,0.058105,-0.104248,-0.648071,-0.752136,down
38064,2.121094,9.273438,1.226563,-0.923828,0.035156,-1.533203,0.05542,-0.102112,-0.646851,-0.753662,down
38069,1.96875,9.5,1.34375,-0.923828,0.035156,-1.533203,0.052063,-0.099487,-0.645386,-0.755554,down
38075,1.894531,9.65625,1.417969,-0.923828,0.035156,-1.533203,0.049133,-0.097351,-0.644043,-0.757202,down
38082,1.816406,9.8125,1.457031,-1.015625,-0.037109,-1.513672,0.049133,-0.097351,-0.644043,-0.757202,down
38087,1.664063,10.039063,1.496094,-1.050781,-0.060547,-1.503906,0.049133,-0.097351,-0.644043,-0.757202,down
38093,1.585938,10.117188,1.535156,-1.125,-0.130859,-1.474609,0.049133,-0.097351,-0.644043,-0.757202,down
38098,1.546875,10.15625,1.574219,-1.125,-0.130859,-1.474609,0.036194,-0.088501,-0.63739,-0.764587,down
38103,1.546875,10.234375,1.574219,-1.226563,-0.203125,-1.458984,0.036194,-0.088501,-0.63739,-0.764587,down
38108,1.511719,10.273438,1.609375,-1.226563,-0.203125,-1.458984,0.026123,-0.082886,-0.63147,-0.770508,down
38113,1.472656,10.273438,1.648438,-1.226563,-0.203125,-1.458984,0.022339,-0.080994,-0.629089,-0.772827,down
38118,1.433594,10.273438,1.6875,-1.226563,-0.203125,-1.458984,0.022339,-0.080994,-0.629089,-0.772827,down
38123,1.394531,10.308594,1.6875,-1.304688,-0.292969,-1.382813,0.022339,-0.080994,-0.629089,-0.772827,down
38129,1.355469,10.34375,1.765625,-1.304688,-0.292969,-1.382813,0.012451,-0.076355,-0.622498,-0.778748,down
38134,1.28125,10.425781,1.726563,-1.226563,-0.294922,-1.292969,0.00885,-0.074768,-0.620117,-0.780884,down
38140,1.164063,10.460938,1.839844,-1.226563,-0.294922,-1.292969,0.005554,-0.073303,-0.617981,-0.782776,down
38145,1.089844,10.503906,1.839844,-1.226563,-0.294922,-1.292969,0.005554,-0.073303,-0.617981,-0.782776,down
38150,1.050781,10.542969,1.800781,-1.080078,-0.275391,-1.216797,0.000122,0.070801,0.61438,0.785828,down
38155,1.050781,10.542969,1.800781,-1.080078,-0.275391,-1.216797,0.000122,0.070801,0.61438,0.785828,down
38161,0.933594,10.542969,2.03125,-0.892578,-0.230469,-1.085938,0.002869,0.069519,0.612732,0.787231,down
38168,0.898437,10.503906,2.148438,-0.892578,-0.230469,-1.085938,0.002869,0.069519,0.612732,0.787231,down
38174,0.859375,10.460938,2.222656,-0.539062,-0.113281,-0.806641,0.011658,0.064941,0.607971,0.791199,down
38179,0.859375,10.421875,2.300781,-0.539062,-0.113281,-0.806641,0.013062,0.064087,0.607361,0.791687,down
38184,0.820312,10.382813,2.300781,-0.539062,-0.113281,-0.806641,0.014038,0.063354,0.607056,0.791992,down
38189,0.820312,10.347656,2.378906,-0.044922,0.064453,-0.376953,0.014954,0.0625,0.606934,0.792175,down
38195,0.820312,10.273438,2.414063,-0.044922,0.064453,-0.376953,0.015442,0.061829,0.606995,0.792175,down
38201,0.78125,10.277344,2.453125,-0.044922,0.064453,-0.376953,0.015686,0.061279,0.607239,0.791992,down
38207,0.742187,10.238281,2.453125,0.277344,0.177734,-0.089844,0.015686,0.061279,0.607239,0.791992,down
38213,0.707031,10.234375,2.414063,0.439453,0.234375,0.042969,0.015686,0.061279,0.607239,0.791992,down
38218,0.707031,10.199219,2.453125,0.439453,0.234375,0.042969,0.014526,0.059448,0.610046,0.789978,down
38223,0.78125,10.160156,2.414063,0.439453,0.234375,0.042969,0.014526,0.059448,0.610046,0.789978,down
38228,0.78125,10.121094,2.414063,0.546875,0.261719,0.140625,0.014526,0.059448,0.610046,0.789978,down
38234,0.78125,10.082031,2.492188,0.583984,0.273438,0.169922,0.014526,0.059448,0.610046,0.789978,down
38240,0.78125,10.042969,2.492188,0.583984,0.273438,0.169922,0.01123,0.05835,0.614502,0.786682,down
38245,0.78125,10.042969,2.492188,0.572266,0.283203,0.203125,0.010315,0.058105,0.615601,0.785828,down
38250,0.820312,9.925781,2.53125,0.572266,0.283203,0.203125,0.00946,0.057861,0.616638,0.785034,down
38255,0.820312,9.882813,2.492188,0.572266,0.283203,0.203125,0.008606,0.057556,0.617676,0.784302,down
38261,0.820312,9.773438,2.53125,0.572266,0.283203,0.203125,0.007751,0.057312,0.61853,0.78363,down
38266,0.820312,9.734375,2.53125,0.373047,0.261719,0.123047,0.00708,0.057007,0.619324,0.78302,down
38272,0.859375,9.660156,2.53125,0.296875,0.246094,0.09375,0.00708,0.057007,0.619324,0.78302,down
38277,0.820312,9.542969,2.570313,0.296875,0.246094,0.09375,0.00708,0.057007,0.619324,0.78302,down
38282,0.859375,9.472656,2.605469,0.167969,0.214844,0.017578,0.00708,0.057007,0.619324,0.78302,down
38287,0.898437,9.390625,2.605469,0.097656,0.203125,-0.03125,0.00708,0.057007,0.619324,0.78302,down
38293,0.859375,9.234375,2.570313,0.097656,0.203125,-0.03125,0.00708,0.057007,0.619324,0.78302,down
38298,0.898437,9.273438,2.605469,-0.058594,0.148437,-0.173828,0.00708,0.057007,0.619324,0.78302,down
38303,0.820312,9.238281,2.605469,-0.058594,0.148437,-0.173828,0.004822,0.053955,0.621277,0.781738,down
38308,0.859375,9.273438,2.605469,-0.136719,0.117188,-0.265625,0.004822,0.053955,0.621277,0.781738,down
38313,0.820312,9.238281,2.570313,-0.136719,0.117188,-0.265625,0.005249,0.052734,0.620972,0.782043,down
38318,0.78125,9.199219,2.605469,-0.177734,0.097656,-0.316406,0.006287,0.051331,0.620361,0.782654,down
38323,0.78125,9.199219,2.605469,-0.177734,0.097656,-0.316406,0.006287,0.051331,0.620361,0.782654,down
38328,0.742187,9.199219,2.605469,-0.236328,0.056641,-0.398438,0.00769,0.049866,0.619507,0.783325,down
38333,0.707031,9.238281,2.570313,-0.236328,0.056641,-0.398438,0.00769,0.049866,0.619507,0.783325,down
38338,0.667969,9.238281,2.605469,-0.330078,0.011719,-0.515625,0.00769,0.049866,0.619507,0.783325,down
38343,0.667969,9.351563,2.605469,-0.330078,0.011719,-0.515625,0.009583,0.048218,0.618469,0.784302,down
38348,0.628906,9.3125,2.605469,-0.365234,-0.013672,-0.548828,0.009583,0.048218,0.618469,0.784302,down
38353,0.589844,9.394531,2.570313,-0.365234,-0.013672,-0.548828,0.011902,0.046509,0.617126,0.7854,down
38359,0.550781,9.429688,2.570313,-0.445312,-0.044922,-0.619141,0.011902,0.046509,0.617126,0.7854,down
38364,0.515625,9.472656,2.570313,-0.445312,-0.044922,-0.619141,0.015991,0.043884,0.614624,0.787415,down
38369,0.4375,9.503906,2.605469,-0.544922,-0.087891,-0.697266,0.015991,0.043884,0.614624,0.787415,down
38374,0.4375,9.503906,2.570313,-0.572266,-0.099609,-0.720703,0.017761,0.042847,0.613525,0.78833,down
38379,0.359375,9.578125,2.570313,-0.572266,-0.099609,-0.720703,0.020874,0.041016,0.611511,0.789917,down
38384,0.324219,9.578125,2.570313,-0.572266,-0.099609,-0.720703,0.022583,0.040039,0.610413,0.790771,down
38389,0.359375,9.578125,2.570313,-0.644531,-0.126953,-0.792969,0.022583,0.040039,0.610413,0.790771,down
38394,0.324219,9.578125,2.570313,-0.644531,-0.126953,-0.792969,0.026428,0.037964,0.607849,0.792725,down
38399,0.324219,9.578125,2.570313,-0.644531,-0.126953,-0.792969,0.028137,0.036987,0.606689,0.793579,down
38404,0.285156,9.582031,2.570313,-0.677734,-0.140625,-0.835937,0.030151,0.035889,0.605347,0.794556,down
38409,0.285156,9.621094,2.605469,-0.677734,-0.140625,-0.835937,0.032043,0.034912,0.604126,0.795471,down
38414,0.246094,9.621094,2.605469,-0.697266,-0.136719,-0.849609,0.032043,0.034912,0.604126,0.795471,down
38420,0.207031,9.65625,2.644531,-0.697266,-0.136719,-0.849609,0.03595,0.032715,0.601501,0.797424,down
38425,0.207031,9.65625,2.644531,-0.699219,-0.130859,-0.851562,0.037903,0.031677,0.600159,0.79834,down
38430,0.132812,9.578125,2.644531,-0.699219,-0.130859,-0.851562,0.0401,0.030396,0.598633,0.799438,down
38437,0.09375,9.578125,2.644531,-0.699219,-0.130859,-0.851562,0.041748,0.029419,0.597412,0.800293,down
38443,0.054687,9.582031,2.644531,-0.701172,-0.115234,-0.826172,0.041748,0.029419,0.597412,0.800293,down
38449,-0.023437,9.539063,2.644531,-0.691406,-0.105469,-0.826172,0.041748,0.029419,0.597412,0.800293,down
38454,-0.023437,9.539063,2.644531,-0.691406,-0.105469,-0.826172,0.049194,0.025085,0.592102,0.803955,down
38459,-0.058594,9.578125,2.683594,-0.691406,-0.105469,-0.826172,0.051147,0.023865,0.590759,0.804871,down
38465,-0.097656,9.582031,2.644531,-0.603516,-0.074219,-0.779297,0.052734,0.022888,0.5896,0.805603,down
38470,-0.136719,9.660156,2.683594,-0.603516,-0.074219,-0.779297,0.054626,0.021667,0.588379,0.806458,down
38476,-0.214844,9.699219,2.722656,-0.603516,-0.074219,-0.779297,0.056152,0.020691,0.587341,0.807129,down
38482,-0.253906,9.695313,2.683594,-0.539062,-0.050781,-0.742187,0.056152,0.020691,0.587341,0.807129,down
38487,-0.328125,9.699219,2.683594,-0.517578,-0.041016,-0.71875,0.056152,0.020691,0.587341,0.807129,down
38493,-0.367188,9.738281,2.761719,-0.517578,-0.041016,-0.71875,0.056152,0.020691,0.587341,0.807129,down
38499,-0.40625,9.738281,2.796875,-0.488281,-0.013672,-0.681641,0.056152,0.020691,0.587341,0.807129,down
38504,-0.445312,9.734375,2.761719,-0.488281,-0.013672,-0.681641,0.065186,0.014343,0.581299,0.810974,down
38509,-0.445312,9.773438,2.761719,-0.488281,-0.013672,-0.681641,0.065186,0.014343,0.581299,0.810974,down
38514,-0.519531,9.773438,2.835938,-0.46875,0.007813,-0.648437,0.066528,0.013367,0.580383,0.811523,down
38519,-0.519531,9.773438,2.835938,-0.470703,0.025391,-0.628906,0.067871,0.012268,0.579407,0.812134,down
38524,-0.558594,9.699219,2.875,-0.470703,0.025391,-0.628906,0.069092,0.01123,0.578491,0.812683,down
38529,-0.558594,9.65625,2.914063,-0.455078,0.039063,-0.585937,0.071411,0.009155,0.57666,0.813782,down
38534,-0.636719,9.621094,2.914063,-0.443359,0.076172,-0.556641,0.071411,0.009155,0.57666,0.813782,down
38539,-0.597656,9.542969,2.953125,-0.443359,0.076172,-0.556641,0.072571,0.008057,0.575745,0.814392,down
38545,-0.597656,9.542969,2.953125,-0.40625,0.089844,-0.529297,0.074463,0.006042,0.574097,0.815369,down
38551,-0.636719,9.46875,3.027344,-0.388672,0.101563,-0.517578,0.0755,0.004944,0.573242,0.815857,down
38556,-0.636719,9.429688,3.066406,-0.367188,0.119141,-0.5,0.076355,0.003967,0.572571,0.816284,down
38561,-0.671875,9.390625,3.066406,-0.367188,0.119141,-0.5,0.077148,0.00293,0.571838,0.816711,down
38566,-0.671875,9.355469,3.105469,-0.320313,0.136719,-0.464844,0.077942,0.001892,0.571167,0.817078,down
38572,-0.710937,9.351563,3.105469,-0.306641,0.148437,-0.447266,0.077942,0.001892,0.571167,0.817078,down
38577,-0.710937,9.355469,3.144531,-0.275391,0.15625,-0.4375,0.077942,0.001892,0.571167,0.817078,down
38583,-0.75,9.273438,3.144531,-0.275391,0.15625,-0.4375,0.080078,-0.001099,0.569519,0.818115,down
38589,-0.789062,9.277344,3.179688,-0.224609,0.175781,-0.402344,0.080078,-0.001099,0.569519,0.818115,down
38594,-0.828125,9.316406,3.21875,-0.224609,0.175781,-0.402344,0.081299,-0.003113,0.568542,0.818604,down
38599,-0.828125,9.316406,3.21875,-0.224609,0.175781,-0.402344,0.082397,-0.005127,0.567749,0.819092,down
38604,-0.941406,9.351563,3.257813,-0.224609,0.175781,-0.402344,0.082397,-0.005127,0.567749,0.819092,down
38609,-1.019531,9.351563,3.296875,-0.207031,0.201172,-0.371094,0.082397,-0.005127,0.567749,0.819092,down
38614,-1.09375,9.351563,3.296875,-0.207031,0.201172,-0.371094,0.083435,-0.007141,0.566895,0.819519,down
38619,-1.132813,9.355469,3.375,-0.207031,0.201172,-0.371094,0.084351,-0.009094,0.566101,0.819946,down
38624,-1.132813,9.390625,3.410156,-0.207031,0.201172,-0.371094,0.084351,-0.009094,0.566101,0.819946,down
38629,-1.171875,9.351563,3.410156,-0.226562,0.191406,-0.351563,0.084351,-0.009094,0.566101,0.819946,down
38635,-1.210938,9.394531,3.449219,-0.226562,0.191406,-0.351563,0.085693,-0.011902,0.56488,0.820618,down
38640,-1.246094,9.355469,3.527344,-0.238281,0.171875,-0.332031,0.086121,-0.012817,0.564392,0.820923,down
38646,-1.285156,9.273438,3.527344,-0.238281,0.171875,-0.332031,0.086548,-0.013611,0.563965,0.821167,down
38653,-1.363281,9.277344,3.566406,-0.238281,0.171875,-0.332031,0.086975,-0.014526,0.563477,0.821411,down
38658,-1.363281,9.160156,3.679688,-0.238281,0.171875,-0.332031,0.086975,-0.014526,0.563477,0.821411,down
38663,-1.363281,9.195313,3.640625,-0.228516,0.146484,-0.306641,0.086975,-0.014526,0.563477,0.821411,down
38669,-1.402344,9.121094,3.679688,-0.210937,0.126953,-0.296875,0.086975,-0.014526,0.563477,0.821411,down
38674,-1.402344,9.050781,3.679688,-0.183594,0.121094,-0.28125,0.088623,-0.017578,0.561707,0.822388,down
38679,-1.363281,9.046875,3.71875,-0.183594,0.121094,-0.28125,0.089111,-0.018311,0.561279,0.822571,down
38684,-1.402344,9.046875,3.757813,-0.183594,0.121094,-0.28125,0.089478,-0.018982,0.560974,0.822754,down
38689,-1.363281,8.890625,3.71875,-0.15625,0.103516,-0.267578,0.089905,-0.019592,0.560669,0.822937,down
38694,-1.363281,8.894531,3.679688,-0.15625,0.103516,-0.267578,0.090271,-0.020203,0.560364,0.823059,down
38699,-1.363281,8.855469,3.71875,-0.091797,0.083984,-0.246094,0.090271,-0.020203,0.560364,0.823059,down
38704,-1.324219,8.777344,3.757813,-0.091797,0.083984,-0.246094,0.091064,-0.021362,0.559937,0.823242,down
38709,-1.324219,8.734375,3.679688,-0.091797,0.083984,-0.246094,0.091431,-0.021912,0.559753,0.823303,down
38714,-1.324219,8.738281,3.71875,-0.091797,0.083984,-0.246094,0.091858,-0.022522,0.559631,0.823364,down
38720,-1.324219,8.695313,3.71875,-0.048828,0.085937,-0.244141,0.092651,-0.02356,0.559448,0.823364,down
38725,-1.324219,8.699219,3.679688,-0.015625,0.082031,-0.261719,0.093018,-0.024048,0.559387,0.823303,down
38731,-1.285156,8.777344,3.640625,-0.013672,0.082031,-0.269531,0.093506,-0.024658,0.559387,0.823242,down
38736,-1.402344,8.8125,3.679688,-0.013672,0.082031,-0.269531,0.093933,-0.025208,0.559387,0.823181,down
38742,-1.441406,8.929688,3.679688,-0.017578,0.083984,-0.294922,0.093933,-0.025208,0.559387,0.823181,down
38747,-1.476563,8.96875,3.640625,-0.033203,0.070312,-0.3125,0.09491,-0.026306,0.559265,0.82312,down
38753,-1.476563,9.007813,3.679688,-0.046875,0.064453,-0.326172,0.09491,-0.026306,0.559265,0.82312,down
38759,-1.515625,8.972656,3.640625,-0.068359,0.056641,-0.341797,0.09491,-0.026306,0.559265,0.82312,down
38764,-1.515625,8.972656,3.640625,-0.068359,0.056641,-0.341797,0.097412,-0.028809,0.558716,0.82312,down
38769,-1.515625,8.96875,3.601563,-0.068359,0.056641,-0.341797,0.097412,-0.028809,0.558716,0.82312,down
38775,-1.476563,8.96875,3.679688,-0.128906,0.035156,-0.396484,0.098999,-0.030212,0.558105,0.823303,down
38781,-1.554688,8.933594,3.71875,-0.128906,0.035156,-0.396484,0.099731,-0.030823,0.5578,0.823364,down
38786,-1.554688,8.933594,3.71875,-0.199219,0.003906,-0.445312,0.100647,-0.031494,0.557373,0.823547,down
38791,-1.554688,8.890625,3.679688,-0.199219,0.003906,-0.445312,0.101563,-0.032227,0.556946,0.823669,down
38797,-1.59375,8.851563,3.679688,-0.199219,0.003906,-0.445312,0.101563,-0.032227,0.556946,0.823669,down
38802,-1.59375,8.855469,3.71875,-0.251953,-0.019531,-0.492187,0.101563,-0.032227,0.556946,0.823669,down
38808,-1.59375,8.816406,3.757813,-0.25,-0.033203,-0.509766,0.101563,-0.032227,0.556946,0.823669,down
38814,-1.632813,8.773438,3.71875,-0.259766,-0.044922,-0.517578,0.101563,-0.032227,0.556946,0.823669,down
38819,-1.707031,8.699219,3.757813,-0.259766,-0.044922,-0.517578,0.106812,-0.035767,0.554138,0.824768,down
38824,-1.707031,8.628906,3.71875,-0.259766,-0.044922,-0.517578,0.108093,-0.036499,0.553528,0.825012,down
38830,-1.746094,8.546875,3.792969,-0.261719,-0.070312,-0.558594,0.108093,-0.036499,0.553528,0.825012,down
38835,-1.746094,8.472656,3.832031,-0.261719,-0.070312,-0.558594,0.111816,-0.038635,0.551758,0.825562,down
38840,-1.785156,8.472656,3.871094,-0.189453,-0.070312,-0.589844,0.111816,-0.038635,0.551758,0.825562,down
38845,-1.785156,8.429688,3.792969,-0.189453,-0.070312,-0.589844,0.114441,-0.0401,0.550842,0.825745,down
38850,-1.785156,8.472656,3.832031,-0.189453,-0.070312,-0.589844,0.115662,-0.040833,0.550537,0.825745,down
38856,-1.824219,8.46875,3.792969,-0.017578,-0.052734,-0.632812,0.117065,-0.041626,0.550354,0.825623,down
38861,-1.824219,8.433594,3.832031,0.044922,-0.037109,-0.632812,0.118469,-0.042419,0.550293,0.825439,down
38866,-1.898438,8.699219,3.679688,0.044922,-0.037109,-0.632812,0.119751,-0.043152,0.550354,0.825134,down
38872,-1.9375,9.011719,3.792969,0.044922,-0.037109,-0.632812,0.121033,-0.043945,0.550598,0.824768,down
38877,-2.015625,9.195313,3.757813,0.248047,-0.023437,-0.574219,0.121033,-0.043945,0.550598,0.824768,down
38884,-2.089844,9.316406,3.792969,0.291016,-0.019531,-0.527344,0.121033,-0.043945,0.550598,0.824768,down
38889,-2.128906,9.472656,3.71875,0.318359,-0.007813,-0.474609,0.124634,-0.045898,0.552063,0.823181,down
38894,-2.28125,9.542969,3.757813,0.308594,-0.005859,-0.417969,0.12561,-0.046387,0.552612,0.822571,down
38899,-2.28125,9.542969,3.757813,0.308594,-0.005859,-0.417969,0.12561,-0.046387,0.552612,0.822571,down
38904,-2.320313,9.539063,3.792969,0.291016,-0.023437,-0.361328,0.12561,-0.046387,0.552612,0.822571,down
38910,-2.320313,9.121094,3.949219,0.291016,-0.023437,-0.361328,0.12854,-0.047363,0.554565,0.820801,down
38915,-2.320313,9.085938,3.984375,0.189453,-0.150391,-0.185547,0.12854,-0.047363,0.554565,0.820801,down
38920,-2.28125,9.007813,4.0625,0.189453,-0.150391,-0.185547,0.129211,-0.047302,0.554932,0.820435,down
38926,-2.28125,9.007813,4.0625,0.246094,-0.216797,-0.152344,0.130432,-0.046875,0.555603,0.819824,down
38931,-2.28125,8.929688,4.023437,0.314453,-0.25,-0.154297,0.131165,-0.046509,0.556152,0.819336,down
38937,-2.207031,8.8125,4.023437,0.314453,-0.25,-0.154297,0.131836,-0.046082,0.556702,0.818909,down
38943,-2.167969,8.695313,3.984375,0.314453,-0.25,-0.154297,0.13269,-0.045532,0.557617,0.818176,down
38949,-2.167969,8.894531,3.949219,0.625,-0.330078,-0.185547,0.13269,-0.045532,0.557617,0.818176,down
38955,-2.128906,9.089844,3.910156,0.75,-0.359375,-0.195312,0.135437,-0.043579,0.561279,0.815308,down
38960,-2.167969,9.390625,3.757813,0.75,-0.359375,-0.195312,0.136475,-0.042786,0.562866,0.814087,down
38965,-2.167969,9.582031,3.640625,0.75,-0.359375,-0.195312,0.137573,-0.041931,0.564575,0.812744,down
38970,-2.167969,9.8125,3.566406,0.75,-0.359375,-0.195312,0.137573,-0.041931,0.564575,0.812744,down
38975,-2.167969,9.960938,3.527344,0.886719,-0.441406,-0.220703,0.139893,-0.040161,0.567871,0.810181,down
38980,-2.320313,10.121094,3.449219,0.886719,-0.441406,-0.220703,0.141174,-0.039124,0.569397,0.808899,down
38985,-2.320313,10.15625,3.410156,0.886719,-0.441406,-0.220703,0.142151,-0.03833,0.570496,0.807983,down
38990,-2.359375,10.160156,3.375,0.496094,-0.484375,-0.175781,0.142151,-0.03833,0.570496,0.807983,down
38995,-2.433594,10.042969,3.375,0.496094,-0.484375,-0.175781,0.143311,-0.037292,0.571533,0.807129,down
39000,-2.433594,9.851563,3.335938,0.496094,-0.484375,-0.175781,0.145508,-0.035583,0.57251,0.806091,down
39005,-2.433594,9.738281,3.335938,0.496094,-0.484375,-0.175781,0.146545,-0.034912,0.572632,0.805847,down
39010,-2.359375,9.539063,3.449219,-0.03125,-0.513672,-0.238281,0.146545,-0.034912,0.572632,0.805847,down
39015,-2.359375,9.539063,3.449219,-0.03125,-0.513672,-0.238281,0.148987,-0.033569,0.572144,0.805786,down
39020,-2.398438,9.277344,3.335938,-0.136719,-0.486328,-0.314453,0.148987,-0.033569,0.572144,0.805786,down
39025,-2.320313,9.234375,3.335938,-0.136719,-0.486328,-0.314453,0.151672,-0.032593,0.571228,0.80603,down
39030,-2.167969,9.121094,3.449219,-0.136719,-0.486328,-0.314453,0.151672,-0.032593,0.571228,0.80603,down
39035,-2.128906,9.046875,3.488281,-0.070312,-0.496094,-0.402344,0.154846,-0.031738,0.570435,0.805969,down
39040,-2.128906,8.933594,3.449219,-0.070312,-0.496094,-0.402344,0.154846,-0.031738,0.570435,0.805969,down
39045,-2.167969,8.777344,3.449219,0.125,-0.474609,-0.544922,0.154846,-0.031738,0.570435,0.805969,down
39050,-2.050781,8.8125,3.601563,0.125,-0.474609,-0.544922,0.159851,-0.030945,0.570374,0.805115,down
39055,-2.050781,8.773438,3.640625,0.246094,-0.488281,-0.652344,0.159851,-0.030945,0.570374,0.805115,down
39060,-2.089844,8.8125,3.640625,0.246094,-0.488281,-0.652344,0.162048,-0.030762,0.570557,0.804504,down
39065,-2.167969,8.894531,3.640625,0.308594,-0.490234,-0.744141,0.162048,-0.030762,0.570557,0.804504,down
39071,-2.167969,9.199219,3.601563,0.308594,-0.490234,-0.744141,0.168335,-0.030518,0.571533,0.802551,down
39076,-2.28125,9.394531,3.527344,0.285156,-0.488281,-0.798828,0.170837,-0.030518,0.571899,0.801758,down
39082,-2.359375,9.539063,3.566406,0.285156,-0.488281,-0.798828,0.173218,-0.030579,0.572144,0.801086,down
39087,-2.511719,9.777344,3.640625,0.285156,-0.488281,-0.798828,0.175415,-0.030579,0.572266,0.800537,down
39092,-2.628906,9.8125,3.640625,0.070312,-0.574219,-0.794922,0.175415,-0.030579,0.572266,0.800537,down
39097,-2.703125,9.816406,3.640625,-0.048828,-0.595703,-0.777344,0.175415,-0.030579,0.572266,0.800537,down
39103,-2.78125,9.695313,3.488281,-0.173828,-0.603516,-0.773437,0.175415,-0.030579,0.572266,0.800537,down
39109,-2.820313,9.578125,3.410156,-0.298828,-0.607422,-0.765625,0.175415,-0.030579,0.572266,0.800537,down
39115,-2.78125,9.542969,3.410156,-0.400391,-0.611328,-0.759766,0.175415,-0.030579,0.572266,0.800537,down
39120,-2.820313,9.5,3.375,-0.466797,-0.625,-0.765625,0.192078,-0.03064,0.567017,0.800415,down
39125,-2.820313,9.277344,3.449219,-0.466797,-0.625,-0.765625,0.192078,-0.03064,0.567017,0.800415,down
39130,-2.78125,9.277344,3.488281,-0.539062,-0.636719,-0.824219,0.19458,-0.030701,0.565552,0.800842,down
39135,-2.742188,9.121094,3.601563,-0.539062,-0.636719,-0.824219,0.197144,-0.030823,0.564087,0.80127,down
39141,-2.742188,9.316406,3.566406,-0.539062,-0.636719,-0.824219,0.202087,-0.031311,0.56134,0.801941,down
39146,-2.78125,9.390625,3.640625,-0.539062,-0.636719,-0.824219,0.202087,-0.031311,0.56134,0.801941,down
39151,-2.78125,9.390625,3.640625,-0.40625,-0.5625,-0.873047,0.204529,-0.031616,0.56012,0.802124,down
39156,-2.78125,9.429688,3.679688,-0.34375,-0.568359,-0.876953,0.204529,-0.031616,0.56012,0.802124,down
39161,-2.972656,9.660156,3.566406,-0.287109,-0.546875,-0.878906,0.204529,-0.031616,0.56012,0.802124,down
39166,-3.046875,9.699219,3.527344,-0.287109,-0.546875,-0.878906,0.214417,-0.032715,0.556274,0.802185,down
39171,-3.125,9.660156,3.488281,-0.287109,-0.546875,-0.878906,0.217163,-0.03302,0.555237,0.802185,down
39176,-3.125,9.699219,3.566406,-0.287109,-0.546875,-0.878906,0.219421,-0.033325,0.554321,0.802185,down
39182,-3.164063,9.695313,3.601563,-0.287109,-0.546875,-0.878906,0.221924,-0.03363,0.553223,0.802185,down
39187,-3.203125,9.695313,3.601563,-0.404297,-0.472656,-0.828125,0.22406,-0.033997,0.552246,0.802307,down
39192,-3.238281,9.699219,3.640625,-0.404297,-0.472656,-0.828125,0.226196,-0.034424,0.551086,0.80249,down
39198,-3.316406,9.542969,3.566406,-0.404297,-0.472656,-0.828125,0.228394,-0.034973,0.549744,0.802734,down
39204,-3.277344,9.472656,3.566406,-0.589844,-0.386719,-0.849609,0.228394,-0.034973,0.549744,0.802734,down
39209,-3.277344,9.433594,3.601563,-0.636719,-0.357422,-0.859375,0.228394,-0.034973,0.549744,0.802734,down
39215,-3.277344,9.394531,3.792969,-0.648437,-0.332031,-0.884766,0.228394,-0.034973,0.549744,0.802734,down
39220,-3.277344,9.3125,3.757813,-0.652344,-0.285156,-0.900391,0.228394,-0.034973,0.549744,0.802734,down
39225,-3.394531,9.160156,3.71875,-0.630859,-0.193359,-0.916016,0.228394,-0.034973,0.549744,0.802734,down
39230,-3.429688,8.734375,3.757813,-0.630859,-0.193359,-0.916016,0.241272,-0.040527,0.540588,0.804932,down
39235,-3.394531,8.46875,3.832031,-0.630859,-0.193359,-0.916016,0.243347,-0.041809,0.539124,0.805176,down
39241,-3.394531,8.28125,3.910156,-0.386719,-0.128906,-0.921875,0.243347,-0.041809,0.539124,0.805176,down
39246,-3.355469,8.164063,3.984375,-0.386719,-0.128906,-0.921875,0.249512,-0.045593,0.535889,0.805298,down
39251,-3.316406,8.085938,3.984375,-0.386719,-0.128906,-0.921875,0.251282,-0.046631,0.535461,0.804932,down
39256,-3.394531,8.207031,3.949219,0.148437,-0.007813,-0.869141,0.253235,-0.047791,0.535461,0.80426,down
39261,-3.429688,8.355469,3.871094,0.148437,-0.007813,-0.869141,0.254944,-0.048828,0.535889,0.803345,down
39266,-3.429688,8.511719,3.71875,0.564453,0.132812,-0.755859,0.256348,-0.049744,0.536743,0.802307,down
39272,-3.816406,9.355469,3.21875,0.564453,0.132812,-0.755859,0.257629,-0.050598,0.538086,0.800964,down
39277,-3.851563,9.621094,3.027344,0.990234,0.279297,-0.546875,0.257629,-0.050598,0.538086,0.800964,down
39283,-3.929688,9.855469,2.914063,1.148438,0.330078,-0.425781,0.257629,-0.050598,0.538086,0.800964,down
39290,-4.160156,10.042969,2.683594,1.148438,0.330078,-0.425781,0.257629,-0.050598,0.538086,0.800964,down
39295,-4.199219,10.15625,2.644531,1.310547,0.525391,-0.064453,0.257629,-0.050598,0.538086,0.800964,down
39300,-4.234375,10.082031,2.605469,1.310547,0.525391,-0.064453,0.25946,-0.052979,0.550537,0.791687,down
39306,-4.351562,10.078125,2.605469,1.310547,0.525391,-0.064453,0.25885,-0.053284,0.553772,0.789612,down
39311,-4.425781,10.042969,2.605469,1.216797,0.662109,0.091797,0.257019,-0.054077,0.559143,0.786377,down
39316,-4.464844,9.964844,2.683594,1.099609,0.896484,0.15625,0.255615,-0.05481,0.562256,0.784546,down
39321,-4.695312,10.691406,2.148438,1.099609,0.896484,0.15625,0.255615,-0.05481,0.562256,0.784546,down
39326,-4.734375,10.65625,1.992188,1.099609,0.896484,0.15625,0.252563,-0.056641,0.567383,0.781738,down
39332,-4.773437,11.148438,2.605469,1.099609,0.896484,0.15625,0.25116,-0.057312,0.569458,0.78064,down
39337,-4.8125,11.304688,2.683594,1.099609,0.896484,0.15625,0.249329,-0.057922,0.571899,0.779358,down
39342,-4.847656,11.308594,2.761719,1.099609,0.896484,0.15625,0.249329,-0.057922,0.571899,0.779358,down
39348,-4.847656,11.1875,2.722656,1.099609,0.896484,0.15625,0.245483,-0.058716,0.575806,0.777649,down
39353,-4.847656,11.1875,2.722656,0.595703,0.732422,0.705078,0.243408,-0.058838,0.577454,0.7771,down
39359,-4.886719,10.921875,2.644531,0.595703,0.732422,0.705078,0.241028,-0.058777,0.579041,0.776611,down
39364,-4.773437,10.582031,2.722656,0.595703,0.732422,0.705078,0.238403,-0.058411,0.580566,0.776367,down
39369,-4.617187,10.238281,2.722656,0.595703,0.732422,0.705078,0.235779,-0.057861,0.581909,0.776184,down
39374,-4.503906,10.160156,2.683594,0.449219,0.515625,1.105469,0.235779,-0.057861,0.581909,0.776184,down
39380,-4.273437,9.925781,2.683594,0.439453,0.492187,1.257813,0.235779,-0.057861,0.581909,0.776184,down
39385,-4.160156,9.886719,2.644531,0.439453,0.492187,1.257813,0.227051,-0.055054,0.585937,0.77594,down
39391,-4.042969,9.886719,2.644531,0.453125,0.501953,1.337891,0.22052,-0.052551,0.588623,0.776001,down
39396,-3.96875,9.960938,2.605469,0.453125,0.501953,1.337891,0.216858,-0.051147,0.590027,0.776001,down
39401,-3.890625,10.082031,2.570313,0.513672,0.568359,1.597656,0.216858,-0.051147,0.590027,0.776001,down
39406,-3.851563,10.160156,2.53125,0.513672,0.568359,1.597656,0.209106,-0.048096,0.593079,0.776062,down
39411,-3.585938,10.304688,2.453125,0.513672,0.568359,1.597656,0.20459,-0.046265,0.594788,0.776001,down
39416,-3.546875,10.425781,2.453125,0.513672,0.568359,1.597656,0.20459,-0.046265,0.594788,0.776001,down
39421,-3.507813,10.425781,2.339844,0.59375,0.691406,2.070313,0.20459,-0.046265,0.594788,0.776001,down
39426,-3.46875,10.386719,2.300781,0.59375,0.691406,2.070313,0.195312,-0.042419,0.598206,0.776001,down
39431,-3.085938,10.277344,2.148438,0.568359,0.720703,2.341797,0.190002,-0.040161,0.599976,0.776062,down
39436,-3.085938,10.277344,2.148438,0.568359,0.720703,2.341797,0.179321,-0.035645,0.60321,0.776367,down
39441,-2.820313,9.964844,2.261719,0.568359,0.720703,2.341797,0.179321,-0.035645,0.60321,0.776367,down
39446,-2.589844,9.8125,2.261719,0.443359,0.847656,2.787109,0.179321,-0.035645,0.60321,0.776367,down
39451,-2.359375,9.734375,2.1875,0.443359,0.847656,2.787109,0.159851,-0.027466,0.607666,0.777466,down
39456,-2.28125,9.699219,2.261719,0.460937,0.896484,3.101563,0.159851,-0.027466,0.607666,0.777466,down
39461,-2.089844,9.503906,2.378906,0.509766,0.896484,3.283203,0.1521,-0.02417,0.609192,0.777893,down
39466,-1.9375,9.429688,2.492188,0.509766,0.896484,3.283203,0.136963,-0.017456,0.612183,0.778564,down
39471,-1.667969,9.160156,2.570313,0.509766,0.896484,3.283203,0.136963,-0.017456,0.612183,0.778564,down
39476,-1.667969,9.160156,2.570313,0.636719,0.927734,3.650391,0.128723,-0.013611,0.61377,0.778809,down
39481,-1.59375,8.929688,2.53125,0.636719,0.927734,3.650391,0.120117,-0.009521,0.615479,0.77887,down
39486,-1.441406,8.773438,2.605469,0.904297,0.908203,4.033203,0.120117,-0.009521,0.615479,0.77887,down
39491,-1.09375,8.511719,2.53125,1.0625,0.894531,4.212891,0.091858,0.005188,0.62207,0.777527,down
39496,-1.054688,8.507813,2.53125,1.0625,0.894531,4.212891,0.091858,0.005188,0.62207,0.777527,down
39501,-0.863281,8.394531,2.378906,1.412109,0.882812,4.597656,0.091858,0.005188,0.62207,0.777527,down
39506,-0.789062,8.3125,2.339844,1.412109,0.882812,4.597656,0.06012,0.02301,0.630798,0.773254,down
39511,-0.75,8.316406,2.148438,1.412109,0.882812,4.597656,0.048706,0.02948,0.633972,0.77124,down
39516,-0.828125,8.246094,1.992188,1.412109,0.882812,4.597656,0.048706,0.02948,0.633972,0.77124,down
39521,-0.75,8.046875,1.800781,2.0,1.128906,5.623047,0.048706,0.02948,0.633972,0.77124,down
39526,-0.519531,7.4375,1.535156,2.0,1.128906,5.623047,0.023804,0.043274,0.640686,0.766235,down
39531,-0.519531,7.4375,1.535156,2.0,1.128906,5.623047,0.010437,0.050537,0.644043,0.763245,down
39536,-0.40625,7.167969,1.382813,2.033203,1.248047,5.900391,0.010437,0.050537,0.644043,0.763245,down
39541,-0.40625,7.167969,1.382813,2.050781,1.333984,5.958984,0.016296,-0.064636,-0.650085,-0.756958,down
39546,0.4375,5.671875,0.921875,2.050781,1.333984,5.958984,0.03009,-0.071533,-0.652893,-0.753418,down
39552,0.628906,5.445312,0.804687,2.302734,1.617188,6.025391,0.06012,-0.085266,-0.659119,-0.744751,down
39557,1.128906,5.136719,0.804687,2.302734,1.617188,6.025391,0.074829,-0.091248,-0.66217,-0.73999,down
39563,1.394531,5.066406,0.804687,2.302734,1.617188,6.025391,0.091492,-0.097412,-0.665649,-0.734192,down
39568,1.546875,4.984375,0.769531,2.982422,2.388672,6.003906,0.105713,-0.102112,-0.668579,-0.728943,down
39573,1.664063,5.023437,0.804687,3.21875,2.632813,5.976562,0.120239,-0.106323,-0.671692,-0.723206,down
39578,1.894531,5.023437,1.191406,3.21875,2.632813,5.976562,0.136902,-0.110474,-0.675415,-0.716125,down
39583,1.96875,4.683594,1.417969,3.986328,2.992188,5.826172,0.136902,-0.110474,-0.675415,-0.716125,down
39588,1.96875,4.683594,1.417969,4.384766,3.111328,5.708984,0.169495,-0.116638,-0.683777,-0.700073,down
39593,2.277344,4.179687,2.109375,4.736328,3.222656,5.548828,0.186462,-0.118835,-0.688782,-0.69043,down
39598,2.277344,4.179687,2.109375,4.736328,3.222656,5.548828,0.186462,-0.118835,-0.688782,-0.69043,down
39603,2.429688,4.0625,2.109375,5.291016,3.435547,5.253906,0.219666,-0.121155,-0.699341,-0.669312,down
39609,2.316406,4.21875,1.992188,5.291016,3.435547,5.253906,0.219666,-0.121155,-0.699341,-0.669312,down
39615,2.199219,3.914063,2.644531,5.291016,3.435547,5.253906,0.219666,-0.121155,-0.699341,-0.669312,down
39621,2.316406,3.835938,2.835938,5.787109,3.154297,4.603516,0.219666,-0.121155,-0.699341,-0.669312,down
39627,2.277344,3.875,3.066406,5.787109,3.154297,4.603516,0.295898,-0.119873,-0.726562,-0.608459,down
39632,2.160156,3.757813,3.066406,5.630859,3.027344,4.208984,0.310059,-0.118774,-0.731628,-0.595398,down
39638,2.085938,3.300781,3.761719,5.630859,3.027344,4.208984,0.324341,-0.117554,-0.736755,-0.581482,down
39643,2.007813,3.375,4.066406,5.287109,2.507813,3.832031,0.334961,-0.116699,-0.740723,-0.570557,down
39648,1.96875,3.375,4.367187,5.287109,2.507813,3.832031,0.334961,-0.116699,-0.740723,-0.570557,down
39653,1.96875,3.375,4.367187,5.072266,2.269531,3.646484,0.346497,-0.115845,-0.744995,-0.558105,down
39658,1.816406,3.414063,4.597656,5.072266,2.269531,3.646484,0.356689,-0.115173,-0.748962,-0.546448,down
39664,1.394531,2.378906,5.214844,4.644531,1.685547,3.199219,0.374329,-0.114258,-0.756531,-0.523926,down
39669,0.859375,1.5,5.359375,4.644531,1.685547,3.199219,0.381348,-0.114075,-0.76001,-0.513733,down
39674,0.398438,0.964844,5.25,3.787109,0.638672,2.373047,0.381348,-0.114075,-0.76001,-0.513733,down
39679,0.09375,0.773437,5.09375,3.529297,0.212891,2.005859,0.381348,-0.114075,-0.76001,-0.513733,down
39684,0.054687,0.542969,5.210937,3.265625,-0.267578,1.576172,0.381348,-0.114075,-0.76001,-0.513733,down
39689,0.015625,0.542969,5.132812,3.265625,-0.267578,1.576172,0.396606,-0.11438,-0.774658,-0.479065,down
39694,-0.214844,0.351563,5.019531,2.785156,-1.191406,0.564453,0.396606,-0.11438,-0.774658,-0.479065,down
39700,-0.214844,0.351563,5.019531,2.544922,-1.697266,-0.070312,0.394836,-0.113831,-0.783386,-0.466309,down
39705,-0.367188,1.269531,4.40625,2.544922,-1.697266,-0.070312,0.391052,-0.112915,-0.788391,-0.461304,down
39711,-0.40625,3.492188,3.5625,2.544922,-1.697266,-0.070312,0.391052,-0.112915,-0.788391,-0.461304,down
39717,-0.519531,4.371094,3.257813,1.783203,-3.691406,-2.359375,0.366211,-0.107178,-0.805969,-0.452637,down
39722,-1.632813,7.097656,2.492188,1.783203,-3.691406,-2.359375,0.352295,-0.104492,-0.812561,-0.452454,down
39727,-2.167969,8.933594,1.839844,1.783203,-3.691406,-2.359375,0.352295,-0.104492,-0.812561,-0.452454,down
39732,-2.550781,10.621094,0.921875,-0.021484,-6.523437,-5.109375,0.312073,-0.098145,-0.826416,-0.458313,down
39737,-3.238281,13.949219,-1.722656,-0.021484,-6.523437,-5.109375,0.286865,-0.094849,-0.832153,-0.465027,down
39742,-3.699219,15.292969,-3.367188,-0.021484,-6.523437,-5.109375,0.260681,-0.091919,-0.835999,-0.473999,down
39747,-3.890625,16.785156,-5.015625,-5.619141,-10.421875,-9.255859,0.226807,-0.088379,-0.83844,-0.48761,down
39752,-3.890625,16.785156,-5.015625,-5.619141,-10.421875,-9.255859,0.226807,-0.088379,-0.83844,-0.48761,down
39757,-3.316406,18.507812,-8.464844,-7.246094,-11.181641,-10.345703,0.192383,-0.084778,-0.838257,-0.503113,down
39762,-3.316406,18.507812,-8.464844,-9.199219,-12.044922,-11.417969,0.152954,-0.080505,-0.835022,-0.5224,down
39767,-2.28125,20.308594,-9.691406,-9.199219,-12.044922,-11.417969,0.061951,-0.068542,-0.815796,-0.570923,down
39772,-1.707031,21.148437,-9.421875,-9.199219,-12.044922,-11.417969,0.011597,-0.059143,-0.798767,-0.598572,down
39778,-3.890625,19.5,-8.65625,-9.199219,-12.044922,-11.417969,0.038452,0.04718,0.777893,0.625427,down
39783,-5.730469,19.3125,-7.851562,-15.964844,-12.138672,-17.066406,0.089417,0.032593,0.752869,0.651245,down
39789,-7.453125,19.65625,-6.546875,-16.101562,-12.064453,-17.613281,0.089417,0.032593,0.752869,0.651245,down
39794,-12.855469,19.808594,-3.40625,-16.101562,-12.064453,-17.613281,0.19397,-0.001587,0.691406,0.695984,down
39800,-14.769531,20.078125,-2.949219,-15.173828,-11.503906,-17.644531,0.19397,-0.001587,0.691406,0.695984,down
39805,-16.378906,20.921875,-2.910156,-14.330078,-11.037109,-17.144531,0.19397,-0.001587,0.691406,0.695984,down
39810,-18.640625,21.347656,-2.71875,-13.429688,-10.771484,-16.322266,0.19397,-0.001587,0.691406,0.695984,down
39815,-18.945312,22.917969,-1.148438,-13.429688,-10.771484,-16.322266,0.19397,-0.001587,0.691406,0.695984,down
39821,-16.878906,21.570312,0.308594,-13.429688,-10.771484,-16.322266,0.420532,-0.078735,0.515503,0.742493,down
39827,-14.347656,20.804687,1.726563,-8.816406,-10.441406,-12.757813,0.489197,-0.09137,0.453796,0.739197,down
39832,-12.625,19.199219,3.488281,-4.548828,-7.90625,-9.244141,0.515991,-0.093567,0.430481,0.73468,down
39837,-9.980469,16.703125,2.570313,-2.898438,-6.474609,-7.386719,0.515991,-0.093567,0.430481,0.73468,down
39842,-7.222656,11.496094,3.601563,-2.898438,-6.474609,-7.386719,0.556702,-0.09259,0.397278,0.723633,down
39847,-6.226562,10.617188,6.054687,-2.898438,-6.474609,-7.386719,0.568237,-0.0896,0.389404,0.71936,down
39852,-3.816406,7.246094,8.621094,-2.898438,-6.474609,-7.386719,0.576843,-0.086243,0.385925,0.714722,down
39857,-3.660156,5.597656,7.429687,-2.898438,-6.474609,-7.386719,0.576843,-0.086243,0.385925,0.714722,down
39862,-4.773437,5.558594,5.519531,2.144531,0.642578,-0.652344,0.579468,-0.083252,0.394104,0.708496,down
39867,-4.964844,6.859375,3.449219,3.601563,2.769531,1.144531,0.579468,-0.083252,0.394104,0.708496,down
39872,-3.699219,6.402344,3.949219,3.601563,2.769531,1.144531,0.576416,-0.08197,0.403381,0.705872,down
39877,-3.316406,6.785156,4.175781,3.601563,2.769531,1.144531,0.565002,-0.078491,0.429993,0.699829,down
39883,-6.417969,10.34375,3.601563,3.601563,2.769531,1.144531,0.557556,-0.077148,0.444824,0.696655,down
39888,-7.644531,11.6875,4.175781,3.601563,2.769531,1.144531,0.549194,-0.076721,0.458984,0.694092,down
39893,-8.757813,12.53125,4.484375,3.701172,4.900391,2.664063,0.539856,-0.076965,0.472717,0.6922,down
39899,-10.019531,13.335938,4.101562,4.28125,4.652344,2.490234,0.530579,-0.076782,0.486389,0.689941,down
39905,-10.75,14.027344,3.375,4.28125,4.652344,2.490234,0.530579,-0.076782,0.486389,0.689941,down
39911,-10.75,13.757813,3.792969,5.433594,2.884766,1.595703,0.530579,-0.076782,0.486389,0.689941,down
39917,-10.402344,13.222656,4.175781,5.154297,1.861328,1.228516,0.508057,-0.062256,0.537048,0.670471,down
39922,-8.984375,11.421875,4.980469,5.154297,1.861328,1.228516,0.506287,-0.057556,0.544312,0.666382,down
39928,-8.21875,10.460938,5.171875,5.154297,1.861328,1.228516,0.50531,-0.053467,0.549011,0.663574,down
39933,-7.53125,9.539063,5.289062,0.607422,-0.392578,0.458984,0.504944,-0.050476,0.551086,0.662415,down
39938,-6.496094,7.664062,4.597656,0.607422,-0.392578,0.458984,0.504944,-0.049194,0.550415,0.663025,down
39944,-5.578125,6.015625,3.832031,0.607422,-0.392578,0.458984,0.505371,-0.049194,0.547607,0.6651,down
39949,-5.578125,6.015625,3.832031,-2.732422,-1.183594,0.203125,0.506165,-0.050171,0.541992,0.668945,down
39955,-4.121094,4.527344,4.710937,-2.732422,-1.183594,0.203125,0.506165,-0.050171,0.541992,0.668945,down
39961,-3.816406,4.027344,4.910156,-4.291016,-1.441406,0.226562,0.506165,-0.050171,0.541992,0.668945,down
39966,-3.546875,3.683594,4.910156,-4.566406,-1.285156,0.21875,0.506165,-0.050171,0.541992,0.668945,down
39972,-3.394531,3.375,4.75,-4.539062,-1.072266,0.191406,0.509583,-0.064209,0.5,0.697266,down
39977,-3.125,2.761719,4.5625,-4.539062,-1.072266,0.191406,0.509583,-0.064209,0.5,0.697266,down
39982,-2.972656,2.609375,4.253906,-2.494141,-0.439453,0.162109,0.509583,-0.068054,0.491516,0.702942,down
39987,-2.972656,2.535156,4.105469,-2.494141,-0.439453,0.162109,0.50946,-0.070801,0.485596,0.706848,down
39993,-3.011719,2.761719,3.984375,-2.494141,-0.439453,0.162109,0.509094,-0.072632,0.480286,0.710571,down
39998,-3.046875,3.03125,4.101562,0.583984,-0.140625,0.230469,0.508972,-0.071838,0.480408,0.710632,down
40004,-3.046875,3.53125,4.445312,0.583984,-0.140625,0.230469,0.508789,-0.070496,0.48175,0.709961,down
40009,-3.238281,3.835938,4.367187,1.642578,0.205078,0.298828,0.508423,-0.068604,0.484436,0.708618,down
40015,-3.660156,4.296875,3.910156,1.642578,0.205078,0.298828,0.508423,-0.068604,0.484436,0.708618,down
40021,-3.890625,4.644531,3.832031,2.154297,0.548828,0.363281,0.508423,-0.068604,0.484436,0.708618,down
40027,-4.121094,5.25,3.871094,2.181641,0.626953,0.388672,0.508423,-0.068604,0.484436,0.708618,down
40032,-4.273437,5.558594,3.984375,2.046875,0.689453,0.416016,0.503113,-0.058472,0.50647,0.697815,down
40037,-4.3125,5.789062,4.101562,2.046875,0.689453,0.416016,0.503113,-0.058472,0.50647,0.697815,down
40042,-4.503906,6.058594,4.101562,1.433594,0.9375,0.488281,0.499573,-0.056946,0.513794,0.695129,down
40047,-4.8125,6.363281,3.871094,1.433594,0.9375,0.488281,0.499573,-0.056946,0.513794,0.695129,down
40052,-5.003906,6.402344,3.832031,0.796875,1.195313,0.568359,0.494629,-0.057678,0.519958,0.694031,down
40057,-5.230469,6.402344,3.792969,0.796875,1.195313,0.568359,0.494629,-0.057678,0.519958,0.694031,down
40062,-5.460937,6.480469,3.832031,0.511719,1.287109,0.623047,0.489441,-0.059204,0.525085,0.693726,down
40067,-5.882812,6.824219,3.910156,0.511719,1.287109,0.623047,0.489441,-0.059204,0.525085,0.693726,down
40072,-6.152344,6.9375,3.949219,0.744141,1.238281,0.572266,0.486816,-0.059998,0.527649,0.693542,down
40078,-6.382812,7.128906,3.984375,0.917969,1.142578,0.511719,0.48407,-0.060608,0.53064,0.693176,down
40083,-6.878906,7.546875,4.023437,0.917969,1.142578,0.511719,0.479553,-0.061096,0.536743,0.691589,down
40089,-7.03125,7.785156,4.101562,0.917969,1.142578,0.511719,0.477661,-0.060913,0.539856,0.690369,down
40094,-7.109375,7.96875,4.175781,1.140625,0.78125,0.308594,0.477661,-0.060913,0.539856,0.690369,down
40100,-7.261719,7.972656,4.023437,1.048828,0.666016,0.242187,0.477661,-0.060913,0.539856,0.690369,down
40106,-7.1875,7.929687,4.140625,0.875,0.505859,0.185547,0.477661,-0.060913,0.539856,0.690369,down
40111,-7.148437,7.96875,4.140625,0.619141,0.34375,0.130859,0.477661,-0.060913,0.539856,0.690369,down
40116,-7.1875,7.972656,4.175781,0.375,0.212891,0.087891,0.477661,-0.060913,0.539856,0.690369,down
40121,-7.1875,7.972656,4.175781,0.080078,0.111328,0.025391,0.472229,-0.059143,0.551941,0.684753,down
40127,-6.917969,7.707031,4.140625,-0.445312,-0.058594,-0.056641,0.472229,-0.059143,0.551941,0.684753,down
40132,-6.839844,7.585937,4.0625,-0.445312,-0.058594,-0.056641,0.472168,-0.059814,0.551392,0.685181,down
40137,-6.6875,7.476562,3.984375,-0.601562,-0.132812,-0.085937,0.472168,-0.059814,0.551392,0.685181,down
40142,-6.535156,7.402344,4.023437,-0.601562,-0.132812,-0.085937,0.472595,-0.060974,0.549133,0.686584,down
40147,-6.457031,7.363281,3.984375,-0.601562,-0.132812,-0.085937,0.473022,-0.061768,0.547424,0.687561,down
40153,-6.265625,7.285156,3.871094,-0.751953,-0.257813,-0.134766,0.473022,-0.061768,0.547424,0.687561,down
40158,-6.226562,7.203125,3.871094,-0.751953,-0.257813,-0.134766,0.474426,-0.063538,0.542908,0.690002,down
40163,-6.074219,7.167969,3.871094,-0.400391,-0.240234,-0.130859,0.474426,-0.063538,0.542908,0.690002,down
40168,-6.0,7.097656,3.757813,-0.400391,-0.240234,-0.130859,0.475342,-0.064087,0.541016,0.690796,down
40173,-5.921875,7.097656,3.679688,-0.400391,-0.240234,-0.130859,0.475769,-0.064026,0.540588,0.690857,down
40178,-5.804687,7.019531,3.757813,-0.400391,-0.240234,-0.130859,0.476257,-0.063843,0.540283,0.690796,down
40183,-5.730469,7.058594,3.792969,0.082031,-0.136719,-0.044922,0.476257,-0.063843,0.540283,0.690796,down
40188,-5.652344,7.054687,3.792969,0.082031,-0.136719,-0.044922,0.476746,-0.063416,0.540283,0.690491,down
40193,-5.652344,7.054687,3.792969,0.082031,-0.136719,-0.044922,0.476807,-0.063232,0.540466,0.690369,down
40199,-5.652344,6.898437,3.757813,0.082031,-0.136719,-0.044922,0.476746,-0.063049,0.54071,0.690247,down
40204,-5.691406,6.820312,3.71875,0.076172,0.085937,0.107422,0.476746,-0.063049,0.54071,0.690247,down
40210,-5.730469,6.820312,3.71875,0.064453,0.123047,0.136719,0.476135,-0.062927,0.54126,0.690186,down
40215,-5.691406,6.820312,3.832031,0.064453,0.123047,0.136719,0.476135,-0.062927,0.54126,0.690186,down
40220,-5.691406,6.902344,3.792969,0.080078,0.208984,0.15625,0.476135,-0.062927,0.54126,0.690186,down
40225,-5.691406,6.902344,3.871094,0.117188,0.261719,0.169922,0.476135,-0.062927,0.54126,0.690186,down
40230,-5.691406,6.976562,3.792969,0.117188,0.261719,0.169922,0.473938,-0.063171,0.543213,0.690125,down
40236,-5.652344,6.980469,3.832031,0.208984,0.335938,0.191406,0.473938,-0.063171,0.543213,0.690125,down
40242,-5.730469,7.058594,3.832031,0.263672,0.359375,0.214844,0.473938,-0.063171,0.543213,0.690125,down
40247,-5.84375,7.015625,3.757813,0.326172,0.392578,0.21875,0.473938,-0.063171,0.543213,0.690125,down
40252,-5.84375,6.980469,3.757813,0.326172,0.392578,0.21875,0.470642,-0.063354,0.547119,0.689331,down
40258,-5.84375,7.015625,3.792969,0.390625,0.410156,0.232422,0.468811,-0.063232,0.549622,0.688599,down
40263,-5.882812,6.980469,3.832031,0.390625,0.410156,0.232422,0.467896,-0.06311,0.550903,0.688171,down
40268,-5.804687,6.976562,3.792969,0.390625,0.410156,0.232422,0.467102,-0.062927,0.552002,0.687866,down
40273,-5.84375,7.015625,3.832031,0.369141,0.353516,0.226562,0.467102,-0.062927,0.552002,0.687866,down
40278,-5.84375,7.125,3.792969,0.335938,0.333984,0.226562,0.466187,-0.062805,0.553284,0.6875,down
40283,-5.882812,7.207031,3.679688,0.335938,0.333984,0.226562,0.4646,-0.062561,0.555298,0.68689,down
40288,-5.84375,7.125,3.601563,0.259766,0.277344,0.207031,0.4646,-0.062561,0.555298,0.68689,down
40293,-5.84375,7.128906,3.640625,0.259766,0.277344,0.207031,0.463806,-0.0625,0.556274,0.686707,down
40298,-5.804687,7.164062,3.679688,0.181641,0.21875,0.166016,0.463806,-0.0625,0.556274,0.686707,down
40303,-5.882812,7.164062,3.601563,0.181641,0.21875,0.166016,0.462585,-0.062317,0.557739,0.686401,down
40308,-5.769531,7.164062,3.601563,0.181641,0.21875,0.166016,0.461975,-0.062317,0.55835,0.686279,down
40313,-5.769531,7.207031,3.566406,0.103516,0.166016,0.121094,0.461121,-0.062317,0.559204,0.686157,down
40318,-5.769531,7.285156,3.566406,0.103516,0.166016,0.121094,0.461121,-0.062317,0.559204,0.686157,down
40323,-5.769531,7.324219,3.527344,0.023437,0.089844,0.035156,0.460876,-0.062378,0.559448,0.686096,down
40328,-5.769531,7.285156,3.449219,0.023437,0.089844,0.035156,0.46051,-0.062561,0.559875,0.686035,down
40333,-5.730469,7.207031,3.410156,0.023437,0.089844,0.035156,0.460388,-0.062683,0.559875,0.686035,down
40338,-5.730469,7.207031,3.488281,0.023437,0.089844,0.035156,0.460327,-0.062805,0.559814,0.686096,down
40343,-5.652344,7.164062,3.488281,-0.119141,0.021484,-0.037109,0.460327,-0.062805,0.559814,0.686096,down
40348,-5.652344,7.164062,3.488281,-0.119141,0.021484,-0.037109,0.460327,-0.063293,0.55957,0.686279,down
40353,-5.578125,7.203125,3.527344,-0.119141,0.021484,-0.037109,0.460388,-0.063599,0.559326,0.686401,down
40358,-5.578125,7.203125,3.527344,-0.119141,0.021484,-0.037109,0.460449,-0.063904,0.559082,0.686523,down
40363,-5.613281,7.242187,3.527344,-0.119141,0.021484,-0.037109,0.460449,-0.063904,0.559082,0.686523,down
40368,-5.691406,7.246094,3.488281,-0.175781,0.048828,-0.076172,0.460449,-0.063904,0.559082,0.686523,down
40373,-5.730469,7.203125,3.566406,-0.175781,0.048828,-0.076172,0.46051,-0.064758,0.558594,0.686829,down
40378,-5.769531,7.203125,3.601563,-0.130859,0.037109,-0.072266,0.46051,-0.065125,0.558411,0.686951,down
40383,-5.804687,7.203125,3.640625,-0.130859,0.037109,-0.072266,0.460571,-0.065491,0.558228,0.687012,down
40388,-5.84375,7.246094,3.679688,-0.130859,0.037109,-0.072266,0.460632,-0.066162,0.557922,0.687134,down
40393,-5.84375,7.207031,3.640625,-0.130859,0.037109,-0.072266,0.460632,-0.066467,0.557861,0.687134,down
40398,-5.84375,7.246094,3.640625,-0.130859,0.037109,-0.072266,0.460632,-0.066467,0.557861,0.687134,down
40403,-5.84375,7.246094,3.679688,-0.052734,0.037109,-0.058594,0.460693,-0.066895,0.5578,0.687134,down
40408,-5.882812,7.28125,3.71875,-0.03125,0.050781,-0.041016,0.460693,-0.066895,0.5578,0.687134,down
40414,-5.882812,7.246094,3.679688,-0.03125,0.050781,-0.041016,0.460632,-0.067322,0.557861,0.687073,down
40419,-5.921875,7.28125,3.679688,-0.017578,0.0625,-0.013672,0.460571,-0.067444,0.557922,0.687073,down
40424,-5.84375,7.320312,3.679688,-0.017578,0.0625,-0.013672,0.46051,-0.067627,0.557983,0.687012,down
40429,-5.84375,7.320312,3.679688,-0.017578,0.0625,-0.013672,0.460388,-0.067749,0.558105,0.687012,down
40435,-5.882812,7.246094,3.640625,-0.017578,0.0625,-0.013672,0.460205,-0.067932,0.558228,0.687012,down
40440,-5.84375,7.285156,3.640625,0.019531,0.095703,0.023437,0.460083,-0.068054,0.55835,0.686951,down
40446,-5.882812,7.320312,3.640625,0.03125,0.105469,0.027344,0.460083,-0.068054,0.55835,0.686951,down
40452,-5.921875,7.324219,3.566406,0.035156,0.115234,0.027344,0.460083,-0.068054,0.55835,0.686951,down
