timestamp,ax,ay,az,gx,gy,gz,qw,qx,qy,qz,label
281882,5.5,7.261719,-3.339844,-0.033203,-0.087891,0.025391,0.316833,-0.035034,-0.816345,-0.481689,down
281887,5.5,7.222656,-3.339844,-0.033203,-0.087891,0.025391,0.31665,-0.035156,-0.816406,-0.481689,down
281893,5.460937,7.152344,-3.261719,0.005859,-0.046875,-0.017578,0.316284,-0.035095,-0.816528,-0.481689,down
281899,5.421875,7.035156,-3.109375,0.005859,-0.046875,-0.017578,0.316101,-0.035034,-0.816589,-0.481689,down
281904,5.421875,7.035156,-3.109375,0.0,-0.037109,-0.082031,0.315857,-0.034912,-0.816711,-0.481689,down
281910,5.421875,7.070312,-2.992188,0.0,-0.037109,-0.082031,0.315613,-0.034729,-0.816772,-0.481812,down
281915,5.460937,7.070312,-2.957031,0.0,-0.037109,-0.082031,0.315308,-0.034546,-0.816772,-0.481934,down
281920,5.421875,7.03125,-2.878906,0.0,-0.037109,-0.082031,0.315308,-0.034546,-0.816772,-0.481934,down
281925,5.421875,7.03125,-2.878906,-0.115234,-0.080078,-0.123047,0.315308,-0.034546,-0.816772,-0.481934,down
281931,5.5,7.035156,-2.878906,-0.148437,-0.080078,-0.126953,0.315308,-0.034546,-0.816772,-0.481934,down
281936,5.5,7.109375,-3.03125,-0.164062,-0.089844,-0.107422,0.315308,-0.034546,-0.816772,-0.481934,down
281941,5.5,7.152344,-3.070313,-0.164062,-0.089844,-0.107422,0.313416,-0.03418,-0.816528,-0.483582,down
281946,5.574219,7.179687,-3.109375,-0.173828,-0.115234,-0.066406,0.313416,-0.03418,-0.816528,-0.483582,down
281951,5.574219,7.222656,-3.148438,-0.173828,-0.115234,-0.066406,0.312683,-0.034363,-0.816406,-0.484314,down
281956,5.613281,7.222656,-3.222656,-0.173828,-0.115234,-0.066406,0.312683,-0.034363,-0.816406,-0.484314,down
281961,5.613281,7.179687,-3.261719,-0.173828,-0.115234,-0.066406,0.312134,-0.034729,-0.816345,-0.484741,down
281966,5.652344,7.183594,-3.300781,-0.005859,-0.078125,0.070312,0.312134,-0.034729,-0.816345,-0.484741,down
281971,5.613281,7.183594,-3.300781,-0.005859,-0.078125,0.070312,0.31189,-0.035156,-0.816467,-0.484619,down
281976,5.613281,7.152344,-3.261719,-0.005859,-0.078125,0.070312,0.311829,-0.035278,-0.81665,-0.484314,down
281981,5.574219,7.148437,-3.222656,0.201172,-0.037109,0.119141,0.311829,-0.035278,-0.81665,-0.484314,down
281986,5.574219,7.183594,-3.222656,0.242187,-0.015625,0.117188,0.311829,-0.035278,-0.81665,-0.484314,down
281991,5.5,7.152344,-3.070313,0.242187,-0.015625,0.117188,0.311829,-0.035278,-0.81665,-0.484314,down
281997,5.460937,7.109375,-2.992188,0.242187,-0.015625,0.117188,0.312134,-0.035522,-0.817871,-0.482117,down
282003,5.421875,7.109375,-2.957031,0.25,-0.009766,0.078125,0.312134,-0.035522,-0.817871,-0.482117,down
282008,5.382812,7.070312,-2.878906,0.25,-0.009766,0.078125,0.312317,-0.035339,-0.818848,-0.480286,down
282013,5.308594,7.035156,-2.839844,0.25,-0.009766,0.078125,0.312317,-0.035339,-0.818848,-0.480286,down
282018,5.308594,7.035156,-2.839844,0.160156,-0.037109,0.029297,0.312134,-0.035278,-0.819336,-0.479614,down
282023,5.308594,7.070312,-2.839844,0.037109,-0.070312,-0.025391,0.312134,-0.035278,-0.819336,-0.479614,down
282028,5.269531,7.179687,-2.839844,-0.025391,-0.087891,-0.042969,0.311951,-0.035278,-0.819458,-0.479492,down
282033,5.308594,7.179687,-2.839844,-0.025391,-0.087891,-0.042969,0.311707,-0.035217,-0.81958,-0.479492,down
282038,5.382812,7.113281,-2.839844,-0.025391,-0.087891,-0.042969,0.310974,-0.035339,-0.819641,-0.479797,down
282043,5.382812,7.152344,-2.878906,-0.025391,-0.087891,-0.042969,0.310608,-0.0354,-0.819641,-0.480103,down
282048,5.382812,7.148437,-2.992188,-0.132812,-0.164062,-0.072266,0.310608,-0.0354,-0.819641,-0.480103,down
282053,5.421875,7.148437,-2.957031,-0.132812,-0.167969,-0.070312,0.31012,-0.035522,-0.819641,-0.480408,down
282058,5.421875,7.109375,-2.957031,-0.132812,-0.167969,-0.070312,0.309631,-0.035645,-0.819641,-0.480713,down
282063,5.460937,7.070312,-2.957031,-0.132812,-0.167969,-0.070312,0.309082,-0.035767,-0.819641,-0.481018,down
282068,5.421875,7.070312,-3.03125,-0.044922,-0.167969,-0.035156,0.308655,-0.03595,-0.819702,-0.481201,down
282073,5.460937,7.070312,-3.070313,-0.044922,-0.167969,-0.035156,0.308167,-0.036072,-0.819763,-0.481323,down
282078,5.382812,7.113281,-3.070313,-0.044922,-0.167969,-0.035156,0.307373,-0.036377,-0.820068,-0.481323,down
282083,5.421875,7.152344,-3.109375,-0.044922,-0.167969,-0.035156,0.307007,-0.036438,-0.820312,-0.481201,down
282088,5.421875,7.113281,-3.109375,-0.044922,-0.167969,-0.035156,0.307007,-0.036438,-0.820312,-0.481201,down
282093,5.421875,7.109375,-3.070313,0.140625,-0.142578,0.023437,0.306396,-0.036621,-0.820862,-0.480591,down
282098,5.382812,7.109375,-3.03125,0.140625,-0.142578,0.023437,0.306396,-0.036621,-0.820862,-0.480591,down
282103,5.347656,7.113281,-3.109375,0.1875,-0.125,0.033203,0.306152,-0.036682,-0.821167,-0.480164,down
282108,5.347656,7.113281,-3.183594,0.1875,-0.125,0.033203,0.305908,-0.036743,-0.821533,-0.479736,down
282113,5.347656,7.152344,-3.109375,0.183594,-0.109375,0.029297,0.305908,-0.036743,-0.821533,-0.479736,down
282118,5.347656,7.152344,-3.109375,0.183594,-0.109375,0.029297,0.305298,-0.036865,-0.822449,-0.478638,down
282123,5.308594,7.179687,-3.070313,0.183594,-0.109375,0.029297,0.305298,-0.036865,-0.822449,-0.478638,down
282128,5.308594,7.183594,-3.109375,0.111328,-0.087891,0.001953,0.304871,-0.036865,-0.822876,-0.478088,down
282133,5.308594,7.222656,-3.070313,0.111328,-0.087891,0.001953,0.304871,-0.036865,-0.822876,-0.478088,down
282138,5.308594,7.300781,-3.109375,0.111328,-0.087891,0.001953,0.30426,-0.036804,-0.823242,-0.477844,down
282143,5.347656,7.335937,-3.070313,0.019531,-0.142578,-0.058594,0.30426,-0.036804,-0.823242,-0.477844,down
282148,5.308594,7.335937,-3.148438,0.019531,-0.142578,-0.058594,0.303955,-0.036804,-0.823364,-0.477783,down
282153,5.308594,7.375,-3.148438,0.019531,-0.142578,-0.058594,0.303467,-0.036865,-0.823547,-0.477844,down
282158,5.308594,7.414062,-3.148438,-0.042969,-0.183594,-0.09375,0.302979,-0.036865,-0.823669,-0.477905,down
282163,5.308594,7.375,-3.183594,-0.042969,-0.183594,-0.09375,0.30249,-0.036865,-0.823792,-0.478027,down
282168,5.308594,7.492187,-3.183594,-0.042969,-0.183594,-0.09375,0.301941,-0.036926,-0.823914,-0.478149,down
282173,5.308594,7.496094,-3.261719,-0.042969,-0.183594,-0.09375,0.301331,-0.036987,-0.824036,-0.478333,down
282179,5.308594,7.496094,-3.261719,-0.089844,-0.259766,-0.121094,0.301331,-0.036987,-0.824036,-0.478333,down
282184,5.269531,7.457031,-3.222656,-0.089844,-0.259766,-0.121094,0.299194,-0.037292,-0.824341,-0.479065,down
282189,5.269531,7.417969,-3.222656,-0.089844,-0.259766,-0.121094,0.298462,-0.037415,-0.824463,-0.47937,down
282194,5.191406,7.339844,-3.183594,-0.140625,-0.302734,-0.162109,0.297546,-0.037537,-0.824524,-0.479797,down
282199,5.191406,7.296875,-3.183594,-0.140625,-0.302734,-0.162109,0.296631,-0.037659,-0.824585,-0.480225,down
282204,5.117187,7.300781,-3.148438,-0.175781,-0.326172,-0.191406,0.295776,-0.037781,-0.824646,-0.480652,down
282210,5.117187,7.257812,-3.109375,-0.185547,-0.335938,-0.208984,0.294861,-0.037842,-0.824707,-0.481079,down
282215,4.964844,7.222656,-2.992188,-0.207031,-0.341797,-0.234375,0.293701,-0.037964,-0.824768,-0.48175,down
282220,4.847656,7.148437,-2.917969,-0.207031,-0.341797,-0.234375,0.292786,-0.037964,-0.824768,-0.482239,down
282226,4.65625,7.074219,-2.765625,-0.246094,-0.376953,-0.294922,0.292786,-0.037964,-0.824768,-0.482239,down
282232,4.582031,7.070312,-2.648438,-0.255859,-0.408203,-0.333984,0.292786,-0.037964,-0.824768,-0.482239,down
282237,4.464844,6.953125,-2.535156,-0.291016,-0.433594,-0.373047,0.292786,-0.037964,-0.824768,-0.482239,down
282242,4.351562,6.914062,-2.417969,-0.291016,-0.433594,-0.373047,0.287537,-0.037903,-0.824829,-0.485291,down
282248,4.160156,6.839844,-2.304688,-0.291016,-0.433594,-0.373047,0.284302,-0.037781,-0.824829,-0.487305,down
282253,4.082031,6.800781,-2.1875,-0.291016,-0.433594,-0.373047,0.284302,-0.037781,-0.824829,-0.487305,down
282258,3.96875,6.875,-1.996094,-0.429687,-0.615234,-0.546875,0.284302,-0.037781,-0.824829,-0.487305,down
282263,3.890625,6.878906,-1.996094,-0.429687,-0.615234,-0.546875,0.280212,-0.037598,-0.824707,-0.489746,down
282268,3.851563,6.835937,-1.996094,-0.429687,-0.615234,-0.546875,0.277832,-0.037476,-0.824646,-0.491272,down
282274,3.8125,6.835937,-1.996094,-0.574219,-0.792969,-0.681641,0.272705,-0.037415,-0.824463,-0.494446,down
282280,3.660156,6.730469,-1.960938,-0.574219,-0.792969,-0.681641,0.270142,-0.037415,-0.824341,-0.496094,down
282285,3.546875,6.769531,-1.996094,-0.705078,-0.980469,-0.794922,0.267151,-0.037415,-0.824219,-0.497925,down
282290,3.507813,6.765625,-2.035156,-0.730469,-1.033203,-0.822266,0.267151,-0.037415,-0.824219,-0.497925,down
282295,3.394531,6.769531,-2.074219,-0.755859,-1.080078,-0.849609,0.267151,-0.037415,-0.824219,-0.497925,down
282300,3.316406,6.730469,-2.074219,-0.755859,-1.080078,-0.849609,0.257202,-0.037659,-0.82373,-0.503845,down
282305,3.238281,6.765625,-2.035156,-0.755859,-1.080078,-0.849609,0.257202,-0.037659,-0.82373,-0.503845,down
282311,3.007813,6.726562,-2.074219,-0.75,-1.185547,-0.898437,0.249878,-0.037903,-0.823486,-0.507874,down
282316,2.816406,6.652344,-1.996094,-0.691406,-1.275391,-0.960937,0.249878,-0.037903,-0.823486,-0.507874,down
282321,2.703125,6.648437,-1.996094,-0.658203,-1.316406,-0.994141,0.249878,-0.037903,-0.823486,-0.507874,down
282326,2.550781,6.613281,-1.921875,-0.634766,-1.359375,-1.027344,0.249878,-0.037903,-0.823486,-0.507874,down
282332,2.433594,6.496094,-1.921875,-0.609375,-1.404297,-1.056641,0.249878,-0.037903,-0.823486,-0.507874,down
282337,2.167969,6.453125,-1.804688,-0.591797,-1.439453,-1.097656,0.249878,-0.037903,-0.823486,-0.507874,down
282342,1.976563,6.414062,-1.730469,-0.591797,-1.439453,-1.097656,0.224548,-0.037842,-0.824036,-0.518799,down
282347,1.859375,6.382812,-1.691406,-0.619141,-1.529297,-1.191406,0.224548,-0.037842,-0.824036,-0.518799,down
282352,1.667969,6.457031,-1.539063,-0.619141,-1.529297,-1.191406,0.224548,-0.037842,-0.824036,-0.518799,down
282358,1.628906,6.457031,-1.5,-0.619141,-1.529297,-1.191406,0.2099,-0.037354,-0.824341,-0.524353,down
282363,1.59375,6.496094,-1.539063,-0.902344,-1.746094,-1.472656,0.2099,-0.037354,-0.824341,-0.524353,down
282368,1.476563,6.535156,-1.578125,-0.902344,-1.746094,-1.472656,0.199097,-0.036804,-0.824219,-0.52887,down
282373,1.4375,6.496094,-1.578125,-0.902344,-1.746094,-1.472656,0.193359,-0.036499,-0.823975,-0.531372,down
282379,1.363281,6.417969,-1.578125,-1.265625,-1.945313,-1.738281,0.193359,-0.036499,-0.823975,-0.531372,down
282384,1.246094,6.308594,-1.613281,-1.265625,-1.945313,-1.738281,0.174133,-0.035339,-0.822205,-0.540771,down
282389,1.09375,6.226562,-1.652344,-1.265625,-1.945313,-1.738281,0.167297,-0.034912,-0.82135,-0.54425,down
282394,0.75,6.308594,-1.613281,-1.447266,-2.222656,-1.978516,0.167297,-0.034912,-0.82135,-0.54425,down
282399,0.632812,6.308594,-1.613281,-1.435547,-2.333984,-2.048828,0.159485,-0.034485,-0.820312,-0.548096,down
282404,0.519531,6.382812,-1.539063,-1.435547,-2.333984,-2.048828,0.144531,-0.03363,-0.818604,-0.554871,down
282409,0.175781,6.386719,-1.421875,-1.435547,-2.333984,-2.048828,0.144531,-0.03363,-0.818604,-0.554871,down
282414,0.175781,6.386719,-1.421875,-1.306641,-2.558594,-2.167969,0.136414,-0.033203,-0.81781,-0.558167,down
282419,0.058594,6.414062,-1.421875,-1.306641,-2.558594,-2.167969,0.12793,-0.032776,-0.817078,-0.561218,down
282424,-0.476562,5.882812,-1.269531,-1.128906,-2.78125,-2.296875,0.119202,-0.032349,-0.816467,-0.564087,down
282429,-0.589844,5.921875,-1.191406,-1.03125,-2.923828,-2.382813,0.10022,-0.031433,-0.815491,-0.569214,down
282434,-0.746094,5.769531,-1.0,-1.03125,-2.923828,-2.382813,0.089111,-0.030945,-0.815063,-0.571655,down
282439,-1.050781,5.542969,-1.0,-0.794922,-3.263672,-2.714844,0.089111,-0.030945,-0.815063,-0.571655,down
282444,-1.050781,5.542969,-1.0,-0.794922,-3.263672,-2.714844,0.068726,-0.029663,-0.814392,-0.575439,down
282449,-1.472656,5.34375,-0.65625,-0.794922,-3.263672,-2.714844,0.068726,-0.029663,-0.814392,-0.575439,down
282454,-1.585938,5.078125,-0.464844,-0.851562,-3.503906,-2.962891,0.045593,-0.027893,-0.813354,-0.579285,down
282459,-2.046875,4.777344,-0.386719,-0.851562,-3.503906,-2.962891,0.033691,-0.026733,-0.8125,-0.58136,down
282464,-2.351563,4.734375,-0.3125,-0.851562,-3.503906,-2.962891,0.021362,-0.025391,-0.811401,-0.583557,down
282469,-2.546875,4.886719,-0.3125,-0.851562,-3.503906,-2.962891,0.021362,-0.025391,-0.811401,-0.583557,down
282474,-2.773438,5.199219,-0.234375,-1.335938,-3.855469,-3.609375,0.005371,0.022095,0.807983,0.588745,down
282479,-3.234375,5.847656,-0.386719,-1.335938,-3.855469,-3.609375,0.005371,0.022095,0.807983,0.588745,down
282484,-3.425781,6.191406,-0.464844,-1.648438,-4.117187,-4.101562,0.02063,0.019836,0.805664,0.591675,down
282489,-3.425781,6.191406,-0.464844,-1.648438,-4.117187,-4.101562,0.033691,0.017822,0.803406,0.594177,down
282494,-4.152344,7.335937,-0.886719,-1.769531,-4.234375,-4.203125,0.047607,0.015686,0.80072,0.596924,down
282499,-4.152344,7.335937,-0.886719,-1.878906,-4.445312,-4.261719,0.06311,0.013367,0.797485,0.599915,down
282505,-4.382812,7.496094,-0.734375,-2.142578,-4.904297,-4.384766,0.078491,0.011414,0.793884,0.602844,down
282511,-5.035156,7.644531,-0.386719,-2.142578,-4.904297,-4.384766,0.111511,0.007935,0.785217,0.60907,down
282516,-5.570312,7.035156,-0.273438,-2.142578,-4.904297,-4.384766,0.111511,0.007935,0.785217,0.60907,down
282522,-5.917969,6.992187,-0.386719,-2.8125,-5.427734,-4.601562,0.111511,0.007935,0.785217,0.60907,down
282528,-5.917969,6.992187,-0.386719,-3.080078,-5.580078,-4.673828,0.163879,0.003235,0.767517,0.619751,down
282533,-6.527344,7.03125,-0.65625,-3.367188,-5.728516,-4.751953,0.181824,0.001648,0.760132,0.623779,down
282538,-6.527344,7.03125,-0.65625,-3.648438,-5.871094,-4.841797,0.200806,-0.000122,0.751648,0.628235,down
282544,-7.027344,7.113281,-1.230469,-4.115234,-6.119141,-5.007812,0.200806,-0.000122,0.751648,0.628235,down
282550,-7.371094,7.375,-1.578125,-4.115234,-6.119141,-5.007812,0.257935,-0.005676,0.721985,0.642029,down
282555,-7.527344,7.414062,-1.652344,-4.115234,-6.119141,-5.007812,0.278503,-0.007996,0.709839,0.646912,down
282560,-7.753906,7.492187,-1.84375,-4.644531,-6.130859,-5.222656,0.297668,-0.010437,0.697815,0.651367,down
282566,-7.867187,7.570312,-1.960938,-4.644531,-6.130859,-5.222656,0.315063,-0.012939,0.686401,0.655273,down
282571,-7.988281,7.914062,-2.113281,-4.644531,-6.130859,-5.222656,0.315063,-0.012939,0.686401,0.655273,down
282576,-7.988281,7.914062,-2.113281,-4.638672,-5.865234,-5.277344,0.352051,-0.019165,0.660767,0.662598,down
282581,-8.09375,7.835937,-1.960938,-4.638672,-5.865234,-5.277344,0.352051,-0.019165,0.660767,0.662598,down
282586,-8.0625,8.066406,-1.691406,-4.107422,-5.566406,-5.164062,0.352051,-0.019165,0.660767,0.662598,down
282591,-8.136719,7.914062,-0.964844,-4.107422,-5.566406,-5.164062,0.352051,-0.019165,0.660767,0.662598,down
282596,-8.09375,7.875,-0.65625,-3.576172,-5.285156,-5.017578,0.352051,-0.019165,0.660767,0.662598,down
282601,-7.871094,8.101563,-0.386719,-3.230469,-5.164062,-4.916016,0.352051,-0.019165,0.660767,0.662598,down
282606,-7.832031,8.261719,0.070312,-3.230469,-5.164062,-4.916016,0.352051,-0.019165,0.660767,0.662598,down
282611,-8.136719,8.527344,0.570312,-2.904297,-5.017578,-4.779297,0.452209,-0.035461,0.587708,0.669983,down
282616,-8.136719,8.527344,0.570312,-2.537109,-4.876953,-4.621094,0.481445,-0.038391,0.566833,0.667419,down
282621,-8.75,8.679688,1.640625,-2.537109,-4.876953,-4.621094,0.481445,-0.038391,0.566833,0.667419,down
282626,-8.898438,8.640625,1.832031,-2.537109,-4.876953,-4.621094,0.508179,-0.039307,0.548584,0.662781,down
282632,-9.097656,8.566406,2.214844,-2.537109,-4.876953,-4.621094,0.508179,-0.039307,0.548584,0.662781,down
282637,-9.097656,8.449219,2.371094,-0.947266,-4.507812,-3.509766,0.508179,-0.039307,0.548584,0.662781,down
282643,-9.015625,8.566406,2.714844,-0.947266,-4.507812,-3.509766,0.544006,-0.03595,0.524292,0.654114,down
282648,-9.015625,8.566406,2.714844,-0.761719,-4.710937,-3.001953,0.555054,-0.033508,0.516357,0.651306,down
282653,-8.675781,8.449219,2.867188,-0.908203,-4.617187,-2.767578,0.565918,-0.030762,0.507996,0.648621,down
282658,-8.675781,8.449219,2.867188,-1.146484,-4.332031,-2.578125,0.575745,-0.028381,0.499817,0.646484,down
282664,-8.519531,7.570312,3.824219,-1.146484,-4.332031,-2.578125,0.584717,-0.026489,0.491699,0.644714,down
282669,-7.945312,7.414062,4.589844,-1.474609,-3.042969,-2.109375,0.584717,-0.026489,0.491699,0.644714,down
282674,-8.09375,7.300781,5.511719,-1.474609,-3.042969,-2.109375,0.600403,-0.024475,0.476257,0.641907,down
282679,-8.09375,7.300781,5.511719,-1.474609,-3.042969,-2.109375,0.613281,-0.024719,0.462646,0.639709,down
282684,-8.332031,7.53125,6.351562,-1.474609,-3.042969,-2.109375,0.613281,-0.024719,0.462646,0.639709,down
282689,-8.789063,7.875,6.390625,-1.048828,-2.257813,-1.839844,0.613281,-0.024719,0.462646,0.639709,down
282694,-8.828125,8.832031,6.160156,-1.048828,-2.257813,-1.839844,0.624512,-0.025146,0.450989,0.637146,down
282699,-8.75,9.253906,6.238281,-1.048828,-2.257813,-1.839844,0.630005,-0.025146,0.44574,0.635437,down
282704,-8.367188,9.671875,6.507812,-0.232422,-2.429688,-1.761719,0.630005,-0.025146,0.44574,0.635437,down
282709,-8.214844,9.828125,6.964844,-0.232422,-2.429688,-1.761719,0.640747,-0.023437,0.43634,0.631287,down
282714,-7.449219,9.554688,7.769531,-0.232422,-2.429688,-1.761719,0.646667,-0.021423,0.431702,0.628479,down
282719,-7.105469,9.671875,7.734375,-0.232422,-2.429688,-1.761719,0.651489,-0.019409,0.427917,0.62616,down
282724,-7.140625,9.40625,7.464844,-0.232422,-2.429688,-1.761719,0.656799,-0.016907,0.423462,0.623718,down
282729,-7.140625,9.40625,7.464844,-0.240234,-2.359375,-1.142578,0.660828,-0.015015,0.419556,0.622131,down
282734,-6.796875,8.988281,6.929687,-0.240234,-2.359375,-1.142578,0.660828,-0.015015,0.419556,0.622131,down
282739,-6.222656,8.367188,7.042969,-0.498047,-2.40625,-0.951172,0.668762,-0.01123,0.409912,0.620117,down
282745,-5.992187,8.144531,7.121094,-0.884766,-2.316406,-0.583984,0.675232,-0.008301,0.399536,0.619934,down
282750,-5.953125,7.796875,7.042969,-0.861328,-2.126953,-0.416016,0.678162,-0.006836,0.394348,0.620117,down
282756,-5.953125,7.683594,6.929687,-0.861328,-2.126953,-0.416016,0.680969,-0.00531,0.38916,0.620361,down
282761,-6.03125,7.644531,7.15625,-0.693359,-2.037109,-0.294922,0.683472,-0.003723,0.384399,0.620544,down
282766,-5.953125,7.796875,7.3125,-0.693359,-2.037109,-0.294922,0.685669,-0.002075,0.38031,0.620667,down
282771,-5.457031,8.5625,7.734375,-0.693359,-2.037109,-0.294922,0.687988,-6.1e-05,0.376221,0.620544,down
282776,-5.722656,8.792969,7.769531,-0.103516,-1.943359,-0.265625,0.687988,-6.1e-05,0.376221,0.620544,down
282782,-6.605469,9.066406,7.847656,0.109375,-1.949219,-0.173828,0.687988,-6.1e-05,0.376221,0.620544,down
282787,-5.035156,8.988281,7.769531,0.109375,-1.949219,-0.173828,0.687988,-6.1e-05,0.376221,0.620544,down
282793,-4.34375,9.488281,7.769531,0.59375,-2.128906,0.025391,0.687988,-6.1e-05,0.376221,0.620544,down
282798,-4.535156,10.058594,8.039063,0.642578,-2.0625,0.173828,0.687988,-6.1e-05,0.376221,0.620544,down
282803,-4.84375,10.25,8.039063,0.642578,-2.0625,0.173828,0.699585,0.021545,0.357605,0.618286,down
282809,-4.921875,10.054688,7.847656,0.642578,-2.0625,0.173828,0.701233,0.031006,0.352356,0.619019,down
282814,-4.882812,10.058594,7.695312,0.642578,-2.0625,0.173828,0.701233,0.031006,0.352356,0.619019,down
282820,-4.996094,10.015625,7.808594,0.617187,-2.166016,1.041016,0.701721,0.041626,0.346375,0.621155,down
282825,-4.5,10.359375,7.808594,0.617187,-2.166016,1.041016,0.701721,0.047913,0.34259,0.622803,down
282830,-3.847656,10.59375,7.578125,0.617187,-2.166016,1.041016,0.701721,0.047913,0.34259,0.622803,down
282835,-3.65625,10.253906,7.539062,0.390625,-2.439453,1.429688,0.701355,0.058838,0.335022,0.626465,down
282840,-3.617188,9.558594,7.3125,0.390625,-2.439453,1.429688,0.700989,0.063721,0.33075,0.628601,down
282845,-3.617188,9.210938,7.3125,0.390625,-2.439453,1.429688,0.700989,0.063721,0.33075,0.628601,down
282850,-3.617188,9.210938,7.3125,-0.050781,-2.347656,1.498047,0.700623,0.06842,0.326294,0.630859,down
282855,-3.539063,8.761719,7.3125,0.003906,-2.376953,1.519531,0.700623,0.06842,0.326294,0.630859,down
282861,-3.234375,7.988281,7.3125,-0.060547,-2.365234,1.550781,0.700623,0.06842,0.326294,0.630859,down
282866,-3.234375,7.988281,7.3125,-0.302734,-2.332031,1.535156,0.698486,0.08783,0.308167,0.639893,down
282871,-2.546875,7.492187,7.621094,-0.302734,-2.332031,1.535156,0.697876,0.092163,0.302979,0.642395,down
282876,-2.351563,7.53125,7.960937,-0.302734,-2.332031,1.535156,0.697205,0.096619,0.297607,0.644958,down
282881,-2.582031,6.878906,7.886719,-0.302734,-2.332031,1.535156,0.697205,0.096619,0.297607,0.644958,down
282886,-2.582031,6.878906,7.886719,-0.269531,-2.580078,1.617188,0.695923,0.105286,0.287598,0.649536,down
282892,-3.195313,7.339844,9.226563,-0.269531,-2.580078,1.617188,0.69519,0.110474,0.282288,0.651794,down
282897,-3.734375,8.027344,11.371094,-0.269531,-2.580078,1.617188,0.694336,0.116638,0.276917,0.653931,down
282903,-3.503906,8.527344,11.449219,0.640625,-3.423828,2.064453,0.694336,0.116638,0.276917,0.653931,down
282908,-3.539063,8.871094,10.875,0.875,-3.703125,2.275391,0.694336,0.116638,0.276917,0.653931,down
282914,-2.007813,9.101563,10.179688,0.832031,-3.978516,2.494141,0.694336,0.116638,0.276917,0.653931,down
282919,-0.398438,9.828125,9.609375,0.654297,-4.144531,2.621094,0.694336,0.116638,0.276917,0.653931,down
282924,0.558594,10.019531,9.113281,0.273438,-4.013672,2.677734,0.694336,0.116638,0.276917,0.653931,down
282929,0.558594,10.019531,9.113281,-0.162109,-3.736328,2.669922,0.68396,0.169373,0.237854,0.668518,down
282934,1.132813,9.144531,7.425781,-0.162109,-3.736328,2.669922,0.68396,0.169373,0.237854,0.668518,down
282939,1.707031,8.296875,6.851562,-0.470703,-3.4375,2.580078,0.679749,0.182251,0.222412,0.674744,down
282945,3.085938,7.109375,6.929687,-0.960937,-3.03125,2.357422,0.675903,0.191772,0.206665,0.680908,down
282950,2.933594,5.804687,6.65625,-0.960937,-3.03125,2.357422,0.674194,0.194885,0.199158,0.68396,down
282955,2.242188,5.386719,6.472656,-1.234375,-1.873047,1.800781,0.674194,0.194885,0.199158,0.68396,down
282960,1.59375,4.886719,6.695312,-1.234375,-1.873047,1.800781,0.672424,0.197327,0.192017,0.687012,down
282965,1.402344,4.390625,7.234375,-0.716797,-1.757813,1.484375,0.672424,0.197327,0.192017,0.687012,down
282971,0.75,4.542969,8.84375,-0.716797,-1.757813,1.484375,0.668274,0.204102,0.176819,0.693176,down
282976,0.289063,4.925781,9.414063,-0.304688,-1.832031,1.208984,0.666931,0.207397,0.172058,0.694702,down
282982,-0.171875,5.15625,10.035156,-0.304688,-1.832031,1.208984,0.665833,0.210876,0.167786,0.69574,down
282987,0.058594,4.964844,10.339844,-0.304688,-1.832031,1.208984,0.665833,0.210876,0.167786,0.69574,down
282992,0.671875,4.582031,10.183594,-0.009766,-2.181641,0.951172,0.664368,0.218872,0.159912,0.696533,down
282997,0.671875,4.582031,10.183594,-0.009766,-2.181641,0.951172,0.664368,0.218872,0.159912,0.696533,down
283002,2.320313,4.082031,7.964844,0.146484,-2.441406,0.746094,0.664368,0.218872,0.159912,0.696533,down
283007,3.125,3.96875,7.578125,0.146484,-2.441406,0.746094,0.662781,0.233154,0.147644,0.696106,down
283013,3.96875,3.890625,6.8125,0.146484,-2.441406,0.746094,0.662781,0.233154,0.147644,0.696106,down
283019,4.082031,3.621094,6.429687,0.078125,-1.931641,0.652344,0.662781,0.233154,0.147644,0.696106,down
283024,4.121094,3.203125,6.128906,0.078125,-1.931641,0.652344,0.661316,0.244934,0.136841,0.695679,down
283030,3.660156,3.238281,6.234375,0.005859,-1.351563,0.632812,0.661316,0.244934,0.136841,0.695679,down
283035,2.933594,3.394531,6.578125,-0.011719,-1.066406,0.660156,0.65918,0.252075,0.129517,0.696594,down
283040,2.742188,3.429688,7.003906,-0.011719,-1.066406,0.660156,0.658264,0.253662,0.127563,0.697205,down
283045,2.855469,3.203125,6.660156,-0.011719,-1.066406,0.660156,0.65741,0.254944,0.125488,0.697937,down
283050,2.855469,2.855469,6.234375,-0.011719,-1.066406,0.660156,0.65741,0.254944,0.125488,0.697937,down
283055,3.125,2.550781,5.890625,-0.583984,-0.626953,0.662109,0.65625,0.255676,0.120605,0.699585,down
283060,3.585938,1.746094,5.550781,-0.583984,-0.626953,0.662109,0.65625,0.255676,0.120605,0.699585,down
283065,3.585938,1.324219,5.285156,-1.3125,-0.166016,0.292969,0.656067,0.254883,0.117554,0.700562,down
283070,3.585938,1.054688,5.011719,-1.478516,0.019531,0.121094,0.65625,0.253601,0.115112,0.701294,down
283075,3.355469,0.671875,4.742187,-1.478516,0.019531,0.121094,0.656799,0.251282,0.112183,0.702026,down
283081,3.164063,0.597656,4.746094,-1.677734,0.355469,-0.269531,0.657654,0.248779,0.109741,0.702515,down
283086,2.894531,0.597656,4.707031,-1.677734,0.355469,-0.269531,0.660522,0.24176,0.105347,0.703003,down
283092,2.050781,0.75,4.898437,-1.677734,0.355469,-0.269531,0.66217,0.237915,0.103882,0.702942,down
283098,1.285156,1.515625,5.550781,-1.677734,0.355469,-0.269531,0.664124,0.233643,0.102783,0.702698,down
283103,0.671875,1.859375,6.546875,-1.425781,1.0,-0.882812,0.664124,0.233643,0.102783,0.702698,down
283109,0.214844,1.824219,7.699219,-1.183594,0.982422,-0.923828,0.664124,0.233643,0.102783,0.702698,down
283114,-0.398438,2.320313,7.542969,-1.183594,0.982422,-0.923828,0.664124,0.233643,0.102783,0.702698,down
283120,-0.898437,3.011719,7.503906,-1.183594,0.982422,-0.923828,0.671936,0.218811,0.10321,0.700012,down
283126,-1.128906,3.8125,7.964844,0.001953,0.398438,-0.496094,0.671936,0.218811,0.10321,0.700012,down
283131,-0.4375,5.347656,8.957031,0.001953,0.398438,-0.496094,0.674072,0.21582,0.105286,0.698547,down
283136,0.175781,5.769531,8.765625,0.060547,0.214844,-0.341797,0.674683,0.215271,0.106079,0.697998,down
283141,0.175781,5.769531,8.765625,-0.070312,0.167969,-0.201172,0.67511,0.214844,0.106567,0.697632,down
283146,0.175781,5.769531,8.765625,-0.070312,0.167969,-0.201172,0.675537,0.213318,0.10614,0.697754,down
283152,1.628906,6.382812,9.03125,-0.070312,0.167969,-0.201172,0.675537,0.212036,0.105408,0.698242,down
283157,1.707031,6.152344,8.953125,-0.794922,0.322266,0.25,0.675537,0.212036,0.105408,0.698242,down
283162,1.707031,5.960937,8.953125,-0.878906,0.439453,0.294922,0.675537,0.212036,0.105408,0.698242,down
283168,1.554688,5.691406,8.953125,-0.878906,0.439453,0.294922,0.67511,0.206177,0.102661,0.700867,down
283174,1.285156,5.613281,8.953125,-0.853516,0.630859,0.386719,0.67511,0.206177,0.102661,0.700867,down
283179,0.902344,5.652344,9.191406,-0.75,0.6875,0.417969,0.67511,0.206177,0.102661,0.700867,down
283184,0.519531,5.804687,9.535156,-0.570312,0.701172,0.429687,0.67511,0.206177,0.102661,0.700867,down
283190,-0.171875,6.113281,9.917969,-0.570312,0.701172,0.429687,0.67511,0.206177,0.102661,0.700867,down
283195,-0.4375,6.265625,9.957031,0.234375,0.533203,0.494141,0.67511,0.206177,0.102661,0.700867,down
283200,-0.707031,6.496094,10.144531,0.234375,0.533203,0.494141,0.670959,0.195557,0.102966,0.707825,down
283206,-0.859375,6.839844,10.496094,0.234375,0.533203,0.494141,0.668396,0.196045,0.10553,0.709717,down
283211,-0.746094,6.726562,10.335938,0.792969,0.179687,0.630859,0.668396,0.196045,0.10553,0.709717,down
283216,-0.515625,6.496094,9.996094,0.859375,0.091797,0.71875,0.666809,0.197144,0.106995,0.710693,down
283221,-0.132812,6.574219,9.761719,0.859375,0.091797,0.71875,0.663391,0.199951,0.109558,0.712646,down
283226,0.097656,6.878906,9.6875,0.859375,0.091797,0.71875,0.66156,0.201477,0.110413,0.713806,down
283231,0.328125,7.070312,9.648438,0.402344,-0.078125,0.929687,0.66156,0.201477,0.110413,0.713806,down
283236,0.40625,6.496094,9.074219,0.402344,-0.078125,0.929687,0.659546,0.20282,0.110779,0.715271,down
283242,0.558594,5.769531,8.53125,0.402344,-0.078125,0.929687,0.65625,0.204041,0.110107,0.718018,down
283247,0.632812,5.421875,8.269531,-0.386719,-0.048828,0.890625,0.654785,0.203979,0.10907,0.719543,down
283252,0.671875,4.964844,8.230469,-0.558594,-0.009766,0.820312,0.653503,0.203552,0.107788,0.721069,down
283257,0.710937,4.582031,8.308594,-0.558594,-0.009766,0.820312,0.652283,0.202698,0.106201,0.722595,down
283262,0.597656,4.390625,8.226563,-0.558594,-0.009766,0.820312,0.652283,0.202698,0.106201,0.722595,down
283267,0.597656,4.390625,8.226563,-0.515625,0.083984,0.541016,0.650635,0.200989,0.10376,0.724915,down
283272,0.40625,4.390625,8.386719,-0.351563,0.060547,0.472656,0.649841,0.200256,0.102722,0.726013,down
283278,-0.132812,4.042969,9.035156,-0.351563,0.060547,0.472656,0.64917,0.200012,0.102234,0.726685,down
283283,-0.246094,4.007812,9.070313,0.226562,-0.033203,0.394531,0.64917,0.200012,0.102234,0.726685,down
283289,-0.285156,3.777344,9.113281,0.535156,-0.091797,0.410156,0.647461,0.201172,0.102661,0.727844,down
283296,-0.054687,3.507813,8.347656,0.535156,-0.091797,0.410156,0.64502,0.20459,0.104919,0.72876,down
283301,-0.363281,4.542969,8.535156,1.490234,-0.101563,0.662109,0.64502,0.20459,0.104919,0.72876,down
283306,-0.4375,5.460937,8.992188,1.490234,-0.101563,0.662109,0.641235,0.210022,0.109314,0.729919,down
283311,-1.359375,5.882812,9.457031,1.490234,-0.101563,0.662109,0.638977,0.213257,0.112061,0.73053,down
283316,-0.09375,6.457031,9.992188,1.490234,-0.101563,0.662109,0.637207,0.215637,0.113708,0.731079,down
283321,0.40625,5.996094,9.875,0.296875,-0.273438,0.550781,0.637207,0.215637,0.113708,0.731079,down
283326,0.175781,4.925781,9.800781,0.296875,-0.273438,0.550781,0.634949,0.218323,0.113464,0.732361,down
283331,0.40625,4.734375,9.757813,0.296875,-0.273438,0.550781,0.634583,0.218689,0.111328,0.732849,down
283336,1.515625,3.277344,8.953125,-0.892578,-0.632812,0.326172,0.634583,0.218689,0.111328,0.732849,down
283341,1.4375,2.242188,8.6875,-0.892578,-0.632812,0.326172,0.634521,0.218689,0.108398,0.733398,down
283346,1.515625,1.628906,8.808594,-0.867187,-0.626953,0.208984,0.634949,0.218445,0.103333,0.733765,down
283352,1.59375,1.667969,9.191406,-0.617187,-0.552734,0.013672,0.635376,0.218506,0.101135,0.733704,down
283357,1.402344,2.207031,9.492188,-0.449219,-0.507812,-0.058594,0.635864,0.218628,0.099182,0.733521,down
283362,0.941406,2.820313,9.378906,-0.449219,-0.507812,-0.058594,0.636292,0.219055,0.0979,0.733154,down
283368,1.015625,3.046875,9.269531,-0.449219,-0.507812,-0.058594,0.636719,0.21991,0.097107,0.732666,down
283373,0.980469,3.316406,9.339844,-0.449219,-0.507812,-0.058594,0.637207,0.221436,0.096741,0.731812,down
283380,1.210938,3.621094,9.113281,0.679687,-0.652344,-0.339844,0.637207,0.221436,0.096741,0.731812,down
283385,1.476563,3.851563,8.957031,0.794922,-0.6875,-0.40625,0.637207,0.221436,0.096741,0.731812,down
283391,1.628906,4.464844,8.996094,0.794922,-0.6875,-0.40625,0.637207,0.221436,0.096741,0.731812,down
283396,1.746094,4.582031,8.996094,0.767578,-0.699219,-0.509766,0.639832,0.232849,0.099182,0.725647,down
283401,1.707031,4.734375,8.574219,0.767578,-0.699219,-0.509766,0.640747,0.234741,0.099426,0.724182,down
283406,1.59375,4.695312,8.570313,0.767578,-0.699219,-0.509766,0.641724,0.236023,0.099304,0.722961,down
283411,1.628906,4.582031,8.570313,0.767578,-0.699219,-0.509766,0.641724,0.236023,0.099304,0.722961,down
283416,1.667969,4.234375,8.503906,-0.148437,-0.574219,-0.632812,0.64447,0.237366,0.097778,0.720276,down
283421,1.59375,3.585938,8.152344,-0.148437,-0.574219,-0.632812,0.64624,0.237305,0.096497,0.718872,down
283426,1.628906,3.238281,8.117188,-0.148437,-0.574219,-0.632812,0.648193,0.236938,0.095154,0.717407,down
283431,1.785156,2.703125,8.460938,-0.148437,-0.574219,-0.632812,0.648193,0.236938,0.095154,0.717407,down
283436,1.628906,2.472656,8.648438,-0.671875,-0.392578,-1.021484,0.652832,0.23584,0.092834,0.713867,down
283441,1.476563,4.007812,9.496094,-0.671875,-0.392578,-1.021484,0.652832,0.23584,0.092834,0.713867,down
283446,1.746094,4.425781,9.800781,-0.048828,-0.556641,-1.328125,0.655579,0.235657,0.092041,0.711487,down
283451,1.707031,4.65625,9.53125,-0.048828,-0.556641,-1.328125,0.657837,0.236023,0.091736,0.70929,down
283456,1.554688,5.269531,9.113281,0.039063,-0.53125,-1.376953,0.657837,0.236023,0.091736,0.70929,down
283461,1.667969,5.996094,9.335938,0.039063,-0.53125,-1.376953,0.662964,0.237488,0.091675,0.704041,down
283466,2.011719,6.574219,9.796875,0.039063,-0.53125,-1.376953,0.665527,0.238647,0.091553,0.701233,down
283471,2.011719,6.574219,9.796875,0.125,-0.777344,-1.203125,0.667664,0.239746,0.09137,0.698853,down
283476,2.511719,6.265625,9.6875,0.056641,-0.78125,-1.095703,0.669739,0.241028,0.090942,0.696472,down
283481,2.511719,6.265625,9.6875,-0.023437,-0.730469,-0.947266,0.671753,0.242187,0.090332,0.694214,down
283487,2.472656,6.226562,9.074219,-0.150391,-0.701172,-0.761719,0.671753,0.242187,0.090332,0.694214,down
283493,2.472656,6.226562,9.074219,-0.222656,-0.740234,-0.552734,0.675964,0.24469,0.086975,0.689697,down
283498,2.855469,6.609375,9.035156,-0.222656,-0.740234,-0.552734,0.676758,0.245422,0.08551,0.688782,down
283503,2.703125,6.152344,8.996094,-0.345703,-0.640625,-0.130859,0.677368,0.246033,0.084045,0.688171,down
283508,2.664063,5.730469,8.847656,-0.357422,-0.603516,-0.066406,0.677917,0.246521,0.082397,0.687622,down
283513,2.589844,5.308594,8.574219,-0.357422,-0.603516,-0.066406,0.677917,0.246521,0.082397,0.687622,down
283518,2.433594,5.039062,8.535156,-0.345703,-0.529297,-0.021484,0.677917,0.246521,0.082397,0.687622,down
283523,2.207031,4.695312,8.425781,-0.316406,-0.496094,-0.048828,0.677917,0.246521,0.082397,0.687622,down
283529,2.089844,4.65625,8.347656,-0.294922,-0.527344,-0.105469,0.677917,0.246521,0.082397,0.687622,down
283535,2.011719,4.695312,8.5,-0.310547,-0.552734,-0.173828,0.677917,0.246521,0.082397,0.687622,down
283541,2.011719,4.425781,8.765625,-0.306641,-0.570312,-0.246094,0.677917,0.246521,0.082397,0.687622,down
283546,1.785156,4.082031,8.652344,-0.257813,-0.574219,-0.3125,0.677917,0.246521,0.082397,0.687622,down
283552,1.667969,4.121094,8.613281,-0.175781,-0.568359,-0.353516,0.683044,0.25061,0.070801,0.682373,down
283557,1.59375,4.273437,8.648438,0.089844,-0.640625,-0.3125,0.683716,0.251709,0.069946,0.681335,down
283562,1.667969,4.390625,8.804688,0.210937,-0.650391,-0.259766,0.684265,0.253052,0.069336,0.68042,down
283568,1.820313,4.542969,8.6875,0.294922,-0.625,-0.171875,0.68457,0.254456,0.068848,0.679626,down
283573,2.320313,4.847656,8.0,0.294922,-0.625,-0.171875,0.684692,0.256042,0.068481,0.678955,down
283578,2.433594,5.15625,8.269531,0.369141,-0.611328,-0.013672,0.684631,0.25769,0.068115,0.678406,down
283585,2.472656,5.195312,8.226563,0.314453,-0.554687,0.046875,0.684631,0.25769,0.068115,0.678406,down
283590,2.433594,5.039062,8.152344,0.193359,-0.482422,0.101563,0.684631,0.25769,0.068115,0.678406,down
283596,2.550781,5.15625,8.078125,-0.015625,-0.400391,0.195312,0.684631,0.25769,0.068115,0.678406,down
283601,2.550781,4.886719,8.148438,-0.015625,-0.400391,0.195312,0.683777,0.262573,0.065918,0.677612,down
283606,2.742188,4.695312,8.265625,-0.015625,-0.400391,0.195312,0.683533,0.263123,0.064941,0.677734,down
283612,2.703125,4.542969,8.230469,-0.369141,-0.318359,0.246094,0.683533,0.263123,0.064941,0.677734,down
283618,2.703125,4.3125,8.003906,-0.369141,-0.318359,0.246094,0.683044,0.263428,0.061218,0.678406,down
283623,2.703125,4.007812,7.808594,-0.369141,-0.318359,0.246094,0.682983,0.263245,0.060059,0.678711,down
283628,2.703125,4.007812,7.808594,-0.388672,-0.220703,0.240234,0.682861,0.262939,0.058716,0.679077,down
283634,3.085938,3.929688,7.964844,-0.388672,-0.220703,0.240234,0.682739,0.262756,0.057739,0.679321,down
283640,3.125,3.738281,8.003906,-0.388672,-0.220703,0.240234,0.682739,0.262756,0.057739,0.679321,down
283646,3.164063,3.699219,8.078125,-0.166016,-0.117188,0.132812,0.682739,0.262756,0.057739,0.679321,down
283651,3.355469,3.660156,8.039063,-0.068359,-0.083984,0.078125,0.682373,0.262695,0.055603,0.679871,down
283656,3.660156,3.8125,8.347656,-0.068359,-0.083984,0.078125,0.682373,0.262695,0.055603,0.679871,down
283661,3.660156,3.8125,8.464844,-0.068359,-0.083984,0.078125,0.682373,0.262878,0.055664,0.679871,down
283666,3.585938,3.738281,8.53125,0.042969,-0.009766,-0.068359,0.682373,0.262878,0.055664,0.679871,down
283672,3.621094,3.699219,8.726563,0.064453,-0.039063,-0.082031,0.682617,0.263367,0.055969,0.679382,down
283677,3.546875,3.660156,9.035156,0.064453,-0.039063,-0.082031,0.682739,0.263672,0.056091,0.679077,down
283682,3.394531,3.585938,8.804688,0.09375,-0.097656,-0.076172,0.682739,0.263672,0.056091,0.679077,down
283687,3.316406,3.660156,8.6875,0.09375,-0.097656,-0.076172,0.682922,0.264282,0.056274,0.67865,down
283692,3.355469,3.8125,8.460938,0.09375,-0.097656,-0.076172,0.682922,0.264709,0.056274,0.678528,down
283697,3.507813,3.96875,8.230469,0.09375,-0.097656,-0.076172,0.6828,0.265137,0.056152,0.678467,down
283703,3.507813,4.042969,8.304688,0.076172,-0.140625,0.058594,0.682739,0.265503,0.056091,0.678406,down
283708,3.585938,4.160156,8.265625,0.076172,-0.140625,0.058594,0.682617,0.265808,0.055969,0.678406,down
283714,3.238281,4.464844,8.121094,0.076172,-0.140625,0.058594,0.682434,0.266174,0.055847,0.678467,down
283719,3.277344,4.425781,8.039063,0.011719,-0.144531,0.058594,0.682434,0.266174,0.055847,0.678467,down
283724,3.316406,4.273437,7.925781,-0.058594,-0.152344,0.044922,0.682312,0.266663,0.055359,0.678467,down
283729,3.238281,4.273437,7.804687,-0.070312,-0.158203,0.007813,0.682312,0.266846,0.054993,0.678406,down
283735,3.125,4.695312,7.925781,-0.070312,-0.158203,0.007813,0.682312,0.266846,0.054993,0.678406,down
283740,3.125,4.773437,8.0,-0.089844,-0.166016,-0.03125,0.682312,0.266846,0.054993,0.678406,down
283745,3.046875,4.808594,8.042969,-0.105469,-0.150391,-0.03125,0.682312,0.266846,0.054993,0.678406,down
283750,3.046875,4.582031,8.039063,-0.105469,-0.150391,-0.03125,0.6828,0.267334,0.053528,0.677795,down
283755,3.007813,4.503906,8.042969,-0.185547,-0.103516,-0.019531,0.6828,0.267334,0.053528,0.677795,down
283760,2.972656,4.390625,8.082031,-0.212891,-0.070312,-0.025391,0.6828,0.267334,0.053528,0.677795,down
283766,2.972656,4.273437,8.230469,-0.212891,-0.070312,-0.025391,0.68335,0.266846,0.052246,0.677551,down
283772,2.78125,4.160156,8.503906,-0.212891,-0.070312,-0.025391,0.683777,0.266235,0.051575,0.677429,down
283777,2.703125,4.082031,8.53125,-0.166016,-0.021484,-0.044922,0.683777,0.266235,0.051575,0.677429,down
283782,2.664063,4.042969,8.648438,-0.166016,-0.021484,-0.044922,0.68396,0.265991,0.05127,0.677368,down
283787,2.625,4.042969,8.648438,-0.166016,-0.021484,-0.044922,0.684326,0.265625,0.050842,0.677185,down
283792,2.664063,4.121094,8.765625,-0.166016,-0.021484,-0.044922,0.684326,0.265625,0.050842,0.677185,down
283797,2.78125,4.199219,8.6875,-0.058594,-0.080078,-0.044922,0.68457,0.265625,0.050476,0.676941,down
283802,2.625,4.199219,8.382813,-0.058594,-0.080078,-0.044922,0.684631,0.265625,0.050476,0.676819,down
283807,2.550781,4.234375,8.425781,-0.058594,-0.080078,-0.044922,0.684692,0.265686,0.050476,0.676758,down
283812,2.589844,4.351562,8.535156,-0.058594,-0.080078,-0.044922,0.684692,0.265686,0.050476,0.676758,down
283817,2.625,4.390625,8.570313,0.023437,-0.021484,-0.003906,0.684692,0.265869,0.050598,0.676697,down
283822,2.589844,4.234375,8.503906,0.023437,-0.021484,-0.003906,0.684692,0.26593,0.050659,0.676697,down
283827,2.589844,4.199219,8.386719,0.023437,-0.021484,-0.003906,0.684692,0.266052,0.050659,0.676636,down
283832,2.664063,4.082031,8.148438,0.023437,-0.021484,-0.003906,0.684692,0.266052,0.050659,0.676636,down
283837,2.703125,4.273437,8.1875,0.013672,-0.052734,-0.007813,0.684692,0.266052,0.050659,0.676636,down
283842,2.664063,4.351562,8.148438,0.013672,-0.052734,-0.007813,0.684814,0.266418,0.050598,0.676392,down
283847,2.742188,4.160156,8.191406,-0.072266,-0.03125,-0.080078,0.684814,0.266418,0.050598,0.676392,down
283852,2.742188,4.007812,8.191406,-0.072266,-0.03125,-0.080078,0.684937,0.266418,0.050537,0.67627,down
283857,2.664063,3.929688,8.152344,-0.083984,-0.013672,-0.117188,0.684937,0.266418,0.050537,0.67627,down
283862,2.703125,3.738281,8.230469,-0.089844,-0.023437,-0.181641,0.685486,0.266174,0.050415,0.675842,down
283867,2.78125,3.8125,8.347656,-0.089844,-0.023437,-0.181641,0.686218,0.265991,0.050354,0.675171,down
283872,2.703125,3.929688,8.34375,-0.089844,-0.023437,-0.181641,0.686218,0.265991,0.050354,0.675171,down
283877,2.742188,4.042969,8.230469,-0.089844,-0.023437,-0.181641,0.687195,0.265808,0.050293,0.674255,down
283882,2.78125,4.042969,8.304688,-0.089844,-0.023437,-0.181641,0.687195,0.265808,0.050293,0.674255,down
283887,2.816406,4.082031,8.382813,-0.169922,-0.136719,-0.279297,0.687195,0.265808,0.050293,0.674255,down
283893,2.894531,4.160156,8.574219,-0.169922,-0.136719,-0.279297,0.688843,0.265564,0.049622,0.672668,down
283898,2.894531,4.160156,8.53125,-0.169922,-0.136719,-0.279297,0.689514,0.265503,0.049316,0.672058,down
283903,2.933594,4.121094,8.53125,-0.154297,-0.169922,-0.314453,0.690186,0.265442,0.04895,0.671387,down
283909,2.933594,4.234375,8.5,-0.154297,-0.169922,-0.314453,0.690796,0.265503,0.048706,0.670837,down
283914,3.085938,4.390625,8.308594,-0.154297,-0.169922,-0.314453,0.691345,0.265564,0.048401,0.670166,down
283919,3.085938,4.617187,8.226563,-0.039063,-0.185547,-0.269531,0.691345,0.265564,0.048401,0.670166,down
283924,3.085938,4.65625,8.226563,-0.003906,-0.167969,-0.228516,0.691345,0.265564,0.048401,0.670166,down
283929,3.164063,4.734375,8.117188,0.017578,-0.130859,-0.1875,0.691345,0.265564,0.048401,0.670166,down
283936,2.933594,4.886719,8.082031,0.017578,-0.130859,-0.1875,0.691345,0.265564,0.048401,0.670166,down
283941,2.78125,4.847656,8.042969,0.037109,-0.037109,-0.082031,0.691345,0.265564,0.048401,0.670166,down
283947,2.398438,5.269531,8.152344,0.056641,0.005859,-0.033203,0.691345,0.265564,0.048401,0.670166,down
283952,2.472656,5.269531,8.265625,0.035156,0.025391,0.060547,0.691345,0.265564,0.048401,0.670166,down
283957,2.589844,4.847656,8.308594,0.035156,0.025391,0.060547,0.693115,0.266846,0.048462,0.667847,down
283962,2.433594,4.082031,8.386719,0.035156,0.025391,0.060547,0.692993,0.266785,0.048523,0.667969,down
283967,2.511719,4.007812,8.5,-0.048828,-0.021484,0.037109,0.692932,0.266602,0.048523,0.668091,down
283972,2.589844,3.929688,8.648438,-0.046875,-0.054687,0.011719,0.692932,0.266541,0.048462,0.668152,down
283977,2.664063,3.890625,8.652344,-0.046875,-0.054687,0.011719,0.692932,0.266541,0.048279,0.668213,down
283983,2.816406,4.042969,8.535156,-0.046875,-0.054687,0.011719,0.692993,0.266785,0.048035,0.668091,down
283988,2.816406,4.007812,8.425781,-0.007813,-0.107422,-0.019531,0.692993,0.266907,0.047913,0.667969,down
283993,2.855469,4.042969,8.308594,0.001953,-0.117188,-0.025391,0.693054,0.267151,0.047729,0.667847,down
283998,2.933594,4.390625,8.226563,0.001953,-0.117188,-0.025391,0.693115,0.267334,0.047546,0.667725,down
284003,2.816406,4.582031,8.152344,0.001953,-0.117188,-0.025391,0.693176,0.267517,0.047424,0.667603,down
284008,2.816406,4.734375,8.148438,0.011719,-0.103516,-0.007813,0.693176,0.267761,0.047302,0.66748,down
284014,2.855469,4.734375,8.082031,0.011719,-0.103516,-0.007813,0.693237,0.267883,0.04718,0.667419,down
284020,2.78125,4.582031,8.121094,0.011719,-0.103516,-0.007813,0.693237,0.268005,0.046997,0.667358,down
284026,2.742188,4.503906,8.304688,-0.087891,-0.080078,0.007813,0.693237,0.268005,0.046997,0.667358,down
284031,2.78125,4.464844,8.503906,-0.087891,-0.091797,0.003906,0.693237,0.268005,0.046997,0.667358,down
284036,2.742188,4.007812,8.464844,-0.072266,-0.091797,0.003906,0.693237,0.268005,0.046997,0.667358,down
284041,2.78125,3.890625,8.308594,-0.072266,-0.087891,-0.001953,0.693237,0.268005,0.046997,0.667358,down
284046,2.816406,3.890625,8.421875,-0.072266,-0.087891,-0.001953,0.693542,0.268127,0.045715,0.667114,down
284052,2.816406,3.929688,8.53125,-0.001953,-0.113281,-0.005859,0.693542,0.268127,0.045715,0.667114,down
284057,2.742188,3.96875,8.804688,-0.001953,-0.113281,-0.005859,0.693604,0.268555,0.045227,0.66687,down
284062,2.703125,3.96875,8.730469,-0.001953,-0.113281,-0.005859,0.693604,0.268555,0.045227,0.66687,down
284067,2.550781,4.007812,8.730469,0.171875,-0.179687,0.029297,0.693604,0.268555,0.045227,0.66687,down
284072,2.78125,4.234375,8.570313,0.171875,-0.179687,0.029297,0.693481,0.26947,0.045166,0.666687,down
284077,2.816406,4.199219,8.386719,0.171875,-0.179687,0.029297,0.693298,0.270203,0.045166,0.666565,down
284083,2.855469,4.3125,8.226563,0.185547,-0.185547,0.056641,0.693298,0.270203,0.045166,0.666565,down
284088,2.933594,4.234375,8.152344,0.185547,-0.185547,0.056641,0.692688,0.272217,0.045105,0.666321,down
284093,3.007813,4.3125,8.191406,0.185547,-0.185547,0.056641,0.692505,0.272766,0.045105,0.666321,down
284098,2.972656,4.390625,8.191406,0.167969,-0.125,0.082031,0.692261,0.273376,0.045166,0.666321,down
284103,2.972656,4.390625,8.265625,0.164062,-0.113281,0.095703,0.692017,0.273865,0.045166,0.666382,down
284108,2.972656,4.425781,8.191406,0.128906,-0.083984,0.101563,0.691772,0.274292,0.045227,0.666443,down
284113,3.007813,4.425781,8.078125,0.128906,-0.083984,0.101563,0.691589,0.274597,0.045227,0.666565,down
284118,2.972656,4.542969,8.078125,0.083984,-0.091797,0.083984,0.691589,0.274597,0.045227,0.666565,down
284123,2.933594,4.464844,8.191406,0.0625,-0.082031,0.070312,0.691345,0.274963,0.045166,0.666626,down
284128,2.855469,4.390625,8.082031,0.0625,-0.082031,0.070312,0.69104,0.275513,0.045044,0.666748,down
284134,2.933594,4.464844,8.121094,0.0625,-0.082031,0.070312,0.690918,0.275757,0.044983,0.666748,down
284139,2.894531,4.503906,8.230469,0.060547,-0.09375,0.052734,0.690918,0.275757,0.044983,0.666748,down
284144,2.78125,4.542969,8.386719,0.052734,-0.091797,0.052734,0.690918,0.275757,0.044983,0.666748,down
284149,2.703125,4.542969,8.503906,0.052734,-0.091797,0.052734,0.690552,0.276611,0.0448,0.666809,down
284155,2.78125,4.351562,8.230469,0.052734,-0.091797,0.052734,0.690369,0.276978,0.044678,0.666809,down
284162,2.855469,4.464844,8.308594,0.097656,-0.132812,0.097656,0.690369,0.276978,0.044678,0.666809,down
284167,2.855469,4.464844,8.308594,0.130859,-0.15625,0.123047,0.689941,0.277832,0.044495,0.666931,down
284172,2.972656,4.425781,8.082031,0.119141,-0.121094,0.146484,0.689941,0.277832,0.044495,0.666931,down
284177,2.972656,4.425781,8.042969,0.119141,-0.121094,0.146484,0.689392,0.278809,0.044312,0.667114,down
284183,2.972656,4.582031,8.039063,0.115234,-0.105469,0.158203,0.689392,0.278809,0.044312,0.667114,down
284188,2.972656,4.617187,7.960937,0.115234,-0.105469,0.158203,0.688354,0.279907,0.044006,0.667725,down
284194,3.199219,4.503906,8.078125,0.115234,-0.105469,0.158203,0.68811,0.280151,0.043884,0.667908,down
284199,3.164063,4.464844,8.042969,0.003906,-0.064453,0.117188,0.687866,0.280334,0.043701,0.668091,down
284205,3.125,4.199219,7.964844,0.003906,-0.064453,0.117188,0.687744,0.280396,0.043579,0.668213,down
284210,3.199219,4.199219,8.082031,-0.035156,-0.044922,0.080078,0.687622,0.280457,0.043457,0.668335,down
284216,3.316406,4.160156,8.078125,-0.054687,-0.039063,0.046875,0.687622,0.280457,0.043457,0.668335,down
284222,3.199219,3.929688,8.042969,-0.054687,-0.039063,0.046875,0.687622,0.280457,0.043457,0.668335,down
284227,3.164063,3.929688,8.226563,-0.101563,0.003906,-0.009766,0.687622,0.280457,0.043457,0.668335,down
284233,3.164063,4.199219,8.5,-0.0625,-0.009766,-0.025391,0.687744,0.28009,0.042847,0.668335,down
284238,2.933594,4.464844,8.304688,-0.0625,-0.009766,-0.025391,0.687805,0.28009,0.042847,0.668335,down
284243,3.046875,4.351562,8.1875,-0.03125,-0.009766,0.003906,0.687805,0.28009,0.042847,0.668335,down
284248,3.085938,4.273437,8.078125,-0.03125,-0.009766,0.003906,0.687805,0.280029,0.042725,0.668335,down
284253,3.125,4.3125,8.121094,-0.027344,0.007813,0.013672,0.687805,0.280029,0.042725,0.668335,down
284258,3.125,4.351562,8.191406,-0.027344,0.007813,0.013672,0.687805,0.279968,0.042725,0.668335,down
284263,3.125,4.273437,8.269531,-0.011719,0.017578,-0.021484,0.687866,0.279907,0.042725,0.668335,down
284268,3.007813,4.199219,8.226563,-0.011719,0.017578,-0.021484,0.687866,0.279907,0.042725,0.668335,down
284274,2.933594,4.390625,8.117188,-0.011719,0.017578,-0.021484,0.687988,0.279846,0.042847,0.668274,down
284280,3.085938,4.351562,8.003906,-0.011719,0.017578,-0.021484,0.688049,0.279785,0.042847,0.668213,down
284285,3.085938,4.390625,8.039063,-0.044922,0.001953,-0.035156,0.68811,0.279663,0.042786,0.668152,down
284291,3.007813,4.390625,8.078125,-0.060547,0.017578,-0.044922,0.688232,0.279602,0.042786,0.668091,down
284297,3.007813,4.351562,8.148438,-0.048828,0.027344,-0.050781,0.688232,0.279602,0.042786,0.668091,down
284303,3.085938,4.3125,8.148438,-0.054687,0.033203,-0.052734,0.688232,0.279602,0.042786,0.668091,down
284308,3.046875,4.425781,8.121094,-0.060547,0.050781,-0.044922,0.688232,0.279602,0.042786,0.668091,down
284313,3.085938,4.425781,8.226563,-0.058594,0.058594,-0.035156,0.688782,0.278748,0.042908,0.667847,down
284318,3.046875,4.464844,8.34375,-0.058594,0.058594,-0.035156,0.688782,0.278748,0.042908,0.667847,down
284323,2.972656,4.425781,8.386719,-0.078125,0.072266,-0.025391,0.688965,0.278259,0.042969,0.667847,down
284328,2.816406,4.273437,8.503906,-0.078125,0.072266,-0.025391,0.688965,0.278259,0.042969,0.667847,down
284333,2.816406,4.234375,8.386719,-0.041016,0.054687,0.021484,0.688965,0.278259,0.042969,0.667847,down
284338,2.816406,4.121094,8.460938,-0.041016,0.054687,0.021484,0.689026,0.277832,0.04303,0.66803,down
284344,3.085938,3.96875,8.386719,-0.041016,0.054687,0.021484,0.688965,0.277649,0.043091,0.668152,down
284350,3.125,4.007812,8.304688,-0.041016,0.054687,0.021484,0.688965,0.277588,0.043152,0.668152,down
284356,3.046875,4.082031,8.269531,0.023437,0.037109,-0.019531,0.688904,0.277588,0.043274,0.668152,down
284361,3.085938,4.160156,8.191406,0.039063,0.041016,-0.033203,0.688904,0.277588,0.043274,0.668152,down
284367,3.007813,4.273437,8.117188,0.039063,0.041016,-0.033203,0.688904,0.277588,0.043274,0.668152,down
284372,2.933594,4.390625,8.152344,0.052734,0.052734,-0.037109,0.688904,0.277588,0.043274,0.668152,down
284377,3.007813,4.503906,8.230469,0.060547,0.044922,-0.042969,0.688904,0.277588,0.043274,0.668152,down
284383,3.164063,4.734375,8.039063,0.064453,0.033203,-0.056641,0.689087,0.277649,0.044556,0.667847,down
284388,3.085938,4.808594,7.964844,-0.011719,0.046875,-0.052734,0.689087,0.277649,0.044556,0.667847,down
284393,2.972656,4.808594,8.003906,-0.011719,0.046875,-0.052734,0.689209,0.277588,0.044678,0.667786,down
284398,3.355469,4.886719,8.0,-0.048828,0.054687,-0.042969,0.689209,0.277588,0.044678,0.667786,down
284403,2.933594,4.542969,8.042969,-0.048828,0.054687,-0.042969,0.689392,0.277222,0.0448,0.667725,down
284408,2.703125,4.390625,7.847656,-0.048828,0.054687,-0.042969,0.689514,0.276917,0.0448,0.667725,down
284414,2.625,4.390625,8.226563,-0.166016,0.123047,0.005859,0.689697,0.276062,0.044739,0.667908,down
284420,2.703125,4.082031,8.386719,-0.166016,0.123047,0.005859,0.689758,0.275879,0.044617,0.667969,down
284425,2.703125,3.851563,8.265625,-0.095703,0.011719,0.0,0.689758,0.275696,0.044495,0.667969,down
284430,2.816406,3.777344,8.308594,-0.046875,-0.029297,-0.007813,0.689819,0.275574,0.044373,0.667969,down
284435,2.894531,3.8125,8.421875,-0.011719,-0.042969,-0.013672,0.689819,0.275574,0.044373,0.667969,down
284440,2.703125,3.929688,8.382813,-0.011719,-0.042969,-0.013672,0.689819,0.275574,0.044373,0.667969,down
284447,2.742188,4.082031,8.421875,0.068359,-0.058594,-0.027344,0.689819,0.275574,0.044373,0.667969,down
284452,2.816406,4.160156,8.34375,0.123047,-0.078125,-0.037109,0.689819,0.275574,0.044373,0.667969,down
284458,2.816406,4.199219,8.191406,0.123047,-0.078125,-0.037109,0.689819,0.275574,0.044373,0.667969,down
284463,2.855469,4.273437,8.230469,0.150391,-0.130859,-0.064453,0.689819,0.275574,0.044373,0.667969,down
284468,2.894531,4.273437,8.226563,0.150391,-0.130859,-0.064453,0.689941,0.277344,0.044678,0.667114,down
284473,2.933594,4.503906,8.121094,0.136719,-0.132812,-0.068359,0.689941,0.277344,0.044678,0.667114,down
284478,2.550781,4.425781,8.382813,0.136719,-0.132812,-0.068359,0.690002,0.278259,0.0448,0.666687,down
284483,3.199219,4.542969,8.269531,0.056641,-0.123047,-0.068359,0.690002,0.278259,0.0448,0.666687,down
284488,3.429688,4.464844,8.078125,0.056641,-0.123047,-0.068359,0.690125,0.278992,0.0448,0.66626,down
284494,3.007813,4.121094,8.230469,0.056641,-0.123047,-0.068359,0.69043,0.279236,0.044617,0.665894,down
284499,3.007813,4.082031,8.574219,-0.025391,-0.087891,-0.076172,0.690613,0.279297,0.044434,0.665649,down
284504,2.933594,3.96875,8.574219,-0.025391,-0.087891,-0.076172,0.690796,0.279297,0.044312,0.665466,down
284509,3.085938,3.777344,8.503906,-0.001953,-0.087891,-0.082031,0.690979,0.279419,0.04425,0.665283,down
284515,3.125,4.273437,8.1875,-0.001953,-0.087891,-0.082031,0.691101,0.279541,0.044189,0.665039,down
284520,3.164063,4.3125,8.082031,0.023437,-0.060547,-0.083984,0.691101,0.279541,0.044189,0.665039,down
284526,3.238281,4.425781,8.078125,0.033203,-0.056641,-0.074219,0.691101,0.279541,0.044189,0.665039,down
284531,3.199219,4.390625,8.082031,0.033203,-0.056641,-0.074219,0.691406,0.280029,0.04425,0.66449,down
284538,3.046875,4.464844,8.078125,0.066406,-0.021484,-0.072266,0.691406,0.280029,0.04425,0.66449,down
284543,2.894531,4.582031,8.082031,0.076172,-0.017578,-0.080078,0.691406,0.280029,0.04425,0.66449,down
284548,2.894531,4.617187,8.117188,0.078125,-0.041016,-0.078125,0.69165,0.280457,0.044678,0.664001,down
284553,2.894531,4.65625,8.078125,0.078125,-0.041016,-0.078125,0.691772,0.280701,0.0448,0.663818,down
284559,2.972656,4.734375,8.003906,0.060547,-0.03125,-0.056641,0.691895,0.281006,0.045044,0.663574,down
284564,3.007813,4.925781,8.078125,0.060547,-0.03125,-0.056641,0.691895,0.281128,0.045105,0.663513,down
284570,2.972656,4.847656,8.039063,0.060547,-0.03125,-0.056641,0.691895,0.281128,0.045166,0.663452,down
284575,2.972656,4.773437,8.003906,-0.005859,0.033203,0.015625,0.691895,0.281128,0.045227,0.663452,down
284580,3.007813,4.503906,8.082031,-0.005859,0.033203,0.015625,0.691895,0.281067,0.045227,0.663513,down
284585,2.972656,4.3125,8.152344,-0.005859,0.033203,0.015625,0.691895,0.280945,0.045288,0.663574,down
284590,2.972656,4.3125,8.152344,-0.015625,0.039063,-0.011719,0.691895,0.280884,0.045349,0.663574,down
284596,2.972656,4.199219,8.347656,-0.015625,0.039063,-0.011719,0.691895,0.280823,0.045471,0.663574,down
284601,3.007813,4.199219,8.425781,-0.015625,0.039063,-0.011719,0.691956,0.280762,0.045593,0.663574,down
284606,3.007813,4.234375,8.382813,0.037109,0.025391,-0.035156,0.691956,0.280762,0.045593,0.663574,down
284611,3.007813,4.234375,8.34375,0.068359,0.021484,-0.046875,0.691956,0.280762,0.045593,0.663574,down
284616,3.046875,4.3125,8.078125,0.076172,0.029297,-0.046875,0.691956,0.280762,0.045593,0.663574,down
284622,3.046875,4.351562,8.039063,0.076172,0.029297,-0.046875,0.692078,0.281006,0.046326,0.663269,down
284628,3.085938,4.425781,8.0,0.074219,0.041016,-0.054687,0.692078,0.281006,0.046326,0.663269,down
284634,3.046875,4.617187,7.882812,0.072266,0.060547,-0.068359,0.692078,0.281006,0.046326,0.663269,down
284639,3.007813,4.808594,7.847656,0.072266,0.060547,-0.068359,0.692322,0.281006,0.047485,0.662964,down
284644,3.007813,4.773437,7.765625,0.072266,0.060547,-0.068359,0.692322,0.281006,0.047485,0.662964,down
284649,3.085938,4.734375,7.738281,-0.013672,0.236328,-0.052734,0.692322,0.281006,0.047485,0.662964,down
284654,3.085938,4.65625,7.921875,-0.013672,0.236328,-0.052734,0.692505,0.280029,0.048706,0.663086,down
284659,3.085938,4.773437,8.039063,-0.013672,0.236328,-0.052734,0.692566,0.27948,0.049255,0.663208,down
284664,3.046875,4.773437,8.148438,-0.033203,0.373047,-0.037109,0.692566,0.27948,0.049255,0.663208,down
284669,3.007813,4.734375,8.152344,-0.033203,0.373047,-0.037109,0.692627,0.278137,0.050476,0.663574,down
284674,2.933594,4.65625,8.152344,-0.033203,0.373047,-0.037109,0.692627,0.277466,0.051086,0.663818,down
284679,2.550781,4.3125,8.503906,-0.033203,0.373047,-0.037109,0.692627,0.277466,0.051086,0.663818,down
284684,2.589844,4.082031,8.769531,0.050781,0.298828,0.025391,0.692627,0.277466,0.051086,0.663818,down
284689,2.78125,4.007812,8.886719,0.050781,0.298828,0.025391,0.692383,0.27594,0.052979,0.664551,down
284694,3.085938,3.851563,8.765625,0.050781,0.298828,0.025391,0.6922,0.275757,0.05365,0.664795,down
284699,3.546875,3.699219,8.347656,0.050781,0.298828,0.025391,0.6922,0.275757,0.05365,0.664795,down
284704,3.621094,3.738281,8.347656,0.181641,0.296875,0.017578,0.691833,0.275391,0.055237,0.665161,down
284709,3.660156,4.042969,8.503906,0.181641,0.296875,0.017578,0.691833,0.275391,0.055237,0.665161,down
284714,3.585938,4.3125,8.648438,0.294922,0.359375,-0.042969,0.691833,0.275391,0.055237,0.665161,down
284719,3.507813,4.464844,8.730469,0.294922,0.359375,-0.042969,0.691467,0.275085,0.057373,0.665527,down
284725,3.238281,4.773437,8.535156,0.294922,0.359375,-0.042969,0.691101,0.274963,0.059937,0.66571,down
284730,3.085938,4.886719,8.503906,0.294922,0.359375,-0.042969,0.690857,0.275024,0.061279,0.665771,down
284735,2.816406,5.15625,8.464844,0.453125,0.376953,-0.042969,0.690613,0.275146,0.062866,0.665894,down
284740,2.511719,5.386719,8.5,0.40625,0.347656,-0.037109,0.690308,0.275269,0.064331,0.666016,down
284746,2.359375,4.886719,8.003906,0.40625,0.347656,-0.037109,0.690063,0.27533,0.06543,0.666138,down
284751,2.359375,4.886719,8.003906,0.242187,0.347656,-0.025391,0.689819,0.275208,0.066711,0.66626,down
284756,2.28125,4.695312,8.003906,0.242187,0.347656,-0.025391,0.689697,0.275024,0.067505,0.666382,down
284761,2.167969,4.65625,8.121094,0.242187,0.347656,-0.025391,0.689514,0.27478,0.06842,0.666565,down
284766,2.207031,4.542969,8.078125,0.242187,0.347656,-0.025391,0.689514,0.27478,0.06842,0.666565,down
284771,2.207031,4.464844,8.152344,0.136719,0.259766,0.023437,0.689514,0.27478,0.06842,0.666565,down
284776,2.320313,4.425781,8.082031,0.134766,0.248047,0.046875,0.689514,0.27478,0.06842,0.666565,down
284782,2.433594,4.582031,7.960937,0.134766,0.248047,0.046875,0.688782,0.274109,0.071106,0.667358,down
284787,2.972656,4.808594,8.121094,0.134766,0.248047,0.046875,0.688782,0.274109,0.071106,0.667358,down
284793,3.125,4.925781,8.1875,0.134766,0.248047,0.046875,0.688232,0.273865,0.072205,0.667908,down
284799,3.355469,5.386719,8.535156,0.189453,0.240234,0.134766,0.688232,0.273865,0.072205,0.667908,down
284804,3.164063,5.421875,8.804688,0.189453,0.240234,0.134766,0.68689,0.273743,0.074219,0.669128,down
284809,3.316406,5.347656,8.570313,0.099609,0.298828,0.193359,0.68689,0.273743,0.074219,0.669128,down
284814,3.238281,5.078125,8.570313,0.099609,0.298828,0.193359,0.686462,0.27356,0.074768,0.669556,down
284819,3.238281,5.078125,8.570313,0.050781,0.3125,0.183594,0.686035,0.273193,0.075378,0.670105,down
284824,3.085938,4.734375,8.570313,0.050781,0.3125,0.183594,0.685669,0.272827,0.075806,0.670593,down
284829,3.125,4.65625,8.5,0.054687,0.300781,0.146484,0.685669,0.272827,0.075806,0.670593,down
284834,2.933594,4.542969,8.53125,0.054687,0.300781,0.146484,0.684875,0.272034,0.076843,0.67157,down
284839,2.933594,4.542969,8.53125,0.054687,0.300781,0.146484,0.684204,0.271484,0.078064,0.672363,down
284844,2.855469,4.542969,8.613281,0.054687,0.300781,0.146484,0.684204,0.271484,0.078064,0.672363,down
284849,2.625,4.425781,8.652344,0.404297,0.308594,0.140625,0.684204,0.271484,0.078064,0.672363,down
284855,2.207031,4.542969,8.308594,0.404297,0.308594,0.140625,0.682617,0.271851,0.081116,0.673462,down
284861,2.050781,4.582031,8.304688,0.404297,0.308594,0.140625,0.681763,0.272461,0.08252,0.67395,down
284866,2.359375,4.425781,8.382813,0.666016,0.203125,0.271484,0.680847,0.273254,0.083801,0.674377,down
284871,2.472656,4.617187,8.347656,0.683594,0.197266,0.320313,0.679932,0.274048,0.084961,0.674805,down
284877,2.511719,5.078125,8.191406,0.683594,0.197266,0.320313,0.679932,0.274048,0.084961,0.674805,down
284882,2.589844,5.308594,8.347656,0.605469,0.1875,0.419922,0.679932,0.274048,0.084961,0.674805,down
284888,2.742188,5.347656,8.53125,0.525391,0.173828,0.460937,0.679932,0.274048,0.084961,0.674805,down
284893,2.78125,5.269531,8.5,0.525391,0.173828,0.460937,0.679932,0.274048,0.084961,0.674805,down
284899,2.894531,5.039062,8.535156,0.171875,0.15625,0.550781,0.679932,0.274048,0.084961,0.674805,down
284904,2.894531,4.773437,8.535156,0.171875,0.15625,0.550781,0.673096,0.277771,0.089966,0.679504,down
284909,2.933594,4.542969,8.574219,0.171875,0.15625,0.550781,0.671936,0.277893,0.090088,0.680603,down
284914,2.933594,4.503906,8.464844,0.171875,0.15625,0.550781,0.670959,0.277954,0.090149,0.681519,down
284920,2.933594,4.3125,8.574219,0.072266,0.085937,0.53125,0.668945,0.278137,0.089966,0.683411,down
284925,2.78125,4.160156,8.464844,0.072266,0.085937,0.53125,0.66803,0.27832,0.089844,0.684265,down
284931,2.703125,4.199219,8.570313,0.072266,0.085937,0.53125,0.667297,0.278564,0.089722,0.684875,down
284936,2.589844,4.042969,8.460938,0.1875,-0.046875,0.390625,0.666382,0.278992,0.089661,0.685608,down
284941,2.320313,3.890625,8.230469,0.1875,-0.046875,0.390625,0.665527,0.279663,0.089661,0.686157,down
284947,2.207031,3.851563,8.152344,0.1875,-0.046875,0.390625,0.664917,0.280334,0.089661,0.686523,down
284952,2.207031,3.851563,8.078125,0.380859,-0.232422,0.326172,0.664917,0.280334,0.089661,0.686523,down
284959,2.472656,3.929688,7.882812,0.425781,-0.294922,0.306641,0.664917,0.280334,0.089661,0.686523,down
284964,2.589844,3.96875,7.804687,0.451172,-0.351563,0.269531,0.662537,0.283936,0.089783,0.687256,down
284969,2.742188,4.082031,7.699219,0.451172,-0.367188,0.201172,0.661926,0.285339,0.089783,0.687317,down
284974,2.816406,4.199219,7.578125,0.451172,-0.367188,0.201172,0.661255,0.286804,0.089783,0.687317,down
284980,2.742188,4.3125,7.425781,0.451172,-0.367188,0.201172,0.660217,0.289368,0.089783,0.687256,down
284985,2.742188,4.3125,7.382812,0.257813,-0.279297,0.123047,0.659851,0.290466,0.089722,0.687195,down
284990,2.625,4.234375,7.421875,0.175781,-0.25,0.09375,0.659546,0.291199,0.0896,0.687134,down
284995,2.398438,4.199219,7.3125,0.101563,-0.220703,0.054687,0.659363,0.291931,0.089355,0.687012,down
285001,1.746094,4.425781,6.773437,0.101563,-0.220703,0.054687,0.659363,0.292358,0.089111,0.68689,down
285006,1.628906,4.542969,6.582031,-0.113281,-0.236328,-0.054687,0.659485,0.292664,0.088623,0.686707,down
285012,1.554688,4.542969,6.472656,-0.244141,-0.257813,-0.128906,0.65979,0.292786,0.088013,0.686462,down
285017,1.476563,4.199219,6.316406,-0.373047,-0.275391,-0.226562,0.65979,0.292786,0.088013,0.686462,down
285022,1.476563,4.007812,6.277344,-0.462891,-0.300781,-0.316406,0.65979,0.292786,0.088013,0.686462,down
285027,1.515625,3.777344,6.234375,-0.523437,-0.298828,-0.408203,0.65979,0.292786,0.088013,0.686462,down
285032,1.554688,3.546875,6.050781,-0.529297,-0.277344,-0.490234,0.65979,0.292786,0.088013,0.686462,down
285037,1.628906,3.238281,5.777344,-0.529297,-0.277344,-0.490234,0.65979,0.292786,0.088013,0.686462,down
285042,1.628906,3.203125,5.777344,-0.388672,-0.179687,-0.601562,0.65979,0.292786,0.088013,0.686462,down
285047,1.707031,3.164063,5.894531,-0.263672,-0.101563,-0.632812,0.65979,0.292786,0.088013,0.686462,down
285053,1.746094,3.355469,6.089844,-0.083984,-0.015625,-0.628906,0.65979,0.292786,0.088013,0.686462,down
285058,1.628906,3.8125,6.238281,0.058594,0.0625,-0.589844,0.65979,0.292786,0.088013,0.686462,down
285063,1.667969,4.007812,6.277344,0.175781,0.148437,-0.539062,0.65979,0.292786,0.088013,0.686462,down
285068,1.667969,4.199219,6.390625,0.238281,0.228516,-0.466797,0.65979,0.292786,0.088013,0.686462,down
285074,1.707031,4.425781,6.816406,0.238281,0.228516,-0.466797,0.67218,0.289001,0.086853,0.676086,down
285079,1.746094,6.417969,7.617187,0.238281,0.228516,-0.466797,0.67218,0.289001,0.086853,0.676086,down
285084,2.207031,5.460937,8.304688,0.261719,0.367188,-0.244141,0.672607,0.288269,0.089233,0.675659,down
285089,2.167969,4.65625,7.316406,0.261719,0.367188,-0.244141,0.672607,0.288269,0.089233,0.675659,down
285094,1.4375,5.308594,7.316406,0.261719,0.367188,-0.244141,0.672607,0.288269,0.089233,0.675659,down
285100,1.515625,6.535156,8.34375,-0.068359,0.503906,-0.072266,0.672607,0.288269,0.089233,0.675659,down
285105,0.863281,4.695312,11.367188,-0.068359,0.503906,-0.072266,0.673096,0.285461,0.091736,0.676086,down
285110,1.4375,6.992187,11.90625,-0.068359,0.503906,-0.072266,0.673279,0.283936,0.09259,0.676453,down
285115,2.28125,9.40625,14.507813,-0.068359,0.503906,-0.072266,0.673279,0.283936,0.09259,0.676453,down
285120,3.738281,9.332031,13.058594,0.318359,-0.310547,0.123047,0.672729,0.285217,0.092773,0.676392,down
285125,3.890625,6.496094,8.304688,0.318359,-0.310547,0.123047,0.672302,0.285767,0.092773,0.676575,down
285130,4.503906,8.105469,10.21875,0.318359,-0.310547,0.123047,0.671753,0.286621,0.092651,0.676758,down
285135,5.539062,8.601563,10.800781,0.318359,-0.310547,0.123047,0.671753,0.286621,0.092651,0.676758,down
285140,5.613281,8.21875,10.800781,0.394531,-0.255859,0.25,0.670471,0.288757,0.092773,0.677124,down
285145,3.890625,6.535156,8.421875,0.394531,-0.255859,0.25,0.669922,0.289246,0.09314,0.677368,down
285150,3.046875,5.652344,7.617187,0.394531,-0.255859,0.25,0.669434,0.289429,0.093445,0.677795,down
285155,2.242188,5.386719,7.5,0.394531,-0.255859,0.25,0.669434,0.289429,0.093445,0.677795,down
285160,1.898438,5.039062,7.847656,-0.164062,0.111328,0.294922,0.669434,0.289429,0.093445,0.677795,down
285165,1.246094,4.503906,7.421875,-0.164062,0.111328,0.294922,0.668152,0.288574,0.092896,0.679504,down
285170,1.054688,4.351562,7.15625,-0.275391,0.070312,0.332031,0.668152,0.288574,0.092896,0.679504,down
285175,1.054688,4.273437,6.964844,-0.289063,0.019531,0.333984,0.667786,0.288086,0.092407,0.680115,down
285181,1.132813,4.464844,6.660156,-0.289063,0.019531,0.333984,0.666992,0.28717,0.091064,0.681396,down
285186,1.246094,4.582031,6.582031,-0.140625,-0.013672,0.335938,0.666565,0.286926,0.090454,0.682068,down
285192,1.515625,4.734375,6.964844,-0.140625,-0.013672,0.335938,0.666077,0.286926,0.090088,0.682556,down
285197,1.628906,4.734375,6.855469,0.123047,-0.044922,0.291016,0.665527,0.287231,0.089966,0.682983,down
285202,2.011719,5.15625,7.039062,0.123047,-0.044922,0.291016,0.664917,0.287659,0.089905,0.683411,down
285207,2.050781,5.386719,7.316406,0.210937,-0.046875,0.289063,0.664917,0.287659,0.089905,0.683411,down
285213,2.433594,5.386719,7.84375,0.142578,-0.072266,0.308594,0.664917,0.287659,0.089905,0.683411,down
320877,-5.890625,7.371094,1.441406,-0.03125,0.169922,-0.005859,0.324341,-0.158264,0.636719,0.681396,down
320883,-5.929687,7.484375,1.402344,-0.03125,0.169922,-0.005859,0.323792,-0.158936,0.636902,0.681335,down
320888,-5.929687,7.484375,1.363281,-0.03125,0.169922,-0.005859,0.323486,-0.159241,0.637085,0.681274,down
320893,-5.855469,7.40625,1.402344,0.025391,0.203125,0.021484,0.323486,-0.159241,0.637085,0.681274,down
320898,-5.777344,7.367187,1.441406,0.052734,0.205078,0.039063,0.323486,-0.159241,0.637085,0.681274,down
320903,-5.738281,7.367187,1.480469,0.052734,0.205078,0.039063,0.322388,-0.160034,0.637817,0.680908,down
320909,-5.699219,7.328125,1.363281,0.052734,0.205078,0.039063,0.322388,-0.160034,0.637817,0.680908,down
320915,-5.664062,7.332031,1.363281,0.150391,0.25,0.072266,0.320984,-0.160645,0.639282,0.680054,down
320920,-5.546875,7.328125,1.289063,0.150391,0.25,0.072266,0.320435,-0.160828,0.639893,0.679687,down
320925,-5.507812,7.300781,1.25,0.150391,0.25,0.072266,0.319946,-0.161011,0.640503,0.679321,down
320930,-5.472656,7.332031,1.171875,0.283203,0.365234,0.060547,0.319397,-0.161255,0.641235,0.678833,down
320936,-5.433594,7.371094,1.058594,0.283203,0.365234,0.060547,0.318787,-0.16156,0.64209,0.678223,down
320942,-5.472656,7.445312,1.136719,0.283203,0.365234,0.060547,0.318237,-0.161987,0.643005,0.67749,down
320947,-5.472656,7.332031,1.136719,0.359375,0.494141,-0.015625,0.318237,-0.161987,0.643005,0.67749,down
320953,-5.433594,7.328125,1.097656,0.386719,0.542969,-0.048828,0.318237,-0.161987,0.643005,0.67749,down
320959,-5.664062,7.566406,1.097656,0.378906,0.582031,-0.091797,0.315735,-0.164734,0.647156,0.674072,down
320964,-5.699219,7.683594,1.097656,0.378906,0.582031,-0.091797,0.315735,-0.164734,0.647156,0.674072,down
320969,-5.816406,7.640625,1.210938,0.314453,0.550781,-0.21875,0.315735,-0.164734,0.647156,0.674072,down
320974,-5.855469,7.523437,1.289063,0.314453,0.550781,-0.21875,0.314697,-0.166748,0.649109,0.67218,down
320979,-5.816406,7.566406,1.328125,0.314453,0.550781,-0.21875,0.314331,-0.167847,0.649963,0.671204,down
320985,-5.855469,7.679687,1.402344,0.1875,0.412109,-0.503906,0.314331,-0.167847,0.649963,0.671204,down
320990,-5.855469,7.710937,1.363281,0.1875,0.412109,-0.503906,0.314758,-0.171814,0.651489,0.668579,down
320996,-5.738281,8.175781,1.25,0.1875,0.412109,-0.503906,0.315308,-0.173279,0.65155,0.667847,down
321001,-5.738281,8.171875,1.136719,-0.056641,0.320313,-0.861328,0.315308,-0.173279,0.65155,0.667847,down
321006,-5.699219,8.253906,1.019531,-0.183594,0.322266,-0.96875,0.315308,-0.173279,0.65155,0.667847,down
321011,-5.738281,8.289063,0.90625,-0.316406,0.332031,-1.064453,0.315308,-0.173279,0.65155,0.667847,down
321016,-5.777344,8.484375,0.828125,-0.316406,0.332031,-1.064453,0.315308,-0.173279,0.65155,0.667847,down
321021,-5.777344,8.484375,0.828125,-0.607422,0.341797,-1.220703,0.315308,-0.173279,0.65155,0.667847,down
321026,-5.855469,8.554688,0.789062,-0.607422,0.341797,-1.220703,0.315308,-0.173279,0.65155,0.667847,down
321031,-6.082031,8.105469,0.789062,-0.607422,0.341797,-1.220703,0.315308,-0.173279,0.65155,0.667847,down
321036,-6.082031,8.105469,0.789062,-1.330078,0.453125,-1.515625,0.315308,-0.173279,0.65155,0.667847,down
321041,-6.46875,7.683594,0.675781,-1.330078,0.453125,-1.515625,0.315308,-0.173279,0.65155,0.667847,down
321046,-6.46875,7.683594,0.675781,-1.837891,0.585937,-1.806641,0.315308,-0.173279,0.65155,0.667847,down
321051,-7.042969,8.0625,0.5625,-1.837891,0.585937,-1.806641,0.315308,-0.173279,0.65155,0.667847,down
321056,-7.042969,8.0625,0.5625,-2.044922,0.632812,-1.964844,0.327393,-0.211121,0.632996,0.669006,down
321061,-7.308594,7.605469,0.867187,-2.431641,0.746094,-2.417969,0.327393,-0.211121,0.632996,0.669006,down
321066,-8.496094,7.871094,0.867187,-2.431641,0.746094,-2.417969,0.330139,-0.22406,0.624146,0.671753,down
321071,-8.496094,7.871094,0.867187,-2.664063,0.710937,-2.996094,0.331848,-0.231262,0.619141,0.673035,down
321077,-9.683594,8.175781,1.171875,-2.664063,0.710937,-2.996094,0.33667,-0.247437,0.607727,0.675354,down
321082,-9.917969,8.253906,1.480469,-2.849609,0.53125,-3.746094,0.33667,-0.247437,0.607727,0.675354,down
321087,-10.261719,9.171875,2.054688,-2.849609,0.53125,-3.746094,0.33667,-0.247437,0.607727,0.675354,down
321092,-10.488281,9.515625,2.246094,-3.234375,0.375,-4.523437,0.33667,-0.247437,0.607727,0.675354,down
321098,-10.605469,9.59375,2.285156,-3.619141,0.419922,-4.871094,0.33667,-0.247437,0.607727,0.675354,down
321104,-11.144531,10.054688,1.902344,-3.619141,0.419922,-4.871094,0.363525,-0.309143,0.556946,0.67981,down
321109,-11.371094,9.976563,1.824219,-3.619141,0.419922,-4.871094,0.363525,-0.309143,0.556946,0.67981,down
321114,-11.371094,9.976563,1.824219,-5.107422,0.474609,-5.324219,0.368286,-0.322571,0.544189,0.681335,down
321119,-11.871094,9.976563,1.824219,-5.675781,0.375,-5.246094,0.37207,-0.334778,0.531677,0.683228,down
321124,-11.871094,9.976563,1.824219,-6.154297,0.345703,-5.060547,0.375366,-0.347473,0.517639,0.685852,down
321129,-12.859375,9.25,2.359375,-6.154297,0.345703,-5.060547,0.377808,-0.360657,0.502258,0.689148,down
321134,-12.859375,9.25,2.359375,-7.003906,0.121094,-4.441406,0.379272,-0.372986,0.486633,0.692993,down
321140,-14.933594,7.832031,3.777344,-7.175781,0.011719,-4.119141,0.379761,-0.396484,0.453552,0.702026,down
321145,-15.550781,7.371094,4.125,-7.271484,-0.019531,-3.443359,0.378784,-0.408325,0.435608,0.707153,down
321150,-16.042969,6.605469,4.316406,-7.271484,-0.019531,-3.443359,0.378784,-0.408325,0.435608,0.707153,down
321155,-16.042969,6.605469,4.316406,-7.115234,0.001953,-3.138672,0.377319,-0.417725,0.420776,0.711365,down
321160,-16.273437,5.839844,4.507812,-6.783203,-0.033203,-2.849609,0.377319,-0.417725,0.420776,0.711365,down
321165,-16.808594,4.652344,5.003906,-6.25,-0.029297,-2.552734,0.373169,-0.436157,0.390381,0.719788,down
321170,-16.808594,4.652344,5.003906,-5.583984,0.0,-2.259766,0.371033,-0.443848,0.377197,0.723206,down
321175,-16.542969,3.925781,4.925781,-5.583984,0.0,-2.259766,0.36908,-0.450562,0.365601,0.726013,down
321180,-16.421875,3.769531,4.890625,-3.873047,0.011719,-1.599609,0.365967,-0.460632,0.347656,0.730103,down
321185,-16.355469,3.886719,4.925781,-2.275391,-0.074219,-0.779297,0.365967,-0.460632,0.347656,0.730103,down
321190,-16.386719,3.960938,4.925781,-2.275391,-0.074219,-0.779297,0.363525,-0.466003,0.337036,0.732849,down
321195,-16.355469,3.808594,5.042969,-2.275391,-0.074219,-0.779297,0.362183,-0.46698,0.334106,0.734192,down
321200,-16.121094,3.464844,5.464844,-0.810547,-0.386719,0.628906,0.360474,-0.46698,0.332275,0.735901,down
321205,-16.003906,3.351563,5.695312,-0.488281,-0.486328,1.125,0.360474,-0.46698,0.332275,0.735901,down
321210,-15.855469,3.234375,5.730469,-0.488281,-0.486328,1.125,0.356079,-0.464355,0.332153,0.739746,down
321215,-15.699219,3.082031,5.617187,-0.488281,-0.486328,1.125,0.352905,-0.461914,0.333435,0.742249,down
321220,-15.429688,2.773438,5.347656,-0.488281,-0.486328,1.125,0.352905,-0.461914,0.333435,0.742249,down
321225,-15.164063,2.699219,5.15625,0.029297,-0.691406,2.599609,0.344299,-0.454712,0.338379,0.748474,down
321230,-14.585938,2.429688,4.925781,0.279297,-0.923828,3.574219,0.344299,-0.454712,0.338379,0.748474,down
321236,-13.902344,2.164063,4.734375,0.279297,-0.923828,3.574219,0.33313,-0.444702,0.345825,0.756104,down
321241,-13.664063,2.085938,4.46875,0.505859,-1.003906,4.583984,0.33313,-0.444702,0.345825,0.756104,down
321246,-13.59375,2.125,4.046875,0.6875,-0.949219,5.080078,0.33313,-0.444702,0.345825,0.756104,down
321251,-13.515625,2.277344,3.625,0.6875,-0.949219,5.080078,0.33313,-0.444702,0.345825,0.756104,down
321256,-13.515625,2.277344,3.625,0.929687,-0.908203,5.583984,0.310059,-0.424805,0.362793,0.769287,down
321261,-13.359375,2.429688,3.355469,0.929687,-0.908203,5.583984,0.300842,-0.416931,0.370239,0.773682,down
321266,-12.441406,2.929688,3.011719,2.082031,-0.919922,7.107422,0.291016,-0.408264,0.378845,0.777893,down
321271,-12.441406,2.929688,3.011719,2.453125,-0.894531,7.574219,0.268982,-0.387817,0.399963,0.785706,down
321276,-11.027344,2.929688,2.667969,2.453125,-0.894531,7.574219,0.268982,-0.387817,0.399963,0.785706,down
321281,-10.722656,2.929688,2.550781,3.132813,-0.769531,8.476563,0.24408,-0.364136,0.425171,0.79187,down
321288,-9.917969,2.929688,1.941406,3.132813,-0.769531,8.476563,0.230774,-0.351501,0.438904,0.794067,down
321293,-9.492188,2.773438,1.75,3.792969,-0.630859,9.310547,0.216187,-0.337646,0.453979,0.795715,down
321298,-9.03125,2.699219,1.632813,4.033203,-0.59375,9.71875,0.216187,-0.337646,0.453979,0.795715,down
321303,-8.070313,2.8125,1.210938,4.033203,-0.59375,9.71875,0.216187,-0.337646,0.453979,0.795715,down
321309,-7.804687,2.46875,1.019531,4.033203,-0.59375,9.71875,0.168518,-0.292786,0.501282,0.79657,down
321314,-7.804687,2.46875,1.019531,4.441406,-0.255859,10.894531,0.151001,-0.276917,0.517395,0.795532,down
321319,-7.804687,2.46875,1.019531,4.523437,-0.076172,11.269531,0.132446,-0.26062,0.533508,0.793701,down
321324,-6.429687,2.582031,0.714844,4.523437,-0.076172,11.269531,0.132446,-0.26062,0.533508,0.793701,down
321329,-6.429687,2.582031,0.714844,4.664062,-0.083984,11.570313,0.092285,-0.22583,0.56604,0.787415,down
321334,-6.5,0.363281,-0.207031,4.582031,0.300781,11.849609,0.092285,-0.22583,0.56604,0.787415,down
321340,-5.164062,0.398438,-0.128906,4.494141,0.476562,11.902344,0.027832,-0.172974,0.611084,0.771912,down
321345,-4.667969,0.515625,0.292969,4.494141,0.476562,11.902344,0.027832,-0.172974,0.611084,0.771912,down
321350,-4.359375,0.246094,1.171875,5.238281,0.449219,11.623047,0.027832,-0.172974,0.611084,0.771912,down
321355,-4.359375,0.246094,1.171875,5.238281,0.449219,11.623047,0.014832,0.137573,-0.639099,-0.756531,down
321360,-3.785156,-1.015625,2.550781,5.238281,0.449219,11.623047,0.014832,0.137573,-0.639099,-0.756531,down
321365,-2.941406,-3.164063,2.628906,5.414062,0.722656,11.386719,0.056885,0.104126,-0.666077,-0.736389,down
321370,-2.941406,-3.164063,2.628906,5.414062,0.722656,11.386719,0.056885,0.104126,-0.666077,-0.736389,down
321375,-1.449219,-3.8125,1.671875,5.550781,1.783203,10.501953,0.056885,0.104126,-0.666077,-0.736389,down
321380,-1.21875,-3.546875,1.824219,6.302734,1.617188,9.929688,0.119202,0.06189,-0.701477,-0.69989,down
321385,-0.914062,-3.195313,2.132813,6.302734,1.617188,9.929688,0.140076,0.047974,-0.713684,-0.684631,down
321390,-0.683594,-3.089844,2.359375,6.9375,1.878906,9.154297,0.15863,0.035828,-0.724915,-0.669312,down
321395,-0.683594,-3.089844,2.359375,7.193359,2.076172,8.765625,0.17688,0.024536,-0.736145,-0.652832,down
321400,-0.335938,-2.664063,2.628906,7.193359,2.076172,8.765625,0.193726,0.014954,-0.746521,-0.636353,down
321406,-0.492187,-2.28125,2.628906,7.427734,2.261719,8.410156,0.229065,-0.002686,-0.767944,-0.598145,down
321411,-0.644531,-2.011719,2.625,7.703125,2.439453,7.640625,0.245178,-0.009644,-0.777527,-0.578979,down
321417,-1.21875,-1.476563,3.550781,7.703125,2.439453,7.640625,0.26001,-0.015625,-0.786316,-0.560242,down
321422,-1.410156,-1.59375,4.46875,7.601562,2.28125,6.857422,0.274475,-0.021118,-0.794861,-0.540771,down
321428,-1.640625,-2.203125,5.964844,7.478516,2.201172,6.421875,0.274475,-0.021118,-0.794861,-0.540771,down
321433,-1.640625,-2.203125,5.964844,7.271484,2.091797,5.990234,0.301086,-0.030518,-0.810425,-0.501648,down
321438,-1.640625,-2.203125,5.964844,6.96875,1.974609,5.525391,0.312744,-0.03418,-0.817078,-0.483093,down
321443,-1.5625,-2.394531,6.570312,6.566406,1.820313,5.078125,0.312744,-0.03418,-0.817078,-0.483093,down
321448,-1.71875,-2.742188,7.535156,6.566406,1.820313,5.078125,0.323792,-0.037476,-0.823303,-0.464722,down
321453,-1.71875,-2.742188,7.535156,6.085937,1.630859,4.621094,0.341858,-0.042786,-0.833191,-0.432617,down
321458,-1.984375,-3.164063,7.992187,6.085937,1.630859,4.621094,0.341858,-0.042786,-0.833191,-0.432617,down
321464,-2.136719,-2.933594,8.144531,6.085937,1.630859,4.621094,0.355164,-0.047424,-0.841187,-0.405029,down
321469,-2.367188,-2.28125,8.140625,6.085937,1.630859,4.621094,0.355164,-0.047424,-0.841187,-0.405029,down
321474,-2.367188,-2.28125,8.140625,6.085937,1.630859,4.621094,0.355164,-0.047424,-0.841187,-0.405029,down
321479,-2.558594,-2.089844,7.957031,3.837891,-0.34375,2.333984,0.355164,-0.047424,-0.841187,-0.405029,down
321484,-2.558594,-2.089844,7.957031,2.908203,-1.365234,1.40625,0.363037,-0.054749,-0.855957,-0.364075,down
321489,-2.980469,-1.820313,7.453125,2.908203,-1.365234,1.40625,0.363037,-0.054749,-0.855957,-0.364075,down
321494,-4.246094,-1.363281,7.226562,2.447266,-1.892578,0.939453,0.357178,-0.057678,-0.863525,-0.351379,down
321500,-3.785156,-1.859375,5.847656,0.917969,-3.597656,-0.623047,0.357178,-0.057678,-0.863525,-0.351379,down
321505,-3.746094,-1.667969,5.234375,0.917969,-3.597656,-0.623047,0.344482,-0.059875,-0.871155,-0.344727,down
321510,-3.671875,-1.363281,4.582031,0.917969,-3.597656,-0.623047,0.334351,-0.060547,-0.875732,-0.342957,down
321516,-3.480469,-1.09375,4.007812,0.318359,-4.566406,-1.755859,0.311462,-0.060181,-0.883972,-0.343445,down
321522,-4.363281,-1.476563,2.820313,0.318359,-4.566406,-1.755859,0.298035,-0.059448,-0.887634,-0.346008,down
321527,-5.011719,-1.515625,2.398438,-1.601563,-5.798828,-3.570313,0.282593,-0.058105,-0.891052,-0.350342,down
321532,-5.011719,-1.515625,2.398438,-2.201172,-6.171875,-4.300781,0.265686,-0.055908,-0.894043,-0.356384,down
321537,-5.011719,-1.515625,2.398438,-2.748047,-6.599609,-5.099609,0.246277,-0.052673,-0.896545,-0.364319,down
321542,-5.96875,-1.171875,1.59375,-2.748047,-6.599609,-5.099609,0.246277,-0.052673,-0.896545,-0.364319,down
321547,-6.851562,0.820312,1.136719,-3.201172,-7.033203,-5.949219,0.203247,-0.042664,-0.899902,-0.383423,down
321552,-6.851562,0.820312,1.136719,-3.201172,-7.033203,-5.949219,0.203247,-0.042664,-0.899902,-0.383423,down
321557,-7.84375,3.695313,-1.164063,-4.001953,-7.775391,-7.814453,0.177979,-0.035156,-0.900574,-0.39502,down
321562,-8.570313,4.957031,-2.464844,-4.511719,-7.960937,-8.767578,0.12323,-0.015198,-0.898437,-0.421204,down
321568,-10.484375,8.445313,-4.765625,-4.511719,-7.960937,-8.767578,0.094055,-0.00293,-0.895081,-0.435913,down
321573,-10.484375,8.445313,-4.765625,-6.634766,-8.603516,-11.605469,0.063171,0.011047,-0.889771,-0.451904,down
321578,-11.5625,12.542969,-6.984375,-6.634766,-8.603516,-11.605469,0.063171,0.011047,-0.889771,-0.451904,down
321584,-11.792969,14.070313,-8.25,-8.257813,-8.980469,-13.919922,0.004883,-0.045593,0.871704,0.487915,down
321589,-11.792969,14.070313,-8.25,-8.257813,-8.980469,-13.919922,0.004883,-0.045593,0.871704,0.487915,down
321594,-13.4375,18.636719,-13.84375,-10.507813,-8.712891,-16.181641,0.004883,-0.045593,0.871704,0.487915,down
321600,-13.859375,22.960937,-15.261719,-10.507813,-8.712891,-16.181641,0.116211,-0.114929,0.81958,0.549133,down
321606,-13.859375,21.660156,-14.109375,-13.248047,-8.912109,-17.890625,0.194397,-0.172668,0.760559,0.59491,down
321611,-13.554688,17.949219,-12.808594,-15.779297,-7.025391,-19.527344,0.228577,-0.20343,0.726196,0.615662,down
321616,-16.960937,9.289063,-8.554688,-15.779297,-7.025391,-19.527344,0.266479,-0.242126,0.681091,0.637573,down
321621,-20.949219,7.105469,-5.914062,-15.130859,-5.017578,-19.572266,0.266479,-0.242126,0.681091,0.637573,down
321627,-26.960937,10.167969,-0.398438,-15.130859,-5.017578,-19.572266,0.325073,-0.309082,0.598999,0.66333,down
321633,-29.101562,19.4375,6.0,-15.130859,-5.017578,-19.572266,0.349548,-0.336243,0.563538,0.668701,down
321639,-29.871094,24.609375,6.5,-7.941406,-4.050781,-15.830078,0.349548,-0.336243,0.563538,0.668701,down
321644,-29.949219,26.140625,6.113281,-5.103516,-3.519531,-13.603516,0.349548,-0.336243,0.563538,0.668701,down
321649,-28.226562,25.300781,5.464844,-3.138672,-3.341797,-10.845703,0.349548,-0.336243,0.563538,0.668701,down
321654,-27.652344,22.617187,6.191406,-1.730469,-3.263672,-7.810547,0.349548,-0.336243,0.563538,0.668701,down
321659,-26.578125,18.175781,6.574219,-0.449219,-2.949219,-5.167969,0.349548,-0.336243,0.563538,0.668701,down
321664,-25.539062,14.421875,6.460937,-0.449219,-2.949219,-5.167969,0.459717,-0.405457,0.442566,0.654541,down
321669,-24.511719,9.210938,6.421875,-0.449219,-2.949219,-5.167969,0.459717,-0.405457,0.442566,0.654541,down
321674,-23.585937,7.871094,5.003906,5.705078,-0.109375,-0.210937,0.459717,-0.405457,0.442566,0.654541,down
321680,-22.359375,8.253906,3.089844,5.705078,-0.109375,-0.210937,0.480347,-0.389282,0.458984,0.638,down
321686,-19.566406,10.667969,1.210938,5.705078,-0.109375,-0.210937,0.491577,-0.371765,0.487,0.618896,down
321691,-18.34375,12.199219,0.90625,7.605469,1.039063,0.748047,0.491577,-0.371765,0.487,0.618896,down
321696,-17.039062,13.65625,0.40625,7.605469,1.039063,0.748047,0.496521,-0.36261,0.50116,0.608948,down
321701,-14.855469,14.917969,0.867187,6.960937,0.839844,0.726562,0.496521,-0.36261,0.50116,0.608948,down
321706,-13.9375,14.457031,1.863281,6.960937,0.839844,0.726562,0.507324,-0.33905,0.533752,0.58551,down
321711,-12.863281,13.269531,2.589844,6.960937,0.839844,0.726562,0.50885,-0.334167,0.539429,0.581787,down
321716,-11.101563,10.015625,3.011719,1.234375,0.253906,0.785156,0.50885,-0.334167,0.539429,0.581787,down
321721,-10.296875,8.40625,2.972656,1.234375,0.253906,0.785156,0.509094,-0.33075,0.543457,0.579712,down
321726,-9.917969,7.257812,2.667969,-0.886719,0.277344,0.78125,0.508057,-0.329224,0.54541,0.579651,down
321731,-9.535156,6.335937,2.476563,-0.886719,0.277344,0.78125,0.506287,-0.329224,0.545715,0.580933,down
321736,-8.957031,4.804687,2.4375,-0.886719,0.277344,0.78125,0.504028,-0.329956,0.544922,0.583252,down
321741,-8.957031,4.804687,2.4375,-0.886719,0.277344,0.78125,0.499207,-0.332092,0.541199,0.5896,down
321746,-8.386719,4.347656,2.78125,-0.886719,0.277344,0.78125,0.499207,-0.332092,0.541199,0.5896,down
321751,-8.039063,4.0,2.898438,-2.951172,-0.244141,0.8125,0.499207,-0.332092,0.541199,0.5896,down
321756,-7.386719,3.003906,2.667969,-2.869141,-0.226562,0.798828,0.493164,-0.335754,0.53418,0.598938,down
321761,-7.234375,2.738281,2.515625,-2.869141,-0.226562,0.798828,0.489807,-0.338013,0.530029,0.604065,down
321766,-7.082031,2.355469,2.324219,-2.869141,-0.226562,0.798828,0.483826,-0.341125,0.523254,0.612976,down
321771,-6.964844,2.007813,2.132813,-2.869141,-0.226562,0.798828,0.483826,-0.341125,0.523254,0.612976,down
321776,-6.621094,1.242188,2.09375,-0.878906,-0.232422,0.8125,0.480591,-0.340576,0.521362,0.617432,down
321781,-6.472656,1.089844,2.167969,-0.878906,-0.232422,0.8125,0.480591,-0.340576,0.521362,0.617432,down
321786,-6.390625,1.011719,2.167969,0.660156,-0.056641,0.757812,0.479492,-0.337097,0.524292,0.617737,down
321791,-6.433594,1.050781,1.902344,1.701172,0.246094,0.640625,0.479492,-0.337097,0.524292,0.617737,down
321796,-6.46875,1.433594,1.328125,2.076172,0.345703,0.587891,0.479492,-0.334717,0.527344,0.616394,down
321801,-6.738281,1.742188,1.058594,2.076172,0.345703,0.587891,0.479797,-0.33197,0.531311,0.614258,down
321806,-7.15625,2.699219,0.90625,2.076172,0.345703,0.587891,0.480286,-0.329163,0.535461,0.611755,down
321811,-7.234375,3.042969,0.945312,2.076172,0.345703,0.587891,0.480957,-0.326233,0.539856,0.608948,down
321816,-7.425781,3.386719,1.136719,1.931641,0.230469,0.527344,0.480957,-0.326233,0.539856,0.608948,down
321821,-7.804687,3.886719,1.210938,1.931641,0.230469,0.527344,0.482239,-0.320313,0.547974,0.603821,down
321826,-8.457031,4.308594,1.171875,1.931641,0.230469,0.527344,0.482483,-0.317932,0.551208,0.601868,down
321831,-8.691406,4.382812,1.019531,1.931641,0.230469,0.527344,0.482361,-0.316284,0.55365,0.600647,down
321836,-8.847656,4.382812,1.019531,0.007813,0.113281,0.453125,0.481873,-0.315308,0.555115,0.60022,down
321841,-8.996094,4.347656,1.058594,0.007813,0.113281,0.453125,0.481079,-0.314636,0.55603,0.600342,down
321847,-8.996094,4.039062,1.171875,0.007813,0.113281,0.453125,0.479553,-0.314209,0.555908,0.601868,down
321852,-8.953125,3.925781,1.210938,-0.572266,-0.132812,0.3125,0.47876,-0.314209,0.555237,0.603149,down
321858,-8.847656,3.503906,1.171875,-0.572266,-0.132812,0.3125,0.478149,-0.314331,0.554382,0.60437,down
321865,-8.808594,3.3125,1.058594,-0.634766,-0.181641,0.232422,0.478149,-0.314331,0.554382,0.60437,down
321870,-8.648438,3.003906,1.097656,-0.634766,-0.181641,0.232422,0.478149,-0.314331,0.554382,0.60437,down
321875,-8.6875,2.929688,1.097656,-0.470703,-0.158203,0.201172,0.478149,-0.314331,0.554382,0.60437,down
321881,-8.6875,2.890625,1.097656,-0.365234,-0.117188,0.199219,0.478149,-0.314331,0.554382,0.60437,down
321886,-8.6875,2.929688,1.097656,-0.365234,-0.117188,0.199219,0.475708,-0.314819,0.550415,0.609619,down
321891,-8.691406,2.964844,1.097656,-0.365234,-0.117188,0.199219,0.475281,-0.314697,0.550293,0.610168,down
321896,-8.765625,3.003906,1.171875,-0.021484,0.078125,0.25,0.474304,-0.314392,0.550781,0.610596,down
321901,-8.84375,3.160156,1.210938,-0.021484,0.078125,0.25,0.474304,-0.314392,0.550781,0.610596,down
321907,-8.957031,3.195313,1.210938,0.28125,0.322266,0.335938,0.473755,-0.314148,0.551392,0.610657,down
321912,-9.074219,3.273438,1.25,0.28125,0.322266,0.335938,0.47229,-0.313599,0.553467,0.610168,down
321917,-9.339844,3.464844,1.328125,0.28125,0.322266,0.335938,0.471497,-0.313171,0.554932,0.60968,down
321923,-9.457031,3.734375,1.480469,0.28125,0.322266,0.335938,0.470764,-0.312744,0.556335,0.609131,down
321928,-9.53125,3.769531,1.519531,0.546875,0.472656,0.425781,0.470764,-0.312744,0.556335,0.609131,down
321933,-9.53125,3.847656,1.480469,0.570312,0.480469,0.439453,0.470764,-0.312744,0.556335,0.609131,down
321939,-9.53125,4.039062,1.519531,0.570312,0.480469,0.439453,0.470764,-0.312744,0.556335,0.609131,down
321945,-9.535156,4.117187,1.554688,0.582031,0.470703,0.462891,0.470764,-0.312744,0.556335,0.609131,down
321950,-9.535156,4.230469,1.59375,0.560547,0.441406,0.472656,0.470764,-0.312744,0.556335,0.609131,down
321955,-9.457031,4.308594,1.554688,0.511719,0.410156,0.482422,0.470764,-0.312744,0.556335,0.609131,down
321960,-9.300781,4.421875,1.554688,0.511719,0.410156,0.482422,0.470764,-0.312744,0.556335,0.609131,down
321965,-9.257813,4.382812,1.519531,0.511719,0.410156,0.482422,0.463623,-0.308105,0.569702,0.604614,down
321970,-9.1875,4.230469,1.519531,0.271484,0.322266,0.515625,0.463623,-0.308105,0.569702,0.604614,down
321976,-9.03125,3.960938,1.519531,0.271484,0.322266,0.515625,0.460571,-0.306519,0.573059,0.604614,down
321981,-8.953125,3.886719,1.441406,0.271484,0.322266,0.515625,0.460571,-0.306519,0.573059,0.604614,down
321986,-8.914063,3.808594,1.519531,0.070312,0.197266,0.476562,0.460571,-0.306519,0.573059,0.604614,down
321991,-8.847656,3.695313,1.480469,0.070312,0.197266,0.476562,0.458557,-0.305603,0.574646,0.605103,down
321997,-8.769531,3.617188,1.480469,0.070312,0.197266,0.476562,0.456665,-0.304749,0.575928,0.605713,down
322002,-8.6875,3.578125,1.441406,0.070312,0.197266,0.476562,0.455811,-0.304443,0.576416,0.606079,down
322007,-8.535156,3.695313,1.402344,-0.003906,0.152344,0.373047,0.455811,-0.304443,0.576416,0.606079,down
322012,-8.457031,3.695313,1.363281,-0.003906,0.152344,0.373047,0.454285,-0.303894,0.577332,0.606628,down
322017,-8.386719,3.808594,1.328125,0.044922,0.158203,0.326172,0.454285,-0.303894,0.577332,0.606628,down
322022,-8.457031,3.886719,1.363281,0.058594,0.173828,0.308594,0.453552,-0.303589,0.57782,0.606873,down
322027,-8.382813,3.886719,1.25,0.058594,0.173828,0.308594,0.452209,-0.303101,0.578857,0.607117,down
322032,-8.347656,3.925781,1.25,0.058594,0.173828,0.308594,0.451599,-0.302917,0.579346,0.607178,down
322037,-8.304688,3.960938,1.210938,0.095703,0.197266,0.279297,0.451599,-0.302917,0.579346,0.607178,down
322042,-8.308594,3.886719,1.289063,0.117188,0.201172,0.269531,0.450928,-0.302673,0.579956,0.607239,down
322047,-8.308594,3.847656,1.328125,0.117188,0.201172,0.269531,0.449707,-0.302307,0.581116,0.607178,down
322052,-8.265625,3.734375,1.328125,0.064453,0.201172,0.267578,0.449707,-0.302307,0.581116,0.607178,down
322057,-8.230469,3.734375,1.328125,0.064453,0.201172,0.267578,0.449036,-0.302124,0.581726,0.607178,down
322062,-8.148438,3.734375,1.289063,0.050781,0.193359,0.259766,0.449036,-0.302124,0.581726,0.607178,down
322068,-8.148438,3.808594,1.328125,0.050781,0.193359,0.259766,0.447266,-0.301758,0.58313,0.607361,down
322073,-8.148438,3.808594,1.328125,0.080078,0.179687,0.236328,0.446716,-0.301636,0.583618,0.607361,down
322078,-8.191406,3.960938,1.328125,0.080078,0.179687,0.236328,0.446106,-0.301453,0.584106,0.607361,down
322084,-8.230469,3.925781,1.328125,0.080078,0.179687,0.236328,0.445557,-0.301331,0.584656,0.6073,down
322090,-8.230469,3.960938,1.328125,0.105469,0.167969,0.220703,0.445557,-0.301331,0.584656,0.6073,down
322095,-8.265625,4.078125,1.289063,0.140625,0.173828,0.203125,0.445557,-0.301331,0.584656,0.6073,down
322101,-8.304688,4.152344,1.25,0.158203,0.166016,0.171875,0.445557,-0.301331,0.584656,0.6073,down
322107,-8.304688,4.269531,1.289063,0.158203,0.125,0.134766,0.445557,-0.301331,0.584656,0.6073,down
322112,-8.308594,4.347656,1.289063,0.158203,0.125,0.134766,0.443298,-0.300415,0.587769,0.606445,down
322117,-8.347656,4.308594,1.25,0.158203,0.125,0.134766,0.443298,-0.300415,0.587769,0.606445,down
322122,-8.386719,4.269531,1.210938,0.001953,0.103516,0.083984,0.442993,-0.300354,0.588196,0.606262,down
322127,-8.308594,4.230469,1.25,0.001953,0.103516,0.083984,0.442444,-0.300476,0.588562,0.606201,down
322132,-8.265625,4.117187,1.289063,0.001953,0.103516,0.083984,0.442444,-0.300476,0.588562,0.606201,down
322137,-8.265625,4.152344,1.25,-0.091797,0.087891,0.042969,0.441956,-0.300842,0.588562,0.606384,down
322142,-8.230469,4.152344,1.289063,-0.173828,0.105469,0.019531,0.441956,-0.300842,0.588562,0.606384,down
322147,-8.226563,4.152344,1.171875,-0.173828,0.105469,0.019531,0.44165,-0.301208,0.588501,0.606567,down
322152,-8.191406,4.191406,1.171875,-0.179687,0.115234,0.007813,0.44165,-0.301208,0.588501,0.606567,down
322157,-8.148438,4.230469,1.171875,-0.179687,0.115234,0.007813,0.440735,-0.302246,0.588135,0.607056,down
322162,-8.191406,4.230469,1.171875,-0.130859,0.148437,0.021484,0.440735,-0.302246,0.588135,0.607056,down
322167,-8.148438,4.230469,1.171875,-0.105469,0.154297,0.025391,0.440369,-0.302612,0.588074,0.607178,down
322172,-8.113281,4.152344,1.171875,-0.105469,0.154297,0.025391,0.439697,-0.303284,0.588135,0.6073,down
322177,-8.113281,4.117187,1.171875,-0.105469,0.154297,0.025391,0.439331,-0.303589,0.588257,0.607239,down
322182,-8.113281,4.078125,1.171875,-0.105469,0.154297,0.025391,0.439331,-0.303589,0.588257,0.607239,down
322187,-8.113281,4.078125,1.171875,-0.011719,0.195312,0.037109,0.43866,-0.304138,0.588745,0.607056,down
322192,-8.152344,4.039062,1.136719,-0.011719,0.195312,0.037109,0.43866,-0.304138,0.588745,0.607056,down
322197,-8.1875,4.078125,1.171875,0.039063,0.226562,0.048828,0.43866,-0.304138,0.588745,0.607056,down
322202,-8.265625,4.117187,1.210938,0.039063,0.226562,0.048828,0.437866,-0.304688,0.589417,0.606689,down
322208,-8.304688,4.117187,1.210938,0.046875,0.238281,0.037109,0.437439,-0.304932,0.589783,0.606445,down
