timestamp,ax,ay,az,gx,gy,gz,qw,qx,qy,qz,label
80389,4.277344,8.0,-2.976563,-0.208984,-0.044922,-0.046875,0.348694,0.16748,-0.790833,-0.474304,down
80395,4.277344,7.964844,-2.976563,-0.144531,-0.003906,-0.060547,0.348694,0.16748,-0.790833,-0.474304,down
80401,4.238281,7.921875,-2.976563,-0.060547,0.0,-0.082031,0.348694,0.16748,-0.790833,-0.474304,down
80407,4.199219,7.925781,-2.902344,-0.060547,0.0,-0.082031,0.3479,0.16748,-0.789612,-0.476868,down
80413,4.160156,7.964844,-2.902344,-0.060547,0.0,-0.082031,0.347717,0.167786,-0.789551,-0.47699,down
80418,4.085937,7.964844,-2.863281,0.023437,0.039063,-0.119141,0.347595,0.168091,-0.789551,-0.477051,down
80423,4.085937,8.042969,-2.824219,0.021484,0.017578,-0.125,0.347595,0.168091,-0.789551,-0.477051,down
80428,4.046875,8.042969,-2.710938,0.021484,0.017578,-0.125,0.347595,0.168091,-0.789551,-0.477051,down
80434,3.96875,8.082031,-2.671875,0.003906,0.015625,-0.119141,0.347595,0.168091,-0.789551,-0.477051,down
80439,3.96875,8.078125,-2.710938,-0.025391,0.021484,-0.103516,0.347595,0.168091,-0.789551,-0.477051,down
80444,3.929688,8.1875,-2.824219,-0.025391,0.021484,-0.103516,0.347595,0.168091,-0.789551,-0.477051,down
80450,3.96875,8.230469,-2.824219,-0.070312,0.009766,-0.066406,0.347595,0.168091,-0.789551,-0.477051,down
80455,3.929688,8.230469,-2.785156,-0.066406,-0.013672,-0.041016,0.347595,0.168091,-0.789551,-0.477051,down
80460,3.929688,8.265625,-2.785156,-0.054687,-0.03125,-0.029297,0.347595,0.168091,-0.789551,-0.477051,down
80465,3.929688,8.160156,-2.75,-0.054687,-0.03125,-0.029297,0.347595,0.168091,-0.789551,-0.477051,down
80471,3.929688,8.121094,-2.75,-0.054687,-0.03125,-0.029297,0.346436,0.1698,-0.788818,-0.478455,down
80476,3.855469,8.0,-2.824219,-0.050781,-0.019531,0.029297,0.346436,0.1698,-0.788818,-0.478455,down
80482,3.855469,7.960937,-2.863281,-0.021484,-0.025391,0.035156,0.346313,0.169556,-0.788818,-0.478699,down
80487,3.855469,8.003906,-2.785156,0.021484,-0.017578,0.029297,0.346252,0.169495,-0.788818,-0.478638,down
80492,3.816406,8.039063,-2.824219,0.021484,-0.017578,0.029297,0.346191,0.169495,-0.788879,-0.478577,down
80497,3.777344,8.039063,-2.75,0.021484,-0.017578,0.029297,0.346191,0.169495,-0.788879,-0.478577,down
80502,3.816406,8.042969,-2.75,0.070312,0.009766,0.011719,0.346191,0.169495,-0.788879,-0.478577,down
80507,3.777344,8.039063,-2.75,0.070312,0.009766,0.011719,0.346069,0.169678,-0.789124,-0.47821,down
80512,3.777344,8.121094,-2.824219,0.070312,0.009766,0.011719,0.346069,0.169678,-0.789124,-0.47821,down
80517,3.738281,8.15625,-2.863281,0.070312,0.009766,0.011719,0.346008,0.169983,-0.789185,-0.478027,down
80522,3.738281,8.1875,-2.785156,0.021484,0.007813,-0.070312,0.346008,0.169983,-0.789185,-0.478027,down
80527,3.777344,8.1875,-2.785156,-0.021484,-0.001953,-0.082031,0.345886,0.170166,-0.789246,-0.478027,down
80532,3.777344,8.226563,-2.785156,-0.021484,-0.001953,-0.082031,0.345642,0.170532,-0.789124,-0.478271,down
80537,3.777344,8.230469,-2.824219,-0.021484,-0.001953,-0.082031,0.345459,0.170715,-0.789001,-0.478577,down
80542,3.816406,8.160156,-2.785156,-0.136719,-0.03125,-0.140625,0.345459,0.170715,-0.789001,-0.478577,down
80547,3.816406,8.160156,-2.785156,-0.175781,-0.041016,-0.162109,0.345276,0.170837,-0.788818,-0.478943,down
80553,3.816406,8.160156,-2.785156,-0.208984,-0.041016,-0.183594,0.344849,0.171143,-0.78833,-0.479919,down
80558,3.855469,8.117188,-2.824219,-0.238281,-0.0625,-0.195312,0.344543,0.171265,-0.788025,-0.480652,down
80563,3.855469,8.121094,-2.863281,-0.238281,-0.0625,-0.195312,0.344299,0.171448,-0.78772,-0.481262,down
80568,3.855469,8.121094,-2.902344,-0.261719,-0.046875,-0.222656,0.344299,0.171448,-0.78772,-0.481262,down
80573,3.855469,8.121094,-2.863281,-0.261719,-0.046875,-0.222656,0.34375,0.171753,-0.786987,-0.482727,down
80579,3.894531,8.042969,-2.824219,-0.261719,-0.046875,-0.222656,0.343445,0.171997,-0.786621,-0.483459,down
80584,3.855469,8.078125,-2.824219,-0.222656,-0.039063,-0.230469,0.343445,0.171997,-0.786621,-0.483459,down
80589,3.816406,8.039063,-2.824219,-0.222656,-0.039063,-0.230469,0.342896,0.172424,-0.78595,-0.484802,down
80595,3.816406,8.078125,-2.824219,-0.162109,-0.029297,-0.203125,0.342896,0.172424,-0.78595,-0.484802,down
80600,3.816406,8.078125,-2.824219,-0.128906,-0.013672,-0.195312,0.342896,0.172424,-0.78595,-0.484802,down
80606,3.816406,8.191406,-2.785156,-0.080078,-0.023437,-0.167969,0.342896,0.172424,-0.78595,-0.484802,down
80611,3.816406,8.191406,-2.75,-0.035156,-0.025391,-0.142578,0.342896,0.172424,-0.78595,-0.484802,down
80616,3.816406,8.191406,-2.785156,-0.007813,-0.019531,-0.128906,0.342896,0.172424,-0.78595,-0.484802,down
80622,3.816406,8.226563,-2.824219,0.029297,-0.021484,-0.103516,0.342896,0.172424,-0.78595,-0.484802,down
80627,3.855469,8.230469,-2.785156,0.029297,-0.021484,-0.103516,0.341003,0.174438,-0.785095,-0.486694,down
80632,3.816406,8.265625,-2.785156,0.029297,-0.021484,-0.103516,0.341003,0.174438,-0.785095,-0.486694,down
80637,3.777344,8.269531,-2.863281,0.132812,-0.017578,-0.019531,0.341003,0.174438,-0.785095,-0.486694,down
80643,3.777344,8.269531,-2.863281,0.144531,-0.023437,-0.013672,0.340515,0.174927,-0.785522,-0.486206,down
80648,3.816406,8.386719,-2.863281,0.144531,-0.023437,-0.013672,0.340332,0.17511,-0.785767,-0.485901,down
80653,3.777344,8.382813,-2.902344,0.158203,-0.017578,0.007813,0.340332,0.17511,-0.785767,-0.485901,down
80658,3.738281,8.386719,-2.941406,0.169922,-0.029297,0.009766,0.340332,0.17511,-0.785767,-0.485901,down
80663,3.738281,8.382813,-2.863281,0.169922,-0.029297,0.009766,0.339905,0.175476,-0.786377,-0.485046,down
80669,3.777344,8.308594,-2.863281,0.169922,-0.029297,0.009766,0.339722,0.175537,-0.786621,-0.484741,down
80674,3.738281,8.269531,-2.902344,0.148437,-0.035156,0.005859,0.339722,0.175537,-0.786621,-0.484741,down
80679,3.777344,8.226563,-2.976563,0.148437,-0.035156,0.005859,0.339722,0.175537,-0.786621,-0.484741,down
80685,3.777344,8.230469,-2.941406,0.128906,-0.017578,-0.021484,0.339722,0.175537,-0.786621,-0.484741,down
80690,3.777344,8.230469,-2.941406,0.111328,-0.019531,-0.033203,0.339722,0.175537,-0.786621,-0.484741,down
80696,3.777344,8.269531,-2.976563,0.111328,-0.019531,-0.033203,0.338928,0.176208,-0.787537,-0.483582,down
80702,3.738281,8.304688,-2.941406,0.111328,-0.019531,-0.033203,0.338623,0.176697,-0.787659,-0.483459,down
80707,3.738281,8.304688,-2.941406,0.111328,-0.019531,-0.033203,0.338623,0.176697,-0.787659,-0.483459,down
80712,3.738281,8.265625,-2.941406,0.03125,0.009766,-0.121094,0.338257,0.177246,-0.787598,-0.483521,down
80717,3.738281,8.226563,-2.863281,0.03125,0.009766,-0.121094,0.338257,0.177246,-0.787598,-0.483521,down
80722,3.738281,8.1875,-2.863281,-0.005859,0.003906,-0.162109,0.338074,0.177612,-0.787537,-0.483704,down
80727,3.738281,8.160156,-2.824219,-0.005859,0.003906,-0.162109,0.337891,0.177979,-0.787476,-0.483826,down
80732,3.703125,8.15625,-2.75,-0.005859,0.003906,-0.162109,0.337402,0.17865,-0.787292,-0.484192,down
80737,3.664063,8.15625,-2.785156,-0.005859,0.003906,-0.162109,0.337158,0.179016,-0.78717,-0.484375,down
80742,3.664063,8.1875,-2.710938,-0.005859,0.003906,-0.162109,0.337158,0.179016,-0.78717,-0.484375,down
80747,3.738281,8.230469,-2.671875,-0.013672,-0.029297,-0.1875,0.336548,0.179687,-0.787048,-0.484802,down
80752,3.664063,8.226563,-2.710938,-0.013672,-0.029297,-0.1875,0.336548,0.179687,-0.787048,-0.484802,down
80757,3.625,8.226563,-2.710938,-0.013672,-0.029297,-0.1875,0.336243,0.179993,-0.786987,-0.484985,down
80762,3.664063,8.226563,-2.710938,0.001953,-0.060547,-0.158203,0.336243,0.179993,-0.786987,-0.484985,down
80767,3.664063,8.1875,-2.75,0.001953,-0.060547,-0.158203,0.33551,0.180542,-0.786926,-0.485413,down
80773,3.664063,8.1875,-2.785156,0.001953,-0.060547,-0.158203,0.334839,0.18103,-0.786865,-0.485718,down
80778,3.585938,8.191406,-2.824219,0.011719,-0.0625,-0.138672,0.334839,0.18103,-0.786865,-0.485718,down
80783,3.625,8.230469,-2.824219,0.011719,-0.0625,-0.138672,0.334534,0.181274,-0.786865,-0.48584,down
80789,3.625,8.226563,-2.785156,0.011719,-0.0625,-0.138672,0.333923,0.181763,-0.786926,-0.486023,down
80794,3.625,8.1875,-2.75,0.048828,-0.042969,-0.138672,0.333618,0.182007,-0.786926,-0.486084,down
80799,3.625,8.230469,-2.824219,0.058594,-0.044922,-0.136719,0.333313,0.182312,-0.786987,-0.486145,down
80805,3.625,8.1875,-2.75,0.0625,-0.042969,-0.138672,0.333313,0.182312,-0.786987,-0.486145,down
80810,3.585938,8.226563,-2.785156,0.080078,-0.044922,-0.130859,0.333313,0.182312,-0.786987,-0.486145,down
80815,3.585938,8.34375,-2.863281,0.087891,-0.025391,-0.138672,0.333313,0.182312,-0.786987,-0.486145,down
80820,3.585938,8.425781,-2.863281,0.087891,-0.023437,-0.140625,0.333313,0.182312,-0.786987,-0.486145,down
80825,3.625,8.5,-2.863281,0.087891,-0.023437,-0.140625,0.333313,0.182312,-0.786987,-0.486145,down
80831,3.625,8.542969,-2.824219,0.091797,-0.033203,-0.144531,0.333313,0.182312,-0.786987,-0.486145,down
80836,3.585938,8.539063,-2.902344,0.083984,-0.03125,-0.142578,0.333313,0.182312,-0.786987,-0.486145,down
80841,3.664063,8.539063,-2.902344,0.082031,-0.021484,-0.140625,0.333313,0.182312,-0.786987,-0.486145,down
80846,3.625,8.542969,-2.941406,0.082031,-0.021484,-0.140625,0.333313,0.182312,-0.786987,-0.486145,down
80851,3.625,8.5,-2.902344,0.082031,-0.021484,-0.140625,0.330505,0.185486,-0.787537,-0.485962,down
80856,3.625,8.5,-2.902344,0.050781,-0.019531,-0.128906,0.330505,0.185486,-0.787537,-0.485962,down
80862,3.625,8.503906,-2.824219,0.050781,-0.019531,-0.128906,0.329834,0.186279,-0.787598,-0.486023,down
80867,3.625,8.503906,-2.824219,0.050781,-0.019531,-0.128906,0.329834,0.186279,-0.787598,-0.486023,down
80872,3.625,8.503906,-2.824219,0.023437,-0.021484,-0.113281,0.329834,0.186279,-0.787598,-0.486023,down
80877,3.625,8.503906,-2.824219,0.023437,-0.021484,-0.113281,0.329407,0.186768,-0.787598,-0.486145,down
80882,3.625,8.542969,-2.824219,0.023437,-0.021484,-0.113281,0.329163,0.187012,-0.787598,-0.486206,down
80887,3.625,8.539063,-2.863281,0.023437,-0.021484,-0.113281,0.328979,0.187256,-0.787598,-0.486206,down
80893,3.585938,8.542969,-2.824219,0.056641,-0.03125,-0.080078,0.328979,0.187256,-0.787598,-0.486206,down
80898,3.585938,8.542969,-2.824219,0.066406,-0.033203,-0.060547,0.328369,0.187744,-0.78772,-0.486206,down
80903,3.625,8.570313,-2.902344,0.083984,-0.035156,-0.0625,0.328369,0.187744,-0.78772,-0.486206,down
80908,3.585938,8.539063,-2.863281,0.083984,-0.035156,-0.0625,0.328003,0.188049,-0.787964,-0.486023,down
80913,3.625,8.539063,-2.902344,0.083984,-0.035156,-0.0625,0.328003,0.188049,-0.787964,-0.486023,down
80918,3.585938,8.503906,-2.824219,0.083984,-0.035156,-0.0625,0.327637,0.188293,-0.788147,-0.48584,down
80923,3.625,8.503906,-2.824219,0.064453,-0.033203,-0.058594,0.327454,0.188477,-0.788269,-0.485718,down
80928,3.585938,8.503906,-2.824219,0.064453,-0.033203,-0.058594,0.327454,0.188477,-0.788269,-0.485718,down
80933,3.585938,8.464844,-2.824219,0.064453,-0.033203,-0.058594,0.327087,0.188721,-0.788391,-0.485596,down
80938,3.585938,8.460938,-2.785156,0.056641,-0.033203,-0.050781,0.327087,0.188721,-0.788391,-0.485596,down
80943,3.585938,8.460938,-2.785156,0.056641,-0.033203,-0.050781,0.326904,0.188843,-0.788513,-0.485535,down
80948,3.585938,8.425781,-2.785156,0.052734,-0.033203,-0.052734,0.326599,0.189026,-0.788574,-0.485474,down
80954,3.546875,8.386719,-2.785156,0.037109,-0.03125,-0.046875,0.326477,0.189148,-0.788635,-0.485474,down
80959,3.511719,8.421875,-2.785156,0.037109,-0.03125,-0.046875,0.326294,0.189209,-0.788696,-0.485474,down
80964,3.472656,8.386719,-2.710938,0.021484,-0.033203,-0.044922,0.326172,0.189331,-0.788757,-0.485474,down
80970,3.472656,8.304688,-2.75,0.021484,-0.033203,-0.044922,0.325989,0.189392,-0.788757,-0.485474,down
80975,3.472656,8.304688,-2.785156,0.023437,-0.033203,-0.048828,0.325989,0.189392,-0.788757,-0.485474,down
80981,3.472656,8.265625,-2.75,0.025391,-0.041016,-0.054687,0.325989,0.189392,-0.788757,-0.485474,down
80987,3.472656,8.304688,-2.710938,0.005859,-0.037109,-0.064453,0.325989,0.189392,-0.788757,-0.485474,down
80992,3.433594,8.308594,-2.710938,0.005859,-0.037109,-0.064453,0.325378,0.189697,-0.788879,-0.485596,down
80998,3.433594,8.34375,-2.75,-0.013672,-0.044922,-0.068359,0.325378,0.189697,-0.788879,-0.485596,down
81003,3.433594,8.382813,-2.75,-0.013672,-0.044922,-0.068359,0.325012,0.18988,-0.788879,-0.48584,down
81009,3.433594,8.34375,-2.75,-0.013672,-0.044922,-0.068359,0.324646,0.190002,-0.788818,-0.486084,down
81014,3.472656,8.347656,-2.75,-0.035156,-0.068359,-0.072266,0.324463,0.190002,-0.788818,-0.486267,down
81019,3.472656,8.347656,-2.75,-0.044922,-0.074219,-0.080078,0.324219,0.190063,-0.788757,-0.48645,down
81026,3.472656,8.304688,-2.75,-0.044922,-0.074219,-0.080078,0.323975,0.190125,-0.788757,-0.486633,down
81031,3.433594,8.308594,-2.75,-0.048828,-0.089844,-0.082031,0.323975,0.190125,-0.788757,-0.486633,down
81036,3.433594,8.269531,-2.75,-0.058594,-0.085937,-0.080078,0.323975,0.190125,-0.788757,-0.486633,down
81041,3.394531,8.269531,-2.785156,-0.046875,-0.089844,-0.070312,0.323975,0.190125,-0.788757,-0.486633,down
81047,3.472656,8.265625,-2.75,-0.046875,-0.089844,-0.070312,0.322998,0.190125,-0.788635,-0.487427,down
81053,3.449219,8.351563,-2.769531,-0.005859,-0.089844,-0.064453,0.322998,0.190125,-0.788635,-0.487427,down
81058,3.449219,8.277344,-2.769531,-0.005859,-0.089844,-0.064453,0.32312,0.189514,-0.788635,-0.48761,down
81063,3.410156,8.316406,-2.734375,-0.005859,-0.089844,-0.064453,0.323242,0.189209,-0.788635,-0.48761,down
81068,3.449219,8.351563,-2.808594,-0.005859,-0.089844,-0.064453,0.323242,0.189209,-0.788635,-0.48761,down
81073,3.410156,8.394531,-2.847656,0.035156,-0.105469,-0.066406,0.323242,0.189209,-0.788635,-0.48761,down
81078,3.410156,8.429688,-2.925781,0.035156,-0.105469,-0.066406,0.323547,0.188416,-0.788818,-0.487488,down
81083,3.375,8.433594,-2.886719,0.035156,-0.105469,-0.066406,0.323547,0.188171,-0.788879,-0.487488,down
81088,3.410156,8.394531,-2.886719,0.035156,-0.105469,-0.066406,0.323547,0.188171,-0.788879,-0.487488,down
81093,3.410156,8.429688,-2.925781,0.03125,-0.119141,-0.089844,0.323547,0.188171,-0.788879,-0.487488,down
81098,3.375,8.394531,-2.886719,0.03125,-0.119141,-0.089844,0.323425,0.187622,-0.789001,-0.487549,down
81103,3.410156,8.429688,-2.925781,0.03125,-0.119141,-0.089844,0.323364,0.187439,-0.789001,-0.48761,down
81108,3.375,8.351563,-2.886719,0.03125,-0.119141,-0.089844,0.323364,0.187439,-0.789001,-0.48761,down
81113,3.335938,8.351563,-2.886719,-0.033203,-0.125,-0.126953,0.323364,0.187439,-0.789001,-0.48761,down
81118,3.335938,8.3125,-2.847656,-0.074219,-0.121094,-0.152344,0.323181,0.187134,-0.78894,-0.487976,down
81123,3.335938,8.273438,-2.808594,-0.074219,-0.121094,-0.152344,0.32312,0.187012,-0.788818,-0.48822,down
81129,3.335938,8.238281,-2.847656,-0.083984,-0.117188,-0.171875,0.322937,0.18689,-0.788757,-0.488525,down
81135,3.296875,8.160156,-2.808594,-0.083984,-0.117188,-0.171875,0.322693,0.186768,-0.788513,-0.489136,down
81140,3.257813,8.117188,-2.808594,-0.080078,-0.115234,-0.210937,0.322571,0.186768,-0.788391,-0.489441,down
81146,3.257813,8.117188,-2.734375,-0.076172,-0.121094,-0.212891,0.322571,0.186768,-0.788391,-0.489441,down
81151,3.21875,8.078125,-2.65625,-0.076172,-0.121094,-0.212891,0.322083,0.186829,-0.788086,-0.490112,down
81156,3.144531,8.121094,-2.695313,-0.060547,-0.121094,-0.248047,0.322083,0.186829,-0.788086,-0.490112,down
81161,3.144531,8.117188,-2.65625,-0.058594,-0.130859,-0.277344,0.322083,0.186829,-0.788086,-0.490112,down
81166,3.105469,8.117188,-2.542969,-0.046875,-0.148437,-0.291016,0.322083,0.186829,-0.788086,-0.490112,down
81171,3.066406,8.199219,-2.464844,-0.048828,-0.164062,-0.300781,0.322083,0.186829,-0.788086,-0.490112,down
81176,3.027344,8.277344,-2.503906,-0.041016,-0.189453,-0.316406,0.322083,0.186829,-0.788086,-0.490112,down
81181,2.953125,8.277344,-2.503906,-0.042969,-0.207031,-0.339844,0.322083,0.186829,-0.788086,-0.490112,down
81186,2.953125,8.3125,-2.503906,-0.042969,-0.207031,-0.339844,0.31842,0.188538,-0.787476,-0.492859,down
81191,2.953125,8.351563,-2.503906,-0.0625,-0.253906,-0.373047,0.31842,0.188538,-0.787476,-0.492859,down
81196,2.953125,8.3125,-2.503906,-0.087891,-0.275391,-0.384766,0.31842,0.188538,-0.787476,-0.492859,down
81201,2.914063,8.351563,-2.503906,-0.107422,-0.292969,-0.400391,0.31842,0.188538,-0.787476,-0.492859,down
81206,2.953125,8.390625,-2.578125,-0.107422,-0.292969,-0.400391,0.31842,0.188538,-0.787476,-0.492859,down
81212,2.875,8.390625,-2.578125,-0.107422,-0.292969,-0.400391,0.313477,0.190247,-0.787109,-0.496033,down
81218,2.875,8.429688,-2.65625,-0.173828,-0.333984,-0.447266,0.313477,0.190247,-0.787109,-0.496033,down
81224,2.796875,8.464844,-2.734375,-0.173828,-0.333984,-0.447266,0.310059,0.191223,-0.786621,-0.498535,down
81230,2.796875,8.460938,-2.695313,-0.173828,-0.333984,-0.447266,0.308838,0.191589,-0.786377,-0.499512,down
81235,2.796875,8.5,-2.695313,-0.208984,-0.355469,-0.509766,0.307739,0.191895,-0.786194,-0.500366,down
81240,2.761719,8.460938,-2.695313,-0.232422,-0.359375,-0.535156,0.307739,0.191895,-0.786194,-0.500366,down
81246,2.644531,8.5,-2.617188,-0.232422,-0.359375,-0.535156,0.307739,0.191895,-0.786194,-0.500366,down
81252,2.644531,8.429688,-2.578125,-0.273438,-0.398438,-0.595703,0.307739,0.191895,-0.786194,-0.500366,down
81257,2.644531,8.464844,-2.542969,-0.292969,-0.414062,-0.628906,0.307739,0.191895,-0.786194,-0.500366,down
81263,2.492188,8.429688,-2.425781,-0.292969,-0.414062,-0.628906,0.307739,0.191895,-0.786194,-0.500366,down
81268,2.53125,8.351563,-2.347656,-0.388672,-0.5,-0.759766,0.307739,0.191895,-0.786194,-0.500366,down
81273,2.378906,8.351563,-2.273438,-0.388672,-0.5,-0.759766,0.297607,0.19519,-0.783752,-0.509033,down
81278,2.378906,8.351563,-2.273438,-0.466797,-0.599609,-0.888672,0.295654,0.195801,-0.783142,-0.510803,down
81283,2.300781,8.460938,-2.15625,-0.466797,-0.599609,-0.888672,0.291687,0.19696,-0.782043,-0.514343,down
81288,2.222656,8.578125,-2.121094,-0.466797,-0.599609,-0.888672,0.291687,0.19696,-0.782043,-0.514343,down
81293,2.109375,8.582031,-2.082031,-0.587891,-0.720703,-1.023438,0.291687,0.19696,-0.782043,-0.514343,down
81298,2.070313,8.617188,-2.082031,-0.587891,-0.720703,-1.023438,0.286804,0.198303,-0.780518,-0.51886,down
81303,1.996094,8.65625,-2.082031,-0.587891,-0.720703,-1.023438,0.283875,0.199036,-0.779541,-0.521606,down
81309,1.957031,8.734375,-2.042969,-0.835937,-0.951172,-1.279297,0.27771,0.200317,-0.777466,-0.527588,down
81315,1.726563,9.039063,-1.964844,-0.835937,-0.951172,-1.279297,0.274353,0.200867,-0.776245,-0.530823,down
81320,1.726563,9.039063,-1.964844,-1.136719,-1.232422,-1.566406,0.270508,0.201477,-0.774841,-0.534668,down
81325,1.6875,9.117188,-2.042969,-1.136719,-1.232422,-1.566406,0.266663,0.202026,-0.773376,-0.538513,down
81330,1.648438,9.082031,-2.042969,-1.447266,-1.431641,-1.777344,0.266663,0.202026,-0.773376,-0.538513,down
81336,1.535156,9.078125,-2.003906,-1.447266,-1.431641,-1.777344,0.257751,0.203064,-0.76947,-0.547974,down
81342,1.535156,9.078125,-2.003906,-1.863281,-1.621094,-2.007813,0.252991,0.203552,-0.76709,-0.553345,down
81347,1.535156,9.117188,-2.003906,-2.082031,-1.705078,-2.109375,0.252991,0.203552,-0.76709,-0.553345,down
81353,1.34375,9.15625,-2.121094,-2.082031,-1.705078,-2.109375,0.252991,0.203552,-0.76709,-0.553345,down
81358,1.226563,9.15625,-2.121094,-2.490234,-1.810547,-2.324219,0.252991,0.203552,-0.76709,-0.553345,down
81364,1.152344,9.15625,-2.082031,-2.697266,-1.859375,-2.416016,0.22583,0.205139,-0.74939,-0.587646,down
81369,1.035156,9.039063,-2.003906,-2.697266,-1.859375,-2.416016,0.219543,0.205322,-0.744324,-0.596375,down
81374,0.960937,8.84375,-1.964844,-3.183594,-1.861328,-2.535156,0.219543,0.205322,-0.744324,-0.596375,down
81379,0.84375,8.734375,-2.003906,-3.183594,-1.861328,-2.535156,0.208496,0.205627,-0.734253,-0.612427,down
81384,0.652344,8.464844,-1.929688,-3.183594,-1.861328,-2.535156,0.203491,0.205811,-0.72937,-0.619873,down
81389,0.539062,8.429688,-1.8125,-3.201172,-1.726563,-2.496094,0.197754,0.206055,-0.723572,-0.628418,down
81394,0.460937,8.316406,-1.738281,-3.080078,-1.673828,-2.453125,0.192261,0.206238,-0.718018,-0.636353,down
81399,0.347656,8.277344,-1.621094,-3.080078,-1.673828,-2.453125,0.187439,0.206543,-0.713196,-0.643066,down
81404,0.195312,8.390625,-1.429688,-3.080078,-1.673828,-2.453125,0.182251,0.20697,-0.708252,-0.649902,down
81410,0.039063,8.503906,-1.390625,-3.080078,-1.673828,-2.453125,0.176697,0.207642,-0.703369,-0.656433,down
81415,-0.152344,8.695313,-1.355469,-1.958984,-1.398438,-2.316406,0.171387,0.208435,-0.699219,-0.661987,down
81420,-0.226562,8.886719,-1.316406,-1.958984,-1.398438,-2.316406,0.166565,0.20929,-0.695923,-0.666443,down
81425,-0.496094,9.34375,-1.160156,-1.958984,-1.398438,-2.316406,0.166565,0.20929,-0.695923,-0.666443,down
81430,-0.496094,9.34375,-1.160156,-1.388672,-1.302734,-2.224609,0.161194,0.210388,-0.692627,-0.670837,down
81436,-0.878906,9.769531,-1.085938,-1.388672,-1.302734,-2.224609,0.151001,0.212769,-0.687439,-0.677795,down
81441,-1.070313,10.003906,-1.046875,-1.388672,-1.302734,-2.224609,0.151001,0.212769,-0.687439,-0.677795,down
81447,-1.148438,10.148438,-1.007813,-1.388672,-1.302734,-2.224609,0.140991,0.215393,-0.683105,-0.683411,down
81452,-1.261719,10.308594,-0.96875,-0.740234,-1.048828,-1.921875,0.140991,0.215393,-0.683105,-0.683411,down
81458,-1.300781,10.382813,-0.855469,-0.740234,-1.048828,-1.921875,0.131409,0.217896,-0.679016,-0.688599,down
81464,-1.414063,10.304688,-0.585937,-0.740234,-1.048828,-1.921875,0.123413,0.219727,-0.674683,-0.693726,down
81469,-1.453125,10.308594,-0.511719,-1.185547,-0.804687,-1.513672,0.123413,0.219727,-0.674683,-0.693726,down
81474,-1.53125,10.109375,-0.359375,-1.185547,-0.804687,-1.513672,0.119507,0.220642,-0.671875,-0.696838,down
81480,-1.53125,10.109375,-0.359375,-1.251953,-0.617187,-1.277344,0.113953,0.221985,-0.666687,-0.702332,down
81485,-1.644531,10.003906,-0.394531,-1.21875,-0.568359,-1.167969,0.111267,0.222656,-0.663757,-0.705322,down
81490,-1.683594,9.886719,-0.164062,-1.21875,-0.568359,-1.167969,0.109009,0.223206,-0.661133,-0.707947,down
81495,-1.722656,9.808594,-0.050781,-1.21875,-0.568359,-1.167969,0.1073,0.223694,-0.659058,-0.710022,down
81501,-1.761719,9.6875,-0.050781,-1.21875,-0.568359,-1.167969,0.105469,0.224182,-0.65686,-0.712158,down
81507,-1.796875,9.6875,-0.050781,-0.771484,-0.320313,-0.828125,0.105469,0.224182,-0.65686,-0.712158,down
81512,-1.835938,9.691406,0.027344,-0.601562,-0.283203,-0.767578,0.105469,0.224182,-0.65686,-0.712158,down
81517,-1.914063,9.730469,0.101563,-0.601562,-0.283203,-0.767578,0.105469,0.224182,-0.65686,-0.712158,down
81522,-1.914063,9.730469,0.101563,-0.292969,-0.238281,-0.671875,0.099487,0.22644,-0.651062,-0.71759,down
81528,-1.953125,9.769531,0.140625,-0.154297,-0.207031,-0.646484,0.099487,0.22644,-0.651062,-0.71759,down
81533,-1.953125,9.769531,0.140625,-0.070312,-0.195312,-0.632812,0.09668,0.227661,-0.649841,-0.718689,down
81539,-1.953125,9.648438,0.21875,-0.070312,-0.195312,-0.632812,0.095276,0.228333,-0.649475,-0.718994,down
81544,-2.027344,9.582031,0.253906,-0.070312,-0.195312,-0.632812,0.09259,0.229736,-0.648865,-0.719482,down
81549,-2.027344,9.542969,0.332031,-0.070312,-0.195312,-0.632812,0.09259,0.229736,-0.648865,-0.719482,down
81554,-2.027344,9.621094,0.292969,-0.130859,-0.119141,-0.617187,0.091858,0.229858,-0.648621,-0.719727,down
81559,-2.066406,9.617188,0.332031,-0.130859,-0.119141,-0.617187,0.090454,0.230347,-0.647827,-0.720459,down
81564,-1.953125,9.582031,0.445312,-0.130859,-0.119141,-0.617187,0.090454,0.230347,-0.647827,-0.720459,down
81569,-1.988281,9.5,0.484375,-0.130859,-0.119141,-0.617187,0.088867,0.231201,-0.646118,-0.721924,down
81574,-2.066406,9.347656,0.484375,-0.130859,-0.119141,-0.617187,0.088867,0.231201,-0.646118,-0.721924,down
81579,-2.027344,9.269531,0.523437,-0.589844,-0.033203,-0.648437,0.088867,0.231201,-0.646118,-0.721924,down
81585,-2.066406,9.226563,0.5625,-0.589844,-0.033203,-0.648437,0.086975,0.232788,-0.642395,-0.724976,down
81591,-2.027344,9.195313,0.5625,-0.589844,-0.033203,-0.648437,0.086304,0.233521,-0.640808,-0.726196,down
81596,-2.144531,9.160156,0.636719,-0.636719,-0.023437,-0.648437,0.085632,0.234131,-0.639343,-0.727417,down
81601,-2.105469,9.039063,0.636719,-0.611328,-0.025391,-0.654297,0.085632,0.234131,-0.639343,-0.727417,down
81606,-2.144531,8.964844,0.714844,-0.611328,-0.025391,-0.654297,0.085632,0.234131,-0.639343,-0.727417,down
81612,-2.21875,8.964844,0.792969,-0.521484,-0.029297,-0.658203,0.085632,0.234131,-0.639343,-0.727417,down
81617,-2.257813,8.964844,0.792969,-0.46875,-0.025391,-0.666016,0.085632,0.234131,-0.639343,-0.727417,down
81622,-2.296875,9.0,0.792969,-0.46875,-0.025391,-0.666016,0.085632,0.234131,-0.639343,-0.727417,down
81628,-2.371094,9.042969,0.792969,-0.46875,-0.025391,-0.666016,0.081055,0.238403,-0.631836,-0.733093,down
81634,-2.371094,9.039063,0.867187,-0.314453,-0.054687,-0.697266,0.081055,0.238403,-0.631836,-0.733093,down
81639,-2.371094,9.039063,0.867187,-0.314453,-0.054687,-0.697266,0.078979,0.240173,-0.629761,-0.734497,down
81645,-2.371094,9.078125,0.867187,-0.324219,-0.058594,-0.707031,0.076721,0.241943,-0.627747,-0.73584,down
81650,-2.410156,9.078125,0.90625,-0.380859,-0.041016,-0.734375,0.0755,0.24292,-0.626587,-0.736633,down
81655,-2.449219,9.078125,0.945312,-0.380859,-0.041016,-0.734375,0.074341,0.243896,-0.625366,-0.737488,down
81660,-2.449219,9.078125,0.945312,-0.380859,-0.041016,-0.734375,0.073364,0.24469,-0.624268,-0.738281,down
81666,-2.410156,9.0,1.058594,-0.380859,-0.041016,-0.734375,0.072144,0.245667,-0.622742,-0.739319,down
81671,-2.527344,9.042969,1.136719,-0.582031,-0.048828,-0.753906,0.071167,0.246521,-0.62146,-0.740295,down
81676,-2.5625,8.960938,1.058594,-0.582031,-0.048828,-0.753906,0.070068,0.247498,-0.619751,-0.741455,down
81682,-2.679688,8.964844,1.175781,-0.582031,-0.048828,-0.753906,0.069214,0.248352,-0.618286,-0.742432,down
81687,-2.679688,8.960938,1.214844,-0.654297,-0.033203,-0.751953,0.069214,0.248352,-0.618286,-0.742432,down
81692,-2.640625,8.847656,1.289063,-0.660156,-0.035156,-0.755859,0.069214,0.248352,-0.618286,-0.742432,down
81698,-2.71875,8.65625,1.328125,-0.660156,-0.035156,-0.755859,0.069214,0.248352,-0.618286,-0.742432,down
81704,-2.757813,8.617188,1.328125,-0.660156,-0.015625,-0.757812,0.069214,0.248352,-0.618286,-0.742432,down
81709,-2.757813,8.539063,1.289063,-0.609375,-0.021484,-0.757812,0.063293,0.253967,-0.608398,-0.749268,down
81714,-2.71875,8.429688,1.40625,-0.609375,-0.021484,-0.757812,0.063293,0.253967,-0.608398,-0.749268,down
81719,-2.71875,8.351563,1.480469,-0.486328,-0.037109,-0.783203,0.062073,0.255005,-0.60675,-0.750305,down
81724,-2.757813,8.277344,1.480469,-0.486328,-0.037109,-0.783203,0.061035,0.25592,-0.605469,-0.75116,down
81729,-2.792969,8.277344,1.480469,-0.458984,-0.037109,-0.794922,0.061035,0.25592,-0.605469,-0.75116,down
81734,-2.910156,8.199219,1.519531,-0.458984,-0.037109,-0.794922,0.058594,0.257935,-0.602722,-0.752808,down
81739,-2.984375,8.15625,1.441406,-0.458984,-0.037109,-0.794922,0.05719,0.259155,-0.601318,-0.753662,down
81744,-2.984375,8.15625,1.441406,-0.373047,-0.037109,-0.900391,0.055908,0.260193,-0.600159,-0.754333,down
81749,-3.214844,8.316406,1.519531,-0.337891,-0.058594,-0.970703,0.054382,0.261353,-0.598877,-0.755005,down
81754,-3.214844,8.316406,1.519531,-0.298828,-0.083984,-1.042969,0.052673,0.262634,-0.597656,-0.755676,down
81760,-3.292969,8.503906,1.597656,-0.259766,-0.09375,-1.144531,0.048401,0.265625,-0.595154,-0.756897,down
81766,-3.445313,8.84375,1.519531,-0.259766,-0.09375,-1.144531,0.045898,0.267334,-0.593811,-0.757507,down
81771,-3.445313,8.816406,1.558594,-0.302734,-0.115234,-1.501953,0.045898,0.267334,-0.593811,-0.757507,down
81776,-3.523438,8.734375,1.597656,-0.333984,-0.134766,-1.621094,0.040466,0.271118,-0.590759,-0.75885,down
81782,-3.636719,8.5,1.632813,-0.398438,-0.144531,-1.753906,0.040466,0.271118,-0.590759,-0.75885,down
81787,-3.636719,7.8125,1.863281,-0.398438,-0.144531,-1.753906,0.033936,0.275574,-0.586914,-0.760559,down
81793,-3.523438,7.777344,2.054688,-0.523437,-0.246094,-2.068359,0.033936,0.275574,-0.586914,-0.760559,down
81798,-3.558594,7.65625,2.363281,-0.585937,-0.277344,-2.259766,0.033936,0.275574,-0.586914,-0.760559,down
81803,-3.675781,7.511719,2.476563,-0.695312,-0.236328,-2.466797,0.021729,0.283386,-0.579285,-0.763977,down
81809,-3.789063,7.167969,2.476563,-0.695312,-0.236328,-2.466797,0.012207,0.290466,-0.572266,-0.766785,down
81814,-3.90625,7.207031,2.476563,-0.695312,-0.236328,-2.466797,0.012207,0.290466,-0.572266,-0.766785,down
81819,-4.25,7.546875,2.476563,-0.931641,-0.056641,-3.146484,0.012207,0.290466,-0.572266,-0.766785,down
81825,-4.519531,7.660156,2.324219,-0.884766,-0.035156,-3.357422,0.004517,-0.303772,0.559937,0.770813,down
81830,-4.785156,7.734375,2.210938,-0.792969,0.072266,-3.744141,0.011475,-0.309448,0.555115,0.771973,down
81835,-4.976562,7.933594,1.980469,-0.792969,0.072266,-3.744141,0.018066,-0.314819,0.550781,0.772827,down
81840,-5.359375,9.160156,1.597656,-0.792969,0.072266,-3.744141,0.018066,-0.314819,0.550781,0.772827,down
81845,-5.359375,9.160156,1.597656,-0.675781,0.085937,-4.017578,0.024414,-0.319946,0.546692,0.773437,down
81850,-5.742187,9.226563,1.558594,-0.681641,0.027344,-4.103516,0.024414,-0.319946,0.546692,0.773437,down
81855,-5.742187,9.226563,1.558594,-0.699219,-0.269531,-4.154297,0.039185,-0.331238,0.537292,0.774597,down
81860,-6.703125,10.765625,2.015625,-0.699219,-0.269531,-4.154297,0.054871,-0.341492,0.527466,0.776001,down
81865,-7.007812,10.875,2.054688,-0.699219,-0.269531,-4.154297,0.063477,-0.34668,0.521606,0.776978,down
81870,-7.160156,10.953125,2.054688,-1.183594,-0.576172,-4.099609,0.070984,-0.351013,0.516052,0.778076,down
81875,-7.351562,10.953125,2.054688,-1.183594,-0.576172,-4.099609,0.077881,-0.354797,0.510315,0.77948,down
81881,-7.964844,10.839844,2.402344,-1.183594,-0.576172,-4.099609,0.085632,-0.358765,0.503052,0.781555,down
81886,-8.082031,10.804688,2.667969,-2.082031,-0.931641,-3.826172,0.092773,-0.362305,0.495422,0.783997,down
81891,-8.617188,10.34375,2.667969,-2.082031,-0.931641,-3.826172,0.09967,-0.365906,0.486938,0.786865,down
81897,-8.921875,9.347656,2.707031,-2.082031,-0.931641,-3.826172,0.104919,-0.368774,0.47937,0.789429,down
81902,-8.769531,9.269531,2.9375,-2.839844,-0.970703,-3.533203,0.110474,-0.371887,0.47052,0.792542,down
81908,-8.808594,9.15625,3.167969,-2.884766,-0.996094,-3.380859,0.110474,-0.371887,0.47052,0.792542,down
81914,-9.082031,9.078125,3.78125,-2.884766,-0.996094,-3.380859,0.110474,-0.371887,0.47052,0.792542,down
81920,-9.113281,9.117188,3.816406,-2.728516,-0.669922,-2.867188,0.110474,-0.371887,0.47052,0.792542,down
81925,-9.113281,9.117188,3.816406,-2.728516,-0.669922,-2.867188,0.129517,-0.382751,0.434265,0.805054,down
81930,-9.652344,9.117188,3.589844,-2.578125,-0.505859,-2.636719,0.133118,-0.385315,0.426208,0.807556,down
81935,-9.652344,9.117188,3.589844,-2.419922,-0.386719,-2.384766,0.136169,-0.387878,0.41864,0.809753,down
81940,-9.886719,9.117188,3.703125,-2.419922,-0.386719,-2.384766,0.14093,-0.3927,0.405029,0.813538,down
81945,-9.957031,9.003906,3.742188,-2.419922,-0.386719,-2.384766,0.142395,-0.394958,0.39917,0.815063,down
81950,-10.269531,8.464844,3.933594,-2.419922,-0.386719,-2.384766,0.142395,-0.394958,0.39917,0.815063,down
81955,-10.378906,8.273438,4.199219,-1.777344,0.220703,-0.992187,0.143433,-0.397522,0.393127,0.816589,down
81960,-10.53125,8.042969,4.429687,-1.777344,0.220703,-0.992187,0.143433,-0.40155,0.384277,0.818848,down
81965,-11.03125,7.660156,4.660156,-1.632813,0.513672,-0.410156,0.143433,-0.40155,0.384277,0.818848,down
81970,-11.300781,7.507812,4.738281,-1.632813,0.513672,-0.410156,0.140686,-0.405579,0.377197,0.820679,down
81975,-11.488281,7.507812,4.851562,-1.455078,0.748047,0.212891,0.140686,-0.405579,0.377197,0.820679,down
81980,-11.601563,7.625,5.003906,-1.455078,0.748047,0.212891,0.135559,-0.408997,0.372314,0.822021,down
81985,-11.640625,7.890625,5.121094,-1.455078,0.748047,0.212891,0.132263,-0.410339,0.370911,0.82251,down
81991,-11.949219,8.542969,5.386719,-0.966797,0.925781,1.255859,0.127686,-0.411621,0.370056,0.822998,down
81996,-12.21875,8.773438,5.3125,-0.794922,0.994141,1.636719,0.122925,-0.412537,0.370056,0.823242,down
82001,-12.523438,9.003906,5.082031,-0.611328,0.986328,2.025391,0.117554,-0.413025,0.37085,0.823425,down
82007,-12.753906,9.117188,4.738281,-0.611328,0.986328,2.025391,0.112,-0.413086,0.372192,0.823608,down
82013,-12.675781,9.003906,4.777344,-0.322266,0.833984,2.826172,0.112,-0.413086,0.372192,0.823608,down
82018,-12.566406,8.734375,4.699219,-0.216797,0.800781,3.220703,0.112,-0.413086,0.372192,0.823608,down
82023,-12.328125,8.503906,4.507812,-0.216797,0.800781,3.220703,0.112,-0.413086,0.372192,0.823608,down
82029,-12.140625,8.3125,4.238281,-0.148437,0.828125,3.583984,0.081238,-0.40802,0.384338,0.824158,down
82034,-12.140625,8.3125,4.238281,0.005859,0.839844,4.246094,0.072083,-0.405823,0.38855,0.824097,down
82039,-11.183594,7.890625,3.589844,0.005859,0.839844,4.246094,0.072083,-0.405823,0.38855,0.824097,down
82044,-10.800781,7.777344,3.550781,0.214844,0.789062,5.083984,0.072083,-0.405823,0.38855,0.824097,down
82049,-10.414063,7.777344,3.433594,0.214844,0.789062,5.083984,0.041077,-0.396851,0.403687,0.823303,down
82055,-9.769531,7.738281,3.128906,0.3125,0.783203,5.373047,0.041077,-0.396851,0.403687,0.823303,down
82060,-9.496094,7.738281,2.976563,0.3125,0.783203,5.373047,0.004944,-0.384216,0.422791,0.82074,down
82065,-9.496094,7.738281,2.976563,0.3125,0.783203,5.373047,0.004944,-0.384216,0.422791,0.82074,down
82070,-9.1875,7.699219,2.898438,0.728516,0.740234,6.205078,0.004944,-0.384216,0.422791,0.82074,down
82075,-9.1875,7.699219,2.898438,0.919922,0.722656,6.496094,0.019958,0.374207,-0.437195,-0.817566,down
82080,-8.234375,7.277344,2.667969,0.919922,0.722656,6.496094,0.033203,0.368469,-0.445374,-0.815308,down
82085,-7.738281,7.203125,2.246094,0.919922,0.722656,6.496094,0.061218,0.355652,-0.464111,-0.80896,down
82090,-7.394531,6.972656,1.824219,0.919922,0.722656,6.496094,0.061218,0.355652,-0.464111,-0.80896,down
82095,-7.195312,6.972656,1.671875,2.029297,0.777344,7.693359,0.091858,0.340576,-0.486328,-0.799438,down
82100,-7.050781,6.933594,1.519531,2.029297,0.777344,7.693359,0.091858,0.340576,-0.486328,-0.799438,down
82105,-7.050781,6.933594,1.519531,2.566406,0.927734,8.318359,0.107544,0.332703,-0.498108,-0.793518,down
82110,-6.28125,7.085937,0.984375,2.851563,1.021484,8.613281,0.121399,0.325684,-0.508728,-0.787659,down
82115,-6.28125,7.085937,0.984375,3.126953,1.101563,8.90625,0.137939,0.3172,-0.521606,-0.779907,down
82121,-5.820312,7.273437,0.867187,3.126953,1.101563,8.90625,0.171265,0.299438,-0.548279,-0.761841,down
82127,-5.246094,7.3125,0.371094,3.126953,1.101563,8.90625,0.187927,0.290161,-0.561768,-0.751587,down
82132,-4.289062,5.742187,-0.242187,3.126953,1.101563,8.90625,0.204834,0.280762,-0.575256,-0.740479,down
82137,-3.828125,5.359375,-0.242187,4.185547,1.425781,10.017578,0.204834,0.280762,-0.575256,-0.740479,down
82142,-3.828125,5.359375,-0.242187,4.320312,1.533203,10.152344,0.240112,0.260986,-0.6026,-0.714905,down
82147,-3.101563,4.632812,0.101563,4.320312,1.533203,10.152344,0.240112,0.260986,-0.6026,-0.714905,down
82152,-3.101563,4.632812,0.101563,4.427734,1.720703,10.203125,0.257568,0.25116,-0.615723,-0.70105,down
82157,-2.832031,4.132812,0.371094,4.580078,1.847656,10.201172,0.292969,0.231628,-0.641479,-0.670105,down
82163,-1.375,2.722656,1.941406,4.580078,1.847656,10.201172,0.309753,0.22229,-0.653809,-0.653564,down
82169,-0.765625,1.496094,2.097656,4.580078,1.847656,10.201172,0.309753,0.22229,-0.653809,-0.653564,down
82175,-0.765625,1.378906,2.015625,5.611328,2.822266,9.621094,0.309753,0.22229,-0.653809,-0.653564,down
82180,-0.800781,1.1875,1.898438,5.611328,2.822266,9.621094,0.376465,0.190369,-0.698853,-0.577637,down
82185,-0.878906,0.765625,1.941406,5.611328,2.822266,9.621094,0.376465,0.190369,-0.698853,-0.577637,down
82190,-0.726562,0.691406,1.941406,5.884766,2.96875,9.271484,0.391968,0.183716,-0.708557,-0.557251,down
82195,-0.726562,0.691406,1.941406,6.021484,3.064453,9.070313,0.407593,0.177246,-0.718079,-0.535583,down
82200,-0.535156,0.535156,2.058594,6.021484,3.064453,9.070313,0.422119,0.17157,-0.726624,-0.51416,down
82205,-1.109375,0.5,2.941406,6.021484,3.064453,9.070313,0.436157,0.166504,-0.734741,-0.492187,down
82210,-1.183594,0.34375,3.664063,6.021484,3.064453,9.070313,0.450012,0.161865,-0.742554,-0.468933,down
82216,-1.109375,0.191406,4.355469,6.652344,3.291016,7.908203,0.475708,0.154541,-0.756653,-0.421021,down
82222,-1.070313,0.039063,5.15625,6.652344,3.291016,7.908203,0.485535,0.152161,-0.762146,-0.400269,down
82227,-1.070313,0.039063,5.15625,6.625,2.830078,6.533203,0.495056,0.150208,-0.767639,-0.378357,down
82232,-1.222656,-1.109375,6.609375,6.625,2.830078,6.533203,0.495056,0.150208,-0.767639,-0.378357,down
82238,-1.375,-1.417969,7.730469,6.226562,2.482422,5.478516,0.495056,0.150208,-0.767639,-0.378357,down
82244,-1.914063,-1.992188,8.074219,5.904297,2.234375,4.921875,0.517883,0.147644,-0.780762,-0.316833,down
82249,-2.488281,-1.722656,8.222656,5.904297,2.234375,4.921875,0.517883,0.147644,-0.780762,-0.316833,down
82255,-2.949219,-1.109375,9.066406,5.214844,1.318359,3.810547,0.517883,0.147644,-0.780762,-0.316833,down
82260,-3.332031,-0.957031,9.339844,5.214844,1.318359,3.810547,0.531494,0.148804,-0.794434,-0.253601,down
82265,-3.675781,-0.957031,9.488281,5.214844,1.318359,3.810547,0.531494,0.148804,-0.794434,-0.253601,down
82270,-4.019531,-1.035156,9.21875,3.787109,-0.193359,2.136719,0.530579,0.150024,-0.801147,-0.232788,down
82275,-4.59375,-1.609375,8.222656,3.787109,-0.193359,2.136719,0.530579,0.150024,-0.801147,-0.232788,down
82280,-4.746094,-2.066406,7.613281,3.787109,-0.193359,2.136719,0.528442,0.15033,-0.804443,-0.225891,down
82285,-4.746094,-2.066406,7.613281,1.707031,-1.701172,0.611328,0.525269,0.150513,-0.8078,-0.221191,down
82290,-4.902344,-2.605469,7.1875,0.988281,-2.199219,0.082031,0.525269,0.150513,-0.8078,-0.221191,down
82296,-5.132812,-3.867188,6.34375,0.296875,-2.626953,-0.478516,0.515686,0.150391,-0.814636,-0.218567,down
82301,-5.324219,-4.175781,5.964844,-0.298828,-2.986328,-1.058594,0.509399,0.150452,-0.818054,-0.220642,down
82307,-6.050781,-4.597656,5.234375,-0.298828,-2.986328,-1.058594,0.494141,0.151611,-0.82428,-0.231079,down
82312,-6.8125,-4.863281,4.738281,-0.298828,-2.986328,-1.058594,0.494141,0.151611,-0.82428,-0.231079,down
82317,-6.8125,-4.863281,4.738281,-1.833984,-4.064453,-3.6875,0.494141,0.151611,-0.82428,-0.231079,down
82322,-7.234375,-5.09375,4.429687,-1.833984,-4.064453,-3.6875,0.466125,0.158997,-0.831299,-0.257629,down
82327,-8.117188,-5.019531,3.933594,-1.833984,-4.064453,-3.6875,0.466125,0.158997,-0.831299,-0.257629,down
82333,-8.960938,-5.210937,3.742188,-1.833984,-4.064453,-3.6875,0.466125,0.158997,-0.831299,-0.257629,down
82338,-9.691406,-4.441406,3.78125,-1.537109,-5.474609,-6.960937,0.466125,0.158997,-0.831299,-0.257629,down
82343,-9.691406,-4.441406,3.78125,-1.289063,-6.017578,-7.867187,0.408875,0.188538,-0.838318,-0.307434,down
82348,-10.613281,-1.953125,3.167969,-1.289063,-6.017578,-7.867187,0.408875,0.188538,-0.838318,-0.307434,down
82353,-10.613281,-1.953125,3.167969,-1.138672,-6.632812,-8.810547,0.389832,0.199707,-0.8396,-0.321228,down
82358,-11.488281,-0.726562,1.558594,-1.177734,-7.345703,-9.753906,0.343567,0.226257,-0.840637,-0.352295,down
82364,-14.480469,1.839844,-1.890625,-1.78125,-8.664063,-11.572266,0.343567,0.226257,-0.840637,-0.352295,down
82370,-15.4375,3.640625,-3.421875,-2.951172,-9.537109,-13.427734,0.343567,0.226257,-0.840637,-0.352295,down
82375,-16.273437,6.207031,-5.414062,-2.951172,-9.537109,-13.427734,0.257141,0.271912,-0.832092,-0.409363,down
82381,-18.425781,12.988281,-9.972656,-3.580078,-9.898438,-14.353516,0.257141,0.271912,-0.832092,-0.409363,down
82386,-18.425781,12.988281,-9.972656,-4.265625,-10.263672,-15.369141,0.191162,0.30542,-0.81488,-0.454041,down
82392,-19.996094,16.625,-11.925781,-4.265625,-10.263672,-15.369141,0.154053,0.323547,-0.801208,-0.479248,down
82397,-23.214844,22.449219,-13.496094,-7.042969,-11.875,-18.164062,0.116089,0.341003,-0.784485,-0.504822,down
82402,-23.785156,26.246094,-14.722656,-7.042969,-11.875,-18.164062,0.034851,0.376465,-0.737,-0.560242,down
82408,-26.238281,29.726562,-17.175781,-7.042969,-11.875,-18.164062,0.004944,-0.394348,0.70636,0.58783,down
82413,-27.617187,29.730469,-18.285156,-10.818359,-10.400391,-20.341797,0.004944,-0.394348,0.70636,0.58783,down
82418,-29.761719,27.238281,-18.667969,-12.042969,-9.255859,-21.060547,0.004944,-0.394348,0.70636,0.58783,down
82423,-29.378906,27.925781,-16.945312,-12.939453,-8.322266,-21.443359,0.004944,-0.394348,0.70636,0.58783,down
82428,-28.230469,28.238281,-14.300781,-13.058594,-7.802734,-21.214844,0.004944,-0.394348,0.70636,0.58783,down
82434,-26.046875,26.394531,-11.734375,-12.789063,-7.261719,-20.441406,0.004944,-0.394348,0.70636,0.58783,down
82439,-23.054687,20.570312,-7.136719,-12.789063,-7.261719,-20.441406,0.203979,-0.509644,0.431946,0.715637,down
82445,-22.523437,18.234375,-4.6875,-11.894531,-5.078125,-16.925781,0.203979,-0.509644,0.431946,0.715637,down
82451,-22.066406,15.132813,-2.273438,-10.648438,-3.960938,-14.28125,0.25824,-0.547485,0.299072,0.73761,down
82456,-21.445312,9.195313,3.167969,-10.648438,-3.960938,-14.28125,0.266541,-0.554993,0.268127,0.740967,down
82461,-21.484375,6.4375,5.082031,-10.648438,-3.960938,-14.28125,0.270996,-0.560608,0.244385,0.743347,down
82466,-21.339844,3.984375,6.421875,-10.648438,-3.960938,-14.28125,0.270996,-0.560608,0.244385,0.743347,down
82471,-20.601562,1.761719,7.417969,-4.064453,-0.25,-3.175781,0.273132,-0.569214,0.219238,0.743835,down
82476,-20.683594,0.421875,5.695312,-4.064453,-0.25,-3.175781,0.274048,-0.57251,0.220703,0.740601,down
82481,-20.109375,1.074219,3.625,-4.064453,-0.25,-3.175781,0.275574,-0.573792,0.22876,0.736511,down
82486,-19.003906,2.222656,2.285156,6.380859,2.730469,2.507813,0.275574,-0.573792,0.22876,0.736511,down
82491,-16.929687,6.015625,0.828125,6.380859,2.730469,2.507813,0.278381,-0.573669,0.245117,0.730286,down
82496,-16.507812,8.773438,0.5625,9.791016,3.447266,3.568359,0.281677,-0.572144,0.262939,0.723999,down
82501,-16.3125,10.996094,0.636719,9.791016,3.447266,3.568359,0.291382,-0.565979,0.311401,0.705566,down
82506,-15.78125,13.332031,-0.011719,9.791016,3.447266,3.568359,0.291382,-0.565979,0.311401,0.705566,down
82511,-15.824219,13.90625,-0.894531,9.791016,3.447266,3.568359,0.301636,-0.558472,0.367004,0.680054,down
82516,-15.96875,14.097656,-1.699219,10.671875,4.185547,3.550781,0.301636,-0.558472,0.367004,0.680054,down
82521,-16.207031,13.867188,-2.15625,10.671875,4.185547,3.550781,0.31134,-0.549072,0.417969,0.653381,down
82526,-15.707031,12.257813,-0.933594,10.671875,4.185547,3.550781,0.31134,-0.549072,0.417969,0.653381,down
82531,-15.128906,10.957031,0.523437,8.888672,2.130859,2.755859,0.322327,-0.535461,0.459656,0.630981,down
82536,-14.253906,9.460938,2.171875,8.888672,2.130859,2.755859,0.322327,-0.535461,0.459656,0.630981,down
82541,-13.40625,8.199219,3.011719,4.208984,0.708984,1.626953,0.322327,-0.535461,0.459656,0.630981,down
82547,-11.867188,6.628906,4.46875,4.208984,0.708984,1.626953,0.33075,-0.521179,0.491333,0.614441,down
82552,-11.605469,5.863281,4.46875,4.208984,0.708984,1.626953,0.32959,-0.519897,0.495667,0.612671,down
82557,-11.03125,5.324219,4.621094,-1.539063,0.884766,0.830078,0.326233,-0.52063,0.496582,0.613098,down
82563,-10.652344,4.253906,3.320313,-1.539063,0.884766,0.830078,0.321716,-0.522644,0.494995,0.615112,down
82568,-9.917969,4.023437,3.203125,-1.539063,0.884766,0.830078,0.315369,-0.525574,0.490967,0.619019,down
82574,-9.535156,4.023437,3.242188,-5.0625,0.193359,0.59375,0.315369,-0.525574,0.490967,0.619019,down
82579,-9.191406,3.945313,2.898438,-5.726562,-0.005859,0.541016,0.315369,-0.525574,0.490967,0.619019,down
82584,-8.617188,3.140625,1.941406,-5.726562,-0.005859,0.541016,0.291565,-0.536194,0.468506,0.638733,down
82589,-8.382813,2.71875,1.25,-5.679687,-0.464844,0.394531,0.291565,-0.536194,0.468506,0.638733,down
82595,-8.15625,2.414063,0.828125,-4.951172,-0.753906,0.367188,0.291565,-0.536194,0.468506,0.638733,down
82600,-7.855469,2.070313,0.523437,-4.951172,-0.753906,0.367188,0.270813,-0.542969,0.443542,0.659668,down
82606,-7.539062,1.992188,0.636719,-4.951172,-0.753906,0.367188,0.265015,-0.541687,0.434509,0.669006,down
82611,-7.46875,2.03125,0.828125,-4.951172,-0.753906,0.367188,0.265015,-0.541687,0.434509,0.669006,down
82616,-7.511719,1.953125,0.445312,-0.472656,-1.123047,0.560547,0.265015,-0.541687,0.434509,0.669006,down
82621,-7.539062,1.878906,0.179687,-0.472656,-1.123047,0.560547,0.264038,-0.537598,0.432556,0.673889,down
82626,-7.621094,1.722656,-0.050781,0.855469,-0.679687,0.734375,0.264404,-0.535095,0.433472,0.675171,down
82631,-7.621094,1.722656,-0.28125,0.855469,-0.679687,0.734375,0.265015,-0.532654,0.435059,0.675842,down
82637,-7.660156,1.800781,-0.472656,0.855469,-0.679687,0.734375,0.266357,-0.527954,0.439758,0.675964,down
82642,-7.734375,1.914063,-0.433594,1.279297,-0.248047,0.832031,0.26709,-0.525513,0.443054,0.675476,down
82647,-7.816406,2.144531,-0.433594,1.279297,-0.248047,0.832031,0.267517,-0.523682,0.445862,0.674866,down
82652,-7.960937,2.683594,-0.585937,1.279297,-0.248047,0.832031,0.2677,-0.52179,0.44928,0.67395,down
82658,-8.082031,3.101563,-0.550781,1.279297,-0.248047,0.832031,0.267456,-0.520569,0.451843,0.673218,down
82663,-8.082031,3.101563,-0.550781,0.738281,0.414062,0.869141,0.266724,-0.519592,0.454712,0.672424,down
82669,-8.542969,3.179688,-0.816406,0.738281,0.414062,0.869141,0.265625,-0.519043,0.457153,0.67157,down
82674,-8.621094,3.257813,-0.585937,0.738281,0.414062,0.869141,0.264282,-0.518616,0.459656,0.670715,down
82679,-8.804688,3.292969,-0.394531,0.548828,0.652344,0.941406,0.264282,-0.518616,0.459656,0.670715,down
82685,-8.886719,3.332031,-0.28125,0.558594,0.716797,0.943359,0.264282,-0.518616,0.459656,0.670715,down
82690,-9.042969,3.332031,-0.242187,0.558594,0.716797,0.943359,0.259338,-0.517822,0.467651,0.667786,down
82695,-9.226563,3.484375,-0.28125,0.558594,0.716797,0.943359,0.259338,-0.517822,0.467651,0.667786,down
82700,-9.304688,3.601563,-0.242187,0.558594,0.716797,0.943359,0.256226,-0.517517,0.47345,0.6651,down
82705,-9.382813,3.714844,-0.128906,1.076172,0.794922,0.931641,0.256226,-0.517517,0.47345,0.6651,down
82710,-9.460938,4.0625,0.179687,1.076172,0.794922,0.931641,0.254028,-0.516663,0.480469,0.661621,down
82715,-9.53125,4.214844,0.253906,1.402344,0.746094,0.912109,0.254028,-0.516663,0.480469,0.661621,down
82720,-9.496094,4.289062,0.21875,1.455078,0.714844,0.898437,0.254028,-0.516663,0.480469,0.661621,down
82725,-9.570313,4.40625,0.21875,1.433594,0.681641,0.902344,0.254028,-0.516663,0.480469,0.661621,down
82731,-9.613281,4.597656,0.179687,1.433594,0.681641,0.902344,0.251282,-0.512573,0.499695,0.651428,down
82736,-9.570313,4.675781,0.21875,1.433594,0.681641,0.902344,0.251282,-0.512573,0.499695,0.651428,down
82741,-9.535156,4.675781,0.21875,1.017578,0.503906,0.921875,0.249634,-0.510681,0.506042,0.648682,down
82746,-9.652344,4.558594,0.0625,1.017578,0.503906,0.921875,0.249634,-0.510681,0.506042,0.648682,down
82751,-9.648438,4.445312,0.0625,1.017578,0.503906,0.921875,0.248535,-0.509766,0.508728,0.647705,down
82757,-9.496094,4.214844,0.140625,0.345703,0.322266,0.914062,0.245667,-0.508118,0.512695,0.646973,down
82762,-9.421875,4.097656,0.0625,0.0,0.236328,0.863281,0.244019,-0.507385,0.514099,0.647095,down
82768,-9.265625,3.90625,-0.011719,0.0,0.236328,0.863281,0.24231,-0.506714,0.515198,0.6474,down
82773,-9.1875,3.832031,-0.011719,-0.208984,0.144531,0.783203,0.240601,-0.506042,0.516052,0.647827,down
82778,-9.109375,3.832031,-0.050781,-0.248047,0.126953,0.734375,0.240601,-0.506042,0.516052,0.647827,down
82784,-9.042969,3.832031,-0.164062,-0.248047,0.126953,0.734375,0.240601,-0.506042,0.516052,0.647827,down
82789,-8.886719,3.871094,-0.164062,-0.167969,0.074219,0.652344,0.240601,-0.506042,0.516052,0.647827,down
82796,-8.886719,3.871094,-0.164062,-0.09375,0.039063,0.628906,0.240601,-0.506042,0.516052,0.647827,down
82801,-8.578125,3.753906,-0.089844,-0.025391,0.017578,0.611328,0.240601,-0.506042,0.516052,0.647827,down
82807,-8.539063,3.832031,-0.128906,0.103516,0.027344,0.585937,0.240601,-0.506042,0.516052,0.647827,down
82812,-8.503906,3.753906,-0.164062,0.103516,0.027344,0.585937,0.230652,-0.50061,0.521912,0.65094,down
82817,-8.421875,3.792969,-0.203125,0.103516,0.027344,0.585937,0.230652,-0.50061,0.521912,0.65094,down
82822,-8.304688,3.832031,-0.28125,0.103516,0.027344,0.585937,0.229309,-0.499084,0.523865,0.651062,down
82827,-8.308594,3.832031,-0.320313,0.183594,0.003906,0.544922,0.229309,-0.499084,0.523865,0.651062,down
82832,-8.238281,3.871094,-0.359375,0.125,-0.001953,0.541016,0.228638,-0.498169,0.524963,0.651123,down
82837,-8.160156,3.832031,-0.28125,0.125,-0.001953,0.541016,0.227234,-0.496765,0.526672,0.651306,down
82842,-8.082031,3.832031,-0.359375,0.039063,0.011719,0.533203,0.227234,-0.496765,0.526672,0.651306,down
82847,-8.082031,3.832031,-0.433594,0.039063,0.011719,0.533203,0.226318,-0.496033,0.527466,0.65155,down
82852,-8.0,3.792969,-0.320313,-0.013672,0.005859,0.537109,0.226318,-0.496033,0.527466,0.65155,down
82858,-7.960937,3.832031,-0.359375,-0.013672,0.005859,0.537109,0.223511,-0.49408,0.529419,0.652405,down
82863,-8.003906,3.871094,-0.433594,-0.013672,0.005859,0.537109,0.222656,-0.493591,0.529907,0.652649,down
82868,-8.0,3.871094,-0.511719,-0.041016,0.064453,0.503906,0.221741,-0.493103,0.530518,0.652893,down
82873,-8.039063,3.871094,-0.511719,-0.041016,0.064453,0.503906,0.220764,-0.492554,0.531189,0.653076,down
82878,-8.039063,3.945313,-0.511719,-0.041016,0.064453,0.503906,0.220764,-0.492554,0.531189,0.653076,down
82883,-8.039063,3.945313,-0.511719,0.154297,0.111328,0.457031,0.219238,-0.491577,0.532715,0.653076,down
82889,-7.964844,3.945313,-0.511719,0.154297,0.111328,0.457031,0.218506,-0.491089,0.53363,0.652893,down
82894,-7.925781,4.023437,-0.511719,0.154297,0.111328,0.457031,0.217957,-0.490601,0.534668,0.652649,down
82899,-7.964844,4.097656,-0.511719,0.330078,0.144531,0.404297,0.217957,-0.490601,0.534668,0.652649,down
82905,-7.964844,4.214844,-0.511719,0.376953,0.144531,0.396484,0.217957,-0.490601,0.534668,0.652649,down
82910,-8.042969,4.367187,-0.472656,0.376953,0.144531,0.396484,0.216675,-0.489197,0.538086,0.651306,down
82915,-8.078125,4.445312,-0.511719,0.390625,0.150391,0.384766,0.216675,-0.489197,0.538086,0.651306,down
82920,-8.121094,4.519531,-0.511719,0.373047,0.15625,0.375,0.216675,-0.489197,0.538086,0.651306,down
82925,-8.15625,4.558594,-0.550781,0.351563,0.150391,0.371094,0.216675,-0.489197,0.538086,0.651306,down
82930,-8.15625,4.597656,-0.511719,0.351563,0.150391,0.371094,0.216675,-0.489197,0.538086,0.651306,down
82936,-8.160156,4.558594,-0.511719,0.351563,0.150391,0.371094,0.214783,-0.487,0.54364,0.648987,down
82942,-8.199219,4.558594,-0.550781,0.175781,0.117188,0.337891,0.214783,-0.487,0.54364,0.648987,down
82947,-8.234375,4.558594,-0.625,0.175781,0.117188,0.337891,0.213318,-0.485962,0.546082,0.648193,down
82952,-8.238281,4.636719,-0.585937,0.125,0.083984,0.320313,0.213318,-0.485962,0.546082,0.648193,down
82957,-8.234375,4.675781,-0.550781,0.095703,0.083984,0.304688,0.212769,-0.485596,0.546814,0.64801,down
82963,-8.273438,4.675781,-0.585937,0.095703,0.083984,0.304688,0.211853,-0.484924,0.547913,0.647888,down
82969,-8.234375,4.710937,-0.664062,0.095703,0.083984,0.304688,0.211365,-0.48468,0.548401,0.647827,down
82976,-8.15625,4.710937,-0.664062,0.068359,0.054687,0.25,0.211365,-0.48468,0.548401,0.647827,down
82981,-8.199219,4.789062,-0.703125,0.085937,0.037109,0.248047,0.211365,-0.48468,0.548401,0.647827,down
82986,-8.117188,4.789062,-0.742187,0.085937,0.037109,0.248047,0.211365,-0.48468,0.548401,0.647827,down
82992,-8.15625,4.75,-0.777344,0.107422,0.023437,0.228516,0.211365,-0.48468,0.548401,0.647827,down
82997,-8.117188,4.75,-0.777344,0.115234,0.011719,0.214844,0.211365,-0.48468,0.548401,0.647827,down
83002,-8.121094,4.789062,-0.816406,0.115234,0.011719,0.214844,0.20929,-0.482483,0.551575,0.647461,down
83007,-8.121094,4.789062,-0.816406,0.115234,0.011719,0.214844,0.20929,-0.482483,0.551575,0.647461,down
83012,-8.078125,4.828125,-0.777344,0.068359,0.0,0.179687,0.208862,-0.481934,0.552246,0.6474,down
83017,-8.082031,4.867187,-0.855469,0.068359,0.0,0.179687,0.208862,-0.481934,0.552246,0.6474,down
83022,-8.082031,4.828125,-0.855469,0.009766,-0.001953,0.142578,0.208679,-0.481689,0.55249,0.647461,down
