timestamp,ax,ay,az,gx,gy,gz,qw,qx,qy,qz,label
754974,3.921875,8.691406,-2.398438,0.054687,-0.099609,0.265625,0.146301,-0.147156,-0.789001,-0.578308,down
754979,3.886719,8.609375,-2.359375,0.054687,-0.099609,0.265625,0.146423,-0.147705,-0.788879,-0.578247,down
754984,3.847656,8.386719,-2.28125,0.054687,-0.099609,0.265625,0.146423,-0.147705,-0.788879,-0.578247,down
754989,3.886719,8.308594,-2.246094,-0.087891,-0.103516,0.214844,0.146545,-0.148926,-0.788574,-0.578369,down
754994,3.886719,8.078125,-2.207031,-0.087891,-0.103516,0.214844,0.146545,-0.148926,-0.788574,-0.578369,down
754999,3.886719,8.078125,-2.207031,-0.078125,-0.136719,0.128906,0.146545,-0.148926,-0.788574,-0.578369,down
755004,3.847656,8.042969,-2.28125,-0.078125,-0.136719,0.128906,0.146362,-0.150024,-0.788269,-0.578491,down
755009,3.808594,8.042969,-2.246094,-0.078125,-0.136719,0.128906,0.145874,-0.150818,-0.788147,-0.578613,down
755014,3.808594,8.121094,-2.246094,-0.078125,-0.136719,0.128906,0.145447,-0.151184,-0.788147,-0.578613,down
755019,3.808594,8.078125,-2.28125,-0.078125,-0.136719,0.128906,0.145447,-0.151184,-0.788147,-0.578613,down
755024,3.808594,7.964844,-2.28125,-0.080078,-0.214844,0.003906,0.144531,-0.151794,-0.788086,-0.578796,down
755029,3.808594,7.921875,-2.28125,-0.080078,-0.214844,0.003906,0.143921,-0.1521,-0.788025,-0.578918,down
755034,3.769531,7.960937,-2.320313,-0.080078,-0.214844,0.003906,0.143311,-0.152405,-0.787903,-0.579163,down
755039,3.769531,7.964844,-2.28125,-0.080078,-0.214844,0.003906,0.143311,-0.152405,-0.787903,-0.579163,down
755044,3.730469,8.042969,-2.28125,-0.203125,-0.240234,-0.054687,0.141968,-0.152954,-0.787598,-0.579773,down
755049,3.730469,8.121094,-2.28125,-0.203125,-0.240234,-0.054687,0.141968,-0.152954,-0.787598,-0.579773,down
755054,3.65625,8.121094,-2.320313,-0.240234,-0.222656,-0.03125,0.141174,-0.153259,-0.787354,-0.580261,down
755059,3.65625,8.160156,-2.246094,-0.21875,-0.220703,-0.003906,0.140564,-0.153503,-0.787109,-0.580627,down
755064,3.65625,8.304688,-2.207031,-0.21875,-0.220703,-0.003906,0.139954,-0.153809,-0.786865,-0.581055,down
755069,3.578125,8.386719,-2.207031,-0.21875,-0.220703,-0.003906,0.138794,-0.154541,-0.786499,-0.581604,down
755074,3.578125,8.347656,-2.128906,-0.21875,-0.220703,-0.003906,0.138794,-0.154541,-0.786499,-0.581604,down
755079,3.617188,8.386719,-2.089844,-0.101563,-0.236328,0.082031,0.137939,-0.155457,-0.786377,-0.581787,down
755084,3.578125,8.503906,-2.167969,-0.101563,-0.236328,0.082031,0.137939,-0.155457,-0.786377,-0.581787,down
755089,3.578125,8.609375,-2.167969,0.074219,-0.277344,0.167969,0.137512,-0.156067,-0.786377,-0.581665,down
755094,3.617188,8.648438,-2.207031,0.074219,-0.277344,0.167969,0.137207,-0.156677,-0.786499,-0.581421,down
755099,3.65625,8.882813,-2.28125,0.074219,-0.277344,0.167969,0.136841,-0.157349,-0.786682,-0.581116,down
755104,3.65625,9.035156,-2.398438,0.074219,-0.277344,0.167969,0.136475,-0.158081,-0.786865,-0.580688,down
755109,3.695313,9.113281,-2.511719,0.080078,-0.353516,0.210937,0.136475,-0.158081,-0.786865,-0.580688,down
755114,3.769531,9.269531,-2.664063,0.080078,-0.353516,0.210937,0.135742,-0.159668,-0.787292,-0.579895,down
755119,3.769531,9.269531,-2.664063,-0.060547,-0.384766,0.171875,0.135254,-0.160583,-0.787415,-0.57959,down
755124,4.0,9.34375,-2.859375,-0.152344,-0.382813,0.148437,0.134766,-0.161377,-0.787415,-0.579468,down
755129,4.039062,9.308594,-2.933594,-0.152344,-0.382813,0.148437,0.134094,-0.162354,-0.787354,-0.579468,down
755134,4.039062,9.230469,-2.972656,-0.152344,-0.382813,0.148437,0.132629,-0.16394,-0.786804,-0.580017,down
755139,4.078125,9.191406,-3.011719,-0.152344,-0.382813,0.148437,0.131836,-0.164734,-0.786438,-0.580566,down
755144,4.191406,8.886719,-3.085938,-0.152344,-0.382813,0.148437,0.131836,-0.164734,-0.786438,-0.580566,down
755149,4.269531,8.808594,-3.050781,-0.529297,-0.332031,0.078125,0.131836,-0.164734,-0.786438,-0.580566,down
755154,4.269531,8.6875,-3.050781,-0.560547,-0.283203,0.074219,0.130127,-0.166321,-0.785217,-0.582092,down
755160,4.304687,8.542969,-3.085938,-0.539062,-0.255859,0.101563,0.129333,-0.167053,-0.784485,-0.583069,down
755165,4.304687,8.425781,-3.011719,-0.539062,-0.255859,0.101563,0.127991,-0.168518,-0.782959,-0.584961,down
755170,4.304687,8.386719,-2.933594,-0.539062,-0.255859,0.101563,0.127563,-0.169128,-0.782349,-0.585693,down
755175,4.304687,8.347656,-2.859375,-0.333984,-0.164062,0.148437,0.127197,-0.169739,-0.781799,-0.586365,down
755180,4.269531,8.386719,-2.820313,-0.333984,-0.164062,0.148437,0.126953,-0.170471,-0.781311,-0.586853,down
755185,4.304687,8.386719,-2.742188,-0.140625,-0.132812,0.181641,0.126831,-0.170959,-0.781006,-0.587097,down
755190,4.304687,8.464844,-2.742188,-0.140625,-0.132812,0.181641,0.126831,-0.170959,-0.781006,-0.587097,down
755195,4.304687,8.464844,-2.742188,0.003906,-0.132812,0.189453,0.126709,-0.172058,-0.780762,-0.587097,down
755200,4.34375,8.460938,-2.703125,0.035156,-0.144531,0.199219,0.126709,-0.172668,-0.780762,-0.586975,down
755205,4.382812,8.425781,-2.703125,0.035156,-0.144531,0.199219,0.126709,-0.173218,-0.780823,-0.586792,down
755210,4.304687,8.421875,-2.703125,0.035156,-0.144531,0.199219,0.126709,-0.173706,-0.780823,-0.586609,down
755215,4.382812,8.34375,-2.742188,0.035156,-0.144531,0.199219,0.126709,-0.173706,-0.780823,-0.586609,down
755220,4.382812,8.308594,-2.703125,-0.09375,-0.169922,0.195312,0.126709,-0.173706,-0.780823,-0.586609,down
755226,4.460937,8.230469,-2.628906,-0.09375,-0.169922,0.195312,0.126465,-0.175537,-0.780396,-0.586609,down
755231,4.574219,8.082031,-2.703125,-0.09375,-0.169922,0.195312,0.126282,-0.176147,-0.78009,-0.586914,down
755236,4.574219,8.082031,-2.703125,-0.316406,-0.152344,0.167969,0.126038,-0.176819,-0.779663,-0.587341,down
755241,4.613281,8.0,-2.78125,-0.316406,-0.152344,0.167969,0.125793,-0.17749,-0.779114,-0.587952,down
755247,4.613281,7.804687,-2.78125,-0.316406,-0.152344,0.167969,0.12561,-0.177979,-0.778564,-0.588501,down
755252,4.574219,7.773437,-2.78125,-0.394531,-0.105469,0.132812,0.12561,-0.177979,-0.778564,-0.588501,down
755258,4.613281,7.738281,-2.78125,-0.363281,-0.085937,0.121094,0.12561,-0.177979,-0.778564,-0.588501,down
755263,4.574219,7.65625,-2.742188,-0.363281,-0.085937,0.121094,0.125,-0.179443,-0.776855,-0.590515,down
755268,4.574219,7.65625,-2.703125,-0.363281,-0.085937,0.121094,0.125,-0.179443,-0.776855,-0.590515,down
755273,4.574219,7.617187,-2.703125,-0.363281,-0.085937,0.121094,0.124878,-0.180115,-0.776123,-0.591248,down
755278,4.535156,7.621094,-2.664063,-0.095703,-0.019531,0.115234,0.124878,-0.180115,-0.776123,-0.591248,down
755283,4.460937,7.699219,-2.628906,-0.095703,-0.019531,0.115234,0.125061,-0.180664,-0.775757,-0.591553,down
755288,4.421875,7.65625,-2.550781,-0.095703,-0.019531,0.115234,0.125183,-0.180847,-0.775696,-0.591492,down
755293,4.421875,7.617187,-2.550781,0.085937,-0.005859,0.113281,0.125183,-0.180847,-0.775696,-0.591492,down
755298,4.382812,7.65625,-2.511719,0.111328,-0.009766,0.097656,0.125183,-0.180847,-0.775696,-0.591492,down
755304,4.304687,7.582031,-2.511719,0.111328,-0.009766,0.097656,0.125793,-0.181396,-0.776123,-0.590698,down
755309,4.304687,7.578125,-2.550781,0.111328,-0.009766,0.097656,0.125793,-0.181396,-0.776123,-0.590698,down
755314,4.269531,7.578125,-2.511719,0.050781,0.0,0.025391,0.125793,-0.181396,-0.776123,-0.590698,down
755319,4.230469,7.660156,-2.4375,0.050781,0.0,0.025391,0.126038,-0.181519,-0.776306,-0.590332,down
755324,4.230469,7.65625,-2.398438,0.050781,0.0,0.025391,0.126038,-0.181519,-0.776367,-0.590271,down
755330,4.191406,7.699219,-2.398438,-0.025391,-0.023437,-0.025391,0.125793,-0.181458,-0.776306,-0.590393,down
755335,4.152344,7.738281,-2.398438,-0.087891,-0.042969,-0.080078,0.125549,-0.181396,-0.776245,-0.590515,down
755340,4.152344,7.773437,-2.4375,-0.087891,-0.042969,-0.080078,0.125305,-0.181335,-0.776184,-0.590759,down
755345,4.113281,7.84375,-2.511719,-0.087891,-0.042969,-0.080078,0.125305,-0.181335,-0.776184,-0.590759,down
755350,4.113281,7.921875,-2.550781,-0.148437,-0.060547,-0.130859,0.124451,-0.181091,-0.775879,-0.59137,down
755355,4.078125,8.039063,-2.703125,-0.164062,-0.083984,-0.166016,0.124023,-0.180908,-0.775757,-0.591675,down
755360,4.078125,8.078125,-2.78125,-0.164062,-0.083984,-0.166016,0.124023,-0.180908,-0.775757,-0.591675,down
755365,4.039062,8.117188,-2.742188,-0.164062,-0.083984,-0.166016,0.122986,-0.180603,-0.775452,-0.592407,down
755370,4.0,8.039063,-2.78125,-0.164062,-0.083984,-0.166016,0.122986,-0.180603,-0.775452,-0.592407,down
755375,4.0,8.039063,-2.78125,-0.125,-0.044922,-0.142578,0.122498,-0.180359,-0.775269,-0.592773,down
755380,4.0,8.0,-2.742188,-0.125,-0.044922,-0.142578,0.12207,-0.180176,-0.775146,-0.593079,down
755385,3.921875,8.042969,-2.742188,-0.125,-0.044922,-0.142578,0.121338,-0.179626,-0.774963,-0.593628,down
755390,3.921875,8.039063,-2.589844,-0.125,-0.044922,-0.142578,0.121338,-0.179626,-0.774963,-0.593628,down
755395,3.886719,8.0,-2.589844,0.0,0.025391,-0.126953,0.121033,-0.179382,-0.774963,-0.593811,down
755400,3.886719,8.0,-2.511719,0.0,0.025391,-0.126953,0.120667,-0.178711,-0.775085,-0.593933,down
755405,3.847656,8.0,-2.4375,0.0625,0.029297,-0.121094,0.120667,-0.178711,-0.775085,-0.593933,down
755410,3.769531,8.0,-2.359375,0.0625,0.029297,-0.121094,0.1203,-0.17804,-0.77533,-0.593872,down
755415,3.730469,8.042969,-2.28125,0.109375,0.0,-0.117188,0.1203,-0.17804,-0.77533,-0.593872,down
755420,3.730469,8.003906,-2.28125,0.109375,0.0,-0.117188,0.120117,-0.177734,-0.775513,-0.59375,down
755425,3.65625,8.042969,-2.167969,0.123047,-0.013672,-0.125,0.120117,-0.177734,-0.775513,-0.59375,down
755430,3.65625,8.042969,-2.167969,0.123047,-0.013672,-0.125,0.119446,-0.17688,-0.776245,-0.593201,down
755435,3.578125,8.082031,-2.128906,0.123047,-0.013672,-0.125,0.119446,-0.17688,-0.776245,-0.593201,down
755440,3.578125,8.082031,-2.128906,0.103516,-0.115234,-0.121094,0.119446,-0.17688,-0.776245,-0.593201,down
755446,3.578125,7.921875,-2.054688,0.103516,-0.115234,-0.121094,0.118347,-0.176392,-0.776978,-0.59259,down
755451,3.578125,7.925781,-2.089844,0.103516,-0.115234,-0.121094,0.117798,-0.176331,-0.777222,-0.592407,down
755456,3.578125,7.925781,-2.089844,0.039063,-0.181641,-0.123047,0.11731,-0.17627,-0.777405,-0.592346,down
755461,3.5,7.882812,-2.167969,0.039063,-0.181641,-0.123047,0.116638,-0.17627,-0.777588,-0.592224,down
755467,3.5,7.882812,-2.128906,0.039063,-0.181641,-0.123047,0.116028,-0.176331,-0.77771,-0.592163,down
755473,3.425781,7.925781,-2.167969,0.015625,-0.25,-0.142578,0.116028,-0.176331,-0.77771,-0.592163,down
755478,3.425781,7.925781,-2.128906,0.027344,-0.255859,-0.150391,0.116028,-0.176331,-0.77771,-0.592163,down
755484,3.347656,7.847656,-2.089844,0.027344,-0.255859,-0.150391,0.116028,-0.176331,-0.77771,-0.592163,down
755490,3.308594,7.777344,-2.054688,0.064453,-0.285156,-0.167969,0.116028,-0.176331,-0.77771,-0.592163,down
755495,3.234375,7.738281,-2.015625,0.125,-0.322266,-0.185547,0.116028,-0.176331,-0.77771,-0.592163,down
755501,3.117188,7.617187,-1.976563,0.125,-0.322266,-0.185547,0.110413,-0.176636,-0.779419,-0.59082,down
755506,3.003906,7.460937,-1.824219,0.125,-0.322266,-0.185547,0.109375,-0.176636,-0.779907,-0.590454,down
755512,2.925781,7.355469,-1.785156,0.15625,-0.363281,-0.261719,0.108398,-0.176636,-0.780273,-0.590088,down
755517,2.8125,7.238281,-1.707031,0.140625,-0.376953,-0.298828,0.1073,-0.176575,-0.780701,-0.589722,down
755522,2.699219,7.082031,-1.554688,0.140625,-0.376953,-0.298828,0.106079,-0.176453,-0.781189,-0.589417,down
755528,2.582031,6.96875,-1.476563,0.107422,-0.427734,-0.400391,0.106079,-0.176453,-0.781189,-0.589417,down
755533,2.46875,6.890625,-1.324219,0.064453,-0.470703,-0.462891,0.106079,-0.176453,-0.781189,-0.589417,down
755538,2.238281,6.695312,-1.132813,0.064453,-0.470703,-0.462891,0.101563,-0.175781,-0.782471,-0.588684,down
755543,2.160156,6.550781,-1.058594,-0.015625,-0.576172,-0.589844,0.101563,-0.175781,-0.782471,-0.588684,down
755549,2.046875,6.433594,-0.980469,-0.068359,-0.628906,-0.658203,0.101563,-0.175781,-0.782471,-0.588684,down
755554,1.894531,6.238281,-0.902344,-0.068359,-0.628906,-0.658203,0.094971,-0.174683,-0.783569,-0.588684,down
755560,1.738281,6.007812,-0.710937,-0.068359,-0.628906,-0.658203,0.089661,-0.173828,-0.784058,-0.589111,down
755565,1.625,5.8125,-0.558594,-0.068359,-0.628906,-0.658203,0.089661,-0.173828,-0.784058,-0.589111,down
755570,1.394531,5.550781,-0.367188,-0.263672,-0.888672,-0.953125,0.089661,-0.173828,-0.784058,-0.589111,down
755575,1.242188,5.433594,-0.289063,-0.263672,-0.888672,-0.953125,0.083069,-0.172791,-0.784424,-0.589844,down
755580,1.050781,5.246094,-0.214844,-0.263672,-0.888672,-0.953125,0.079224,-0.17218,-0.784607,-0.590271,down
755586,0.820312,5.125,-0.097656,-0.361328,-1.085938,-1.177734,0.071045,-0.170837,-0.784973,-0.591248,down
755591,0.515625,4.863281,0.054687,-0.361328,-1.085938,-1.177734,0.06665,-0.170166,-0.785156,-0.591675,down
755596,0.324219,4.742187,0.128906,-0.361328,-1.085938,-1.177734,0.062134,-0.169495,-0.7854,-0.592041,down
755601,0.128906,4.476562,0.207031,-0.341797,-1.443359,-1.498047,0.056641,-0.16864,-0.785767,-0.592407,down
755607,-0.253906,4.363281,0.359375,-0.341797,-1.443359,-1.498047,0.051086,-0.167847,-0.786133,-0.592651,down
755612,-0.671875,4.515625,0.476562,-0.341797,-1.443359,-1.498047,0.046082,-0.167053,-0.78656,-0.592712,down
755617,-0.671875,4.515625,0.476562,-0.207031,-1.748047,-1.830078,0.0401,-0.166138,-0.787109,-0.592651,down
755622,-1.171875,4.824219,0.589844,-0.207031,-1.748047,-1.830078,0.033508,-0.165039,-0.787781,-0.592468,down
755627,-1.441406,5.015625,0.667969,-0.207031,-1.748047,-1.830078,0.02655,-0.163879,-0.788513,-0.592163,down
755632,-1.824219,5.207031,0.742187,-0.207031,-1.748047,-1.830078,0.02655,-0.163879,-0.788513,-0.592163,down
755637,-2.050781,5.320312,0.859375,-0.183594,-2.171875,-2.316406,0.02655,-0.163879,-0.788513,-0.592163,down
755642,-2.28125,5.472656,0.933594,-0.224609,-2.306641,-2.453125,0.02655,-0.163879,-0.788513,-0.592163,down
755647,-2.472656,5.511719,1.011719,-0.224609,-2.306641,-2.453125,0.004761,0.158325,0.791321,0.590576,down
755653,-2.78125,5.625,1.089844,-0.224609,-2.306641,-2.453125,0.013794,0.156677,0.791748,0.590271,down
755658,-3.046875,5.8125,1.125,-0.626953,-2.800781,-3.017578,0.013794,0.156677,0.791748,0.590271,down
755663,-3.433594,6.007812,1.355469,-0.869141,-3.042969,-3.255859,0.013794,0.156677,0.791748,0.590271,down
755669,-3.546875,6.011719,1.355469,-1.201172,-3.246094,-3.521484,0.013794,0.156677,0.791748,0.590271,down
755674,-3.660156,6.3125,1.316406,-1.201172,-3.246094,-3.521484,0.05896,0.148193,0.7901,0.591858,down
755679,-3.660156,6.3125,1.316406,-2.005859,-3.644531,-4.039062,0.072083,0.145508,0.78833,0.593445,down
755684,-3.929688,6.734375,1.089844,-2.005859,-3.644531,-4.039062,0.072083,0.145508,0.78833,0.593445,down
755689,-4.234375,6.550781,0.898437,-2.449219,-3.8125,-4.302734,0.101807,0.138855,0.78241,0.598511,down
755695,-4.65625,6.734375,0.628906,-3.304688,-4.175781,-4.837891,0.101807,0.138855,0.78241,0.598511,down
755700,-5.15625,6.585937,0.550781,-4.005859,-4.523437,-5.375,0.101807,0.138855,0.78241,0.598511,down
755705,-5.308594,6.550781,0.398438,-4.005859,-4.523437,-5.375,0.152771,0.125793,0.767456,0.609802,down
755711,-5.617187,6.65625,0.207031,-4.255859,-4.640625,-5.636719,0.191467,0.114624,0.753296,0.618652,down
755716,-5.882812,6.929687,0.09375,-4.626953,-5.0,-6.089844,0.211121,0.108765,0.745483,0.622803,down
755721,-6.6875,7.5,0.128906,-4.626953,-5.0,-6.089844,0.211121,0.108765,0.745483,0.622803,down
755726,-6.996094,7.421875,-0.0625,-4.677734,-5.119141,-6.328125,0.230469,0.102844,0.737427,0.626526,down
755731,-6.996094,7.421875,-0.0625,-4.689453,-5.158203,-6.5625,0.25177,0.096069,0.728271,0.630066,down
755736,-7.644531,8.078125,-0.789062,-4.689453,-5.158203,-6.5625,0.293579,0.082397,0.709473,0.635376,down
755741,-7.761719,8.730469,-0.789062,-4.689453,-5.158203,-6.5625,0.31543,0.075256,0.699036,0.637268,down
755746,-7.796875,8.992188,-0.828125,-4.488281,-5.478516,-6.853516,0.31543,0.075256,0.699036,0.637268,down
755751,-7.835937,8.960938,-0.867187,-4.488281,-5.478516,-6.853516,0.357788,0.061523,0.677734,0.639404,down
755756,-8.871094,9.414063,-0.828125,-4.488281,-5.478516,-6.853516,0.378174,0.054993,0.666931,0.639648,down
755761,-9.292969,9.839844,-1.171875,-4.138672,-5.550781,-6.537109,0.378174,0.054993,0.666931,0.639648,down
755766,-9.753906,10.414063,-1.476563,-4.138672,-5.550781,-6.537109,0.420593,0.042419,0.642761,0.638916,down
755771,-10.058594,10.71875,-1.671875,-4.138672,-5.550781,-6.537109,0.438782,0.038086,0.631348,0.638306,down
755776,-10.210938,10.335938,-1.324219,-4.138672,-5.550781,-6.537109,0.459778,0.034058,0.617249,0.637512,down
755781,-9.945313,10.335938,-1.09375,-4.173828,-7.054687,-5.388672,0.459778,0.034058,0.617249,0.637512,down
755786,-9.445313,9.835938,-0.558594,-4.189453,-7.480469,-5.0,0.479614,0.031433,0.602905,0.63678,down
755792,-9.445313,9.835938,-0.558594,-4.117187,-7.902344,-4.582031,0.516602,0.03009,0.572998,0.635559,down
755797,-8.871094,8.191406,2.046875,-3.962891,-8.144531,-4.126953,0.536987,0.031494,0.554626,0.634827,down
755802,-8.871094,8.191406,2.046875,-3.71875,-8.300781,-3.6875,0.553284,0.033691,0.539062,0.634155,down
755807,-8.828125,8.386719,2.542969,-3.425781,-8.396484,-3.296875,0.570068,0.037231,0.522095,0.633301,down
755812,-8.484375,7.65625,2.886719,-3.425781,-8.396484,-3.296875,0.570068,0.037231,0.522095,0.633301,down
755817,-8.484375,7.65625,2.886719,-3.097656,-8.519531,-2.951172,0.586609,0.041992,0.504517,0.632141,down
755822,-8.300781,6.355469,2.925781,-2.6875,-8.648438,-2.609375,0.616882,0.054993,0.470398,0.628601,down
755829,-7.453125,8.191406,2.160156,-2.6875,-8.648438,-2.609375,0.630737,0.063538,0.454041,0.626099,down
755834,-6.996094,9.304688,1.699219,-1.050781,-9.162109,-1.763672,0.630737,0.063538,0.454041,0.626099,down
755840,-5.617187,10.414063,1.355469,-0.738281,-9.423828,-1.486328,0.630737,0.063538,0.454041,0.626099,down
755846,-2.664063,11.445313,3.730469,-0.59375,-9.5625,-1.25,0.680237,0.109314,0.388489,0.611938,down
755851,-0.789062,11.945313,6.449219,-0.59375,-9.5625,-1.25,0.680237,0.109314,0.388489,0.611938,down
755856,0.933594,13.328125,8.941406,-0.027344,-8.857422,-0.953125,0.680237,0.109314,0.388489,0.611938,down
755861,0.933594,13.328125,8.941406,0.482422,-7.296875,-1.039063,0.699646,0.133789,0.358704,0.603271,down
755866,1.585938,14.4375,11.238281,0.482422,-7.296875,-1.039063,0.699646,0.133789,0.358704,0.603271,down
755871,-0.519531,12.140625,5.914062,0.283203,-5.439453,-0.958984,0.712097,0.14917,0.340149,0.595764,down
755876,-1.324219,11.21875,5.109375,-1.128906,-3.117188,-0.634766,0.720398,0.153687,0.325378,0.592896,down
755881,-1.667969,10.914063,5.839844,-1.128906,-3.117188,-0.634766,0.72406,0.153992,0.317566,0.59259,down
755886,-1.746094,11.367188,7.410156,-1.128906,-3.117188,-0.634766,0.727905,0.152954,0.30896,0.592712,down
755891,-2.050781,11.101563,7.445312,-2.833984,-2.035156,-0.533203,0.727905,0.152954,0.30896,0.592712,down
755896,-2.4375,10.839844,7.410156,-2.833984,-2.035156,-0.533203,0.734619,0.148071,0.293701,0.593445,down
755901,-2.550781,10.414063,7.636719,-2.833984,-2.035156,-0.533203,0.738098,0.144592,0.286011,0.593689,down
755906,-2.703125,9.613281,8.597656,-2.833984,-2.035156,-0.533203,0.738098,0.144592,0.286011,0.593689,down
755911,-2.664063,9.074219,9.246094,-3.011719,-1.767578,-0.804687,0.744995,0.137817,0.271118,0.593689,down
755916,-2.78125,8.539063,9.78125,-2.113281,-1.931641,-0.695312,0.744995,0.137817,0.271118,0.593689,down
755921,-2.628906,8.308594,9.746094,-2.113281,-1.931641,-0.695312,0.748291,0.135559,0.264099,0.593201,down
755926,-2.628906,8.308594,9.746094,-1.453125,-1.96875,-0.5625,0.751099,0.134705,0.257996,0.59259,down
755931,-2.703125,8.308594,9.398438,-1.453125,-1.96875,-0.5625,0.753601,0.135193,0.252625,0.591675,down
755936,-1.632813,8.921875,8.824219,-0.369141,-2.050781,-0.371094,0.753601,0.135193,0.252625,0.591675,down
755942,-1.363281,8.960938,8.632813,-0.132812,-2.017578,-0.335938,0.759277,0.141663,0.240112,0.588013,down
755947,-1.285156,8.765625,8.671875,0.015625,-1.816406,-0.400391,0.761047,0.144348,0.236389,0.586548,down
755952,-1.324219,8.921875,8.710938,0.015625,-1.816406,-0.400391,0.762756,0.14679,0.233154,0.585083,down
755957,-1.667969,9.113281,8.710938,0.015625,-1.816406,-0.400391,0.76416,0.148926,0.230408,0.583801,down
755962,-1.554688,9.113281,8.941406,0.003906,-1.587891,-0.373047,0.765686,0.151306,0.227356,0.582336,down
755967,-1.441406,9.152344,9.054688,-0.146484,-1.529297,-0.316406,0.767151,0.153259,0.224304,0.581116,down
755973,-1.515625,8.882813,9.171875,-0.146484,-1.529297,-0.316406,0.768372,0.154724,0.221375,0.5802,down
755978,-1.515625,8.882813,9.171875,-0.464844,-1.478516,-0.119141,0.769592,0.156006,0.218018,0.579529,down
755983,-1.707031,8.5,9.402344,-0.464844,-1.478516,-0.119141,0.770691,0.157043,0.214417,0.579102,down
755989,-1.859375,8.117188,9.242188,-0.605469,-1.470703,0.074219,0.770691,0.157043,0.214417,0.579102,down
755994,-1.859375,7.847656,9.242188,-0.558594,-1.5,0.175781,0.770691,0.157043,0.214417,0.579102,down
755999,-1.976563,7.617187,9.015625,-0.447266,-1.511719,0.259766,0.770691,0.157043,0.214417,0.579102,down
756005,-2.128906,7.503906,8.863281,-0.447266,-1.511719,0.259766,0.773682,0.162048,0.199402,0.579102,down
756011,-1.976563,7.234375,9.214844,-0.447266,-1.511719,0.259766,0.774292,0.166382,0.192261,0.579529,down
756016,-1.859375,7.273437,9.246094,-0.447266,-1.511719,0.259766,0.774292,0.166382,0.192261,0.579529,down
756021,-1.632813,7.351562,9.09375,-0.066406,-1.748047,0.457031,0.774719,0.171448,0.184753,0.579895,down
756026,-0.789062,7.3125,8.675781,-0.066406,-1.748047,0.457031,0.774719,0.171448,0.184753,0.579895,down
756031,-0.519531,7.390625,8.792969,-0.380859,-1.667969,0.359375,0.775024,0.173706,0.180908,0.580017,down
756036,-0.480469,6.96875,9.054688,-0.423828,-1.607422,0.3125,0.775391,0.175842,0.176697,0.5802,down
756041,-0.480469,6.96875,9.054688,-0.423828,-1.607422,0.3125,0.775818,0.17749,0.172913,0.580322,down
756046,-0.328125,6.507812,8.9375,-0.416016,-1.527344,0.28125,0.775818,0.17749,0.172913,0.580322,down
756051,-0.328125,6.507812,8.9375,-0.417969,-1.427734,0.255859,0.776611,0.18042,0.165527,0.580383,down
756056,-0.175781,5.78125,8.675781,-0.417969,-1.427734,0.255859,0.777283,0.183228,0.159058,0.580505,down
756061,-0.597656,5.625,8.824219,-0.064453,-1.216797,0.298828,0.777283,0.183228,0.159058,0.580505,down
756066,-0.863281,5.78125,8.976563,-0.064453,-1.216797,0.298828,0.777405,0.184875,0.156189,0.580566,down
756071,-1.058594,6.046875,9.136719,-0.064453,-1.216797,0.298828,0.777466,0.186951,0.153503,0.580566,down
756077,-1.210938,6.238281,9.09375,0.240234,-1.410156,0.4375,0.777466,0.186951,0.153503,0.580566,down
756082,-0.863281,6.546875,8.980469,0.240234,-1.410156,0.4375,0.776917,0.194275,0.145935,0.580811,down
756088,-0.519531,6.238281,8.789063,0.240234,-1.410156,0.4375,0.776672,0.197021,0.142517,0.581055,down
756093,-0.253906,5.933594,8.597656,-0.15625,-1.597656,0.550781,0.776489,0.199158,0.139343,0.581299,down
756098,0.324219,5.550781,8.515625,-0.316406,-1.601563,0.578125,0.776367,0.201172,0.13562,0.581726,down
756104,0.667969,4.976562,8.054688,-0.316406,-1.601563,0.578125,0.776245,0.202942,0.131653,0.582153,down
756110,0.933594,4.667969,8.023438,-0.515625,-1.478516,0.585937,0.776245,0.202942,0.131653,0.582153,down
756115,1.125,4.324219,7.949219,-0.552734,-1.380859,0.580078,0.776245,0.202942,0.131653,0.582153,down
756121,1.546875,4.054687,7.832031,-0.552734,-1.380859,0.580078,0.776245,0.202942,0.131653,0.582153,down
756126,1.394531,4.363281,8.09375,-0.353516,-0.974609,0.476562,0.776245,0.202942,0.131653,0.582153,down
756131,1.28125,4.515625,8.515625,-0.353516,-0.974609,0.476562,0.775513,0.208435,0.113708,0.585022,down
756136,0.742187,4.859375,8.859375,-0.353516,-0.974609,0.476562,0.775208,0.209534,0.111206,0.58551,down
756142,0.589844,5.128906,9.28125,0.337891,-0.882812,0.296875,0.775208,0.209534,0.111206,0.58551,down
756147,0.4375,5.625,9.558594,0.337891,-0.882812,0.296875,0.774109,0.214966,0.106506,0.585815,down
756152,0.246094,6.046875,9.664063,0.337891,-0.882812,0.296875,0.773804,0.217163,0.105347,0.585632,down
756157,0.398438,6.621094,9.359375,0.458984,-1.037109,0.164062,0.773499,0.219788,0.103943,0.585266,down
756162,0.285156,6.660156,9.132813,0.269531,-1.076172,0.140625,0.773376,0.222229,0.102234,0.5849,down
756168,0.742187,6.164062,9.136719,0.269531,-1.076172,0.140625,0.773315,0.224182,0.100281,0.584473,down
756174,1.394531,5.589844,9.019531,0.269531,-1.076172,0.140625,0.773437,0.225708,0.098267,0.584106,down
756179,1.394531,5.589844,9.019531,0.269531,-1.076172,0.140625,0.773437,0.225708,0.098267,0.584106,down
756184,1.472656,5.359375,8.789063,-0.283203,-1.072266,0.126953,0.773865,0.227844,0.09314,0.583557,down
756189,1.394531,4.824219,8.753906,-0.283203,-1.072266,0.126953,0.773865,0.227844,0.09314,0.583557,down
756195,1.472656,4.746094,8.792969,-0.414062,-1.0,0.1875,0.774231,0.229309,0.087891,0.583313,down
756200,1.546875,4.667969,8.859375,-0.373047,-0.992187,0.251953,0.774231,0.229309,0.087891,0.583313,down
756205,1.472656,5.050781,8.820313,-0.298828,-0.998047,0.277344,0.774231,0.229309,0.087891,0.583313,down
756210,1.585938,4.402344,8.210938,-0.298828,-0.998047,0.277344,0.774231,0.229309,0.087891,0.583313,down
756216,1.625,4.746094,8.519531,-0.298828,-0.998047,0.277344,0.774231,0.232788,0.078064,0.583374,down
756222,1.664063,4.898437,8.515625,-0.273438,-0.753906,0.216797,0.77417,0.23407,0.074158,0.583435,down
756227,1.585938,4.363281,8.210938,-0.273438,-0.753906,0.216797,0.774048,0.23468,0.07251,0.583496,down
756233,1.625,4.019531,8.289063,-0.085937,-0.585937,0.201172,0.773926,0.235474,0.070862,0.583618,down
756238,1.203125,4.785156,8.40625,-0.085937,-0.585937,0.201172,0.773743,0.236206,0.069702,0.583679,down
756243,0.707031,5.015625,8.632813,-0.085937,-0.585937,0.201172,0.77356,0.237,0.068848,0.58374,down
756248,0.589844,4.859375,8.675781,-0.085937,-0.585937,0.201172,0.773315,0.237793,0.068054,0.58374,down
756253,0.628906,5.128906,9.097656,-0.234375,-0.404297,0.072266,0.773315,0.238159,0.067078,0.58374,down
756258,1.355469,4.746094,9.441406,-0.234375,-0.404297,0.072266,0.773499,0.238159,0.065857,0.583618,down
756263,1.546875,4.402344,9.242188,-0.234375,-0.404297,0.072266,0.773865,0.237976,0.064392,0.583435,down
756269,1.585938,3.671875,9.097656,-0.234375,-0.404297,0.072266,0.774231,0.237854,0.06311,0.58313,down
756275,1.625,3.597656,9.214844,-0.207031,-0.392578,-0.128906,0.774231,0.237854,0.06311,0.58313,down
756281,1.585938,4.171875,9.441406,-0.070312,-0.404297,-0.146484,0.774231,0.237854,0.06311,0.58313,down
756287,1.625,4.324219,9.515625,0.050781,-0.404297,-0.154297,0.775452,0.239502,0.059937,0.581177,down
756292,1.585938,4.285156,9.476563,0.050781,-0.404297,-0.154297,0.775452,0.239502,0.059937,0.581177,down
756297,1.394531,4.171875,9.054688,0.146484,-0.398438,-0.130859,0.775452,0.239502,0.059937,0.581177,down
756302,1.433594,4.363281,8.902344,0.189453,-0.445312,-0.09375,0.775757,0.242371,0.058411,0.579651,down
756307,1.394531,4.402344,8.59375,0.292969,-0.429687,-0.005859,0.775757,0.242371,0.058411,0.579651,down
756312,1.242188,4.402344,8.558594,0.292969,-0.429687,-0.005859,0.775696,0.243591,0.057983,0.579285,down
756317,1.511719,4.476562,8.753906,0.292969,-0.429687,-0.005859,0.775452,0.246033,0.056702,0.578735,down
756322,1.855469,4.554687,8.59375,0.292969,-0.429687,-0.005859,0.77533,0.24707,0.055542,0.578552,down
756327,2.085938,4.363281,8.132813,-0.21875,-0.59375,0.119141,0.77533,0.24707,0.055542,0.578552,down
756332,2.507813,3.863281,7.910156,-0.21875,-0.59375,0.119141,0.77533,0.247803,0.054016,0.57843,down
756337,2.8125,3.710938,7.910156,-0.21875,-0.59375,0.119141,0.775574,0.248108,0.050903,0.578186,down
756342,2.773438,3.214844,7.871094,-0.615234,-0.386719,0.019531,0.775574,0.248108,0.050903,0.578186,down
756347,2.734375,2.90625,7.90625,-0.71875,-0.302734,-0.056641,0.77594,0.24762,0.049072,0.578064,down
756353,2.925781,2.371094,7.945312,-0.71875,-0.302734,-0.056641,0.777039,0.245911,0.046143,0.577637,down
756358,2.851563,2.332031,8.027344,-0.660156,-0.085937,-0.279297,0.777832,0.24469,0.044922,0.577148,down
756364,2.046875,2.410156,8.289063,-0.660156,-0.085937,-0.279297,0.778625,0.243652,0.044312,0.576599,down
756369,1.703125,2.601563,8.332031,-0.355469,0.052734,-0.523437,0.778625,0.243652,0.044312,0.576599,down
756374,0.972656,2.832031,9.019531,-0.355469,0.052734,-0.523437,0.780579,0.242065,0.044067,0.574646,down
756379,0.667969,3.175781,9.398438,-0.001953,-0.052734,-0.720703,0.781555,0.241882,0.044373,0.573303,down
756384,0.589844,3.519531,9.625,0.166016,-0.160156,-0.773437,0.781555,0.241882,0.044373,0.573303,down
756389,0.628906,4.515625,9.746094,0.166016,-0.160156,-0.773437,0.78363,0.242859,0.045166,0.570068,down
756394,1.320313,4.707031,9.703125,0.392578,-0.398438,-0.744141,0.78363,0.242859,0.045166,0.570068,down
756400,1.394531,4.476562,9.210938,0.392578,-0.476562,-0.6875,0.78363,0.242859,0.045166,0.570068,down
756405,1.433594,5.050781,8.714844,0.425781,-0.517578,-0.667969,0.78363,0.242859,0.045166,0.570068,down
756411,2.121094,5.242187,8.597656,0.498047,-0.513672,-0.599609,0.78363,0.242859,0.045166,0.570068,down
756416,2.46875,5.398437,8.410156,0.439453,-0.427734,-0.509766,0.78363,0.242859,0.045166,0.570068,down
756422,2.429688,5.511719,8.054688,0.363281,-0.292969,-0.421875,0.788086,0.252136,0.046326,0.559631,down
756427,2.507813,5.320312,7.792969,0.363281,-0.292969,-0.421875,0.788086,0.252136,0.046326,0.559631,down
756432,2.46875,5.589844,7.945312,0.207031,0.09375,-0.167969,0.78833,0.252991,0.046814,0.558899,down
756437,2.3125,5.742187,8.097656,0.207031,0.09375,-0.167969,0.788391,0.253479,0.047424,0.558472,down
756443,1.816406,5.242187,8.25,0.207031,0.09375,-0.167969,0.788513,0.253296,0.048523,0.558289,down
756448,1.625,5.128906,8.289063,-0.15625,0.345703,0.074219,0.788513,0.252625,0.049072,0.558594,down
756453,1.28125,5.015625,8.554688,-0.199219,0.285156,0.171875,0.788391,0.251831,0.049377,0.559021,down
756458,0.859375,4.859375,8.980469,-0.177734,0.179687,0.248047,0.788208,0.251221,0.0495,0.559631,down
756464,1.433594,5.015625,9.824219,-0.177734,0.179687,0.248047,0.787964,0.250793,0.049316,0.560181,down
756469,1.546875,5.089844,9.78125,-0.232422,-0.041016,0.330078,0.787659,0.250427,0.048767,0.560852,down
756475,1.625,4.898437,9.742188,-0.173828,-0.126953,0.320313,0.787659,0.250427,0.048767,0.560852,down
756480,1.894531,4.707031,9.402344,-0.173828,-0.126953,0.320313,0.786987,0.250183,0.047546,0.561951,down
756486,1.96875,4.628906,9.210938,-0.021484,-0.177734,0.259766,0.786987,0.250183,0.047546,0.561951,down
756491,2.046875,4.402344,9.171875,0.097656,-0.164062,0.230469,0.786987,0.250183,0.047546,0.561951,down
756496,2.121094,4.246094,9.175781,0.248047,-0.148437,0.21875,0.786987,0.250183,0.047546,0.561951,down
756501,2.390625,4.285156,8.941406,0.382813,-0.128906,0.191406,0.786987,0.250183,0.047546,0.561951,down
756507,2.46875,4.402344,8.75,0.560547,-0.025391,0.167969,0.786987,0.250183,0.047546,0.561951,down
756512,2.199219,4.628906,8.410156,0.560547,-0.025391,0.167969,0.784302,0.254395,0.047241,0.563843,down
756517,2.121094,4.824219,8.292969,0.560547,-0.025391,0.167969,0.783691,0.255676,0.048035,0.564087,down
756522,1.96875,5.015625,8.371094,0.560547,-0.025391,0.167969,0.783081,0.256775,0.048889,0.564331,down
756528,2.007813,5.089844,8.367188,0.640625,0.048828,0.171875,0.781738,0.259277,0.05072,0.56488,down
756533,2.007813,5.050781,8.054688,0.640625,0.048828,0.171875,0.781189,0.260132,0.051453,0.565186,down
756539,1.738281,5.015625,8.027344,0.640625,0.048828,0.171875,0.780701,0.260742,0.051941,0.565491,down
756544,1.703125,4.859375,8.054688,0.228516,0.029297,0.185547,0.780212,0.261353,0.052368,0.565857,down
756549,2.121094,4.9375,7.792969,0.228516,0.029297,0.185547,0.779785,0.26178,0.052612,0.566284,down
756554,2.390625,5.015625,7.527344,0.228516,0.029297,0.185547,0.779419,0.262024,0.052673,0.566589,down
756559,2.390625,5.015625,7.527344,0.035156,0.021484,0.208984,0.779053,0.262207,0.052673,0.567078,down
756565,2.582031,5.050781,7.523437,0.035156,0.021484,0.208984,0.778809,0.262207,0.052673,0.567444,down
756571,2.582031,5.015625,7.566406,0.035156,0.021484,0.208984,0.778809,0.262207,0.052673,0.567444,down
756576,2.621094,5.050781,7.566406,-0.089844,0.125,0.244141,0.778809,0.262207,0.052673,0.567444,down
756581,2.582031,5.242187,7.75,-0.03125,0.142578,0.261719,0.778809,0.262207,0.052673,0.567444,down
756586,2.773438,5.625,8.023438,-0.03125,0.142578,0.261719,0.777466,0.261475,0.052673,0.56958,down
756592,2.8125,5.625,7.90625,-0.03125,0.142578,0.261719,0.777039,0.261414,0.052917,0.57019,down
756597,2.890625,5.550781,7.945312,-0.03125,0.142578,0.261719,0.77655,0.261414,0.053162,0.570801,down
756602,2.890625,5.511719,8.097656,0.033203,0.201172,0.251953,0.775757,0.261108,0.053772,0.57196,down
756607,2.8125,5.433594,8.480469,0.033203,0.201172,0.251953,0.775757,0.261108,0.053772,0.57196,down
756612,2.8125,5.398437,8.480469,0.033203,0.201172,0.251953,0.77533,0.260864,0.054138,0.572632,down
756617,2.699219,5.511719,8.480469,0.041016,0.236328,0.304688,0.77533,0.260864,0.054138,0.572632,down
756623,2.660156,5.433594,8.824219,0.013672,0.234375,0.333984,0.77533,0.260864,0.054138,0.572632,down
756628,2.582031,5.359375,8.371094,0.013672,0.234375,0.333984,0.773071,0.26001,0.055237,0.575928,down
756633,2.507813,5.207031,8.058594,-0.072266,0.220703,0.476562,0.773071,0.26001,0.055237,0.575928,down
756638,2.660156,5.167969,8.023438,-0.072266,0.220703,0.476562,0.771729,0.259277,0.055298,0.578003,down
756643,2.8125,5.167969,8.023438,-0.072266,0.220703,0.476562,0.771118,0.258728,0.055298,0.579102,down
756648,2.964844,4.9375,8.058594,-0.154297,0.322266,0.476562,0.770447,0.258057,0.055359,0.580322,down
756653,2.773438,4.976562,8.054688,-0.144531,0.375,0.443359,0.770447,0.258057,0.055359,0.580322,down
756658,2.734375,4.785156,8.097656,-0.144531,0.375,0.443359,0.769226,0.256653,0.055847,0.582458,down
756663,2.8125,4.746094,8.09375,-0.144531,0.375,0.443359,0.768677,0.256042,0.056335,0.583496,down
756668,2.542969,4.824219,8.171875,-0.144531,0.375,0.443359,0.768677,0.256042,0.056335,0.583496,down
756673,2.46875,4.976562,8.132813,0.046875,0.455078,0.326172,0.767456,0.255066,0.0578,0.585327,down
756678,2.046875,5.28125,8.367188,0.177734,0.4375,0.310547,0.766846,0.254761,0.058716,0.586182,down
756684,1.203125,5.242187,8.597656,0.177734,0.4375,0.310547,0.766174,0.254639,0.05957,0.586975,down
756689,1.164063,5.207031,8.59375,0.314453,0.261719,0.378906,0.765442,0.254822,0.060425,0.587769,down
756694,1.125,4.898437,8.410156,0.318359,0.179687,0.457031,0.765442,0.254822,0.060425,0.587769,down
756699,1.164063,4.59375,8.132813,0.318359,0.179687,0.457031,0.763611,0.255676,0.061462,0.589722,down
756705,1.777344,4.746094,7.910156,0.318359,0.179687,0.457031,0.762573,0.256226,0.061584,0.59082,down
756711,2.238281,4.898437,8.027344,0.197266,-0.074219,0.714844,0.762573,0.256226,0.061584,0.59082,down
756716,2.851563,4.785156,7.5625,0.197266,-0.074219,0.714844,0.760193,0.257385,0.061096,0.593384,down
756722,2.964844,4.628906,7.371094,0.121094,-0.03125,0.757812,0.760193,0.257385,0.061096,0.593384,down
756727,3.042969,4.59375,7.183594,0.132812,0.050781,0.736328,0.760193,0.257385,0.061096,0.593384,down
756732,3.003906,4.785156,6.988281,0.126953,0.283203,0.703125,0.760193,0.257385,0.061096,0.593384,down
756737,2.773438,4.59375,7.023437,0.126953,0.283203,0.703125,0.755432,0.258484,0.060608,0.598999,down
756742,2.660156,4.4375,7.21875,0.126953,0.365234,0.65625,0.755432,0.258484,0.060608,0.598999,down
756747,2.542969,4.324219,7.367187,0.189453,0.455078,0.513672,0.755432,0.258484,0.060608,0.598999,down
756753,2.238281,4.59375,7.144531,0.189453,0.455078,0.513672,0.751221,0.257813,0.063232,0.604309,down
756758,2.121094,4.628906,7.183594,0.337891,0.527344,0.384766,0.750305,0.25769,0.064392,0.605408,down
756763,1.96875,4.824219,7.179687,0.337891,0.527344,0.384766,0.750305,0.25769,0.064392,0.605408,down
756768,1.585938,4.9375,7.671875,0.361328,0.523437,0.332031,0.750305,0.25769,0.064392,0.605408,down
756773,1.585938,4.824219,7.828125,0.361328,0.523437,0.332031,0.747864,0.25769,0.068359,0.607971,down
756778,1.625,4.824219,7.75,0.355469,0.369141,0.257813,0.747864,0.25769,0.068359,0.607971,down
756783,1.546875,4.898437,7.753906,0.355469,0.369141,0.257813,0.747192,0.257813,0.069397,0.608582,down
756788,1.546875,5.050781,7.945312,0.326172,0.324219,0.275391,0.747192,0.257813,0.069397,0.608582,down
756793,1.546875,5.015625,7.945312,0.248047,0.294922,0.285156,0.745789,0.25824,0.07135,0.609924,down
756798,1.472656,4.859375,8.023438,0.248047,0.294922,0.285156,0.745117,0.258362,0.072205,0.610596,down
756803,1.472656,4.859375,8.023438,0.191406,0.232422,0.283203,0.744507,0.258484,0.072815,0.611206,down
756808,1.472656,4.4375,8.371094,0.150391,0.173828,0.289063,0.744507,0.258484,0.072815,0.611206,down
756813,1.472656,4.4375,8.371094,0.099609,0.117188,0.308594,0.743347,0.258667,0.073608,0.612488,down
756818,1.585938,3.789063,8.023438,0.066406,0.109375,0.242187,0.743347,0.258667,0.073608,0.612488,down
756823,1.625,3.367188,8.09375,0.060547,0.087891,0.179687,0.742371,0.258728,0.073975,0.613586,down
756828,1.585938,3.519531,7.910156,0.060547,0.087891,0.179687,0.741943,0.258728,0.074158,0.614014,down
756833,1.625,4.054687,7.949219,0.119141,0.001953,0.099609,0.741638,0.25885,0.074341,0.61438,down
756838,1.511719,4.554687,8.328125,0.119141,0.001953,0.099609,0.741333,0.259094,0.074463,0.614563,down
756844,1.511719,4.554687,8.328125,0.009766,0.027344,0.113281,0.740906,0.259521,0.074707,0.614868,down
756849,0.667969,5.242187,8.519531,-0.177734,-0.033203,0.189453,0.740723,0.25946,0.074524,0.615234,down
756855,1.125,4.59375,9.519531,-0.177734,-0.033203,0.189453,0.740601,0.259155,0.073792,0.61554,down
756861,1.546875,3.863281,9.824219,-0.177734,-0.033203,0.189453,0.740601,0.258728,0.072754,0.615845,down
756866,1.511719,3.367188,9.824219,-0.585937,-0.292969,0.189453,0.740601,0.258728,0.072754,0.615845,down
756871,1.472656,3.558594,9.941406,-0.474609,-0.390625,0.189453,0.740601,0.258728,0.072754,0.615845,down
756876,1.511719,3.828125,9.824219,-0.234375,-0.451172,0.185547,0.740601,0.258728,0.072754,0.615845,down
756881,1.96875,4.59375,8.976563,-0.234375,-0.451172,0.185547,0.740662,0.258362,0.0672,0.616516,down
756886,2.046875,4.785156,8.714844,0.082031,-0.431641,0.183594,0.740662,0.258362,0.0672,0.616516,down
756891,2.046875,5.050781,8.75,0.113281,-0.412109,0.197266,0.740662,0.258362,0.0672,0.616516,down
756897,2.046875,5.207031,8.441406,0.113281,-0.412109,0.197266,0.739807,0.261047,0.064941,0.61676,down
756903,1.816406,5.128906,8.554688,0.314453,-0.341797,0.177734,0.739807,0.261047,0.064941,0.61676,down
756908,1.664063,4.9375,8.558594,0.414062,-0.345703,0.128906,0.738953,0.263123,0.06427,0.616943,down
756913,1.433594,5.242187,8.097656,0.414062,-0.345703,0.128906,0.738464,0.264526,0.064087,0.616882,down
756918,1.433594,5.398437,8.136719,0.373047,-0.486328,0.052734,0.738098,0.265808,0.064026,0.61676,down
756924,1.585938,5.511719,8.09375,0.373047,-0.486328,0.052734,0.73761,0.268616,0.063354,0.616211,down
756929,1.855469,5.398437,7.714844,0.373047,-0.486328,0.052734,0.737671,0.269897,0.062561,0.615723,down
756935,1.929688,5.015625,7.753906,0.373047,-0.486328,0.052734,0.737854,0.270691,0.061646,0.615173,down
756941,2.238281,4.898437,7.789062,-0.207031,-0.589844,-0.169922,0.738281,0.271301,0.060486,0.614563,down
756946,2.390625,4.785156,7.949219,-0.238281,-0.576172,-0.208984,0.738281,0.271301,0.060486,0.614563,down
756951,2.734375,4.667969,8.171875,-0.238281,-0.576172,-0.208984,0.739441,0.272217,0.057983,0.613037,down
756957,2.851563,4.707031,8.210938,-0.283203,-0.498047,-0.257813,0.739441,0.272217,0.057983,0.613037,down
756962,3.003906,4.746094,8.328125,-0.310547,-0.451172,-0.265625,0.739441,0.272217,0.057983,0.613037,down
756968,3.234375,4.515625,8.289063,-0.316406,-0.410156,-0.265625,0.739441,0.272217,0.057983,0.613037,down
756973,3.195313,4.554687,8.214844,-0.316406,-0.410156,-0.265625,0.742065,0.272705,0.05365,0.609985,down
756978,3.082031,4.554687,8.214844,-0.285156,-0.28125,-0.25,0.742065,0.272705,0.05365,0.609985,down
756983,2.964844,4.667969,8.25,-0.257813,-0.248047,-0.222656,0.743774,0.272522,0.051392,0.608154,down
756988,2.582031,5.167969,8.476563,-0.257813,-0.248047,-0.222656,0.743774,0.272522,0.051392,0.608154,down
756993,2.507813,5.167969,8.4375,-0.257813,-0.248047,-0.222656,0.744263,0.272583,0.05072,0.607666,down
756999,2.542969,4.9375,8.289063,-0.169922,-0.345703,-0.126953,0.744263,0.272583,0.05072,0.607666,down
757004,2.660156,4.976562,8.058594,-0.169922,-0.345703,-0.126953,0.745239,0.273193,0.048584,0.606323,down
757009,2.699219,4.9375,8.292969,-0.169922,-0.345703,-0.126953,0.745605,0.273499,0.047668,0.605774,down
757014,2.734375,4.554687,8.25,-0.119141,-0.373047,-0.130859,0.745605,0.273499,0.047668,0.605774,down
757019,2.773438,4.554687,8.210938,-0.119141,-0.373047,-0.130859,0.746216,0.274231,0.046204,0.604797,down
757025,2.8125,4.515625,8.371094,-0.119141,-0.373047,-0.130859,0.746521,0.274658,0.045593,0.604309,down
757030,2.8125,4.4375,8.328125,-0.033203,-0.339844,-0.162109,0.746826,0.275146,0.044983,0.60376,down
757036,2.8125,4.285156,8.25,-0.021484,-0.316406,-0.183594,0.746826,0.275146,0.044983,0.60376,down
757041,2.773438,4.402344,8.054688,-0.021484,-0.291016,-0.203125,0.747498,0.276001,0.044067,0.6026,down
757046,2.699219,3.980469,8.058594,-0.042969,-0.236328,-0.230469,0.747498,0.276001,0.044067,0.6026,down
757052,3.003906,4.054687,7.867187,-0.082031,-0.183594,-0.248047,0.747498,0.276001,0.044067,0.6026,down
757058,2.660156,4.4375,7.832031,-0.083984,-0.119141,-0.238281,0.747498,0.276001,0.044067,0.6026,down
757063,2.390625,4.59375,8.136719,-0.083984,-0.119141,-0.238281,0.747498,0.276001,0.044067,0.6026,down
757069,2.351563,4.746094,8.175781,-0.021484,-0.035156,-0.150391,0.747498,0.276001,0.044067,0.6026,down
757074,2.429688,4.824219,8.132813,-0.021484,-0.035156,-0.150391,0.749695,0.276672,0.043091,0.599609,down
757079,2.507813,4.898437,8.136719,-0.021484,-0.035156,-0.150391,0.750122,0.276733,0.043152,0.59906,down
757084,2.46875,4.824219,8.136719,-0.021484,-0.035156,-0.150391,0.750122,0.276733,0.043152,0.59906,down
757089,2.621094,4.628906,8.132813,0.033203,0.0,-0.072266,0.750305,0.276917,0.043396,0.598694,down
757094,2.773438,4.746094,8.097656,0.033203,0.0,-0.072266,0.750305,0.277039,0.043579,0.598633,down
757099,2.734375,4.707031,8.292969,0.033203,0.0,-0.072266,0.750244,0.277161,0.043762,0.598694,down
757104,2.773438,4.746094,8.441406,0.132812,0.037109,0.072266,0.750244,0.277161,0.043762,0.598694,down
757109,2.621094,4.628906,8.558594,0.097656,0.027344,0.078125,0.750061,0.277405,0.044006,0.598755,down
757114,2.621094,4.515625,8.214844,0.097656,0.027344,0.078125,0.749695,0.277771,0.044312,0.59906,down
757119,2.660156,4.515625,8.136719,0.097656,0.027344,0.078125,0.749512,0.277954,0.044373,0.599182,down
757124,2.699219,4.554687,8.09375,0.089844,-0.037109,0.070312,0.749512,0.277954,0.044373,0.599182,down
757129,2.507813,4.859375,8.097656,0.089844,-0.037109,0.070312,0.749329,0.278259,0.044434,0.599304,down
757135,2.390625,5.128906,7.828125,0.089844,-0.037109,0.070312,0.748962,0.278809,0.044434,0.599426,down
757140,2.390625,5.128906,7.828125,0.035156,-0.085937,0.066406,0.74884,0.279053,0.044373,0.599487,down
757146,2.507813,5.28125,7.90625,0.035156,-0.085937,0.066406,0.748718,0.279236,0.044189,0.599548,down
757152,2.542969,4.9375,8.09375,0.035156,-0.085937,0.066406,0.748657,0.279419,0.043945,0.599609,down
757157,2.621094,4.707031,8.058594,-0.085937,-0.121094,0.027344,0.748657,0.279419,0.043945,0.599609,down
757162,2.621094,4.554687,8.027344,-0.107422,-0.125,-0.007813,0.748657,0.279419,0.043945,0.599609,down
757167,2.734375,4.363281,8.027344,-0.107422,-0.125,-0.007813,0.74884,0.279541,0.042847,0.599365,down
757172,2.851563,4.210937,8.023438,-0.107422,-0.125,-0.007813,0.74884,0.279541,0.042847,0.599365,down
757177,2.890625,4.09375,7.828125,-0.107422,-0.125,-0.007813,0.749329,0.279297,0.042114,0.598938,down
757182,3.195313,3.828125,7.714844,-0.197266,-0.0625,-0.136719,0.749329,0.279297,0.042114,0.598938,down
757187,3.386719,3.980469,7.949219,-0.197266,-0.0625,-0.136719,0.75,0.278809,0.041565,0.598389,down
757193,3.234375,4.019531,8.097656,-0.197266,-0.0625,-0.136719,0.750305,0.278503,0.041565,0.598145,down
757199,3.042969,4.246094,8.210938,0.082031,0.181641,-0.078125,0.750305,0.278503,0.041565,0.598145,down
757204,2.582031,4.746094,8.558594,0.082031,0.181641,-0.078125,0.750671,0.278015,0.042236,0.597839,down
757209,2.542969,4.402344,8.675781,0.167969,0.224609,0.013672,0.750671,0.277954,0.042847,0.597839,down
757214,2.46875,4.363281,8.4375,0.167969,0.224609,0.013672,0.750549,0.277954,0.043579,0.597961,down
757219,2.277344,4.363281,8.367188,0.1875,0.158203,0.041016,0.750366,0.277954,0.04425,0.598145,down
757225,2.007813,4.628906,8.476563,0.1875,0.158203,0.041016,0.749939,0.278198,0.045288,0.59845,down
757230,2.046875,4.9375,8.371094,0.193359,0.011719,0.023437,0.749756,0.278564,0.045715,0.598511,down
757235,2.3125,4.9375,8.175781,0.193359,-0.033203,-0.001953,0.749573,0.278992,0.046021,0.59845,down
757240,2.351563,5.320312,7.671875,0.193359,-0.033203,-0.001953,0.749512,0.279358,0.046204,0.59845,down
757245,2.429688,5.359375,7.671875,0.193359,-0.033203,-0.001953,0.749451,0.279602,0.046265,0.598328,down
757250,2.46875,5.359375,7.828125,0.023437,-0.064453,0.003906,0.74939,0.279846,0.046265,0.598267,down
757255,2.542969,5.207031,8.023438,0.023437,-0.064453,0.003906,0.74939,0.279968,0.046143,0.598206,down
757260,2.621094,5.015625,8.097656,0.023437,-0.064453,0.003906,0.74939,0.28009,0.046021,0.598145,down
757265,2.582031,4.824219,7.984375,-0.054687,-0.078125,-0.011719,0.749451,0.280151,0.045837,0.598083,down
757270,2.621094,4.667969,8.023438,-0.082031,-0.072266,-0.019531,0.749573,0.280212,0.045654,0.598022,down
757275,2.773438,4.554687,8.058594,-0.082031,-0.072266,-0.019531,0.749634,0.280151,0.04541,0.5979,down
757280,2.851563,4.4375,8.058594,-0.082031,-0.072266,-0.019531,0.749756,0.280029,0.045166,0.597839,down
757285,2.890625,4.363281,8.054688,-0.15625,-0.019531,-0.001953,0.749878,0.279785,0.044861,0.597839,down
757290,2.890625,4.476562,8.054688,-0.140625,-0.001953,0.015625,0.75,0.279541,0.044678,0.597839,down
757296,2.8125,4.285156,8.175781,-0.140625,-0.001953,0.015625,0.75,0.279297,0.044495,0.5979,down
757301,2.8125,4.285156,8.175781,-0.125,0.037109,0.023437,0.750061,0.278992,0.044373,0.597961,down
757306,2.8125,4.210937,8.175781,-0.125,0.037109,0.023437,0.750122,0.278748,0.044312,0.598022,down
757311,2.699219,4.285156,8.214844,-0.125,0.037109,0.023437,0.750183,0.278503,0.044312,0.598083,down
757316,2.621094,4.515625,8.171875,-0.125,0.037109,0.023437,0.750183,0.278503,0.044312,0.598083,down
757321,2.621094,4.515625,8.171875,-0.035156,0.097656,-0.019531,0.750183,0.278503,0.044312,0.598083,down
757327,2.660156,4.515625,8.136719,-0.035156,0.097656,-0.019531,0.750183,0.278503,0.044312,0.598083,down
757332,2.660156,4.554687,8.214844,-0.035156,0.097656,-0.019531,0.750366,0.27771,0.044922,0.598206,down
757338,2.582031,4.554687,8.171875,-0.005859,0.126953,-0.015625,0.750366,0.27771,0.044922,0.598206,down
757343,2.507813,4.59375,8.09375,0.013672,0.126953,-0.007813,0.750366,0.27771,0.044922,0.598206,down
757348,2.3125,4.824219,8.214844,0.035156,0.107422,-0.001953,0.750366,0.27771,0.044922,0.598206,down
757353,2.351563,4.976562,8.25,0.041016,0.085937,-0.013672,0.750366,0.27771,0.044922,0.598206,down
757358,2.390625,5.128906,8.171875,0.041016,0.085937,-0.013672,0.750305,0.277222,0.046204,0.598389,down
757363,2.46875,5.167969,8.058594,0.033203,0.044922,-0.007813,0.750305,0.277222,0.046204,0.598389,down
757368,2.621094,5.167969,8.09375,0.033203,0.044922,-0.007813,0.750244,0.277222,0.046509,0.59845,down
757374,2.390625,4.785156,7.828125,0.033203,0.044922,-0.007813,0.750244,0.277161,0.046692,0.59845,down
757379,2.121094,4.746094,8.132813,0.033203,0.044922,-0.007813,0.750244,0.277161,0.046692,0.59845,down
757384,3.042969,4.59375,8.058594,-0.007813,-0.009766,0.011719,0.750244,0.277161,0.046692,0.59845,down
757389,2.582031,4.285156,7.292969,-0.007813,-0.009766,0.011719,0.750244,0.2771,0.046753,0.59845,down
757394,2.3125,4.246094,7.753906,-0.076172,0.029297,-0.029297,0.750305,0.277039,0.046753,0.59845,down
757399,2.773438,4.402344,8.332031,-0.076172,0.029297,-0.029297,0.750366,0.276855,0.046753,0.598389,down
757405,2.351563,4.324219,7.90625,-0.076172,0.029297,-0.029297,0.750549,0.276489,0.046875,0.598328,down
757410,2.3125,4.285156,8.132813,-0.056641,0.052734,-0.029297,0.750671,0.276245,0.046936,0.598328,down
757415,2.507813,4.4375,8.289063,-0.013672,0.048828,-0.029297,0.750732,0.276123,0.046997,0.598328,down
757420,2.351563,4.4375,8.09375,-0.013672,0.048828,-0.029297,0.750732,0.276123,0.047119,0.598267,down
757425,2.238281,4.402344,8.328125,-0.013672,0.048828,-0.029297,0.750732,0.276123,0.047241,0.598267,down
757430,2.238281,4.554687,8.253906,0.082031,0.007813,-0.007813,0.750671,0.276245,0.047424,0.598267,down
757435,2.199219,4.554687,8.289063,0.109375,-0.023437,-0.011719,0.750671,0.276428,0.047546,0.598206,down
757440,2.390625,4.628906,8.332031,0.119141,-0.033203,-0.025391,0.750671,0.276428,0.047546,0.598206,down
757445,2.390625,4.785156,8.136719,0.119141,-0.033203,-0.025391,0.750549,0.276978,0.047852,0.598022,down
757450,2.429688,4.746094,8.171875,0.099609,-0.060547,-0.035156,0.750549,0.277283,0.047913,0.5979,down
757455,2.542969,4.707031,8.210938,0.099609,-0.060547,-0.035156,0.750549,0.277283,0.047913,0.5979,down
757460,2.582031,4.628906,8.09375,0.099609,-0.060547,-0.035156,0.750549,0.277588,0.047974,0.597778,down
757465,2.542969,4.59375,8.09375,0.015625,-0.054687,-0.021484,0.750549,0.277588,0.047974,0.597778,down
757470,2.507813,4.515625,8.253906,0.015625,-0.054687,-0.021484,0.75061,0.278076,0.047913,0.597473,down
757475,3.042969,4.667969,8.75,0.015625,-0.054687,-0.021484,0.75061,0.278076,0.047913,0.597473,down
757480,3.082031,4.59375,8.09375,0.015625,-0.054687,-0.021484,0.750549,0.278442,0.047791,0.597351,down
757485,2.582031,4.363281,7.5625,-0.082031,0.001953,-0.017578,0.75061,0.278381,0.047668,0.59729,down
757490,2.621094,4.476562,7.832031,-0.050781,-0.021484,-0.023437,0.75061,0.278381,0.047668,0.59729,down
757495,2.734375,4.285156,8.636719,-0.050781,-0.021484,-0.023437,0.750793,0.27832,0.047546,0.597168,down
757501,2.660156,4.210937,8.476563,-0.050781,-0.021484,-0.023437,0.750854,0.278381,0.047546,0.597046,down
757506,2.660156,4.210937,8.210938,0.048828,-0.029297,-0.101563,0.750977,0.278503,0.047668,0.596802,down
757511,2.660156,4.285156,8.132813,0.048828,-0.029297,-0.101563,0.751099,0.278625,0.047791,0.596619,down
757517,2.660156,4.285156,8.25,0.048828,-0.029297,-0.101563,0.751221,0.278809,0.047974,0.596375,down
757522,2.660156,4.363281,8.25,0.101563,0.001953,-0.140625,0.751343,0.278992,0.048157,0.596069,down
757527,2.582031,4.4375,8.289063,0.136719,0.001953,-0.150391,0.751343,0.278992,0.048157,0.596069,down
757532,2.507813,4.746094,8.25,0.136719,0.001953,-0.150391,0.751587,0.279541,0.048828,0.595459,down
757538,2.507813,4.898437,8.097656,0.177734,-0.009766,-0.160156,0.751587,0.279541,0.048828,0.595459,down
757543,2.582031,4.4375,8.210938,0.164062,-0.011719,-0.164062,0.751587,0.279541,0.048828,0.595459,down
757548,2.542969,4.746094,8.023438,0.179687,-0.039063,-0.185547,0.751587,0.279541,0.048828,0.595459,down
757554,2.621094,4.898437,7.90625,0.179687,-0.039063,-0.185547,0.751587,0.279541,0.048828,0.595459,down
757559,2.773438,5.015625,7.945312,0.152344,-0.042969,-0.197266,0.751587,0.279541,0.048828,0.595459,down
757565,2.660156,4.898437,7.789062,0.144531,-0.011719,-0.199219,0.751587,0.279541,0.048828,0.595459,down
757570,2.773438,4.898437,7.945312,0.144531,-0.011719,-0.199219,0.75293,0.282166,0.051636,0.592285,down
757575,2.660156,4.746094,8.132813,0.126953,0.013672,-0.234375,0.75293,0.282166,0.051636,0.592285,down
757580,2.8125,4.628906,8.175781,0.126953,0.013672,-0.234375,0.753174,0.28241,0.052063,0.591858,down
757585,3.082031,4.785156,8.132813,0.111328,0.009766,-0.265625,0.753174,0.28241,0.052063,0.591858,down
757590,3.15625,4.746094,8.097656,0.070312,0.050781,-0.353516,0.753784,0.282715,0.052795,0.590881,down
757595,3.042969,4.667969,8.175781,0.070312,0.050781,-0.353516,0.7547,0.282837,0.053772,0.589539,down
757600,2.964844,4.667969,8.132813,0.15625,0.128906,-0.392578,0.7547,0.282837,0.053772,0.589539,down
757605,2.925781,4.628906,8.371094,0.15625,0.128906,-0.392578,0.755615,0.282959,0.055237,0.588196,down
757610,2.964844,4.667969,8.4375,0.234375,0.205078,-0.455078,0.755615,0.282959,0.055237,0.588196,down
757615,3.042969,4.707031,8.40625,0.234375,0.205078,-0.455078,0.756104,0.28302,0.056335,0.587402,down
757620,3.003906,4.667969,8.476563,0.242187,0.279297,-0.478516,0.75708,0.28302,0.058716,0.585937,down
757626,2.582031,5.433594,8.515625,0.242187,0.279297,-0.478516,0.757629,0.282898,0.06012,0.585144,down
757631,2.582031,5.433594,8.515625,0.349609,0.455078,-0.546875,0.758179,0.282715,0.061951,0.58429,down
757636,1.894531,5.742187,8.171875,0.349609,0.455078,-0.546875,0.758606,0.282715,0.063782,0.583557,down
757642,1.816406,5.664062,8.023438,0.349609,0.455078,-0.546875,0.758911,0.282776,0.065369,0.582947,down
757647,1.816406,5.742187,8.023438,0.332031,0.386719,-0.361328,0.758911,0.282776,0.065369,0.582947,down
757653,1.855469,5.550781,7.945312,0.310547,0.363281,-0.302734,0.758911,0.282776,0.065369,0.582947,down
757658,1.894531,5.398437,7.949219,0.257813,0.326172,-0.25,0.758911,0.282776,0.065369,0.582947,down
757663,2.429688,5.320312,8.332031,0.257813,0.326172,-0.25,0.759644,0.282837,0.070679,0.58136,down
757668,2.507813,5.28125,8.214844,0.197266,0.189453,-0.173828,0.759644,0.282837,0.070679,0.58136,down
757674,2.507813,5.242187,7.675781,0.197266,0.189453,-0.173828,0.759827,0.282959,0.072327,0.580872,down
757679,2.582031,5.207031,7.671875,0.197266,0.189453,-0.173828,0.759827,0.28302,0.072937,0.580688,down
757684,2.582031,5.242187,7.523437,0.197266,0.189453,-0.173828,0.759888,0.283142,0.073608,0.580505,down
757690,2.429688,5.28125,7.445312,0.160156,0.166016,-0.080078,0.759827,0.283264,0.074829,0.580383,down
757696,2.007813,5.089844,7.636719,0.160156,0.166016,-0.080078,0.759705,0.283264,0.075378,0.580444,down
757701,2.007813,5.089844,7.636719,0.111328,0.160156,0.070312,0.759521,0.283264,0.075867,0.580627,down
757706,2.046875,4.9375,7.675781,0.101563,0.132812,0.125,0.759216,0.283264,0.076233,0.580933,down
757711,1.816406,4.859375,7.792969,0.101563,0.132812,0.125,0.758911,0.283386,0.076538,0.581238,down
757717,1.855469,4.628906,7.867187,0.101563,0.132812,0.125,0.758606,0.283508,0.076721,0.581604,down
757723,1.96875,4.554687,7.867187,0.126953,-0.009766,0.236328,0.758118,0.283752,0.076843,0.582031,down
757728,2.046875,4.515625,7.792969,0.142578,-0.052734,0.253906,0.758118,0.283752,0.076843,0.582031,down
757733,2.160156,4.515625,7.710937,0.142578,-0.052734,0.253906,0.758118,0.283752,0.076843,0.582031,down
757739,2.277344,4.628906,7.636719,0.142578,-0.052734,0.253906,0.756714,0.285156,0.076599,0.583252,down
757745,2.390625,4.667969,7.605469,0.228516,-0.150391,0.273438,0.755676,0.28656,0.076355,0.583984,down
757750,2.660156,4.707031,7.5625,0.228516,-0.150391,0.273438,0.755127,0.287415,0.076233,0.584229,down
757755,2.660156,4.785156,7.445312,0.228516,-0.150391,0.273438,0.755127,0.287415,0.076233,0.584229,down
757760,2.734375,4.9375,7.40625,0.332031,-0.125,0.173828,0.755127,0.287415,0.076233,0.584229,down
757765,2.851563,5.167969,7.371094,0.332031,-0.125,0.173828,0.75415,0.289185,0.076355,0.584656,down
757770,2.925781,5.320312,7.367187,0.332031,-0.125,0.173828,0.753662,0.2901,0.076538,0.584839,down
757775,3.003906,5.472656,7.410156,0.275391,0.001953,0.082031,0.753662,0.2901,0.076538,0.584839,down
757780,3.003906,5.625,7.367187,0.275391,0.001953,0.082031,0.752869,0.291504,0.077148,0.585083,down
757785,2.699219,5.78125,7.5625,0.275391,0.001953,0.082031,0.752563,0.291931,0.077515,0.585144,down
757790,2.734375,5.855469,7.566406,0.126953,0.140625,0.001953,0.75238,0.292175,0.077942,0.585205,down
757795,2.621094,5.933594,7.632812,0.126953,0.140625,0.001953,0.752197,0.292358,0.07843,0.585266,down
757800,2.390625,5.933594,7.714844,-0.019531,0.134766,0.007813,0.752136,0.292297,0.078857,0.585388,down
757806,2.390625,5.933594,7.714844,-0.056641,0.087891,0.046875,0.752014,0.291931,0.079285,0.585632,down
757811,1.894531,5.664062,8.214844,-0.054687,0.017578,0.119141,0.751892,0.291809,0.079285,0.585815,down
757816,1.738281,5.589844,8.328125,-0.060547,-0.072266,0.177734,0.75177,0.291748,0.079041,0.586121,down
757822,1.703125,5.511719,8.4375,-0.089844,-0.148437,0.228516,0.751526,0.291809,0.078613,0.586365,down
757827,2.160156,5.359375,7.867187,-0.089844,-0.148437,0.228516,0.751282,0.291992,0.077942,0.586731,down
757832,2.277344,5.472656,7.910156,-0.130859,-0.28125,0.298828,0.751282,0.291992,0.077942,0.586731,down
757837,2.351563,5.398437,7.75,-0.130859,-0.28125,0.298828,0.750671,0.29248,0.07605,0.587524,down
757842,2.390625,5.207031,7.605469,-0.130859,-0.28125,0.298828,0.750427,0.292725,0.075195,0.58783,down
757848,2.582031,4.9375,7.371094,-0.130859,-0.28125,0.298828,0.750122,0.293152,0.07428,0.588135,down
757854,2.660156,4.746094,7.253906,-0.091797,-0.259766,0.214844,0.750122,0.293152,0.07428,0.588135,down
757859,2.699219,4.554687,7.183594,-0.091797,-0.259766,0.214844,0.750122,0.293152,0.07428,0.588135,down
757864,2.621094,4.59375,7.21875,-0.078125,-0.144531,0.134766,0.750122,0.293152,0.07428,0.588135,down
757869,2.542969,4.785156,7.253906,-0.082031,-0.091797,0.085937,0.750122,0.293152,0.07428,0.588135,down
757874,2.390625,4.9375,7.40625,-0.082031,-0.091797,0.085937,0.749451,0.293823,0.071472,0.588928,down
757879,2.351563,4.898437,7.289062,-0.214844,-0.025391,-0.033203,0.749451,0.293823,0.071472,0.588928,down
757884,1.929688,5.015625,7.253906,-0.214844,-0.025391,-0.033203,0.749878,0.29303,0.07074,0.588867,down
757889,1.546875,5.511719,7.328125,-0.4375,0.052734,-0.083984,0.749878,0.29303,0.07074,0.588867,down
757894,1.546875,5.664062,7.601562,-0.4375,0.052734,-0.083984,0.750732,0.29126,0.069702,0.588867,down
757900,1.511719,4.785156,7.710937,-0.4375,0.052734,-0.083984,0.750732,0.29126,0.069702,0.588867,down
757906,1.320313,4.476562,7.867187,-0.921875,-0.064453,0.113281,0.750732,0.29126,0.069702,0.588867,down
757911,0.933594,4.515625,8.054688,-0.921875,-0.064453,0.113281,0.752686,0.285217,0.064636,0.589844,down
757916,0.515625,4.476562,8.132813,-0.921875,-0.064453,0.113281,0.753052,0.283691,0.062805,0.590332,down
757921,0.78125,4.628906,8.175781,-0.699219,-0.351563,0.265625,0.753052,0.283691,0.062805,0.590332,down
757926,1.703125,4.824219,9.171875,-0.699219,-0.351563,0.265625,0.753296,0.282776,0.061096,0.590698,down
757932,2.007813,4.054687,8.292969,-0.699219,-0.351563,0.265625,0.753662,0.281494,0.05719,0.591187,down
757937,2.429688,4.210937,8.410156,-0.566406,-0.513672,0.167969,0.753845,0.281067,0.055237,0.591309,down
757942,2.660156,4.476562,8.4375,-0.380859,-0.505859,0.152344,0.754028,0.280945,0.053406,0.591309,down
757947,2.699219,4.554687,8.289063,-0.191406,-0.410156,0.132812,0.754089,0.281128,0.052063,0.591248,down
757953,2.699219,4.785156,8.136719,-0.191406,-0.410156,0.132812,0.754028,0.281494,0.051147,0.591248,down
757959,2.699219,4.976562,8.410156,-0.025391,-0.246094,0.132812,0.754028,0.281494,0.051147,0.591248,down
757965,2.699219,5.511719,8.671875,0.013672,-0.212891,0.164062,0.754028,0.281494,0.051147,0.591248,down
757971,2.699219,5.472656,8.636719,0.003906,-0.1875,0.189453,0.753235,0.282776,0.048889,0.591858,down
757976,2.660156,5.320312,8.59375,-0.130859,-0.140625,0.212891,0.753235,0.282776,0.048889,0.591858,down
757981,2.621094,5.015625,8.480469,-0.130859,-0.140625,0.212891,0.752808,0.282837,0.047668,0.592468,down
757986,2.507813,4.824219,8.441406,-0.130859,-0.140625,0.212891,0.752625,0.282776,0.046997,0.592834,down
757991,2.507813,4.285156,8.558594,-0.130859,-0.140625,0.212891,0.752625,0.282776,0.046997,0.592834,down
757996,2.582031,4.515625,8.597656,-0.074219,-0.210937,0.203125,0.752625,0.282776,0.046997,0.592834,down
758001,2.542969,4.515625,8.371094,-0.074219,-0.210937,0.203125,0.751953,0.283142,0.044922,0.593628,down
758007,2.542969,4.554687,8.054688,-0.074219,-0.210937,0.203125,0.75177,0.283447,0.044312,0.593811,down
758012,2.3125,4.515625,7.789062,-0.056641,-0.208984,0.160156,0.751587,0.283691,0.043762,0.593933,down
758017,2.238281,4.476562,7.636719,-0.046875,-0.175781,0.140625,0.751404,0.283875,0.043213,0.594116,down
758022,2.277344,4.402344,7.714844,-0.046875,-0.175781,0.140625,0.751282,0.284119,0.042725,0.594177,down
758027,2.3125,4.363281,7.910156,-0.046875,-0.175781,0.140625,0.75116,0.284424,0.042297,0.594238,down
758032,2.199219,4.324219,7.988281,0.011719,-0.146484,0.054687,0.751038,0.284607,0.041992,0.594238,down
758037,2.121094,4.324219,8.136719,0.011719,-0.146484,0.054687,0.750977,0.284912,0.041687,0.594238,down
758042,2.277344,4.285156,8.175781,0.011719,-0.146484,0.054687,0.750977,0.285156,0.041443,0.594116,down
758048,2.429688,4.4375,7.867187,0.011719,-0.146484,0.054687,0.750977,0.2854,0.041199,0.593994,down
758054,2.160156,4.9375,7.910156,-0.017578,-0.119141,0.0,0.750977,0.2854,0.041199,0.593994,down
758059,2.160156,4.9375,7.910156,0.0,-0.078125,0.011719,0.751038,0.285767,0.04071,0.593872,down
758065,2.238281,5.359375,8.441406,0.0,-0.078125,0.011719,0.751038,0.285767,0.04071,0.593872,down
758071,2.3125,5.207031,8.25,-0.037109,-0.060547,0.052734,0.750916,0.28595,0.040161,0.593933,down
758076,2.277344,5.128906,8.132813,-0.037109,-0.060547,0.052734,0.750854,0.285889,0.039978,0.594055,down
758081,2.351563,5.015625,8.253906,-0.021484,-0.041016,0.095703,0.750854,0.285889,0.039978,0.594055,down
758086,2.542969,4.898437,8.410156,-0.021484,-0.041016,0.095703,0.750732,0.28595,0.039856,0.594238,down
758091,2.660156,4.59375,8.289063,0.013672,-0.046875,0.111328,0.750732,0.28595,0.039856,0.594238,down
758096,2.621094,4.59375,8.25,0.013672,-0.046875,0.111328,0.750183,0.286133,0.039429,0.594788,down
758101,2.773438,4.554687,8.289063,-0.037109,0.003906,0.119141,0.750183,0.286133,0.039429,0.594788,down
758106,2.925781,4.246094,8.253906,-0.078125,0.017578,0.103516,0.750061,0.286072,0.039307,0.594971,down
758112,2.964844,4.285156,8.175781,-0.078125,0.017578,0.103516,0.749817,0.285828,0.039001,0.595398,down
758118,3.003906,4.476562,8.09375,-0.078125,0.017578,0.103516,0.749756,0.285645,0.038879,0.595581,down
758123,2.925781,4.476562,8.054688,-0.0625,0.0625,0.052734,0.749695,0.285461,0.038818,0.595764,down
758130,2.8125,4.59375,8.058594,-0.082031,0.083984,0.042969,0.749695,0.285461,0.038818,0.595764,down
758135,2.8125,4.628906,7.945312,-0.082031,0.083984,0.042969,0.749695,0.285461,0.038818,0.595764,down
758140,2.773438,4.824219,7.945312,-0.052734,0.085937,0.019531,0.749695,0.285461,0.038818,0.595764,down
758146,2.773438,4.785156,8.054688,-0.041016,0.097656,0.007813,0.749695,0.285461,0.038818,0.595764,down
758151,2.660156,4.898437,7.984375,-0.041016,0.097656,0.007813,0.749695,0.283997,0.039307,0.596436,down
758156,2.507813,4.9375,8.058594,-0.041016,0.097656,0.007813,0.749695,0.283997,0.039307,0.596436,down
758161,2.390625,4.898437,8.210938,-0.025391,0.078125,0.019531,0.749695,0.283997,0.039307,0.596436,down
758166,2.390625,4.824219,7.988281,-0.025391,0.078125,0.019531,0.749695,0.283508,0.039612,0.59668,down
758171,2.507813,4.746094,8.132813,-0.025391,0.078125,0.019531,0.749634,0.283386,0.039551,0.596802,down
758176,2.660156,4.628906,8.25,-0.025391,0.078125,0.019531,0.749634,0.283386,0.039551,0.596802,down
758181,2.773438,4.59375,8.292969,-0.044922,0.017578,0.076172,0.749634,0.283386,0.039551,0.596802,down
758186,2.8125,4.515625,8.214844,-0.044922,0.017578,0.076172,0.749451,0.283081,0.039307,0.597229,down
758191,2.699219,4.628906,8.136719,-0.044922,0.017578,0.076172,0.749451,0.283081,0.039307,0.597229,down
758196,2.660156,4.628906,8.175781,-0.060547,0.044922,0.083984,0.749268,0.282776,0.039246,0.597595,down
758201,2.660156,4.628906,8.210938,-0.060547,0.044922,0.083984,0.749268,0.282776,0.039246,0.597595,down
758206,2.8125,4.363281,8.367188,-0.060547,0.009766,0.076172,0.749084,0.282593,0.039001,0.5979,down
758211,2.773438,4.402344,8.292969,-0.060547,0.009766,0.076172,0.749084,0.282593,0.039001,0.5979,down
758216,2.8125,4.476562,8.210938,-0.021484,-0.052734,0.023437,0.749084,0.282715,0.038696,0.5979,down
758221,2.890625,4.667969,8.136719,-0.021484,-0.052734,0.023437,0.749084,0.282715,0.038696,0.5979,down
758226,2.890625,4.707031,8.054688,-0.033203,-0.066406,-0.017578,0.749084,0.282715,0.038696,0.5979,down
758231,2.8125,4.667969,8.058594,-0.033203,-0.066406,-0.017578,0.749146,0.282837,0.038391,0.597778,down
758236,2.734375,4.667969,8.136719,-0.033203,-0.066406,-0.017578,0.749207,0.282898,0.038269,0.597717,down
758241,2.699219,4.746094,8.171875,-0.050781,-0.064453,-0.013672,0.749268,0.282837,0.038086,0.597595,down
758246,2.773438,4.707031,8.097656,-0.054687,-0.052734,0.005859,0.749329,0.282837,0.037903,0.597534,down
758251,2.773438,4.746094,8.210938,-0.054687,-0.052734,0.005859,0.74939,0.282776,0.037415,0.597534,down
823258,-3.863281,7.890625,-0.175781,1.103516,0.873047,-0.28125,0.387695,0.076782,0.700134,0.594666,down
823263,-3.863281,8.195313,-0.289063,1.144531,0.869141,-0.412109,0.387695,0.076782,0.700134,0.594666,down
823268,-3.902344,8.394531,-0.519531,1.189453,0.964844,-0.484375,0.387695,0.076782,0.700134,0.594666,down
823274,-3.976563,9.003906,-0.902344,1.189453,0.964844,-0.484375,0.384094,0.073669,0.708252,0.587708,down
823280,-3.976563,9.234375,-0.980469,1.162109,1.160156,-0.607422,0.384094,0.073669,0.708252,0.587708,down
823286,-4.054687,9.304688,-0.980469,1.044922,1.287109,-0.660156,0.384094,0.073669,0.708252,0.587708,down
823291,-4.128906,9.34375,-0.941406,1.044922,1.287109,-0.660156,0.378174,0.066284,0.719849,0.578308,down
823296,-4.207031,9.464844,-0.75,1.044922,1.287109,-0.660156,0.378174,0.066284,0.719849,0.578308,down
823301,-4.324219,9.386719,-0.671875,0.697266,1.470703,-0.666016,0.376221,0.063599,0.722778,0.576172,down
823306,-4.359375,9.273438,-0.558594,0.697266,1.470703,-0.666016,0.374451,0.061035,0.725281,0.574463,down
823311,-4.359375,8.855469,-0.328125,0.697266,1.470703,-0.666016,0.370911,0.055664,0.729736,0.571594,down
823316,-4.285156,8.660156,-0.367188,0.697266,1.470703,-0.666016,0.370911,0.055664,0.729736,0.571594,down
823321,-4.285156,8.621094,-0.40625,0.304688,1.523438,-0.744141,0.367432,0.049255,0.733643,0.569458,down
823326,-4.476562,8.582031,-0.25,0.304688,1.523438,-0.744141,0.367432,0.049255,0.733643,0.569458,down
823332,-4.515625,8.621094,-0.136719,0.060547,1.378906,-0.9375,0.367432,0.049255,0.733643,0.569458,down
823337,-4.628906,8.578125,-0.097656,0.060547,1.378906,-0.9375,0.363281,0.038147,0.738403,0.566895,down
823342,-4.667969,8.578125,-0.441406,0.060547,1.378906,-0.9375,0.362183,0.03418,0.739746,0.56604,down
823347,-4.820312,8.617188,-0.480469,0.060547,1.378906,-0.9375,0.361389,0.030518,0.740906,0.565308,down
823352,-4.820312,8.617188,-0.480469,0.060547,1.378906,-0.9375,0.361389,0.030518,0.740906,0.565308,down
823357,-5.011719,8.660156,-0.519531,-0.09375,1.216797,-1.220703,0.361389,0.030518,0.740906,0.565308,down
823362,-5.511719,9.460938,-0.824219,-0.132812,1.160156,-1.333984,0.360291,0.022461,0.742981,0.563599,down
823367,-5.511719,9.460938,-0.824219,-0.132812,1.160156,-1.333984,0.360291,0.022461,0.742981,0.563599,down
823372,-5.816406,9.808594,-1.171875,-0.378906,1.080078,-1.605469,0.360718,0.008423,0.744812,0.56134,down
823377,-5.777344,9.882813,-1.285156,-0.378906,1.080078,-1.605469,0.361572,0.00293,0.74469,0.560974,down
823383,-5.664062,9.925781,-1.09375,-0.378906,1.080078,-1.605469,0.362793,-0.002686,0.744141,0.560913,down
823388,-5.816406,9.84375,-1.054688,-1.339844,0.761719,-2.236328,0.36438,-0.009033,0.743103,0.561218,down
823393,-5.894531,9.84375,-1.09375,-1.654297,0.792969,-2.396484,0.36615,-0.015747,0.741638,0.561829,down
823398,-6.085937,9.699219,-1.132813,-1.654297,0.792969,-2.396484,0.368042,-0.023315,0.739685,0.562866,down
823403,-6.351562,9.039063,-1.207031,-1.654297,0.792969,-2.396484,0.368042,-0.023315,0.739685,0.562866,down
823408,-6.351562,9.039063,-1.207031,-2.537109,0.882812,-2.837891,0.372009,-0.039734,0.734558,0.56604,down
823415,-6.8125,8.777344,-0.824219,-2.537109,0.882812,-2.837891,0.372009,-0.039734,0.734558,0.56604,down
823420,-6.925781,8.8125,-0.632812,-2.851563,0.773437,-3.060547,0.372009,-0.039734,0.734558,0.56604,down
823426,-6.964844,8.773438,-0.558594,-2.927734,0.763672,-3.158203,0.372009,-0.039734,0.734558,0.56604,down
823431,-7.117187,8.777344,-0.519531,-2.931641,0.757812,-3.208984,0.384705,-0.086914,0.715515,0.576599,down
823436,-7.464844,8.65625,-0.289063,-2.931641,0.757812,-3.208984,0.384705,-0.086914,0.715515,0.576599,down
823441,-8.039063,8.617188,-0.175781,-2.931641,0.757812,-3.208984,0.387451,-0.096252,0.711426,0.578369,down
823446,-8.269531,9.003906,-0.136719,-2.380859,0.4375,-3.25,0.387451,-0.096252,0.711426,0.578369,down
823451,-8.269531,9.003906,-0.136719,-2.380859,0.4375,-3.25,0.393555,-0.11438,0.703308,0.580872,down
823456,-8.6875,10.042969,-0.480469,-2.380859,0.4375,-3.25,0.393555,-0.11438,0.703308,0.580872,down
823461,-9.875,10.769531,-0.824219,-2.238281,0.324219,-3.277344,0.400574,-0.131531,0.695312,0.582092,down
823466,-9.875,10.769531,-0.824219,-2.238281,0.324219,-3.277344,0.400574,-0.131531,0.695312,0.582092,down
823471,-10.757813,12.144531,-0.40625,-2.400391,-0.013672,-3.541016,0.400574,-0.131531,0.695312,0.582092,down
823476,-11.140625,12.601563,-0.597656,-2.400391,-0.013672,-3.541016,0.412781,-0.157227,0.681396,0.583557,down
823481,-11.601563,12.722656,-0.941406,-3.564453,0.154297,-3.751953,0.412781,-0.157227,0.681396,0.583557,down
823486,-11.984375,12.601563,-1.171875,-3.564453,0.154297,-3.751953,0.420776,-0.176392,0.669495,0.586182,down
823492,-11.832031,12.335938,-1.207031,-3.564453,0.154297,-3.751953,0.427307,-0.197998,0.654175,0.591797,down
823497,-11.945313,11.914063,-1.207031,-5.380859,0.265625,-3.699219,0.427307,-0.197998,0.654175,0.591797,down
823502,-12.136719,11.570313,-1.054688,-5.380859,0.265625,-3.699219,0.431946,-0.223206,0.634155,0.601196,down
823507,-12.636719,10.304688,-0.519531,-5.380859,0.265625,-3.699219,0.431946,-0.223206,0.634155,0.601196,down
823512,-12.636719,10.304688,-0.519531,-6.244141,0.304688,-3.421875,0.433167,-0.23468,0.624268,0.606323,down
823517,-12.753906,10.039063,0.015625,-6.244141,0.304688,-3.421875,0.434021,-0.247253,0.612549,0.612549,down
823522,-12.9375,9.65625,0.820312,-6.488281,-0.046875,-2.927734,0.434021,-0.247253,0.612549,0.612549,down
823528,-12.9375,9.65625,0.820312,-6.445312,-0.099609,-2.638672,0.434753,-0.269775,0.58905,0.625488,down
823533,-13.707031,7.546875,2.621094,-6.300781,-0.107422,-2.318359,0.433655,-0.289856,0.565613,0.638733,down
823538,-14.164063,6.667969,2.890625,-6.300781,-0.107422,-2.318359,0.433655,-0.289856,0.565613,0.638733,down
823543,-14.246094,6.359375,3.273438,-6.300781,-0.107422,-2.318359,0.431458,-0.305664,0.544739,0.650879,down
823548,-14.28125,6.207031,3.617188,-6.300781,-0.107422,-2.318359,0.431458,-0.305664,0.544739,0.650879,down
823553,-14.242188,6.09375,3.769531,-4.160156,-0.476562,-0.992187,0.429504,-0.315735,0.528564,0.660645,down
823558,-14.242188,6.09375,3.769531,-2.535156,-0.574219,-0.349609,0.429504,-0.315735,0.528564,0.660645,down
823563,-14.242188,5.824219,3.847656,-2.535156,-0.574219,-0.349609,0.428772,-0.318604,0.522766,0.664368,down
823568,-14.242188,5.824219,3.847656,-1.257813,-0.703125,0.34375,0.428101,-0.320129,0.518372,0.66748,down
823574,-14.128906,5.480469,3.925781,-1.257813,-0.703125,0.34375,0.426697,-0.319641,0.513062,0.672729,down
823580,-13.902344,5.671875,3.925781,-0.474609,-0.830078,1.0625,0.426697,-0.319641,0.513062,0.672729,down
823585,-13.742188,5.710937,3.925781,-0.203125,-0.855469,1.412109,0.426697,-0.319641,0.513062,0.672729,down
823591,-13.664063,5.863281,4.0,-0.027344,-0.875,1.761719,0.426697,-0.319641,0.513062,0.672729,down
823596,-13.480469,6.246094,3.925781,0.107422,-0.884766,2.126953,0.426697,-0.319641,0.513062,0.672729,down
823601,-13.558594,6.398437,3.925781,0.107422,-0.884766,2.126953,0.417786,-0.30304,0.513306,0.68573,down
823606,-13.558594,6.4375,3.886719,0.107422,-0.884766,2.126953,0.414062,-0.297424,0.514893,0.689209,down
823612,-13.441406,6.515625,3.847656,0.166016,-0.847656,3.332031,0.405151,-0.285828,0.518494,0.696594,down
823617,-13.09375,6.359375,3.578125,0.166016,-0.847656,3.332031,0.399536,-0.279175,0.520813,0.700867,down
823622,-12.898438,6.167969,3.425781,0.263672,-0.802734,4.544922,0.399536,-0.279175,0.520813,0.700867,down
823627,-12.710938,6.015625,3.273438,0.263672,-0.802734,4.544922,0.392395,-0.271118,0.523621,0.705933,down
823632,-12.710938,6.015625,3.273438,0.357422,-0.794922,4.931641,0.385864,-0.263794,0.526367,0.710266,down
823637,-12.25,5.554687,2.929688,0.357422,-0.794922,4.931641,0.385864,-0.263794,0.526367,0.710266,down
823642,-11.484375,5.171875,2.773438,0.570312,-0.759766,5.300781,0.369568,-0.245789,0.533813,0.719788,down
823647,-11.484375,5.171875,2.773438,0.570312,-0.759766,5.300781,0.369568,-0.245789,0.533813,0.719788,down
823653,-9.992188,4.523437,2.929688,1.4375,-0.798828,6.326172,0.34137,-0.213074,0.549316,0.732361,down
823658,-9.496094,4.40625,2.851563,2.117188,-0.75,6.978516,0.329468,-0.198914,0.556641,0.736206,down
823663,-9.226563,4.332031,2.890625,2.488281,-0.707031,7.306641,0.31897,-0.18634,0.563416,0.739014,down
823668,-8.84375,4.558594,2.851563,2.875,-0.736328,7.664062,0.307007,-0.171875,0.57135,0.741455,down
823673,-7.84375,4.75,2.929688,2.875,-0.736328,7.664062,0.307007,-0.171875,0.57135,0.741455,down
823678,-7.84375,4.75,2.929688,3.222656,-0.800781,7.976562,0.296326,-0.158691,0.578674,0.743042,down
823683,-7.617187,4.714844,2.621094,3.222656,-0.800781,7.976562,0.283691,-0.14325,0.587341,0.744324,down
823688,-6.542969,3.792969,1.816406,3.576172,-0.619141,8.535156,0.269836,-0.12677,0.596436,0.745239,down
823693,-6.542969,3.792969,1.816406,3.708984,-0.619141,8.726563,0.25592,-0.110413,0.605286,0.745605,down
823698,-6.542969,3.792969,1.816406,3.708984,-0.619141,8.726563,0.226318,-0.076294,0.623108,0.744751,down
823703,-4.667969,2.53125,1.625,3.708984,-0.619141,8.726563,0.209106,-0.057007,0.632996,0.743225,down
823708,-4.28125,2.53125,1.511719,3.708984,-0.619141,8.726563,0.195435,-0.042175,0.640503,0.741455,down
823713,-3.820313,2.53125,1.433594,4.089844,-0.113281,8.880859,0.17804,-0.023926,0.649536,0.73877,down
823718,-3.398438,2.605469,1.433594,4.140625,0.039063,8.851563,0.161499,-0.007202,0.657654,0.735779,down
823723,-2.710938,2.300781,1.585938,4.140625,0.039063,8.851563,0.144653,0.009155,0.665588,0.732056,down
823728,-2.445313,2.375,1.472656,4.140625,0.039063,8.851563,0.144653,0.009155,0.665588,0.732056,down
823733,-2.253906,2.300781,1.472656,4.503906,0.679687,8.646484,0.144653,0.009155,0.665588,0.732056,down
823738,-2.101563,2.152344,1.433594,4.503906,0.679687,8.646484,0.093994,0.053528,0.688049,0.71759,down
823743,-1.871094,1.957031,1.433594,4.503906,0.679687,8.646484,0.078674,0.065857,0.694458,0.712219,down
823749,-1.410156,1.34375,1.46875,4.503906,0.679687,8.646484,0.059509,0.080627,0.702332,0.704773,down
823754,-1.410156,1.34375,1.46875,5.025391,1.246094,8.019531,0.059509,0.080627,0.702332,0.704773,down
823759,-1.410156,1.34375,1.46875,5.025391,1.246094,8.019531,0.026489,0.104675,0.715759,0.689941,down
823764,-0.414062,1.035156,1.585938,5.025391,1.246094,8.019531,0.026489,0.104675,0.715759,0.689941,down
823769,-0.414062,1.035156,1.585938,5.316406,1.439453,7.443359,0.026489,0.104675,0.715759,0.689941,down
823775,0.3125,0.996094,1.324219,5.316406,1.439453,7.443359,0.024414,-0.138733,-0.735779,-0.662415,down
823780,0.65625,0.691406,1.394531,5.316406,1.439453,7.443359,0.041382,-0.149231,-0.742126,-0.6521,down
823785,0.8125,0.652344,1.46875,5.542969,1.587891,6.84375,0.041382,-0.149231,-0.742126,-0.6521,down
823790,0.8125,0.652344,1.46875,5.65625,1.611328,6.607422,0.073853,-0.168274,-0.75415,-0.630493,down
823795,1.003906,0.652344,1.46875,5.775391,1.617188,6.345703,0.089355,-0.176758,-0.759888,-0.619141,down
823800,1.003906,0.652344,1.46875,5.841797,1.558594,6.066406,0.089355,-0.176758,-0.759888,-0.619141,down
823805,1.347656,0.652344,1.703125,5.841797,1.558594,6.066406,0.104309,-0.184631,-0.765564,-0.607422,down
823810,1.347656,0.652344,1.703125,5.751953,1.486328,5.519531,0.133179,-0.199097,-0.776489,-0.582886,down
823816,1.460938,0.652344,1.773438,5.751953,1.486328,5.519531,0.133179,-0.199097,-0.776489,-0.582886,down
823822,1.5,0.613281,1.972656,5.333984,1.296875,4.832031,0.133179,-0.199097,-0.776489,-0.582886,down
823827,1.5,0.460937,2.234375,5.333984,1.296875,4.832031,0.172058,-0.217224,-0.790283,-0.546509,down
823832,1.5,0.460937,2.234375,5.15625,1.224609,4.603516,0.183777,-0.222534,-0.79425,-0.534668,down
823837,1.460938,0.308594,2.511719,5.15625,1.224609,4.603516,0.183777,-0.222534,-0.79425,-0.534668,down
823842,1.269531,-0.074219,2.394531,4.947266,1.216797,4.373047,0.205872,-0.232056,-0.801086,-0.511902,down
823847,1.269531,-0.074219,2.394531,4.947266,1.216797,4.373047,0.205872,-0.232056,-0.801086,-0.511902,down
823852,0.734375,-0.878906,2.355469,4.292969,1.115234,3.615234,0.205872,-0.232056,-0.801086,-0.511902,down
823857,0.503906,-0.804687,2.390625,4.292969,1.115234,3.615234,0.234497,-0.243164,-0.808899,-0.481201,down
823863,0.390625,-1.03125,2.394531,4.0,0.921875,3.052734,0.250793,-0.248657,-0.813599,-0.461853,down
823868,0.160156,-1.453125,2.546875,3.648438,0.751953,2.341797,0.257629,-0.250488,-0.815796,-0.453186,down
823874,-0.339844,-1.953125,2.695313,3.648438,0.751953,2.341797,0.257629,-0.250488,-0.815796,-0.453186,down
823879,-0.53125,-2.257813,2.773438,3.509766,0.65625,1.951172,0.268677,-0.252258,-0.82019,-0.437561,down
823884,-0.53125,-2.257813,2.773438,3.275391,0.40625,1.125,0.268677,-0.252258,-0.82019,-0.437561,down
823889,-1.257813,-2.257813,2.773438,3.275391,0.40625,1.125,0.273254,-0.252197,-0.822693,-0.429932,down
823894,-1.257813,-2.257813,2.773438,3.177734,0.214844,0.701172,0.276855,-0.251587,-0.825317,-0.422913,down
823900,-2.175781,-1.761719,3.234375,3.109375,-0.013672,0.279297,0.281311,-0.248413,-0.831482,-0.409546,down
823905,-2.597656,-1.53125,3.355469,3.109375,-0.013672,0.279297,0.282104,-0.24585,-0.835205,-0.403015,down
823911,-3.332031,-1.222656,3.195313,3.109375,-0.013672,0.279297,0.281738,-0.243164,-0.838745,-0.397522,down
823917,-3.824219,-1.148438,3.273438,2.273438,-1.572266,-1.675781,0.281738,-0.243164,-0.838745,-0.397522,down
823922,-4.246094,-0.917969,3.234375,2.273438,-1.572266,-1.675781,0.277344,-0.236511,-0.846741,-0.387451,down
823928,-4.96875,-0.457031,3.160156,2.273438,-1.572266,-1.675781,0.267029,-0.228821,-0.855835,-0.379333,down
823933,-5.394531,-0.34375,3.160156,1.353516,-3.117188,-2.845703,0.267029,-0.228821,-0.855835,-0.379333,down
823938,-5.667969,-0.265625,3.160156,1.353516,-3.117188,-2.845703,0.248962,-0.220337,-0.866028,-0.373474,down
823943,-6.046875,-0.304688,3.195313,1.353516,-3.117188,-2.845703,0.238281,-0.216431,-0.870667,-0.371826,down
823948,-7.039062,0.230469,3.082031,1.353516,-3.117188,-2.845703,0.223694,-0.211609,-0.87616,-0.37085,down
823953,-7.039062,0.230469,3.082031,1.353516,-3.117188,-2.845703,0.223694,-0.211609,-0.87616,-0.37085,down
823958,-7.304687,0.460937,2.964844,-0.326172,-5.660156,-4.802734,0.223694,-0.211609,-0.87616,-0.37085,down
823963,-7.304687,0.460937,2.964844,-0.824219,-6.339844,-5.398437,0.190369,-0.201538,-0.886108,-0.37146,down
823968,-8.652344,0.613281,2.085938,-0.824219,-6.339844,-5.398437,0.190369,-0.201538,-0.886108,-0.37146,down
823973,-8.652344,0.613281,2.085938,-1.363281,-7.035156,-6.046875,0.120605,-0.180969,-0.89917,-0.379639,down
823979,-9.800781,1.457031,1.320313,-3.082031,-8.751953,-8.439453,0.092896,-0.171875,-0.902283,-0.384338,down
823985,-12.515625,5.824219,-2.78125,-3.082031,-8.751953,-8.439453,0.061768,-0.16095,-0.90448,-0.390137,down
823990,-12.515625,5.824219,-2.78125,-4.349609,-9.681641,-10.236328,0.029602,-0.148682,-0.905396,-0.396606,down
823995,-14.589844,10.496094,-6.535156,-5.142578,-10.130859,-11.173828,0.004822,0.134644,0.904724,0.404114,down
824000,-14.589844,10.496094,-6.535156,-5.142578,-10.130859,-11.173828,0.004822,0.134644,0.904724,0.404114,down
824005,-14.589844,10.496094,-6.535156,-7.115234,-10.865234,-13.035156,0.080994,0.100159,0.896912,0.423035,down
824010,-14.589844,10.496094,-6.535156,-7.115234,-10.865234,-13.035156,0.080994,0.100159,0.896912,0.423035,down
824015,-15.738281,22.523437,-15.957031,-8.181641,-11.089844,-14.064453,0.080994,0.100159,0.896912,0.423035,down
824021,-14.820313,25.015625,-18.410156,-9.228516,-11.205078,-15.054688,0.207153,0.031189,0.86322,0.45929,down
824026,-14.933594,25.09375,-17.757812,-12.011719,-11.419922,-16.779297,0.207153,0.031189,0.86322,0.45929,down
824031,-14.433594,24.292969,-16.722656,-13.722656,-10.912109,-17.554687,0.207153,0.031189,0.86322,0.45929,down
824036,-12.367188,18.960937,-13.886719,-15.240234,-9.912109,-18.257812,0.207153,0.031189,0.86322,0.45929,down
824041,-13.441406,15.171875,-11.933594,-16.316406,-8.673828,-18.65625,0.207153,0.031189,0.86322,0.45929,down
824046,-16.773437,12.757813,-9.675781,-16.695312,-7.333984,-18.654297,0.207153,0.031189,0.86322,0.45929,down
824051,-19.957031,11.875,-7.875,-16.402344,-6.21875,-18.238281,0.207153,0.031189,0.86322,0.45929,down
824056,-24.777344,11.492188,-4.121094,-16.402344,-6.21875,-18.238281,0.207153,0.031189,0.86322,0.45929,down
824062,-25.851562,13.332031,-1.554688,-16.402344,-6.21875,-18.238281,0.490784,-0.259216,0.611633,0.563721,down
824068,-26.0,15.054688,3.734375,-11.876953,-5.181641,-14.851563,0.490784,-0.259216,0.611633,0.563721,down
824074,-25.273437,13.90625,5.609375,-7.505859,-4.332031,-10.630859,0.490784,-0.259216,0.611633,0.563721,down
824079,-24.355469,12.296875,7.21875,-7.505859,-4.332031,-10.630859,0.560852,-0.356018,0.489441,0.565002,down
824084,-23.476562,9.464844,9.210938,-7.505859,-4.332031,-10.630859,0.570618,-0.366638,0.472351,0.562866,down
824089,-23.402344,7.546875,9.25,-7.505859,-4.332031,-10.630859,0.576721,-0.37207,0.46344,0.560486,down
824095,-23.164062,4.75,8.214844,-7.505859,-4.332031,-10.630859,0.582153,-0.374817,0.459167,0.556519,down
824100,-22.785156,4.90625,6.683594,3.382813,0.728516,-0.845703,0.585571,-0.373901,0.460937,0.552124,down
824105,-22.519531,5.136719,5.6875,5.160156,1.212891,0.019531,0.585571,-0.373901,0.460937,0.552124,down
824110,-21.710937,7.703125,4.613281,5.160156,1.212891,0.019531,0.592407,-0.362488,0.478027,0.53772,down
824115,-20.832031,9.042969,4.382812,7.302734,1.939453,0.783203,0.592407,-0.362488,0.478027,0.53772,down
824122,-19.800781,12.871094,2.199219,8.113281,2.439453,0.847656,0.592407,-0.362488,0.478027,0.53772,down
824127,-18.957031,14.175781,1.320313,8.417969,2.763672,0.896484,0.592407,-0.362488,0.478027,0.53772,down
824133,-17.960937,14.40625,1.320313,6.810547,2.347656,1.097656,0.592407,-0.362488,0.478027,0.53772,down
824138,-15.929688,12.910156,1.550781,6.810547,2.347656,1.097656,0.60437,-0.31488,0.547913,0.485168,down
824143,-15.929688,12.910156,1.550781,6.810547,2.347656,1.097656,0.605286,-0.297791,0.570862,0.468018,down
824148,-13.976563,10.652344,1.855469,6.810547,2.347656,1.097656,0.605286,-0.297791,0.570862,0.468018,down
824153,-13.214844,9.464844,2.355469,4.556641,1.4375,1.433594,0.605286,-0.297791,0.570862,0.468018,down
824158,-11.445313,8.046875,3.082031,3.537109,1.128906,1.554688,0.605286,-0.297791,0.570862,0.468018,down
824163,-10.984375,7.472656,3.121094,3.537109,1.128906,1.554688,0.601318,-0.27301,0.598938,0.452942,down
824168,-10.453125,6.742187,3.121094,3.537109,1.128906,1.554688,0.59906,-0.270264,0.602051,0.45343,down
824173,-10.296875,5.9375,2.660156,3.537109,1.128906,1.554688,0.59906,-0.270264,0.602051,0.45343,down
824178,-10.101563,5.363281,2.355469,-0.400391,0.302734,1.576172,0.59906,-0.270264,0.602051,0.45343,down
824183,-9.335938,4.789062,2.390625,-0.923828,-0.009766,1.529297,0.59375,-0.266541,0.60614,0.457214,down
824188,-9.035156,4.597656,2.699219,-0.923828,-0.009766,1.529297,0.591125,-0.26532,0.606628,0.460632,down
824193,-8.613281,4.140625,2.582031,-0.923828,-0.009766,1.529297,0.58905,-0.264648,0.606262,0.464111,down
824198,-8.464844,3.949219,2.199219,-0.857422,-0.246094,1.154297,0.586853,-0.264099,0.605408,0.468323,down
824203,-8.265625,3.679688,1.816406,-0.517578,-0.351563,1.058594,0.585266,-0.26355,0.604797,0.471436,down
824208,-8.082031,3.371094,1.777344,-0.517578,-0.351563,1.058594,0.583862,-0.262512,0.604187,0.474548,down
824214,-7.726562,2.988281,1.664063,-0.517578,-0.351563,1.058594,0.582581,-0.258972,0.604065,0.478149,down
824219,-7.539062,2.875,1.703125,0.376953,-0.404297,0.964844,0.582275,-0.256348,0.604492,0.479431,down
824224,-7.382812,2.644531,1.777344,0.5,-0.298828,0.994141,0.581909,-0.253845,0.605103,0.480347,down
824229,-7.425781,2.375,1.394531,0.507812,-0.230469,1.009766,0.581482,-0.251404,0.605896,0.481201,down
824234,-7.382812,2.261719,1.128906,0.507812,-0.230469,1.009766,0.580994,-0.249207,0.60675,0.481873,down
824239,-7.234375,2.148438,0.898437,0.583984,-0.138672,1.039063,0.580322,-0.246399,0.60791,0.482727,down
824244,-7.199219,2.261719,0.820312,0.572266,-0.083984,1.039063,0.57959,-0.243835,0.60907,0.483398,down
824249,-7.238281,2.339844,0.898437,0.572266,-0.083984,1.039063,0.578857,-0.241638,0.610229,0.483887,down
824254,-7.238281,2.453125,0.628906,0.572266,-0.083984,1.039063,0.577942,-0.238831,0.612,0.484192,down
824259,-7.277344,2.644531,0.589844,0.902344,0.175781,1.042969,0.576965,-0.236206,0.613831,0.484253,down
824264,-7.304687,2.796875,0.554687,0.982422,0.255859,1.044922,0.576965,-0.236206,0.613831,0.484253,down
824269,-7.386719,2.914063,0.628906,0.982422,0.255859,1.044922,0.57489,-0.231079,0.617981,0.483948,down
824275,-7.925781,3.066406,0.628906,0.982422,0.255859,1.044922,0.573669,-0.228516,0.6203,0.483643,down
824280,-8.0,3.144531,0.785156,0.962891,0.400391,1.037109,0.573669,-0.228516,0.6203,0.483643,down
824285,-8.042969,3.21875,0.859375,0.962891,0.400391,1.037109,0.571045,-0.223389,0.625061,0.482971,down
824290,-8.230469,3.21875,0.859375,0.962891,0.400391,1.037109,0.569885,-0.221008,0.62738,0.482483,down
824296,-8.460938,3.410156,1.011719,0.962891,0.400391,1.037109,0.568726,-0.218567,0.629822,0.48175,down
824302,-8.464844,3.5625,1.050781,1.189453,0.394531,0.818359,0.568726,-0.218567,0.629822,0.48175,down
824308,-8.648438,3.71875,1.203125,1.007813,0.332031,0.675781,0.568726,-0.218567,0.629822,0.48175,down
824313,-8.691406,3.871094,1.242188,1.007813,0.332031,0.675781,0.565979,-0.211365,0.636902,0.478882,down
824319,-8.882813,3.871094,1.167969,0.839844,0.304688,0.619141,0.564392,-0.207703,0.640503,0.4776,down
824324,-8.992188,3.871094,1.242188,0.839844,0.304688,0.619141,0.563721,-0.206421,0.641663,0.477356,down
824329,-9.074219,3.832031,1.242188,0.212891,0.121094,0.462891,0.563721,-0.206421,0.641663,0.477356,down
824334,-8.992188,3.792969,1.242188,0.005859,0.068359,0.423828,0.563049,-0.205383,0.642578,0.477417,down
824339,-9.070313,3.753906,1.167969,0.005859,0.068359,0.423828,0.562378,-0.20459,0.643066,0.477844,down
824345,-9.109375,3.679688,1.167969,0.005859,0.068359,0.423828,0.561279,-0.203857,0.643188,0.479248,down
824350,-9.109375,3.679688,1.167969,-0.318359,-0.041016,0.353516,0.560791,-0.203674,0.643005,0.480225,down
824355,-9.074219,3.679688,1.089844,-0.361328,-0.054687,0.345703,0.560181,-0.203552,0.642639,0.481384,down
824361,-9.035156,3.488281,1.089844,-0.361328,-0.054687,0.345703,0.559753,-0.203491,0.642334,0.482361,down
824367,-8.992188,3.527344,1.050781,-0.341797,-0.099609,0.345703,0.559753,-0.203491,0.642334,0.482361,down
824372,-8.953125,3.488281,1.050781,-0.292969,-0.085937,0.355469,0.559753,-0.203491,0.642334,0.482361,down
824378,-8.917969,3.449219,0.859375,-0.197266,-0.056641,0.361328,0.559753,-0.203491,0.642334,0.482361,down
824383,-8.804688,3.488281,0.859375,-0.197266,-0.056641,0.361328,0.557983,-0.202393,0.641357,0.486084,down
824389,-8.765625,3.488281,0.859375,0.117188,0.017578,0.40625,0.557983,-0.202393,0.641357,0.486084,down
824394,-8.691406,3.410156,0.898437,0.117188,0.017578,0.40625,0.557129,-0.201111,0.641785,0.487183,down
824399,-8.6875,3.449219,0.898437,0.240234,0.117188,0.476562,0.55658,-0.200256,0.642273,0.487488,down
824404,-8.609375,3.371094,0.859375,0.240234,0.117188,0.476562,0.555237,-0.198303,0.643677,0.487976,down
824409,-8.570313,3.335938,0.820312,0.240234,0.117188,0.476562,0.555237,-0.198303,0.643677,0.487976,down
824414,-8.613281,3.144531,0.820312,0.291016,0.201172,0.541016,0.55365,-0.196411,0.645386,0.488281,down
824419,-8.648438,3.066406,0.820312,0.332031,0.251953,0.564453,0.55365,-0.196411,0.645386,0.488281,down
824424,-8.574219,3.027344,0.898437,0.332031,0.251953,0.564453,0.552673,-0.195312,0.646423,0.488403,down
824429,-8.570313,3.027344,0.976562,0.396484,0.320313,0.529297,0.552673,-0.195312,0.646423,0.488403,down
824434,-8.613281,3.257813,0.820312,0.396484,0.320313,0.529297,0.549805,-0.192261,0.64978,0.488342,down
824439,-8.6875,3.335938,0.820312,0.490234,0.300781,0.505859,0.549805,-0.192261,0.64978,0.488342,down
824444,-8.613281,3.371094,0.820312,0.542969,0.300781,0.476562,0.548889,-0.191101,0.651123,0.488159,down
824449,-8.648438,3.527344,0.859375,0.542969,0.300781,0.476562,0.547241,-0.188843,0.653687,0.487366,down
824454,-8.6875,3.640625,0.898437,0.542969,0.300781,0.476562,0.54657,-0.187683,0.655029,0.486877,down
824459,-8.6875,3.910156,0.976562,0.542969,0.300781,0.476562,0.54657,-0.187683,0.655029,0.486877,down
824464,-8.765625,4.0625,0.898437,0.669922,0.279297,0.410156,0.545227,-0.185181,0.657837,0.485474,down
824469,-8.691406,4.253906,0.859375,0.669922,0.279297,0.410156,0.545227,-0.185181,0.657837,0.485474,down
824474,-8.648438,4.253906,0.898437,0.59375,0.207031,0.367188,0.545227,-0.185181,0.657837,0.485474,down
824479,-8.648438,4.214844,0.898437,0.59375,0.207031,0.367188,0.544067,-0.182678,0.660522,0.484131,down
824485,-8.53125,4.40625,0.785156,0.59375,0.207031,0.367188,0.54303,-0.180481,0.662659,0.483215,down
824490,-8.53125,4.40625,0.707031,0.59375,0.207031,0.367188,0.54248,-0.179687,0.663452,0.482971,down
824495,-8.496094,4.445312,0.746094,0.203125,0.136719,0.359375,0.541931,-0.178833,0.664185,0.482971,down
824500,-8.464844,4.40625,0.707031,0.097656,0.134766,0.357422,0.541321,-0.178162,0.664673,0.483154,down
824505,-8.421875,4.40625,0.589844,0.097656,0.134766,0.357422,0.540649,-0.177673,0.6651,0.483459,down
824511,-8.386719,4.445312,0.554687,0.097656,0.134766,0.357422,0.5401,-0.177307,0.665405,0.483887,down
824516,-8.34375,4.367187,0.515625,-0.087891,0.123047,0.353516,0.5401,-0.177307,0.665405,0.483887,down
824522,-8.347656,4.292969,0.398438,-0.121094,0.136719,0.34375,0.5401,-0.177307,0.665405,0.483887,down
824528,-8.425781,4.253906,0.285156,-0.144531,0.167969,0.347656,0.5401,-0.177307,0.665405,0.483887,down
824533,-8.347656,4.101562,0.398438,-0.140625,0.177734,0.332031,0.5401,-0.177307,0.665405,0.483887,down
