timestamp,ax,ay,az,gx,gy,gz,qw,qx,qy,qz,label
292191,2.777344,8.011719,-3.882813,-0.060547,0.011719,0.013672,0.03772,-0.190613,-0.808716,-0.555176,down
292197,2.777344,8.089844,-3.769531,-0.023437,0.037109,0.013672,0.03772,-0.190613,-0.808716,-0.555176,down
292203,2.742188,8.046875,-3.769531,-0.023437,0.037109,0.013672,0.038879,-0.188904,-0.808899,-0.55542,down
292208,2.777344,8.085938,-3.847656,0.007813,0.050781,0.019531,0.038879,-0.188904,-0.808899,-0.55542,down
292213,2.742188,8.085938,-3.730469,0.007813,0.050781,0.019531,0.039734,-0.187805,-0.809082,-0.555481,down
292218,2.777344,8.085938,-3.691406,0.007813,0.050781,0.019531,0.040222,-0.187317,-0.809204,-0.55542,down
292223,2.742188,8.089844,-3.65625,0.007813,0.050781,0.019531,0.040649,-0.186829,-0.809326,-0.555359,down
292228,2.777344,8.125,-3.691406,0.066406,0.025391,0.037109,0.041443,-0.185913,-0.809692,-0.555115,down
292233,2.742188,8.320313,-3.808594,0.066406,0.025391,0.037109,0.041443,-0.185913,-0.809692,-0.555115,down
292238,2.742188,8.394531,-3.847656,0.060547,-0.009766,0.03125,0.04187,-0.185486,-0.809875,-0.554932,down
292243,2.816406,8.472656,-3.921875,0.060547,-0.009766,0.03125,0.042236,-0.185059,-0.810059,-0.554749,down
292248,2.816406,8.546875,-3.921875,0.060547,-0.009766,0.03125,0.042542,-0.184692,-0.810242,-0.554626,down
292253,2.777344,8.546875,-4.039062,0.060547,-0.009766,0.03125,0.042847,-0.184387,-0.810364,-0.554504,down
292258,2.816406,8.507813,-4.039062,-0.017578,-0.007813,0.029297,0.043091,-0.184021,-0.810425,-0.554504,down
292263,2.894531,8.511719,-4.078125,-0.017578,-0.007813,0.029297,0.043396,-0.183655,-0.810547,-0.554504,down
292268,2.933594,8.546875,-4.0,-0.017578,-0.007813,0.029297,0.04364,-0.183289,-0.810547,-0.554504,down
292273,2.933594,8.511719,-4.0,-0.046875,0.007813,0.039063,0.043945,-0.182922,-0.810608,-0.554565,down
292278,2.894531,8.511719,-4.039062,-0.046875,0.007813,0.039063,0.044189,-0.182617,-0.810608,-0.554626,down
292283,2.933594,8.511719,-4.0,-0.046875,0.007813,0.039063,0.044556,-0.182312,-0.810608,-0.554687,down
292288,2.933594,8.511719,-3.960938,-0.035156,0.023437,0.054687,0.045227,-0.181702,-0.810608,-0.55481,down
292293,2.894531,8.433594,-3.921875,-0.035156,0.023437,0.054687,0.045227,-0.181702,-0.810608,-0.55481,down
292298,2.933594,8.394531,-3.921875,0.052734,0.035156,0.074219,0.045227,-0.181702,-0.810608,-0.55481,down
292303,2.894531,8.394531,-3.847656,0.089844,0.025391,0.070312,0.046082,-0.181091,-0.810791,-0.554749,down
292309,2.894531,8.351563,-3.691406,0.089844,0.025391,0.070312,0.046875,-0.180542,-0.811096,-0.554382,down
292314,2.855469,8.320313,-3.730469,0.097656,0.035156,0.0625,0.047302,-0.180298,-0.811279,-0.554199,down
292320,2.855469,8.246094,-3.691406,0.097656,0.035156,0.0625,0.047729,-0.180054,-0.811462,-0.553955,down
292325,2.816406,8.242188,-3.65625,0.097656,0.035156,0.0625,0.048096,-0.179749,-0.811584,-0.553833,down
292331,2.816406,8.285156,-3.691406,0.058594,0.021484,0.042969,0.048096,-0.179749,-0.811584,-0.553833,down
292337,2.816406,8.285156,-3.691406,0.041016,0.011719,0.035156,0.048767,-0.179138,-0.811829,-0.553589,down
292343,2.816406,8.320313,-3.691406,0.041016,0.011719,0.035156,0.048767,-0.179138,-0.811829,-0.553589,down
292348,2.816406,8.320313,-3.691406,-0.039063,-0.001953,0.041016,0.048767,-0.179138,-0.811829,-0.553589,down
292353,2.855469,8.324219,-3.769531,-0.058594,-0.001953,0.041016,0.049561,-0.178406,-0.812012,-0.553528,down
292358,2.894531,8.320313,-3.769531,-0.058594,-0.001953,0.041016,0.049744,-0.178162,-0.811951,-0.553589,down
292363,2.894531,8.28125,-3.730469,-0.058594,-0.001953,0.041016,0.049988,-0.177979,-0.811951,-0.553711,down
292369,2.855469,8.242188,-3.769531,-0.041016,0.011719,0.085937,0.049988,-0.177979,-0.811951,-0.553711,down
292374,2.933594,8.242188,-3.847656,-0.041016,0.011719,0.085937,0.050781,-0.177612,-0.811768,-0.553955,down
292379,2.933594,8.242188,-3.847656,-0.041016,0.011719,0.085937,0.051086,-0.177551,-0.811829,-0.553894,down
292384,2.96875,8.207031,-3.882813,-0.041016,0.011719,0.085937,0.051453,-0.17749,-0.81189,-0.553833,down
292389,2.96875,8.164063,-3.921875,0.091797,0.035156,0.142578,0.051453,-0.17749,-0.81189,-0.553833,down
292394,3.007813,8.128906,-3.882813,0.091797,0.035156,0.142578,0.051941,-0.17749,-0.811951,-0.55365,down
292399,3.046875,8.050781,-3.808594,0.091797,0.035156,0.142578,0.05304,-0.177368,-0.812317,-0.55304,down
292404,3.046875,8.089844,-3.847656,0.091797,0.035156,0.142578,0.05304,-0.177368,-0.812317,-0.55304,down
292409,3.007813,8.089844,-3.882813,0.228516,0.070312,0.164062,0.054321,-0.177246,-0.812866,-0.552124,down
292414,3.007813,8.089844,-3.769531,0.228516,0.070312,0.164062,0.054932,-0.177124,-0.813232,-0.551636,down
292419,3.046875,8.085938,-3.769531,0.28125,0.097656,0.150391,0.054932,-0.177124,-0.813232,-0.551636,down
292424,3.007813,8.128906,-3.769531,0.277344,0.103516,0.142578,0.055664,-0.177002,-0.813599,-0.551025,down
292429,3.007813,8.167969,-3.808594,0.277344,0.103516,0.142578,0.056335,-0.17688,-0.813904,-0.550537,down
292434,3.007813,8.167969,-3.808594,0.277344,0.103516,0.142578,0.057617,-0.176575,-0.814575,-0.5495,down
292439,3.007813,8.285156,-3.882813,0.226562,0.089844,0.130859,0.057617,-0.176575,-0.814575,-0.5495,down
292444,3.007813,8.320313,-3.808594,0.226562,0.089844,0.130859,0.058899,-0.17627,-0.815186,-0.548584,down
292449,3.046875,8.351563,-3.769531,0.226562,0.089844,0.130859,0.059448,-0.176086,-0.81543,-0.548218,down
292454,3.046875,8.351563,-3.808594,0.109375,0.064453,0.091797,0.059448,-0.176086,-0.81543,-0.548218,down
292459,3.085938,8.355469,-3.882813,0.064453,0.060547,0.0625,0.059937,-0.175964,-0.815613,-0.547974,down
292464,3.085938,8.390625,-3.882813,0.064453,0.060547,0.0625,0.060669,-0.175537,-0.815796,-0.547668,down
292469,3.125,8.390625,-3.960938,0.064453,0.060547,0.0625,0.060974,-0.175293,-0.815857,-0.547668,down
292475,3.164063,8.429688,-4.039062,-0.015625,0.025391,-0.009766,0.061157,-0.175049,-0.815918,-0.547668,down
292480,3.164063,8.472656,-4.039062,-0.042969,0.023437,-0.037109,0.061279,-0.174744,-0.815918,-0.547729,down
292485,3.164063,8.390625,-4.039062,-0.042969,0.023437,-0.037109,0.061401,-0.174438,-0.815918,-0.547791,down
292491,3.164063,8.355469,-4.0,-0.042969,0.023437,-0.037109,0.061462,-0.174072,-0.815918,-0.547913,down
292497,3.199219,8.351563,-4.039062,-0.091797,0.013672,-0.076172,0.061462,-0.174072,-0.815918,-0.547913,down
292502,3.199219,8.324219,-4.078125,-0.097656,0.003906,-0.082031,0.061462,-0.174072,-0.815918,-0.547913,down
292507,3.164063,8.320313,-4.0,-0.097656,0.003906,-0.082031,0.061462,-0.174072,-0.815918,-0.547913,down
292512,3.199219,8.324219,-4.078125,-0.085937,0.009766,-0.085937,0.061462,-0.174072,-0.815918,-0.547913,down
292517,3.199219,8.351563,-4.078125,-0.070312,0.015625,-0.082031,0.061462,-0.174072,-0.815918,-0.547913,down
292522,3.125,8.355469,-4.078125,-0.056641,0.011719,-0.082031,0.061462,-0.174072,-0.815918,-0.547913,down
292527,3.125,8.355469,-4.0,-0.056641,0.011719,-0.082031,0.061462,-0.174072,-0.815918,-0.547913,down
292532,3.085938,8.390625,-4.0,-0.056641,0.011719,-0.082031,0.061401,-0.171265,-0.815674,-0.549194,down
292537,3.085938,8.390625,-4.0,0.013672,0.041016,-0.046875,0.061401,-0.171265,-0.815674,-0.549194,down
292542,3.085938,8.390625,-3.960938,0.013672,0.041016,-0.046875,0.061401,-0.171265,-0.815674,-0.549194,down
292547,3.046875,8.394531,-4.039062,0.048828,0.052734,-0.023437,0.061401,-0.171265,-0.815674,-0.549194,down
292552,3.007813,8.472656,-4.0,0.070312,0.058594,-0.013672,0.061401,-0.171265,-0.815674,-0.549194,down
292558,3.007813,8.472656,-3.960938,0.070312,0.058594,-0.013672,0.062317,-0.169678,-0.816162,-0.548828,down
292563,2.96875,8.429688,-3.960938,0.070312,0.058594,-0.013672,0.062561,-0.169373,-0.816284,-0.548645,down
292569,3.007813,8.433594,-3.847656,0.083984,0.068359,0.017578,0.062561,-0.169373,-0.816284,-0.548645,down
292574,3.007813,8.355469,-3.882813,0.083984,0.068359,0.017578,0.063171,-0.168823,-0.816589,-0.54834,down
292580,3.007813,8.355469,-3.882813,0.078125,0.076172,0.039063,0.063843,-0.168335,-0.816833,-0.548035,down
292585,2.933594,8.324219,-3.847656,0.078125,0.082031,0.041016,0.064209,-0.168152,-0.816956,-0.547852,down
292590,2.933594,8.320313,-3.808594,0.078125,0.082031,0.041016,0.064514,-0.167908,-0.817078,-0.547729,down
292595,2.933594,8.351563,-3.847656,0.078125,0.082031,0.041016,0.064941,-0.167725,-0.817261,-0.547485,down
292600,2.933594,8.324219,-3.847656,0.078125,0.082031,0.041016,0.065369,-0.167542,-0.817383,-0.547302,down
292605,2.933594,8.324219,-3.847656,0.154297,0.097656,0.074219,0.065857,-0.167297,-0.817627,-0.546997,down
292610,2.894531,8.324219,-3.847656,0.154297,0.097656,0.074219,0.066345,-0.167175,-0.81781,-0.546631,down
292615,2.894531,8.324219,-3.847656,0.154297,0.097656,0.074219,0.066833,-0.166992,-0.817993,-0.546326,down
292621,2.855469,8.355469,-3.847656,0.154297,0.097656,0.074219,0.067383,-0.166809,-0.818298,-0.545898,down
292626,2.855469,8.355469,-3.847656,0.203125,0.117188,0.068359,0.06781,-0.166626,-0.818542,-0.545532,down
292631,2.816406,8.351563,-3.769531,0.203125,0.117188,0.068359,0.068359,-0.166382,-0.818787,-0.545166,down
292637,2.816406,8.355469,-3.730469,0.203125,0.117188,0.068359,0.068359,-0.166382,-0.818787,-0.545166,down
292642,2.816406,8.351563,-3.769531,0.1875,0.095703,0.048828,0.068359,-0.166382,-0.818787,-0.545166,down
292648,2.777344,8.390625,-3.769531,0.166016,0.087891,0.029297,0.068359,-0.166382,-0.818787,-0.545166,down
292653,2.816406,8.355469,-3.691406,0.166016,0.087891,0.029297,0.068359,-0.166382,-0.818787,-0.545166,down
292659,2.816406,8.390625,-3.691406,0.09375,0.058594,-0.001953,0.068359,-0.166382,-0.818787,-0.545166,down
292664,2.816406,8.390625,-3.730469,0.015625,0.041016,-0.037109,0.068359,-0.166382,-0.818787,-0.545166,down
292670,2.816406,8.355469,-3.730469,0.015625,0.041016,-0.037109,0.070801,-0.164307,-0.82019,-0.543335,down
292675,2.816406,8.351563,-3.808594,-0.046875,0.015625,-0.068359,0.070862,-0.164001,-0.82019,-0.543457,down
292681,2.816406,8.28125,-3.769531,-0.046875,0.015625,-0.068359,0.070862,-0.163696,-0.82019,-0.543579,down
292686,2.855469,8.324219,-3.808594,-0.046875,0.015625,-0.068359,0.070862,-0.163391,-0.820129,-0.543701,down
292691,2.894531,8.246094,-3.808594,-0.09375,0.005859,-0.085937,0.070862,-0.163391,-0.820129,-0.543701,down
292696,2.894531,8.207031,-3.769531,-0.089844,0.0,-0.091797,0.070862,-0.163391,-0.820129,-0.543701,down
292701,2.855469,8.203125,-3.769531,-0.082031,0.001953,-0.087891,0.070862,-0.163391,-0.820129,-0.543701,down
292707,2.855469,8.207031,-3.730469,-0.082031,0.001953,-0.087891,0.070679,-0.162048,-0.819946,-0.544434,down
292712,2.855469,8.207031,-3.730469,-0.027344,-0.009766,-0.076172,0.070679,-0.162048,-0.819946,-0.544434,down
292718,2.816406,8.207031,-3.691406,0.003906,-0.013672,-0.078125,0.070679,-0.162048,-0.819946,-0.544434,down
292723,2.777344,8.242188,-3.691406,0.03125,-0.019531,-0.068359,0.070679,-0.162048,-0.819946,-0.544434,down
292728,2.816406,8.28125,-3.65625,0.050781,-0.027344,-0.056641,0.070679,-0.162048,-0.819946,-0.544434,down
292734,2.816406,8.285156,-3.691406,0.060547,-0.035156,-0.054687,0.070435,-0.160522,-0.820496,-0.544128,down
292739,2.855469,8.285156,-3.691406,0.060547,-0.035156,-0.054687,0.070435,-0.160522,-0.820496,-0.544128,down
292744,2.816406,8.246094,-3.691406,0.060547,-0.035156,-0.054687,0.070374,-0.160217,-0.82074,-0.543823,down
292749,2.816406,8.207031,-3.730469,0.060547,-0.035156,-0.054687,0.070374,-0.160217,-0.82074,-0.543823,down
292754,2.816406,8.242188,-3.769531,0.054687,-0.066406,-0.025391,0.070251,-0.160034,-0.820984,-0.543579,down
292759,2.855469,8.351563,-3.769531,0.054687,-0.066406,-0.025391,0.070251,-0.160034,-0.820984,-0.543579,down
292764,2.855469,8.390625,-3.847656,0.054687,-0.066406,-0.025391,0.07019,-0.159973,-0.821045,-0.543457,down
292770,2.855469,8.390625,-3.847656,0.015625,-0.078125,-0.019531,0.069946,-0.15979,-0.821167,-0.543335,down
292775,2.894531,8.355469,-3.960938,0.015625,-0.078125,-0.019531,0.069824,-0.159729,-0.821228,-0.543335,down
292780,2.894531,8.394531,-3.921875,0.015625,-0.078125,-0.019531,0.069641,-0.159607,-0.821289,-0.543335,down
292785,2.894531,8.472656,-3.960938,-0.011719,-0.085937,-0.052734,0.069458,-0.159485,-0.821289,-0.543274,down
292790,2.933594,8.429688,-4.113281,-0.023437,-0.085937,-0.0625,0.069458,-0.159485,-0.821289,-0.543274,down
292796,2.96875,8.429688,-4.078125,-0.023437,-0.085937,-0.0625,0.069092,-0.159241,-0.821411,-0.543335,down
292801,2.96875,8.390625,-4.113281,-0.037109,-0.068359,-0.068359,0.069092,-0.159241,-0.821411,-0.543335,down
292806,2.96875,8.390625,-4.113281,-0.041016,-0.0625,-0.064453,0.069092,-0.159241,-0.821411,-0.543335,down
292812,3.007813,8.355469,-4.113281,-0.041016,-0.058594,-0.066406,0.069092,-0.159241,-0.821411,-0.543335,down
292817,3.046875,8.324219,-4.113281,-0.029297,-0.050781,-0.058594,0.069092,-0.159241,-0.821411,-0.543335,down
292823,3.007813,8.320313,-4.078125,-0.025391,-0.041016,-0.048828,0.069092,-0.159241,-0.821411,-0.543335,down
292828,3.046875,8.324219,-4.113281,-0.019531,-0.023437,-0.052734,0.069092,-0.159241,-0.821411,-0.543335,down
292834,3.007813,8.246094,-4.0,-0.019531,-0.023437,-0.052734,0.068237,-0.157837,-0.821594,-0.543579,down
292839,2.96875,8.355469,-3.960938,-0.019531,-0.023437,-0.052734,0.068237,-0.157837,-0.821594,-0.543579,down
292844,3.007813,8.203125,-3.921875,0.0625,-0.015625,-0.041016,0.068237,-0.157837,-0.821594,-0.543579,down
292849,3.007813,8.242188,-3.921875,0.0625,-0.015625,-0.041016,0.068176,-0.157471,-0.821716,-0.543396,down
292854,3.007813,8.203125,-3.921875,0.0625,-0.015625,-0.041016,0.068176,-0.157227,-0.821838,-0.543274,down
292860,2.96875,8.203125,-3.921875,0.046875,-0.021484,-0.056641,0.068115,-0.156799,-0.822083,-0.543091,down
292865,2.96875,8.207031,-3.882813,0.050781,-0.011719,-0.066406,0.068115,-0.156555,-0.822205,-0.542969,down
292871,2.96875,8.28125,-3.921875,0.050781,-0.011719,-0.066406,0.068115,-0.156311,-0.822327,-0.542847,down
292876,3.007813,8.320313,-3.960938,0.011719,-0.023437,-0.083984,0.068115,-0.156311,-0.822327,-0.542847,down
292881,3.007813,8.324219,-3.921875,-0.003906,-0.029297,-0.076172,0.068115,-0.156311,-0.822327,-0.542847,down
292887,2.96875,8.390625,-4.0,-0.003906,-0.029297,-0.076172,0.06781,-0.155579,-0.82251,-0.542847,down
292892,2.933594,8.355469,-4.0,-0.054687,-0.044922,-0.091797,0.06781,-0.155579,-0.82251,-0.542847,down
292897,2.96875,8.355469,-3.960938,-0.068359,-0.050781,-0.095703,0.06781,-0.155579,-0.82251,-0.542847,down
292903,2.933594,8.355469,-3.960938,-0.068359,-0.050781,-0.095703,0.067261,-0.154846,-0.822449,-0.543152,down
292909,3.007813,8.28125,-3.921875,-0.068359,-0.050781,-0.095703,0.066895,-0.154419,-0.822388,-0.543457,down
292914,3.007813,8.246094,-4.0,-0.068359,-0.050781,-0.095703,0.066895,-0.154419,-0.822388,-0.543457,down
292920,2.933594,8.207031,-4.0,-0.083984,-0.0625,-0.101563,0.066895,-0.154419,-0.822388,-0.543457,down
292925,2.96875,8.207031,-4.0,-0.083984,-0.0625,-0.101563,0.066223,-0.153687,-0.822266,-0.543884,down
292930,2.96875,8.207031,-4.0,-0.083984,-0.0625,-0.101563,0.066101,-0.153503,-0.822327,-0.543945,down
292935,2.933594,8.207031,-4.039062,-0.019531,-0.025391,-0.085937,0.066101,-0.153503,-0.822327,-0.543945,down
292940,2.933594,8.167969,-4.0,-0.019531,-0.025391,-0.085937,0.065857,-0.153015,-0.822388,-0.544067,down
292945,2.933594,8.207031,-4.0,0.011719,-0.013672,-0.078125,0.065857,-0.153015,-0.822388,-0.544067,down
292950,2.96875,8.207031,-4.0,0.011719,-0.013672,-0.078125,0.065796,-0.152771,-0.822449,-0.544006,down
292955,2.894531,8.246094,-3.960938,0.029297,-0.005859,-0.070312,0.065796,-0.152771,-0.822449,-0.544006,down
292960,2.894531,8.246094,-3.960938,0.029297,-0.005859,-0.070312,0.065735,-0.151978,-0.822693,-0.543823,down
292965,2.933594,8.246094,-3.960938,0.064453,0.007813,-0.058594,0.065735,-0.151978,-0.822693,-0.543823,down
292970,2.894531,8.246094,-3.960938,0.064453,0.007813,-0.058594,0.065735,-0.151733,-0.822815,-0.543701,down
292975,2.894531,8.242188,-3.921875,0.068359,0.009766,-0.066406,0.065735,-0.151733,-0.822815,-0.543701,down
292980,2.894531,8.246094,-3.882813,0.068359,0.009766,-0.066406,0.065857,-0.15094,-0.823242,-0.543274,down
292985,2.855469,8.246094,-3.921875,0.068359,0.009766,-0.066406,0.065857,-0.150696,-0.823425,-0.543091,down
292990,2.894531,8.203125,-3.847656,0.074219,0.0,-0.066406,0.065857,-0.150696,-0.823425,-0.543091,down
292995,2.894531,8.164063,-3.847656,0.074219,0.0,-0.066406,0.065857,-0.150452,-0.823547,-0.542908,down
293000,2.894531,8.164063,-3.847656,0.074219,0.0,-0.066406,0.065796,-0.149902,-0.823853,-0.542664,down
293005,2.855469,8.164063,-3.808594,0.074219,0.0,-0.066406,0.065796,-0.149902,-0.823853,-0.542664,down
293010,2.855469,8.125,-3.808594,0.039063,-0.023437,-0.095703,0.065796,-0.149902,-0.823853,-0.542664,down
293015,2.855469,8.125,-3.769531,0.039063,-0.023437,-0.095703,0.065613,-0.149414,-0.824036,-0.542542,down
293020,2.777344,8.167969,-3.769531,-0.007813,-0.056641,-0.160156,0.06543,-0.149048,-0.824158,-0.54248,down
293025,2.777344,8.128906,-3.769531,-0.007813,-0.056641,-0.160156,0.065186,-0.148743,-0.824219,-0.54248,down
293031,2.742188,8.085938,-3.730469,-0.007813,-0.056641,-0.160156,0.064514,-0.14801,-0.824341,-0.542603,down
293036,2.742188,8.085938,-3.730469,-0.09375,-0.107422,-0.267578,0.063965,-0.147461,-0.824341,-0.542786,down
293042,2.664063,8.164063,-3.730469,-0.09375,-0.107422,-0.267578,0.063416,-0.147034,-0.824341,-0.54303,down
293047,2.703125,8.203125,-3.691406,-0.166016,-0.154297,-0.363281,0.062683,-0.146423,-0.82428,-0.543335,down
293052,2.625,8.207031,-3.65625,-0.166016,-0.154297,-0.363281,0.062683,-0.146423,-0.82428,-0.543335,down
293058,2.625,8.207031,-3.617188,-0.285156,-0.216797,-0.458984,0.062683,-0.146423,-0.82428,-0.543335,down
293063,2.585938,8.167969,-3.617188,-0.328125,-0.253906,-0.505859,0.062683,-0.146423,-0.82428,-0.543335,down
293068,2.511719,8.164063,-3.578125,-0.328125,-0.253906,-0.505859,0.062683,-0.146423,-0.82428,-0.543335,down
293074,2.511719,8.085938,-3.5,-0.328125,-0.253906,-0.505859,0.056641,-0.142822,-0.823303,-0.546387,down
293080,2.472656,8.050781,-3.425781,-0.486328,-0.359375,-0.65625,0.053101,-0.141052,-0.822571,-0.548279,down
293085,2.394531,8.007813,-3.386719,-0.574219,-0.4375,-0.751953,0.053101,-0.141052,-0.822571,-0.548279,down
293090,2.394531,8.007813,-3.347656,-0.574219,-0.4375,-0.751953,0.051147,-0.140137,-0.822144,-0.549377,down
293095,2.320313,8.007813,-3.308594,-0.634766,-0.509766,-0.826172,0.048706,-0.139038,-0.821594,-0.550659,down
293100,2.203125,7.96875,-3.15625,-0.634766,-0.509766,-0.826172,0.046448,-0.138062,-0.821106,-0.551819,down
293105,2.167969,7.96875,-3.195313,-0.634766,-0.509766,-0.826172,0.044067,-0.137024,-0.820618,-0.55304,down
293110,2.089844,7.972656,-3.234375,-0.634766,-0.509766,-0.826172,0.041565,-0.135986,-0.820068,-0.554321,down
293115,2.050781,8.011719,-3.234375,-0.673828,-0.605469,-0.927734,0.036072,-0.133789,-0.81897,-0.556824,down
293120,1.972656,8.125,-3.308594,-0.673828,-0.605469,-0.927734,0.036072,-0.133789,-0.81897,-0.556824,down
293125,1.898438,8.089844,-3.308594,-0.673828,-0.605469,-0.927734,0.030396,-0.131531,-0.817871,-0.559326,down
293130,1.898438,8.089844,-3.308594,-0.673828,-0.605469,-0.927734,0.030396,-0.131531,-0.817871,-0.559326,down
293135,1.859375,8.164063,-3.347656,-0.679687,-0.697266,-1.023438,0.030396,-0.131531,-0.817871,-0.559326,down
293140,1.746094,8.394531,-3.5,-0.681641,-0.705078,-1.044922,0.021545,-0.128052,-0.816223,-0.562927,down
293145,1.707031,8.585938,-3.617188,-0.689453,-0.673828,-1.074219,0.021545,-0.128052,-0.816223,-0.562927,down
293150,1.707031,8.703125,-3.808594,-0.689453,-0.673828,-1.074219,0.018372,-0.12677,-0.815613,-0.564209,down
293155,1.707031,8.890625,-3.847656,-0.708984,-0.675781,-1.076172,0.018372,-0.12677,-0.815613,-0.564209,down
293160,1.707031,8.890625,-3.847656,-0.708984,-0.675781,-1.076172,0.00885,-0.122681,-0.81366,-0.568176,down
293165,1.667969,9.011719,-3.921875,-0.751953,-0.607422,-1.074219,0.00885,-0.122681,-0.81366,-0.568176,down
293170,1.667969,9.050781,-4.039062,-0.751953,-0.607422,-1.074219,0.006104,-0.12146,-0.812988,-0.569397,down
293175,1.667969,9.199219,-4.421875,-0.771484,-0.535156,-1.0625,0.006104,-0.12146,-0.812988,-0.569397,down
293180,1.707031,9.277344,-4.496094,-0.771484,-0.535156,-1.0625,0.00061,-0.11853,-0.811462,-0.572266,down
293185,1.707031,9.3125,-4.535156,-0.771484,-0.535156,-1.0625,0.002136,0.116821,0.810547,0.573853,down
293190,1.667969,9.394531,-4.535156,-0.863281,-0.214844,-1.011719,0.002136,0.116821,0.810547,0.573853,down
293195,1.667969,9.433594,-4.460937,-0.863281,-0.214844,-1.011719,0.006592,0.113403,0.808777,0.577087,down
293200,1.628906,9.46875,-4.460937,-0.863281,-0.214844,-1.011719,0.008667,0.111389,0.807739,0.578857,down
293206,1.628906,9.46875,-4.34375,-0.855469,0.054687,-0.972656,0.008667,0.111389,0.807739,0.578857,down
293211,1.515625,9.472656,-4.113281,-0.855469,0.054687,-0.972656,0.013245,0.105347,0.804932,0.583801,down
293216,1.398438,9.390625,-4.0,-0.769531,0.177734,-0.921875,0.014648,0.102844,0.803894,0.585632,down
293221,1.363281,9.394531,-3.808594,-0.71875,0.210937,-0.888672,0.015686,0.100769,0.803101,0.587036,down
293226,1.363281,9.355469,-3.691406,-0.664062,0.244141,-0.855469,0.016602,0.098511,0.802307,0.588501,down
293232,1.171875,9.15625,-3.273438,-0.664062,0.244141,-0.855469,0.017395,0.096497,0.801697,0.589661,down
293238,1.09375,9.089844,-3.082031,-0.537109,0.296875,-0.791016,0.017395,0.096497,0.801697,0.589661,down
293243,1.015625,9.007813,-2.964844,-0.460937,0.300781,-0.751953,0.017395,0.096497,0.801697,0.589661,down
293249,0.863281,8.96875,-2.773438,-0.460937,0.300781,-0.751953,0.019226,0.090332,0.800049,0.592773,down
293255,0.785156,8.972656,-2.695313,-0.316406,0.292969,-0.685547,0.019226,0.090332,0.800049,0.592773,down
293260,0.710937,8.972656,-2.582031,-0.205078,0.255859,-0.646484,0.019226,0.090332,0.800049,0.592773,down
293266,0.632812,9.011719,-2.503906,-0.205078,0.255859,-0.646484,0.020569,0.084778,0.799255,0.594604,down
293271,0.558594,9.011719,-2.46875,-0.134766,0.208984,-0.617187,0.020996,0.083069,0.799133,0.594971,down
293276,0.558594,9.046875,-2.46875,-0.134766,0.208984,-0.617187,0.022034,0.079651,0.799072,0.595581,down
293281,0.480469,9.089844,-2.390625,-0.134766,0.208984,-0.617187,0.022034,0.079651,0.799072,0.595581,down
293286,0.402344,9.128906,-2.351563,-0.134766,0.208984,-0.617187,0.023132,0.076782,0.799011,0.595886,down
293291,0.367188,9.128906,-2.3125,-0.097656,0.060547,-0.611328,0.023132,0.076782,0.799011,0.595886,down
293296,0.328125,9.089844,-2.3125,-0.128906,0.023437,-0.634766,0.023926,0.075256,0.799011,0.596069,down
293301,0.289063,9.089844,-2.238281,-0.128906,0.023437,-0.634766,0.025635,0.072571,0.798889,0.596558,down
293306,0.328125,9.046875,-2.238281,-0.128906,0.023437,-0.634766,0.026611,0.071228,0.798706,0.596863,down
293311,0.25,9.011719,-2.238281,-0.292969,-0.070312,-0.701172,0.027832,0.069824,0.798462,0.597351,down
293316,0.210937,8.972656,-2.277344,-0.292969,-0.070312,-0.701172,0.027832,0.069824,0.798462,0.597351,down
293321,0.175781,8.929688,-2.277344,-0.292969,-0.070312,-0.701172,0.030334,0.067078,0.797668,0.598572,down
293326,0.097656,8.929688,-2.199219,-0.490234,-0.175781,-0.806641,0.031982,0.065552,0.797058,0.599487,down
293331,0.136719,8.972656,-2.199219,-0.490234,-0.175781,-0.806641,0.031982,0.065552,0.797058,0.599487,down
293336,0.097656,8.96875,-2.160156,-0.552734,-0.210937,-0.855469,0.0354,0.062683,0.795715,0.601379,down
293341,0.097656,8.96875,-2.160156,-0.552734,-0.210937,-0.855469,0.0354,0.062683,0.795715,0.601379,down
293346,0.058594,9.050781,-2.199219,-0.552734,-0.210937,-0.855469,0.037354,0.061157,0.794861,0.602539,down
293351,-0.015625,9.089844,-2.199219,-0.552734,-0.210937,-0.855469,0.04187,0.0578,0.792847,0.605225,down
293356,-0.09375,9.125,-2.199219,-0.552734,-0.210937,-0.855469,0.04187,0.0578,0.792847,0.605225,down
293361,-0.132812,9.125,-2.199219,-0.552734,-0.210937,-0.855469,0.046814,0.05426,0.790588,0.608154,down
293366,-0.207031,9.125,-2.199219,-0.921875,-0.414062,-1.150391,0.046814,0.05426,0.790588,0.608154,down
293371,-0.246094,9.089844,-2.121094,-0.921875,-0.414062,-1.150391,0.049377,0.05249,0.789307,0.609741,down
293377,-0.324219,9.128906,-2.199219,-0.921875,-0.414062,-1.150391,0.054749,0.048828,0.786682,0.612976,down
293382,-0.402344,9.15625,-2.121094,-0.96875,-0.451172,-1.244141,0.057556,0.046936,0.785339,0.614624,down
293388,-0.402344,9.199219,-2.121094,-0.960937,-0.480469,-1.267578,0.060547,0.044983,0.783875,0.616333,down
293394,-0.515625,9.394531,-2.085938,-0.960937,-0.480469,-1.267578,0.063599,0.042969,0.78241,0.617981,down
293399,-0.59375,9.433594,-2.046875,-0.966797,-0.515625,-1.316406,0.063599,0.042969,0.78241,0.617981,down
293404,-0.628906,9.433594,-2.046875,-0.986328,-0.515625,-1.337891,0.063599,0.042969,0.78241,0.617981,down
293409,-0.667969,9.472656,-1.96875,-0.992187,-0.53125,-1.359375,0.063599,0.042969,0.78241,0.617981,down
293415,-0.785156,9.394531,-1.855469,-0.992187,-0.53125,-1.359375,0.063599,0.042969,0.78241,0.617981,down
293421,-0.820312,9.433594,-1.855469,-1.015625,-0.550781,-1.408203,0.063599,0.042969,0.78241,0.617981,down
293426,-0.859375,9.390625,-1.816406,-1.015625,-0.550781,-1.408203,0.08606,0.028564,0.771729,0.629456,down
293432,-1.011719,9.390625,-1.625,-1.015625,-0.550781,-1.408203,0.089417,0.026489,0.770142,0.631042,down
293437,-1.050781,9.351563,-1.585938,-1.025391,-0.580078,-1.441406,0.092773,0.024353,0.768494,0.632629,down
293442,-1.128906,9.316406,-1.507813,-1.017578,-0.585937,-1.447266,0.092773,0.024353,0.768494,0.632629,down
293447,-1.167969,9.238281,-1.472656,-1.017578,-0.585937,-1.447266,0.09967,0.020081,0.765137,0.635803,down
293452,-1.203125,9.160156,-1.394531,-0.980469,-0.587891,-1.464844,0.103638,0.017639,0.763245,0.637512,down
293458,-1.28125,9.128906,-1.355469,-0.980469,-0.587891,-1.464844,0.106689,0.015747,0.761841,0.638733,down
293463,-1.394531,9.125,-1.28125,-0.900391,-0.605469,-1.474609,0.106689,0.015747,0.761841,0.638733,down
293469,-1.433594,9.085938,-1.242188,-0.900391,-0.605469,-1.474609,0.113708,0.011475,0.758667,0.641357,down
293474,-1.472656,9.089844,-1.203125,-0.789062,-0.646484,-1.480469,0.117249,0.00946,0.757263,0.642456,down
293479,-1.472656,9.089844,-1.203125,-0.789062,-0.646484,-1.480469,0.117249,0.00946,0.757263,0.642456,down
293484,-1.664063,9.195313,-1.050781,-0.736328,-0.666016,-1.480469,0.117249,0.00946,0.757263,0.642456,down
293490,-1.894531,9.355469,-1.089844,-0.675781,-0.671875,-1.470703,0.128113,0.00354,0.753296,0.645081,down
293496,-2.007813,9.472656,-1.089844,-0.541016,-0.724609,-1.466797,0.135559,-6.1e-05,0.751099,0.646179,down
293501,-2.085938,9.777344,-1.164063,-0.541016,-0.724609,-1.466797,0.139282,-0.001709,0.75,0.646606,down
293506,-2.164063,9.851563,-1.164063,-0.541016,-0.724609,-1.466797,0.143127,-0.003418,0.748901,0.647034,down
293511,-2.277344,10.003906,-1.164063,-0.541016,-0.724609,-1.466797,0.143127,-0.003418,0.748901,0.647034,down
293516,-2.355469,10.078125,-1.203125,-0.519531,-0.810547,-1.435547,0.150818,-0.006592,0.746582,0.647949,down
293521,-2.429688,10.117188,-1.28125,-0.519531,-0.810547,-1.435547,0.150818,-0.006592,0.746582,0.647949,down
293526,-2.429688,10.117188,-1.242188,-0.751953,-0.800781,-1.410156,0.154968,-0.008362,0.745117,0.648682,down
293531,-2.429688,10.078125,-1.242188,-0.751953,-0.800781,-1.410156,0.161926,-0.011475,0.742187,0.650269,down
293536,-2.507813,10.003906,-1.28125,-0.751953,-0.800781,-1.410156,0.161926,-0.011475,0.742187,0.650269,down
293541,-2.46875,9.960938,-1.316406,-0.751953,-0.800781,-1.410156,0.169495,-0.015137,0.738342,0.652588,down
293546,-2.546875,9.894531,-1.316406,-0.751953,-0.800781,-1.410156,0.169495,-0.015137,0.738342,0.652588,down
293551,-2.546875,9.816406,-1.242188,-1.0625,-0.683594,-1.351563,0.175964,-0.018677,0.734375,0.655273,down
293557,-2.582031,9.695313,-1.164063,-1.0625,-0.683594,-1.351563,0.17926,-0.02063,0.732117,0.65686,down
293562,-2.582031,9.621094,-1.125,-1.169922,-0.550781,-1.275391,0.182556,-0.022705,0.729736,0.658508,down
293568,-2.738281,9.429688,-1.089844,-1.169922,-0.550781,-1.275391,0.185181,-0.024536,0.727722,0.659973,down
293574,-2.851563,9.355469,-0.972656,-1.169922,-0.550781,-1.275391,0.188049,-0.02655,0.725525,0.661499,down
293579,-2.851563,9.277344,-0.933594,-1.025391,-0.404297,-1.166016,0.188049,-0.02655,0.725525,0.661499,down
293584,-2.8125,9.199219,-0.820312,-0.947266,-0.357422,-1.136719,0.188049,-0.02655,0.725525,0.661499,down
293589,-2.8125,9.199219,-0.820312,-0.847656,-0.318359,-1.097656,0.195496,-0.032349,0.719849,0.665222,down
293594,-2.929688,9.128906,-0.742187,-0.847656,-0.318359,-1.097656,0.195496,-0.032349,0.719849,0.665222,down
293599,-2.929688,9.128906,-0.742187,-0.65625,-0.234375,-1.027344,0.19989,-0.036011,0.716919,0.666931,down
293604,-3.121094,9.15625,-0.589844,-0.65625,-0.234375,-1.027344,0.19989,-0.036011,0.716919,0.666931,down
293610,-3.273438,9.238281,-0.511719,-0.65625,-0.234375,-1.027344,0.203857,-0.03949,0.7146,0.66803,down
293615,-3.351563,9.273438,-0.511719,-0.65625,-0.234375,-1.027344,0.205627,-0.041138,0.713684,0.668335,down
293620,-3.386719,9.316406,-0.4375,-0.361328,-0.148437,-0.888672,0.205627,-0.041138,0.713684,0.668335,down
293625,-3.464844,9.351563,-0.359375,-0.316406,-0.132812,-0.863281,0.205627,-0.041138,0.713684,0.668335,down
293631,-3.578125,9.355469,-0.359375,-0.316406,-0.132812,-0.863281,0.212158,-0.04718,0.710815,0.669006,down
293636,-3.578125,9.394531,-0.320313,-0.316406,-0.132812,-0.863281,0.212158,-0.04718,0.710815,0.669006,down
293641,-3.578125,9.351563,-0.320313,-0.277344,-0.107422,-0.753906,0.214966,-0.049805,0.709534,0.669189,down
293646,-3.617188,9.3125,-0.320313,-0.277344,-0.107422,-0.753906,0.214966,-0.049805,0.709534,0.669189,down
293652,-3.617188,9.3125,-0.246094,-0.261719,-0.113281,-0.611328,0.214966,-0.049805,0.709534,0.669189,down
293657,-3.65625,9.3125,-0.246094,-0.261719,-0.113281,-0.611328,0.218689,-0.053223,0.707764,0.669617,down
293662,-3.695313,9.273438,-0.207031,-0.261719,-0.113281,-0.611328,0.219788,-0.054138,0.707214,0.669739,down
293667,-3.695313,9.234375,-0.246094,-0.261719,-0.113281,-0.611328,0.220642,-0.054871,0.706787,0.669861,down
293672,-3.734375,9.238281,-0.207031,-0.150391,-0.134766,-0.412109,0.22168,-0.055542,0.70636,0.669983,down
293677,-3.734375,9.238281,-0.207031,-0.150391,-0.134766,-0.412109,0.222534,-0.056152,0.705994,0.669983,down
293682,-3.734375,9.125,-0.207031,-0.150391,-0.134766,-0.412109,0.223267,-0.056519,0.70575,0.669983,down
293687,-3.769531,9.085938,-0.207031,-0.150391,-0.134766,-0.412109,0.224121,-0.056885,0.705505,0.669922,down
293692,-3.734375,9.007813,-0.285156,-0.150391,-0.134766,-0.412109,0.22467,-0.057068,0.705383,0.6698,down
293697,-3.734375,9.007813,-0.246094,0.058594,-0.142578,-0.216797,0.22467,-0.057068,0.705383,0.6698,down
293703,-3.769531,8.96875,-0.207031,0.058594,-0.142578,-0.216797,0.22467,-0.057068,0.705383,0.6698,down
293708,-3.734375,8.96875,-0.285156,0.111328,-0.132812,-0.166016,0.22467,-0.057068,0.705383,0.6698,down
293714,-3.769531,8.933594,-0.320313,0.144531,-0.123047,-0.148437,0.22467,-0.057068,0.705383,0.6698,down
293720,-3.769531,9.007813,-0.285156,0.144531,-0.123047,-0.148437,0.227417,-0.057373,0.70575,0.668518,down
293725,-3.769531,9.050781,-0.320313,0.144531,-0.123047,-0.148437,0.227417,-0.057373,0.70575,0.668518,down
293730,-3.808594,9.125,-0.320313,0.191406,-0.101563,-0.101563,0.227417,-0.057373,0.70575,0.668518,down
293735,-3.808594,9.160156,-0.320313,0.189453,-0.097656,-0.091797,0.227417,-0.057373,0.70575,0.668518,down
293740,-3.847656,9.238281,-0.359375,0.201172,-0.09375,-0.068359,0.227417,-0.057373,0.70575,0.668518,down
293745,-3.808594,9.238281,-0.320313,0.201172,-0.09375,-0.068359,0.229187,-0.056824,0.70697,0.666687,down
293751,-3.808594,9.199219,-0.359375,0.1875,-0.089844,-0.021484,0.229187,-0.056824,0.70697,0.666687,down
293757,-3.808594,9.195313,-0.320313,0.1875,-0.089844,-0.021484,0.229858,-0.056213,0.707764,0.665649,down
293762,-3.769531,9.128906,-0.359375,0.164062,-0.085937,0.009766,0.229858,-0.056213,0.707764,0.665649,down
293767,-3.769531,9.089844,-0.359375,0.164062,-0.085937,0.009766,0.230164,-0.055725,0.708191,0.6651,down
293772,-3.734375,9.089844,-0.398438,0.164062,-0.085937,0.009766,0.230347,-0.05542,0.708435,0.664856,down
293777,-3.695313,9.007813,-0.359375,0.164062,-0.085937,0.009766,0.230469,-0.055176,0.708618,0.664673,down
293782,-3.695313,9.050781,-0.359375,0.115234,-0.083984,0.029297,0.230469,-0.055176,0.708618,0.664673,down
293787,-3.734375,9.007813,-0.320313,0.115234,-0.083984,0.029297,0.230652,-0.054687,0.708923,0.664307,down
293793,-3.65625,8.972656,-0.359375,0.115234,-0.083984,0.029297,0.230774,-0.054443,0.709045,0.664124,down
293798,-3.617188,8.972656,-0.398438,0.107422,-0.078125,0.023437,0.230774,-0.054443,0.709045,0.664124,down
293803,-3.65625,8.929688,-0.359375,0.105469,-0.072266,0.025391,0.230774,-0.054443,0.709045,0.664124,down
293808,-3.617188,8.929688,-0.359375,0.109375,-0.070312,0.023437,0.230774,-0.054443,0.709045,0.664124,down
293814,-3.578125,8.929688,-0.398438,0.109375,-0.070312,0.023437,0.23114,-0.053528,0.709595,0.663452,down
293819,-3.578125,8.929688,-0.359375,0.117188,-0.058594,0.021484,0.23114,-0.053528,0.709595,0.663452,down
293825,-3.578125,8.929688,-0.359375,0.117188,-0.048828,0.015625,0.23114,-0.053528,0.709595,0.663452,down
293830,-3.578125,8.929688,-0.398438,0.115234,-0.046875,0.021484,0.23114,-0.053528,0.709595,0.663452,down
293835,-3.578125,8.929688,-0.359375,0.105469,-0.041016,0.019531,0.23114,-0.053528,0.709595,0.663452,down
293840,-3.578125,8.890625,-0.398438,0.105469,-0.042969,0.021484,0.23114,-0.053528,0.709595,0.663452,down
293845,-3.542969,8.933594,-0.359375,0.105469,-0.042969,0.021484,0.231506,-0.052429,0.710571,0.662354,down
293851,-3.542969,8.894531,-0.359375,0.101563,-0.03125,0.033203,0.231506,-0.052429,0.710571,0.662354,down
293856,-3.542969,8.933594,-0.359375,0.101563,-0.03125,0.033203,0.231567,-0.052063,0.710937,0.661987,down
293862,-3.578125,9.046875,-0.359375,0.105469,-0.027344,0.037109,0.231567,-0.052063,0.710937,0.661987,down
293867,-3.617188,9.011719,-0.398438,0.105469,-0.027344,0.037109,0.231567,-0.051514,0.711365,0.66156,down
293872,-3.617188,9.011719,-0.359375,0.105469,-0.027344,0.037109,0.231567,-0.051392,0.711487,0.661438,down
293877,-3.578125,9.046875,-0.359375,0.080078,-0.03125,0.037109,0.231567,-0.051392,0.711487,0.661438,down
293882,-3.617188,8.96875,-0.320313,0.080078,-0.03125,0.037109,0.231628,-0.051025,0.711731,0.661194,down
293887,-3.617188,8.972656,-0.359375,0.080078,-0.03125,0.037109,0.231628,-0.050903,0.711853,0.661072,down
293892,-3.578125,8.972656,-0.359375,0.080078,-0.03125,0.037109,0.231628,-0.050903,0.711853,0.661072,down
293897,-3.578125,8.972656,-0.359375,0.0625,-0.039063,0.035156,0.231628,-0.050598,0.712036,0.660889,down
293902,-3.617188,8.972656,-0.359375,0.0625,-0.039063,0.035156,0.231689,-0.050415,0.712158,0.660767,down
293907,-3.65625,9.011719,-0.359375,0.0625,-0.039063,0.035156,0.231689,-0.050293,0.712219,0.660706,down
293912,-3.65625,8.972656,-0.359375,0.037109,-0.033203,0.019531,0.231689,-0.050293,0.712219,0.660706,down
293917,-3.617188,8.96875,-0.320313,0.037109,-0.033203,0.019531,0.23175,-0.050171,0.71228,0.660645,down
293922,-3.65625,8.972656,-0.359375,0.037109,-0.033203,0.019531,0.23175,-0.049927,0.712341,0.660583,down
293927,-3.65625,9.007813,-0.320313,0.037109,-0.033203,0.019531,0.23175,-0.049927,0.712341,0.660583,down
293932,-3.617188,8.96875,-0.320313,0.027344,-0.029297,0.017578,0.231812,-0.049744,0.712402,0.660522,down
293937,-3.65625,9.007813,-0.320313,0.027344,-0.029297,0.017578,0.231812,-0.049622,0.712463,0.660461,down
293942,-3.65625,8.96875,-0.285156,0.033203,-0.019531,0.023437,0.231812,-0.049622,0.712463,0.660461,down
293947,-3.617188,8.972656,-0.359375,0.033203,-0.019531,0.023437,0.231812,-0.049438,0.712524,0.6604,down
293952,-3.65625,8.96875,-0.320313,0.033203,-0.019531,0.023437,0.231812,-0.049438,0.712524,0.6604,down
293957,-3.65625,8.96875,-0.285156,0.03125,-0.023437,0.029297,0.231812,-0.049194,0.712646,0.660278,down
293962,-3.65625,8.894531,-0.320313,0.03125,-0.023437,0.029297,0.231812,-0.049194,0.712646,0.660278,down
293967,-3.65625,8.96875,-0.285156,0.048828,-0.013672,0.037109,0.231812,-0.049194,0.712646,0.660278,down
293973,-3.65625,8.894531,-0.320313,0.048828,-0.013672,0.037109,0.23175,-0.048828,0.71283,0.660156,down
293979,-3.65625,8.851563,-0.285156,0.048828,-0.013672,0.037109,0.231689,-0.048706,0.712952,0.660034,down
293984,-3.65625,8.851563,-0.246094,0.066406,-0.015625,0.052734,0.231689,-0.048706,0.712952,0.660034,down
293990,-3.617188,8.894531,-0.285156,0.068359,-0.017578,0.0625,0.231689,-0.048706,0.712952,0.660034,down
293996,-3.695313,8.890625,-0.285156,0.068359,-0.017578,0.0625,0.231689,-0.048706,0.712952,0.660034,down
294002,-3.695313,8.890625,-0.320313,0.087891,-0.013672,0.054687,0.231689,-0.048706,0.712952,0.660034,down
294007,-3.65625,8.894531,-0.320313,0.087891,-0.013672,0.054687,0.231384,-0.047791,0.713562,0.659546,down
294012,-3.695313,8.929688,-0.285156,0.087891,-0.009766,0.054687,0.231262,-0.047424,0.713867,0.659302,down
294017,-3.65625,8.933594,-0.285156,0.087891,-0.009766,0.054687,0.231262,-0.047424,0.713867,0.659302,down
294022,-3.65625,8.894531,-0.285156,0.082031,-0.009766,0.048828,0.231262,-0.047424,0.713867,0.659302,down
294027,-3.65625,8.894531,-0.285156,0.082031,-0.009766,0.048828,0.231201,-0.047058,0.714172,0.659058,down
294033,-3.617188,8.851563,-0.285156,0.074219,-0.021484,0.050781,0.231201,-0.047058,0.714172,0.659058,down
294038,-3.65625,8.851563,-0.285156,0.074219,-0.021484,0.050781,0.231018,-0.046509,0.714539,0.658691,down
294043,-3.65625,8.851563,-0.320313,0.074219,-0.021484,0.050781,0.231018,-0.046326,0.714661,0.65863,down
294048,-3.617188,8.8125,-0.285156,0.074219,-0.021484,0.050781,0.230957,-0.046204,0.714722,0.658569,down
294053,-3.617188,8.8125,-0.285156,0.052734,-0.019531,0.046875,0.230957,-0.046082,0.714783,0.658447,down
294058,-3.617188,8.851563,-0.320313,0.052734,-0.019531,0.046875,0.230896,-0.045898,0.714905,0.658386,down
294063,-3.617188,8.777344,-0.285156,0.052734,-0.019531,0.046875,0.230896,-0.045776,0.714966,0.658325,down
294069,-3.617188,8.8125,-0.320313,0.052734,-0.019531,0.046875,0.230835,-0.045654,0.715088,0.658203,down
294074,-3.578125,8.777344,-0.320313,0.074219,-0.013672,0.037109,0.230835,-0.045471,0.71521,0.658142,down
294079,-3.617188,8.8125,-0.320313,0.076172,-0.017578,0.035156,0.230835,-0.045471,0.71521,0.658142,down
294084,-3.65625,8.8125,-0.320313,0.076172,-0.017578,0.035156,0.230835,-0.045471,0.71521,0.658142,down
294089,-3.65625,8.8125,-0.320313,0.082031,-0.021484,0.039063,0.230835,-0.045471,0.71521,0.658142,down
294094,-3.65625,8.816406,-0.359375,0.082031,-0.021484,0.039063,0.230774,-0.044861,0.715759,0.657654,down
294099,-3.617188,8.8125,-0.285156,0.082031,-0.021484,0.039063,0.230774,-0.044739,0.71582,0.657532,down
294105,-3.65625,8.8125,-0.320313,0.082031,-0.021484,0.039063,0.230774,-0.044739,0.71582,0.657532,down
294111,-3.65625,8.8125,-0.320313,0.076172,-0.017578,0.019531,0.230774,-0.044434,0.716064,0.657288,down
294117,-3.617188,8.816406,-0.359375,0.064453,-0.023437,0.011719,0.230774,-0.044434,0.716064,0.657288,down
294122,-3.617188,8.777344,-0.320313,0.064453,-0.023437,0.011719,0.230835,-0.04425,0.716248,0.657043,down
294127,-3.617188,8.8125,-0.320313,0.052734,-0.021484,0.007813,0.230835,-0.04425,0.716248,0.657043,down
294133,-3.617188,8.816406,-0.359375,0.044922,-0.023437,0.007813,0.230835,-0.04425,0.716248,0.657043,down
294138,-3.617188,8.816406,-0.359375,0.044922,-0.023437,0.007813,0.230957,-0.043884,0.716553,0.656677,down
294143,-3.65625,8.816406,-0.398438,0.035156,-0.025391,0.0,0.231018,-0.043823,0.716614,0.656616,down
294148,-3.65625,8.816406,-0.398438,0.035156,-0.025391,0.0,0.231018,-0.043823,0.716614,0.656616,down
294153,-3.617188,8.816406,-0.398438,0.042969,-0.023437,-0.005859,0.231018,-0.043823,0.716614,0.656616,down
294159,-3.578125,8.816406,-0.359375,0.042969,-0.023437,-0.005859,0.231201,-0.04364,0.716797,0.656433,down
294164,-3.617188,8.773438,-0.398438,0.050781,-0.025391,-0.009766,0.231201,-0.04364,0.716797,0.656433,down
294170,-3.617188,8.773438,-0.398438,0.058594,-0.021484,-0.015625,0.231201,-0.04364,0.716797,0.656433,down
294176,-3.617188,8.773438,-0.398438,0.052734,-0.023437,-0.019531,0.231201,-0.04364,0.716797,0.656433,down
294181,-3.617188,8.773438,-0.398438,0.050781,-0.013672,-0.029297,0.231201,-0.04364,0.716797,0.656433,down
294186,-3.578125,8.773438,-0.398438,0.050781,-0.023437,-0.025391,0.231201,-0.04364,0.716797,0.656433,down
294192,-3.617188,8.773438,-0.398438,0.044922,-0.013672,-0.025391,0.231689,-0.043396,0.717224,0.655762,down
294197,-3.617188,8.773438,-0.398438,0.044922,-0.013672,-0.025391,0.231812,-0.043335,0.717285,0.655701,down
294203,-3.617188,8.773438,-0.359375,0.041016,-0.013672,-0.025391,0.231934,-0.043335,0.717407,0.655518,down
294208,-3.65625,8.816406,-0.359375,0.041016,-0.013672,-0.025391,0.231934,-0.043335,0.717407,0.655518,down
294213,-3.65625,8.816406,-0.359375,0.039063,-0.007813,-0.042969,0.231934,-0.043335,0.717407,0.655518,down
294218,-3.65625,8.855469,-0.398438,0.039063,-0.007813,-0.042969,0.232239,-0.043396,0.71759,0.655212,down
294223,-3.617188,8.816406,-0.359375,0.039063,-0.007813,-0.042969,0.232239,-0.043396,0.71759,0.655212,down
294228,-3.65625,8.816406,-0.359375,0.039063,-0.007813,-0.042969,0.2323,-0.043457,0.717651,0.65509,down
294233,-3.65625,8.855469,-0.398438,0.039063,-0.007813,-0.056641,0.2323,-0.043457,0.717651,0.65509,down
294238,-3.695313,8.855469,-0.4375,0.039063,-0.007813,-0.056641,0.232666,-0.043579,0.717834,0.654785,down
294243,-3.695313,8.894531,-0.398438,0.039063,-0.007813,-0.056641,0.232666,-0.043579,0.717834,0.654785,down
294248,-3.65625,8.855469,-0.398438,0.039063,-0.007813,-0.056641,0.23291,-0.043701,0.717957,0.654541,down
294253,-3.695313,8.890625,-0.4375,0.039063,-0.007813,-0.056641,0.23291,-0.043701,0.717957,0.654541,down
294258,-3.707031,8.972656,-0.351563,0.025391,-0.003906,-0.080078,0.23291,-0.043701,0.717957,0.654541,down
294264,-3.707031,8.972656,-0.351563,0.025391,0.0,-0.091797,0.233337,-0.044006,0.718079,0.654236,down
294269,-3.667969,8.96875,-0.390625,0.025391,0.0,-0.091797,0.233459,-0.044128,0.718079,0.654175,down
294274,-3.632813,8.96875,-0.390625,0.011719,-0.005859,-0.101563,0.233643,-0.044312,0.718079,0.654053,down
294280,-3.632813,8.972656,-0.351563,0.0,-0.009766,-0.105469,0.233826,-0.044434,0.718079,0.653992,down
294285,-3.667969,8.972656,-0.351563,0.0,-0.009766,-0.105469,0.234009,-0.044617,0.718018,0.653931,down
294291,-3.707031,8.972656,-0.351563,-0.019531,-0.009766,-0.117188,0.234009,-0.044617,0.718018,0.653931,down
294296,-3.707031,9.011719,-0.3125,-0.021484,-0.007813,-0.125,0.234009,-0.044617,0.718018,0.653931,down
294302,-3.667969,9.007813,-0.273438,-0.021484,-0.007813,-0.125,0.234009,-0.044617,0.718018,0.653931,down
294307,-3.746094,9.046875,-0.3125,-0.050781,-0.013672,-0.146484,0.234009,-0.044617,0.718018,0.653931,down
294313,-3.746094,9.128906,-0.351563,-0.052734,-0.03125,-0.179687,0.234009,-0.044617,0.718018,0.653931,down
294318,-3.746094,9.125,-0.273438,-0.052734,-0.03125,-0.179687,0.23584,-0.046326,0.717407,0.65387,down
294323,-3.746094,9.195313,-0.273438,-0.052734,-0.03125,-0.179687,0.236267,-0.046692,0.717224,0.65387,down
294328,-3.746094,9.234375,-0.3125,-0.052734,-0.03125,-0.179687,0.236267,-0.046692,0.717224,0.65387,down
294333,-3.707031,9.316406,-0.351563,-0.09375,-0.044922,-0.226562,0.236267,-0.046692,0.717224,0.65387,down
294338,-3.746094,9.355469,-0.3125,-0.09375,-0.044922,-0.226562,0.237671,-0.047791,0.716553,0.654053,down
294343,-3.785156,9.390625,-0.3125,-0.164062,-0.052734,-0.265625,0.237671,-0.047791,0.716553,0.654053,down
294348,-3.746094,9.390625,-0.3125,-0.164062,-0.052734,-0.265625,0.238647,-0.048706,0.715881,0.654358,down
294353,-3.785156,9.355469,-0.3125,-0.164062,-0.052734,-0.265625,0.239136,-0.049255,0.715515,0.654541,down
294358,-3.785156,9.355469,-0.3125,-0.244141,-0.054687,-0.296875,0.239136,-0.049255,0.715515,0.654541,down
294363,-3.785156,9.351563,-0.273438,-0.244141,-0.054687,-0.296875,0.239685,-0.049866,0.715027,0.654785,down
294368,-3.785156,9.351563,-0.234375,-0.294922,-0.068359,-0.335938,0.239685,-0.049866,0.715027,0.654785,down
294373,-3.863281,9.3125,-0.273438,-0.294922,-0.068359,-0.335938,0.241516,-0.051758,0.71344,0.655762,down
294378,-3.863281,9.394531,-0.273438,-0.308594,-0.089844,-0.439453,0.241516,-0.051758,0.71344,0.655762,down
294383,-3.9375,9.46875,-0.234375,-0.308594,-0.089844,-0.439453,0.24231,-0.052551,0.712769,0.656067,down
294388,-3.976563,9.507813,-0.199219,-0.308594,-0.089844,-0.439453,0.244263,-0.054382,0.711487,0.656616,down
294393,-4.015625,9.542969,-0.160156,-0.308594,-0.089844,-0.439453,0.245361,-0.055542,0.710754,0.656921,down
294398,-4.128906,9.582031,-0.234375,-0.308594,-0.089844,-0.439453,0.245361,-0.055542,0.710754,0.656921,down
294403,-4.207031,9.660156,-0.199219,-0.435547,-0.121094,-0.742187,0.248108,-0.058289,0.708984,0.657593,down
294408,-4.320312,9.890625,-0.082031,-0.5,-0.164062,-0.923828,0.248108,-0.058289,0.708984,0.657593,down
294413,-4.320312,9.890625,-0.082031,-0.5,-0.164062,-0.923828,0.251587,-0.061523,0.706848,0.658264,down
294418,-4.550781,10.277344,-0.007813,-0.5,-0.164062,-0.923828,0.251587,-0.061523,0.706848,0.658264,down
294423,-4.742187,10.582031,0.03125,-0.648437,-0.259766,-1.089844,0.251587,-0.061523,0.706848,0.658264,down
294428,-4.855469,10.617188,0.03125,-0.648437,-0.259766,-1.089844,0.258606,-0.067566,0.702148,0.659973,down
294433,-4.742187,10.660156,0.148437,-0.648437,-0.259766,-1.089844,0.258606,-0.067566,0.702148,0.659973,down
294438,-4.742187,10.847656,0.375,-0.964844,-0.488281,-1.355469,0.264282,-0.071838,0.697998,0.661682,down
294443,-4.820312,11.042969,0.566406,-0.964844,-0.488281,-1.355469,0.264282,-0.071838,0.697998,0.661682,down
294448,-4.894531,11.0,0.605469,-0.964844,-0.488281,-1.355469,0.267395,-0.074158,0.695374,0.662903,down
294453,-4.894531,11.0,0.605469,-1.445313,-0.650391,-1.478516,0.27063,-0.076477,0.692505,0.664368,down
294458,-4.972656,10.964844,0.566406,-1.660156,-0.658203,-1.476563,0.27063,-0.076477,0.692505,0.664368,down
294463,-4.972656,10.964844,0.566406,-1.894531,-0.675781,-1.460938,0.277222,-0.081665,0.685425,0.668335,down
294469,-5.203125,10.503906,0.53125,-2.275391,-0.740234,-1.373047,0.280396,-0.08429,0.681335,0.670898,down
294475,-5.507812,10.15625,0.605469,-2.275391,-0.740234,-1.373047,0.28656,-0.089722,0.671997,0.676941,down
294480,-5.777344,10.039063,0.796875,-2.275391,-0.740234,-1.373047,0.28656,-0.089722,0.671997,0.676941,down
294485,-5.929687,9.890625,0.988281,-2.445313,-0.789062,-1.193359,0.28656,-0.089722,0.671997,0.676941,down
294490,-5.929687,9.890625,0.988281,-2.396484,-0.806641,-1.109375,0.295105,-0.097168,0.65686,0.687012,down
294497,-6.121094,9.851563,1.257813,-2.396484,-0.806641,-1.109375,0.295105,-0.097168,0.65686,0.687012,down
294503,-6.121094,9.855469,1.296875,-1.994141,-0.742187,-0.677734,0.295105,-0.097168,0.65686,0.687012,down
294508,-6.082031,9.695313,1.488281,-1.994141,-0.742187,-0.677734,0.301941,-0.102478,0.643066,0.696289,down
294513,-6.007812,9.617188,1.679688,-1.71875,-0.722656,-0.484375,0.305054,-0.104065,0.635742,0.701416,down
294518,-5.777344,9.128906,2.023438,-1.71875,-0.722656,-0.484375,0.305054,-0.104065,0.635742,0.701416,down
294523,-5.699219,8.746094,2.0625,-0.802734,-0.591797,0.234375,0.30603,-0.104065,0.632874,0.703552,down
294528,-5.625,8.46875,2.0625,-0.802734,-0.591797,0.234375,0.306641,-0.103455,0.630615,0.705444,down
294534,-5.46875,8.050781,1.792969,-0.802734,-0.591797,0.234375,0.306213,-0.10083,0.628479,0.707886,down
294539,-5.433594,7.9375,1.71875,0.259766,-0.308594,1.033203,0.305115,-0.098511,0.62854,0.708618,down
294544,-5.355469,7.96875,1.601563,0.609375,-0.203125,1.283203,0.303589,-0.095886,0.629395,0.708862,down
294549,-5.242187,7.972656,1.488281,0.910156,-0.107422,1.533203,0.301514,-0.092834,0.63092,0.708801,down
294555,-5.011719,8.085938,1.179688,0.910156,-0.107422,1.533203,0.299133,-0.089661,0.632996,0.708374,down
294561,-4.972656,8.128906,0.988281,1.470703,0.173828,2.005859,0.299133,-0.089661,0.632996,0.708374,down
294566,-4.933594,8.203125,0.757812,1.722656,0.320313,2.210938,0.299133,-0.089661,0.632996,0.708374,down
294571,-4.703125,8.429688,0.261719,1.722656,0.320313,2.210938,0.287903,-0.077393,0.643127,0.705322,down
294577,-4.550781,8.625,0.109375,2.09375,0.634766,2.623047,0.287903,-0.077393,0.643127,0.705322,down
294583,-4.398437,8.777344,-0.082031,2.208984,0.808594,2.8125,0.287903,-0.077393,0.643127,0.705322,down
294588,-4.089844,8.96875,-0.429687,2.285156,0.976562,3.0,0.287903,-0.077393,0.643127,0.705322,down
294593,-4.089844,8.96875,-0.429687,2.310547,1.164063,3.177734,0.287903,-0.077393,0.643127,0.705322,down
294599,-3.863281,9.046875,-0.695312,2.310547,1.164063,3.177734,0.264221,-0.058472,0.66272,0.698303,down
294604,-3.707031,8.851563,-1.15625,2.210938,1.611328,3.507813,0.248718,-0.049316,0.673157,0.694641,down
294609,-3.402344,8.472656,-1.347656,2.210938,1.611328,3.507813,0.230225,-0.040527,0.683594,0.691467,down
294615,-3.171875,8.351563,-1.347656,2.210938,1.611328,3.507813,0.219116,-0.035889,0.689026,0.68988,down
294620,-3.132813,8.320313,-1.347656,1.978516,2.283203,4.095703,0.209412,-0.031982,0.693604,0.688538,down
294625,-2.980469,8.203125,-1.230469,1.978516,2.283203,4.095703,0.198486,-0.027832,0.698486,0.687012,down
294631,-2.75,7.941406,-1.003906,1.978516,2.283203,4.095703,0.186768,-0.023499,0.703552,0.685242,down
294637,-2.519531,7.625,-1.003906,2.158203,2.619141,4.357422,0.186768,-0.023499,0.703552,0.685242,down
294643,-2.023438,6.785156,-0.925781,2.232422,2.753906,4.423828,0.186768,-0.023499,0.703552,0.685242,down
294648,-1.792969,6.4375,-1.003906,2.232422,2.753906,4.423828,0.150208,-0.010986,0.718811,0.67865,down
294653,-1.792969,6.4375,-1.003906,2.541016,2.921875,4.578125,0.137512,-0.006836,0.72406,0.675842,down
294658,-1.601563,6.292969,-1.078125,2.775391,3.023438,4.683594,0.137512,-0.006836,0.72406,0.675842,down
294663,-1.601563,6.292969,-1.078125,2.980469,3.148438,4.779297,0.110535,0.001892,0.735413,0.668579,down
294668,-1.21875,6.097656,-1.578125,2.980469,3.148438,4.779297,0.096741,0.006226,0.741211,0.664185,down
294674,-0.875,5.789062,-1.921875,3.400391,3.322266,4.943359,0.067627,0.015198,0.753601,0.653687,down
294679,-0.644531,5.566406,-1.921875,3.400391,3.322266,4.943359,0.052734,0.019714,0.759827,0.647644,down
294685,-0.414062,5.5625,-2.0,3.400391,3.322266,4.943359,0.035828,0.024658,0.766907,0.640259,down
294691,-0.414062,5.5625,-2.0,4.208984,3.765625,5.212891,0.021484,0.028687,0.772888,0.633545,down
294696,-0.300781,5.292969,-1.84375,4.351562,3.767578,5.203125,0.005798,0.032959,0.779236,0.625793,down
294701,-0.300781,5.292969,-1.84375,4.351562,3.767578,5.203125,0.005798,0.032959,0.779236,0.625793,down
294707,0.121094,3.113281,-0.621094,4.460937,3.806641,5.152344,0.026123,-0.041321,-0.791931,-0.608643,down
294713,-0.03125,1.304688,0.261719,4.460937,3.806641,5.152344,0.026123,-0.041321,-0.791931,-0.608643,down
294718,-0.414062,0.464844,0.796875,5.150391,4.037109,5.039062,0.058411,-0.048828,-0.804321,-0.589294,down
294723,-0.757812,-0.722656,1.371094,5.150391,4.037109,5.039062,0.074402,-0.052307,-0.810303,-0.578918,down
294729,-1.257813,-2.253906,2.023438,5.371094,3.947266,4.986328,0.106567,-0.059021,-0.822449,-0.555603,down
294734,-2.097656,-4.703125,2.90625,5.371094,3.947266,4.986328,0.12207,-0.062073,-0.82843,-0.543152,down
294740,-2.480469,-6.117187,3.554688,6.023437,3.748047,4.675781,0.13855,-0.065125,-0.834839,-0.528748,down
294745,-3.25,-7.808594,4.09375,6.324219,3.568359,4.341797,0.153503,-0.067627,-0.840942,-0.514465,down
294750,-4.167969,-8.230469,5.011719,6.324219,3.568359,4.341797,0.165527,-0.069275,-0.846802,-0.500732,down
294755,-5.851562,-7.921875,9.875,6.324219,3.568359,4.341797,0.165527,-0.069275,-0.846802,-0.500732,down
294760,-5.851562,-7.921875,9.875,7.876953,0.908203,1.636719,0.183044,-0.070068,-0.861816,-0.467896,down
294766,-9.875,-5.664062,16.355469,7.876953,0.908203,1.636719,0.186218,-0.067871,-0.87085,-0.449829,down
294772,-15.390625,0.886719,16.621094,7.876953,0.908203,1.636719,0.184448,-0.063721,-0.880066,-0.432861,down
294777,-17.152344,4.71875,16.695312,6.779297,-3.800781,-3.556641,0.184448,-0.063721,-0.880066,-0.432861,down
294782,-17.421875,8.472656,17.078125,4.958984,-6.283203,-5.34375,0.184448,-0.063721,-0.880066,-0.432861,down
294788,-17.042969,10.960938,15.929688,4.958984,-6.283203,-5.34375,0.138367,-0.042603,-0.90564,-0.39856,down
294793,-16.84375,12.304688,12.328125,4.958984,-6.283203,-5.34375,0.138367,-0.042603,-0.90564,-0.39856,down
294798,-15.851563,12.648438,7.425781,-1.269531,-11.037109,-8.591797,0.138367,-0.042603,-0.90564,-0.39856,down
294803,-15.851563,12.648438,7.425781,-9.783203,-15.732422,-11.542969,0.026367,-0.01825,-0.904602,-0.425049,down
294808,-9.03125,3.03125,0.414062,-9.783203,-15.732422,-11.542969,0.025757,0.008423,0.891724,0.451782,down
294814,-7.308594,2.417969,-0.773437,-19.412109,-17.470703,-15.808594,0.025757,0.008423,0.891724,0.451782,down
294819,-8.835938,5.636719,-2.265625,-21.617187,-15.796875,-16.744141,0.13562,-0.018555,0.844299,0.518127,down
294825,-14.777344,10.503906,-6.019531,-21.617187,-15.796875,-16.744141,0.242554,-0.062622,0.766479,0.59137,down
294830,-19.140625,12.417969,-9.238281,-21.083984,-11.472656,-17.886719,0.292969,-0.093506,0.717407,0.625122,down
294836,-27.765625,8.511719,-12.800781,-21.083984,-11.472656,-17.886719,0.329773,-0.119446,0.678101,0.645874,down
294842,-36.230469,0.082031,-5.980469,-21.083984,-11.472656,-17.886719,0.373108,-0.150085,0.631592,0.662842,down
294847,-40.632812,5.023437,-1.84375,-9.871094,-9.148438,-17.185547,0.373108,-0.150085,0.631592,0.662842,down
294852,-42.820312,16.363281,0.914062,-3.84375,-7.541016,-15.908203,0.373108,-0.150085,0.631592,0.662842,down
294858,-41.902344,28.277344,0.148437,-3.84375,-7.541016,-15.908203,0.478088,-0.201477,0.552246,0.652588,down
294864,-28.417969,43.105469,-5.023437,-3.84375,-7.541016,-15.908203,0.53064,-0.209473,0.543579,0.615662,down
294869,-20.871094,43.566406,-2.035156,-3.84375,-7.541016,-15.908203,0.53064,-0.209473,0.543579,0.615662,down
294874,-19.144531,39.34375,0.914062,7.771484,-3.236328,-6.621094,0.56604,-0.19873,0.551331,0.579773,down
294879,-23.96875,18.929687,4.015625,7.771484,-3.236328,-6.621094,0.57605,-0.192932,0.560364,0.562988,down
294884,-22.558594,8.933594,1.945313,10.664063,2.099609,-3.128906,0.57605,-0.192932,0.560364,0.562988,down
294889,-21.332031,6.25,-4.566406,10.664063,2.099609,-3.128906,0.583313,-0.185852,0.574524,0.543213,down
294894,-17.992187,13.566406,-4.792969,13.396484,0.894531,-3.03125,0.583313,-0.185852,0.574524,0.543213,down
294899,-13.707031,20.648437,0.988281,13.396484,0.894531,-3.03125,0.599609,-0.160156,0.604187,0.499756,down
294904,-10.988281,24.449219,3.746094,3.935547,-0.615234,-1.005859,0.608948,-0.145508,0.611755,0.483521,down
294909,-10.640625,22.339844,2.175781,3.935547,-0.615234,-1.005859,0.614441,-0.137207,0.615417,0.474243,down
294915,-10.640625,12.417969,-4.679687,3.935547,-0.615234,-1.005859,0.614624,-0.137329,0.62146,0.466003,down
294920,-9.570313,9.894531,-4.144531,-1.902344,1.095703,0.003906,0.612061,-0.141663,0.622131,0.467163,down
294925,-8.347656,8.164063,-1.960938,-3.138672,0.816406,0.384766,0.609497,-0.146301,0.620728,0.471008,down
294930,-7.382812,7.132812,0.222656,-4.363281,1.1875,0.681641,0.605957,-0.152344,0.618042,0.477112,down
294936,-8.878906,6.210937,1.257813,-4.363281,1.1875,0.681641,0.601685,-0.159058,0.615479,0.483643,down
294941,-9.914063,6.402344,0.796875,-4.148437,2.042969,0.441406,0.601685,-0.159058,0.615479,0.483643,down
294948,-10.488281,7.207031,1.296875,-3.34375,1.5625,0.302734,0.601685,-0.159058,0.615479,0.483643,down
294954,-10.445313,7.972656,3.863281,-3.34375,1.5625,0.302734,0.587891,-0.179932,0.609802,0.500122,down
294960,-10.144531,7.746094,4.589844,-0.992187,0.693359,0.035156,0.584351,-0.185059,0.609619,0.502686,down
294965,-10.027344,7.09375,4.476562,1.005859,0.832031,-0.150391,0.583557,-0.185425,0.611389,0.501282,down
294971,-9.222656,5.445312,2.90625,1.005859,0.832031,-0.150391,0.583252,-0.184753,0.613892,0.49884,down
294976,-8.726563,5.023437,2.636719,2.164063,0.539062,-0.154297,0.583252,-0.184753,0.613892,0.49884,down
294982,-7.964844,4.757812,2.558594,2.253906,0.333984,-0.09375,0.583252,-0.184753,0.613892,0.49884,down
294987,-6.84375,4.375,2.332031,2.253906,0.333984,-0.09375,0.584534,-0.177429,0.624023,0.487305,down
294993,-6.542969,4.257812,2.140625,1.863281,0.207031,0.132812,0.584534,-0.177429,0.624023,0.487305,down
294999,-6.160156,4.296875,1.792969,1.443359,0.267578,0.283203,0.584656,-0.170715,0.63092,0.480652,down
295004,-5.929687,4.105469,1.296875,1.443359,0.267578,0.283203,0.584656,-0.170715,0.63092,0.480652,down
295009,-6.011719,3.835938,0.953125,1.443359,0.267578,0.283203,0.58197,-0.1698,0.63324,0.48114,down
295014,-6.199219,3.875,0.644531,1.443359,0.267578,0.283203,0.58197,-0.1698,0.63324,0.48114,down
295019,-6.5,4.027344,0.644531,-0.654297,0.628906,0.642578,0.578003,-0.171082,0.634155,0.484253,down
295024,-7.238281,4.640625,0.644531,-0.654297,0.628906,0.642578,0.578003,-0.171082,0.634155,0.484253,down
295029,-7.648437,5.023437,0.453125,-0.654297,0.628906,0.642578,0.575928,-0.172058,0.634338,0.486084,down
295034,-8.003906,5.253906,0.375,-0.679687,0.476562,0.455078,0.575928,-0.172058,0.634338,0.486084,down
295039,-8.496094,5.675781,0.300781,-0.679687,0.476562,0.455078,0.572388,-0.173889,0.634644,0.489319,down
295044,-8.769531,5.753906,0.339844,-0.679687,0.476562,0.455078,0.57074,-0.174744,0.634705,0.490784,down
295050,-8.917969,5.636719,0.261719,-0.388672,0.359375,0.316406,0.57074,-0.174744,0.634705,0.490784,down
295055,-8.992188,5.40625,0.339844,-0.205078,0.300781,0.244141,0.567749,-0.175964,0.635376,0.49292,down
295061,-9.03125,4.832031,0.414062,-0.205078,0.300781,0.244141,0.567261,-0.175964,0.635742,0.493042,down
295066,-8.992188,4.601562,0.300781,0.078125,0.152344,0.117188,0.567261,-0.175964,0.635742,0.493042,down
295071,-8.992188,4.601562,0.300781,0.080078,0.123047,0.097656,0.566589,-0.175781,0.636475,0.49292,down
295076,-8.914063,4.410156,0.300781,0.080078,0.123047,0.097656,0.566223,-0.175781,0.636841,0.49292,down
295081,-8.839844,4.335937,0.339844,0.080078,0.123047,0.097656,0.565857,-0.175842,0.637024,0.492981,down
295086,-9.1875,4.566406,0.148437,-0.117188,0.261719,0.158203,0.565857,-0.175842,0.637024,0.492981,down
295091,-8.648438,4.183594,0.183594,-0.179687,0.326172,0.193359,0.565857,-0.175842,0.637024,0.492981,down
295096,-8.914063,4.527344,0.53125,-0.179687,0.326172,0.193359,0.56366,-0.176758,0.638062,0.493896,down
295102,-9.148438,4.527344,0.414062,-0.179687,0.326172,0.193359,0.56366,-0.176758,0.638062,0.493896,down
295107,-9.300781,4.601562,0.148437,-0.128906,0.650391,0.287109,0.56366,-0.176758,0.638062,0.493896,down
295113,-9.535156,5.023437,0.492187,-0.003906,0.632812,0.308594,0.56366,-0.176758,0.638062,0.493896,down
295118,-9.761719,5.253906,0.722656,0.126953,0.615234,0.314453,0.56366,-0.176758,0.638062,0.493896,down
295123,-9.835938,5.332031,0.914062,0.240234,0.621094,0.304688,0.56366,-0.176758,0.638062,0.493896,down
295128,-9.878906,5.40625,0.988281,0.240234,0.621094,0.304688,0.555725,-0.178406,0.644165,0.494324,down
295134,-9.839844,5.5625,1.066406,0.515625,0.466797,0.226562,0.555725,-0.178406,0.644165,0.494324,down
295140,-9.757813,5.484375,1.179688,0.515625,0.466797,0.226562,0.553894,-0.177734,0.646973,0.493042,down
295145,-9.679688,5.371094,1.179688,0.472656,0.390625,0.214844,0.552429,-0.176758,0.649414,0.491699,down
295150,-9.574219,5.214844,1.21875,0.121094,0.248047,0.207031,0.551819,-0.176514,0.650208,0.491516,down
295155,-9.378906,4.566406,1.257813,0.121094,0.248047,0.207031,0.551147,-0.176453,0.650696,0.491638,down
295160,-9.191406,4.183594,1.21875,-0.300781,0.164062,0.201172,0.551147,-0.176453,0.650696,0.491638,down
295165,-8.835938,3.835938,1.257813,-0.300781,0.164062,0.201172,0.550537,-0.176636,0.650818,0.492126,down
295170,-8.835938,3.835938,1.257813,-0.574219,0.107422,0.167969,0.549316,-0.177551,0.65033,0.493774,down
295175,-8.613281,3.53125,1.179688,-0.632812,0.111328,0.158203,0.549316,-0.177551,0.65033,0.493774,down
295180,-8.457031,3.570313,1.144531,-0.638672,0.121094,0.150391,0.548584,-0.178406,0.64978,0.494995,down
295185,-8.347656,3.570313,1.066406,-0.59375,0.130859,0.166016,0.547913,-0.179138,0.649231,0.496155,down
295190,-8.308594,3.53125,1.105469,-0.59375,0.130859,0.166016,0.54657,-0.180542,0.648376,0.49823,down
295195,-8.1875,3.492188,1.105469,-0.314453,0.208984,0.193359,0.54657,-0.180542,0.648376,0.49823,down
295200,-8.226563,3.453125,1.105469,-0.101563,0.261719,0.203125,0.545776,-0.181091,0.648254,0.499084,down
295205,-8.269531,3.453125,1.105469,-0.101563,0.261719,0.203125,0.544373,-0.181396,0.648926,0.499634,down
295210,-8.269531,3.53125,1.066406,0.394531,0.335938,0.21875,0.544373,-0.181396,0.648926,0.499634,down
295215,-8.308594,3.644531,1.066406,0.394531,0.335938,0.21875,0.54364,-0.181091,0.649902,0.499268,down
295220,-8.347656,3.914063,1.144531,0.582031,0.349609,0.214844,0.54364,-0.181091,0.649902,0.499268,down
295225,-8.425781,4.066406,1.21875,0.582031,0.349609,0.214844,0.54248,-0.17981,0.652466,0.497681,down
295230,-8.496094,4.183594,1.179688,0.582031,0.349609,0.214844,0.541931,-0.178894,0.654053,0.496521,down
295235,-8.570313,4.335937,1.179688,0.748047,0.345703,0.185547,0.541016,-0.177246,0.656921,0.494263,down
295240,-8.574219,4.449219,1.179688,0.748047,0.345703,0.185547,0.540649,-0.176636,0.658081,0.493408,down
295245,-8.574219,4.449219,1.179688,0.378906,0.201172,0.134766,0.540649,-0.176636,0.658081,0.493408,down
295250,-8.570313,4.449219,1.144531,0.378906,0.201172,0.134766,0.540222,-0.176025,0.659119,0.492615,down
295255,-8.457031,4.257812,1.179688,0.183594,0.136719,0.109375,0.540222,-0.176025,0.659119,0.492615,down
295260,-8.457031,4.257812,1.179688,0.183594,0.136719,0.109375,0.539368,-0.17572,0.660156,0.492371,down
295265,-8.453125,4.027344,0.988281,0.183594,0.136719,0.109375,0.539368,-0.17572,0.660156,0.492371,down
295270,-8.347656,3.992188,0.953125,-0.435547,0.03125,0.027344,0.539368,-0.17572,0.660156,0.492371,down
295275,-8.191406,3.914063,0.875,-0.435547,0.03125,0.027344,0.538757,-0.176636,0.659607,0.493408,down
295280,-8.148438,3.914063,0.835937,-0.462891,0.035156,0.025391,0.538452,-0.177368,0.659058,0.494263,down
295285,-8.070313,3.835938,0.722656,-0.462891,0.035156,0.025391,0.538086,-0.17804,0.658508,0.495056,down
295290,-8.109375,3.796875,0.566406,-0.462891,0.035156,0.025391,0.537781,-0.178711,0.658081,0.495728,down
295295,-8.148438,3.914063,0.53125,-0.322266,0.111328,0.037109,0.537109,-0.179687,0.657715,0.496643,down
295300,-8.191406,3.992188,0.492187,-0.015625,0.177734,0.041016,0.537109,-0.179687,0.657715,0.496643,down
295305,-8.191406,4.21875,0.492187,-0.015625,0.177734,0.041016,0.536682,-0.179993,0.657898,0.496765,down
295310,-8.304688,4.375,0.492187,0.294922,0.267578,0.058594,0.536682,-0.179993,0.657898,0.496765,down
295315,-8.496094,4.640625,0.414062,0.294922,0.267578,0.058594,0.535583,-0.179871,0.659729,0.495544,down
295320,-8.609375,4.757812,0.414062,0.515625,0.310547,0.070312,0.535583,-0.179871,0.659729,0.495544,down
295325,-8.648438,4.871094,0.414062,0.554687,0.304688,0.078125,0.535156,-0.179504,0.660889,0.494629,down
295331,-8.769531,4.949219,0.414062,0.554687,0.304688,0.078125,0.534424,-0.178589,0.663086,0.492737,down
295337,-8.875,5.214844,0.53125,0.554687,0.304688,0.078125,0.534119,-0.178162,0.664124,0.491882,down
295343,-8.914063,5.292969,0.53125,0.378906,0.265625,0.085937,0.534119,-0.178162,0.664124,0.491882,down
295348,-8.878906,5.179687,0.53125,0.265625,0.234375,0.097656,0.534119,-0.178162,0.664124,0.491882,down
295354,-8.835938,4.988281,0.53125,0.136719,0.199219,0.101563,0.534119,-0.178162,0.664124,0.491882,down
295360,-8.835938,4.792969,0.53125,-0.060547,0.146484,0.109375,0.534119,-0.178162,0.664124,0.491882,down
295365,-8.804688,4.601562,0.53125,-0.060547,0.146484,0.109375,0.532593,-0.176697,0.667297,0.489685,down
295370,-8.769531,4.566406,0.53125,-0.060547,0.146484,0.109375,0.532715,-0.176086,0.667664,0.489319,down
295375,-8.6875,4.679687,0.492187,-0.125,0.074219,0.052734,0.532898,-0.175537,0.667908,0.489014,down
295380,-8.613281,4.679687,0.53125,-0.125,0.074219,0.052734,0.533081,-0.175049,0.668091,0.488708,down
295386,-8.492188,4.757812,0.453125,-0.125,0.074219,0.052734,0.53363,-0.174011,0.668457,0.488037,down
295391,-8.453125,4.757812,0.453125,-0.125,0.074219,0.052734,0.533936,-0.173462,0.66864,0.487549,down
295396,-8.386719,4.757812,0.414062,0.048828,0.042969,0.017578,0.534302,-0.172852,0.668945,0.487,down
295401,-8.308594,4.757812,0.339844,0.048828,0.042969,0.017578,0.534668,-0.17218,0.66925,0.486389,down
295406,-8.347656,4.792969,0.375,0.048828,0.042969,0.017578,0.534973,-0.17157,0.669617,0.485779,down
295411,-8.304688,4.792969,0.300781,0.089844,0.105469,0.035156,0.535217,-0.170898,0.670044,0.485107,down
295417,-8.347656,4.71875,0.300781,0.089844,0.105469,0.035156,0.535461,-0.170349,0.670471,0.484497,down
295422,-8.34375,4.679687,0.375,0.089844,0.105469,0.035156,0.535583,-0.1698,0.670898,0.484009,down
295428,-8.304688,4.601562,0.375,0.089844,0.105469,0.035156,0.535583,-0.1698,0.670898,0.484009,down
295433,-8.382813,4.566406,0.414062,-0.046875,0.150391,0.082031,0.535706,-0.168884,0.671631,0.483154,down
295439,-8.304688,4.488281,0.53125,-0.066406,0.15625,0.09375,0.535706,-0.168884,0.671631,0.483154,down
295444,-8.347656,4.21875,0.53125,-0.066406,0.15625,0.09375,0.535706,-0.168884,0.671631,0.483154,down
295450,-8.347656,4.257812,0.53125,-0.058594,0.166016,0.107422,0.535706,-0.168884,0.671631,0.483154,down
295455,-8.382813,4.21875,0.566406,-0.013672,0.164062,0.097656,0.535706,-0.168884,0.671631,0.483154,down
295460,-8.382813,4.335937,0.605469,-0.013672,0.164062,0.097656,0.5354,-0.166809,0.673401,0.48175,down
295465,-8.382813,4.410156,0.605469,-0.013672,0.164062,0.097656,0.5354,-0.166321,0.673889,0.481201,down
295471,-8.421875,4.449219,0.605469,0.230469,0.121094,0.048828,0.5354,-0.166321,0.673889,0.481201,down
295476,-8.535156,4.601562,0.605469,0.230469,0.121094,0.048828,0.535828,-0.164246,0.675537,0.479126,down
295482,-8.570313,4.792969,0.566406,0.230469,0.121094,0.048828,0.536072,-0.163513,0.676147,0.478271,down
295488,-8.691406,4.988281,0.453125,0.228516,0.056641,0.015625,0.536316,-0.162781,0.676697,0.477478,down
295494,-8.570313,5.023437,0.414062,0.158203,0.023437,-0.007813,0.536316,-0.162781,0.676697,0.477478,down
295499,-8.609375,4.988281,0.414062,0.060547,0.0,-0.021484,0.536316,-0.162781,0.676697,0.477478,down
295504,-8.609375,4.949219,0.339844,0.060547,0.0,-0.021484,0.537292,-0.161194,0.677429,0.47583,down
295510,-8.574219,4.871094,0.300781,-0.15625,-0.021484,-0.029297,0.537292,-0.161194,0.677429,0.47583,down
295516,-8.53125,4.792969,0.300781,-0.248047,-0.03125,-0.027344,0.538147,-0.160889,0.67688,0.475769,down
295521,-8.496094,4.640625,0.300781,-0.367188,-0.023437,-0.005859,0.53833,-0.16095,0.676575,0.476013,down
295526,-8.457031,4.601562,0.339844,-0.384766,-0.011719,0.013672,0.538452,-0.161072,0.676208,0.476318,down
295531,-8.425781,4.449219,0.300781,-0.384766,-0.011719,0.013672,0.538574,-0.161072,0.675903,0.476562,down
295537,-8.34375,4.335937,0.261719,-0.384766,-0.011719,0.013672,0.538635,-0.161133,0.675598,0.476929,down
295543,-8.269531,4.144531,0.261719,-0.21875,0.048828,0.0625,0.538635,-0.161133,0.675476,0.477112,down
295548,-8.230469,4.105469,0.261719,-0.101563,0.074219,0.070312,0.538635,-0.161133,0.675476,0.477112,down
295554,-8.226563,4.183594,0.261719,-0.101563,0.074219,0.070312,0.538635,-0.161133,0.675476,0.477112,down
295559,-8.191406,4.257812,0.300781,0.166016,0.111328,0.060547,0.538635,-0.161133,0.675476,0.477112,down
295564,-8.265625,4.296875,0.339844,0.259766,0.123047,0.054687,0.538635,-0.161133,0.675476,0.477112,down
295570,-8.304688,4.449219,0.339844,0.320313,0.140625,0.042969,0.538757,-0.158936,0.677246,0.475159,down
295575,-8.34375,4.566406,0.300781,0.320313,0.140625,0.042969,0.538879,-0.158203,0.677979,0.474304,down
295581,-8.421875,4.679687,0.339844,0.345703,0.144531,0.027344,0.539001,-0.15686,0.679443,0.472473,down
295586,-8.457031,4.910156,0.339844,0.345703,0.144531,0.027344,0.539062,-0.15625,0.680054,0.47168,down
295592,-8.609375,5.023437,0.339844,0.345703,0.144531,0.027344,0.539185,-0.155762,0.680542,0.471069,down
295597,-8.648438,5.023437,0.261719,0.074219,0.109375,0.011719,0.539185,-0.155762,0.680542,0.471069,down
295603,-8.652344,4.910156,0.339844,-0.03125,0.070312,0.0,0.539185,-0.155762,0.680542,0.471069,down
295608,-8.570313,4.871094,0.339844,-0.119141,0.041016,-0.001953,0.539185,-0.155762,0.680542,0.471069,down
295614,-8.574219,4.71875,0.300781,-0.185547,0.025391,0.0,0.539185,-0.155762,0.680542,0.471069,down
295619,-8.53125,4.679687,0.261719,-0.232422,0.017578,0.001953,0.539185,-0.155762,0.680542,0.471069,down
295624,-8.535156,4.601562,0.222656,-0.232422,0.017578,0.001953,0.539185,-0.155762,0.680542,0.471069,down
295630,-8.574219,4.566406,0.261719,-0.232422,0.017578,0.001953,0.539673,-0.155151,0.680664,0.47052,down
295636,-8.492188,4.566406,0.261719,-0.238281,-0.007813,0.0,0.539917,-0.155212,0.680237,0.470825,down
295641,-8.496094,4.488281,0.261719,-0.238281,-0.007813,0.0,0.539978,-0.155212,0.680115,0.470947,down
295646,-8.457031,4.449219,0.183594,-0.105469,0.027344,0.013672,0.539978,-0.155212,0.680115,0.470947,down
295651,-8.425781,4.410156,0.222656,-0.105469,0.027344,0.013672,0.540161,-0.154968,0.680115,0.470825,down
295656,-8.34375,4.375,0.261719,-0.105469,0.027344,0.013672,0.540161,-0.154785,0.680237,0.470703,down
295661,-8.308594,4.335937,0.261719,0.058594,0.064453,0.025391,0.540161,-0.154785,0.680237,0.470703,down
295666,-8.347656,4.296875,0.261719,0.085937,0.072266,0.023437,0.540222,-0.15448,0.68042,0.470398,down
295671,-8.386719,4.375,0.300781,0.085937,0.072266,0.023437,0.540283,-0.154175,0.680664,0.470093,down
295676,-8.304688,4.488281,0.300781,0.119141,0.080078,0.013672,0.540283,-0.154175,0.680664,0.470093,down
295681,-8.304688,4.527344,0.414062,0.119141,0.080078,0.013672,0.540466,-0.153259,0.681641,0.468811,down
295686,-8.386719,4.601562,0.414062,0.091797,0.09375,0.001953,0.540466,-0.153259,0.681641,0.468811,down
295691,-8.453125,4.601562,0.375,0.091797,0.09375,0.001953,0.540588,-0.15271,0.68219,0.468079,down
295696,-8.457031,4.640625,0.414062,0.091797,0.09375,0.001953,0.540588,-0.152466,0.682434,0.467712,down
295701,-8.492188,4.71875,0.453125,0.091797,0.09375,0.001953,0.540588,-0.152466,0.682434,0.467712,down
295706,-8.574219,4.757812,0.492187,-0.027344,0.076172,-0.042969,0.540588,-0.152466,0.682434,0.467712,down
295711,-8.613281,4.679687,0.492187,-0.027344,0.076172,-0.042969,0.540771,-0.152283,0.682861,0.46698,down
295716,-8.652344,4.679687,0.492187,-0.027344,0.076172,-0.042969,0.540833,-0.152344,0.682861,0.466797,down
295721,-8.6875,4.640625,0.492187,-0.027344,0.076172,-0.042969,0.540833,-0.152344,0.682861,0.466797,down
295726,-8.769531,4.601562,0.566406,-0.177734,0.039063,-0.083984,0.541077,-0.152771,0.682617,0.466797,down
295731,-8.691406,4.566406,0.566406,-0.232422,0.009766,-0.085937,0.541077,-0.152771,0.682617,0.466797,down
295736,-8.691406,4.566406,0.566406,-0.232422,0.009766,-0.085937,0.541382,-0.153259,0.68219,0.466919,down
295741,-8.691406,4.449219,0.566406,-0.236328,-0.001953,-0.080078,0.541382,-0.153259,0.68219,0.466919,down
295746,-8.609375,4.449219,0.566406,-0.236328,-0.001953,-0.080078,0.541504,-0.153503,0.681946,0.467102,down
295752,-8.609375,4.449219,0.566406,-0.236328,-0.001953,-0.080078,0.54187,-0.153931,0.681458,0.467224,down
295757,-8.609375,4.527344,0.53125,-0.134766,0.001953,-0.058594,0.541992,-0.154053,0.681274,0.467224,down
295762,-8.570313,4.566406,0.53125,-0.089844,0.003906,-0.048828,0.542175,-0.154114,0.681213,0.467163,down
295768,-8.609375,4.601562,0.53125,-0.089844,0.003906,-0.048828,0.542297,-0.154053,0.681213,0.467041,down
295773,-8.609375,4.601562,0.492187,0.005859,0.001953,-0.033203,0.542297,-0.154053,0.681213,0.467041,down
