timestamp,ax,ay,az,gx,gy,gz,qw,qx,qy,qz,label
146509,3.734375,8.296875,-2.171875,0.052734,-0.167969,-0.203125,0.340942,0.146851,-0.777649,-0.507446,down
146514,3.734375,8.335938,-2.207031,0.03125,-0.177734,-0.222656,0.340942,0.146851,-0.777649,-0.507446,down
146520,3.621094,8.261719,-2.285156,0.03125,-0.177734,-0.222656,0.340942,0.146851,-0.777649,-0.507446,down
146527,3.699219,8.257813,-2.285156,-0.021484,-0.201172,-0.246094,0.340942,0.146851,-0.777649,-0.507446,down
146533,3.734375,8.300781,-2.285156,-0.066406,-0.244141,-0.263672,0.336243,0.148376,-0.778076,-0.50946,down
146538,3.660156,8.375,-2.324219,-0.066406,-0.244141,-0.263672,0.335388,0.148499,-0.777954,-0.510132,down
146543,3.660156,8.445313,-2.398438,-0.066406,-0.244141,-0.263672,0.334717,0.148621,-0.777771,-0.510803,down
146548,3.699219,8.445313,-2.363281,-0.3125,-0.222656,-0.259766,0.334717,0.148621,-0.777771,-0.510803,down
146553,3.621094,8.40625,-2.4375,-0.3125,-0.222656,-0.259766,0.333374,0.14856,-0.777161,-0.512634,down
146558,3.621094,8.40625,-2.476563,-0.3125,-0.222656,-0.259766,0.332764,0.14856,-0.776733,-0.513733,down
146563,3.582031,8.378906,-2.476563,-0.3125,-0.222656,-0.259766,0.332764,0.14856,-0.776733,-0.513733,down
146568,3.621094,8.339844,-2.4375,-0.351563,-0.148437,-0.228516,0.331909,0.148499,-0.775879,-0.515503,down
146574,3.621094,8.300781,-2.324219,-0.351563,-0.148437,-0.228516,0.331543,0.14856,-0.775574,-0.516296,down
146579,3.621094,8.335938,-2.324219,-0.210937,-0.107422,-0.189453,0.331543,0.14856,-0.775574,-0.516296,down
146584,3.542969,8.378906,-2.207031,-0.140625,-0.101563,-0.173828,0.331543,0.14856,-0.775574,-0.516296,down
146589,3.542969,8.378906,-2.207031,-0.140625,-0.101563,-0.173828,0.330322,0.148804,-0.774902,-0.517944,down
146595,3.46875,8.410156,-2.015625,-0.140625,-0.101563,-0.173828,0.330322,0.148804,-0.774902,-0.517944,down
146600,3.507813,8.445313,-2.054688,0.050781,-0.138672,-0.134766,0.330322,0.148804,-0.774902,-0.517944,down
146605,3.46875,8.449219,-2.132813,0.089844,-0.132812,-0.125,0.330322,0.148804,-0.774902,-0.517944,down
146610,3.429688,8.449219,-2.171875,0.089844,-0.132812,-0.125,0.330322,0.148804,-0.774902,-0.517944,down
146616,3.46875,8.527344,-2.171875,0.091797,-0.169922,-0.101563,0.330322,0.148804,-0.774902,-0.517944,down
146621,3.429688,8.605469,-2.171875,0.074219,-0.1875,-0.09375,0.330322,0.148804,-0.774902,-0.517944,down
146626,3.46875,8.605469,-2.207031,0.039063,-0.191406,-0.085937,0.330322,0.148804,-0.774902,-0.517944,down
146631,3.46875,8.640625,-2.285156,0.039063,-0.191406,-0.085937,0.330322,0.148804,-0.774902,-0.517944,down
146637,3.46875,8.601563,-2.324219,0.039063,-0.191406,-0.085937,0.325928,0.149292,-0.776123,-0.518738,down
146643,3.542969,8.527344,-2.398438,-0.080078,-0.201172,-0.056641,0.325928,0.149292,-0.776123,-0.518738,down
146648,3.507813,8.523438,-2.4375,-0.130859,-0.177734,-0.046875,0.325928,0.149292,-0.776123,-0.518738,down
146653,3.542969,8.445313,-2.398438,-0.130859,-0.177734,-0.046875,0.324585,0.148621,-0.776184,-0.519714,down
146658,3.507813,8.445313,-2.398438,-0.130859,-0.177734,-0.046875,0.323914,0.148315,-0.776062,-0.520447,down
146663,3.542969,8.378906,-2.363281,-0.130859,-0.177734,-0.046875,0.323547,0.148193,-0.776001,-0.520752,down
146668,3.542969,8.339844,-2.285156,-0.023437,-0.166016,-0.054687,0.323547,0.148193,-0.776001,-0.520752,down
146673,3.507813,8.222656,-2.207031,-0.023437,-0.166016,-0.054687,0.32312,0.148071,-0.776001,-0.520996,down
146678,3.46875,8.183594,-2.171875,0.046875,-0.134766,-0.064453,0.32312,0.148071,-0.776001,-0.520996,down
146683,3.46875,8.183594,-2.171875,0.09375,-0.144531,-0.058594,0.322327,0.14801,-0.776184,-0.521301,down
146689,3.429688,8.0625,-2.09375,0.09375,-0.144531,-0.058594,0.321472,0.148071,-0.77655,-0.52124,down
146694,3.390625,8.027344,-2.09375,0.128906,-0.15625,-0.074219,0.321045,0.148193,-0.776794,-0.521179,down
146700,3.390625,8.105469,-2.015625,0.128906,-0.15625,-0.074219,0.320557,0.148254,-0.776978,-0.521118,down
146705,3.390625,8.222656,-2.054688,0.146484,-0.15625,-0.113281,0.320068,0.148376,-0.777222,-0.520996,down
146712,3.316406,8.261719,-2.054688,0.123047,-0.160156,-0.130859,0.320068,0.148376,-0.777222,-0.520996,down
146718,3.390625,8.296875,-2.171875,0.083984,-0.181641,-0.154297,0.318298,0.148865,-0.777832,-0.521118,down
146724,3.351563,8.257813,-2.171875,-0.019531,-0.220703,-0.207031,0.317566,0.149048,-0.777893,-0.521362,down
146729,3.390625,8.335938,-2.246094,-0.0625,-0.21875,-0.234375,0.316772,0.14917,-0.777893,-0.52179,down
146734,3.351563,8.300781,-2.324219,-0.0625,-0.21875,-0.234375,0.315979,0.149353,-0.777832,-0.522278,down
146739,3.390625,8.335938,-2.285156,-0.0625,-0.21875,-0.234375,0.315308,0.149475,-0.777771,-0.522827,down
146744,3.429688,8.300781,-2.285156,-0.162109,-0.259766,-0.279297,0.315308,0.149475,-0.777771,-0.522827,down
146749,3.429688,8.300781,-2.285156,-0.175781,-0.251953,-0.296875,0.31366,0.149658,-0.777466,-0.52417,down
146755,3.390625,8.335938,-2.246094,-0.175781,-0.251953,-0.296875,0.312805,0.149841,-0.777283,-0.524841,down
146760,3.390625,8.335938,-2.207031,-0.162109,-0.273438,-0.296875,0.312805,0.149841,-0.777283,-0.524841,down
146765,3.351563,8.375,-2.171875,-0.138672,-0.287109,-0.273438,0.312805,0.149841,-0.777283,-0.524841,down
146771,3.351563,8.335938,-2.171875,-0.138672,-0.287109,-0.273438,0.312805,0.149841,-0.777283,-0.524841,down
146777,3.351563,8.378906,-2.207031,-0.138672,-0.287109,-0.273438,0.309265,0.150208,-0.776978,-0.527344,down
146783,3.277344,8.339844,-2.246094,-0.009766,-0.314453,-0.244141,0.309265,0.150208,-0.776978,-0.527344,down
146788,3.316406,8.375,-2.207031,0.025391,-0.320313,-0.232422,0.307434,0.150391,-0.7771,-0.528198,down
146793,3.238281,8.40625,-2.246094,0.025391,-0.320313,-0.232422,0.306458,0.150452,-0.777222,-0.528564,down
146798,3.277344,8.449219,-2.285156,0.052734,-0.333984,-0.226562,0.30542,0.150513,-0.777405,-0.528809,down
146803,3.238281,8.488281,-2.324219,0.052734,-0.333984,-0.226562,0.304443,0.150635,-0.777649,-0.529053,down
146808,3.238281,8.488281,-2.324219,0.019531,-0.326172,-0.236328,0.303528,0.150635,-0.777832,-0.529297,down
146813,3.160156,8.644531,-2.554688,0.019531,-0.326172,-0.236328,0.302551,0.150696,-0.778015,-0.529541,down
146818,3.160156,8.683594,-2.515625,-0.009766,-0.316406,-0.242187,0.301514,0.150757,-0.778198,-0.529846,down
146823,3.199219,8.640625,-2.515625,-0.009766,-0.316406,-0.242187,0.300598,0.150818,-0.77832,-0.530151,down
146829,3.199219,8.71875,-2.589844,-0.009766,-0.316406,-0.242187,0.298828,0.15094,-0.778442,-0.530945,down
146834,3.160156,8.679688,-2.628906,-0.091797,-0.296875,-0.244141,0.297852,0.15094,-0.778503,-0.531494,down
146839,3.160156,8.640625,-2.589844,-0.091797,-0.296875,-0.244141,0.297852,0.15094,-0.778503,-0.531494,down
146844,3.160156,8.640625,-2.589844,-0.107422,-0.273438,-0.236328,0.296143,0.151001,-0.778442,-0.532471,down
146850,3.121094,8.527344,-2.554688,-0.107422,-0.273438,-0.236328,0.29541,0.151062,-0.778381,-0.532959,down
146855,3.121094,8.488281,-2.554688,-0.085937,-0.246094,-0.248047,0.29541,0.151062,-0.778381,-0.532959,down
146860,3.085938,8.445313,-2.515625,-0.068359,-0.244141,-0.238281,0.29541,0.151062,-0.778381,-0.532959,down
146865,3.046875,8.445313,-2.476563,-0.068359,-0.244141,-0.238281,0.29303,0.151367,-0.77832,-0.534302,down
146870,2.929688,8.449219,-2.398438,-0.068359,-0.244141,-0.238281,0.29303,0.151367,-0.77832,-0.534302,down
146875,2.894531,8.449219,-2.363281,0.03125,-0.212891,-0.234375,0.29303,0.151367,-0.77832,-0.534302,down
146881,2.894531,8.445313,-2.324219,0.03125,-0.212891,-0.234375,0.290771,0.151917,-0.778503,-0.535095,down
146887,2.855469,8.488281,-2.132813,0.03125,-0.212891,-0.234375,0.290771,0.151917,-0.778503,-0.535095,down
146892,2.816406,8.484375,-2.171875,0.130859,-0.248047,-0.224609,0.290771,0.151917,-0.778503,-0.535095,down
146897,2.738281,8.445313,-2.171875,0.144531,-0.261719,-0.226562,0.290771,0.151917,-0.778503,-0.535095,down
146902,2.703125,8.40625,-2.207031,0.144531,-0.261719,-0.226562,0.287354,0.152771,-0.77948,-0.535217,down
146908,2.738281,8.40625,-2.246094,0.136719,-0.302734,-0.222656,0.287354,0.152771,-0.77948,-0.535217,down
146913,2.703125,8.40625,-2.207031,0.117188,-0.337891,-0.210937,0.287354,0.152771,-0.77948,-0.535217,down
146918,2.625,8.410156,-2.171875,0.117188,-0.337891,-0.210937,0.284485,0.153076,-0.780396,-0.535339,down
146923,2.625,8.378906,-2.207031,0.117188,-0.337891,-0.210937,0.283508,0.153076,-0.780701,-0.5354,down
146929,2.546875,8.375,-2.132813,0.09375,-0.369141,-0.207031,0.281372,0.153076,-0.781372,-0.535645,down
146934,2.433594,8.300781,-2.171875,0.09375,-0.369141,-0.207031,0.280273,0.153015,-0.781677,-0.535767,down
146939,2.355469,8.257813,-2.132813,0.09375,-0.369141,-0.207031,0.279114,0.153015,-0.782043,-0.535828,down
146944,2.320313,8.179688,-2.171875,0.142578,-0.417969,-0.214844,0.279114,0.153015,-0.782043,-0.535828,down
146949,2.28125,8.183594,-2.171875,0.164062,-0.425781,-0.224609,0.278015,0.152954,-0.78241,-0.535889,down
146955,2.128906,8.222656,-2.324219,0.164062,-0.425781,-0.224609,0.275635,0.152954,-0.783203,-0.535889,down
146960,2.089844,8.257813,-2.363281,0.169922,-0.408203,-0.259766,0.274414,0.153015,-0.78363,-0.53595,down
146965,2.089844,8.257813,-2.363281,0.164062,-0.408203,-0.292969,0.273193,0.153137,-0.783997,-0.53595,down
146971,2.011719,8.335938,-2.4375,0.164062,-0.408203,-0.292969,0.271912,0.15332,-0.784363,-0.536072,down
146977,1.933594,8.335938,-2.398438,0.136719,-0.431641,-0.363281,0.271912,0.15332,-0.784363,-0.536072,down
146982,1.898438,8.335938,-2.398438,0.099609,-0.435547,-0.400391,0.271912,0.15332,-0.784363,-0.536072,down
146987,1.859375,8.296875,-2.363281,0.048828,-0.449219,-0.443359,0.271912,0.15332,-0.784363,-0.536072,down
146993,1.820313,8.183594,-2.285156,0.048828,-0.449219,-0.443359,0.271912,0.15332,-0.784363,-0.536072,down
146998,1.742188,8.21875,-2.324219,-0.111328,-0.492187,-0.564453,0.271912,0.15332,-0.784363,-0.536072,down
147003,1.742188,8.144531,-2.324219,-0.111328,-0.492187,-0.564453,0.262817,0.155151,-0.785278,-0.538696,down
147008,1.742188,8.140625,-2.285156,-0.111328,-0.492187,-0.564453,0.261047,0.155518,-0.785156,-0.539612,down
147013,1.742188,8.140625,-2.246094,-0.111328,-0.492187,-0.564453,0.259033,0.155945,-0.785034,-0.540649,down
147019,1.742188,8.179688,-2.285156,-0.216797,-0.560547,-0.662109,0.255249,0.156799,-0.784607,-0.542786,down
147024,1.707031,8.183594,-2.285156,-0.226562,-0.603516,-0.707031,0.253296,0.157227,-0.784424,-0.543884,down
147030,1.707031,8.257813,-2.363281,-0.226562,-0.603516,-0.707031,0.251221,0.157654,-0.78418,-0.545105,down
147035,1.667969,8.261719,-2.324219,-0.208984,-0.654297,-0.759766,0.251221,0.157654,-0.78418,-0.545105,down
147040,1.667969,8.296875,-2.324219,-0.195312,-0.689453,-0.787109,0.251221,0.157654,-0.78418,-0.545105,down
147045,1.667969,8.296875,-2.324219,-0.173828,-0.730469,-0.808594,0.251221,0.157654,-0.78418,-0.545105,down
147051,1.550781,8.339844,-2.207031,-0.173828,-0.730469,-0.808594,0.241516,0.159668,-0.783447,-0.549866,down
147057,1.476563,8.339844,-2.171875,-0.152344,-0.832031,-0.859375,0.241516,0.159668,-0.783447,-0.549866,down
147062,1.398438,8.335938,-2.054688,-0.158203,-0.882812,-0.878906,0.241516,0.159668,-0.783447,-0.549866,down
147068,1.359375,8.335938,-2.054688,-0.167969,-0.9375,-0.904297,0.241516,0.159668,-0.783447,-0.549866,down
147073,1.285156,8.222656,-1.980469,-0.195312,-0.992187,-0.933594,0.241516,0.159668,-0.783447,-0.549866,down
147078,1.167969,8.179688,-1.941406,-0.226562,-1.042969,-0.960937,0.241516,0.159668,-0.783447,-0.549866,down
147083,1.054688,8.179688,-1.902344,-0.226562,-1.042969,-0.960937,0.223633,0.161926,-0.782898,-0.557556,down
147089,0.976562,8.144531,-1.902344,-0.349609,-1.216797,-1.050781,0.223633,0.161926,-0.782898,-0.557556,down
147094,0.824219,8.105469,-1.902344,-0.349609,-1.216797,-1.050781,0.21637,0.162354,-0.78241,-0.560913,down
147100,0.632812,8.066406,-1.941406,-0.349609,-1.216797,-1.050781,0.208679,0.162598,-0.781799,-0.564636,down
147105,0.632812,8.066406,-1.941406,-0.423828,-1.363281,-1.126953,0.204712,0.16272,-0.781433,-0.566589,down
147110,0.554687,8.066406,-1.863281,-0.421875,-1.40625,-1.148438,0.200195,0.162781,-0.781006,-0.568726,down
147115,0.328125,7.996094,-1.863281,-0.421875,-1.40625,-1.148438,0.195923,0.162781,-0.78064,-0.57074,down
147121,0.171875,7.953125,-1.902344,-0.421875,-1.40625,-1.148438,0.191772,0.162842,-0.780334,-0.572571,down
147126,0.171875,7.953125,-1.902344,-0.314453,-1.541016,-1.208984,0.187256,0.162842,-0.780029,-0.574402,down
147131,0.058594,7.996094,-1.902344,-0.240234,-1.603516,-1.232422,0.182617,0.162842,-0.779846,-0.576172,down
147136,-0.171875,7.914062,-1.789063,-0.240234,-1.603516,-1.232422,0.177612,0.162781,-0.779785,-0.577881,down
147142,-0.285156,7.914062,-1.824219,-0.128906,-1.701172,-1.273438,0.177612,0.162781,-0.779785,-0.577881,down
147147,-0.402344,7.917969,-1.789063,-0.080078,-1.75,-1.298828,0.177612,0.162781,-0.779785,-0.577881,down
147153,-0.515625,7.957031,-1.824219,-0.0625,-1.800781,-1.333984,0.177612,0.162781,-0.779785,-0.577881,down
147158,-0.59375,7.992187,-1.824219,-0.044922,-1.863281,-1.359375,0.177612,0.162781,-0.779785,-0.577881,down
147164,-0.667969,8.066406,-1.824219,-0.130859,-2.003906,-1.447266,0.177612,0.162781,-0.779785,-0.577881,down
147169,-0.667969,8.140625,-1.824219,-0.130859,-2.003906,-1.447266,0.138916,0.162231,-0.779846,-0.588379,down
147174,-0.824219,8.40625,-1.902344,-0.130859,-2.003906,-1.447266,0.138916,0.162231,-0.779846,-0.588379,down
147179,-0.9375,8.527344,-1.902344,-0.429687,-2.226563,-1.605469,0.131958,0.161987,-0.779541,-0.590454,down
147184,-1.015625,8.601563,-1.941406,-0.429687,-2.226563,-1.605469,0.125488,0.161743,-0.779053,-0.59259,down
147190,-1.015625,8.601563,-1.941406,-0.695312,-2.341797,-1.701172,0.112793,0.161011,-0.777466,-0.597412,down
147195,-1.242188,8.605469,-2.132813,-0.820312,-2.388672,-1.746094,0.10498,0.160583,-0.776123,-0.600708,down
147201,-1.398438,8.410156,-2.171875,-0.820312,-2.388672,-1.746094,0.097778,0.160095,-0.774658,-0.603943,down
147206,-1.472656,8.183594,-2.207031,-0.820312,-2.388672,-1.746094,0.097778,0.160095,-0.774658,-0.603943,down
147211,-1.511719,7.917969,-2.285156,-1.001953,-2.46875,-1.820313,0.091797,0.159729,-0.773254,-0.606689,down
147216,-1.511719,7.917969,-2.285156,-1.035156,-2.5,-1.867188,0.077148,0.158813,-0.769714,-0.613525,down
147221,-1.855469,7.453125,-1.980469,-0.921875,-2.601563,-1.953125,0.077148,0.158813,-0.769714,-0.613525,down
147226,-2.011719,7.414062,-1.980469,-0.921875,-2.601563,-1.953125,0.077148,0.158813,-0.769714,-0.613525,down
147231,-2.164063,7.414062,-1.863281,-0.591797,-2.591797,-2.076172,0.077148,0.158813,-0.769714,-0.613525,down
147237,-2.238281,7.492187,-1.863281,-0.396484,-2.609375,-2.132813,0.077148,0.158813,-0.769714,-0.613525,down
147242,-2.625,7.914062,-1.863281,-0.125,-2.638672,-2.181641,0.077148,0.158813,-0.769714,-0.613525,down
147247,-2.851563,8.105469,-1.789063,0.130859,-2.693359,-2.222656,0.029053,0.157776,-0.76178,-0.627625,down
147252,-2.96875,8.296875,-1.710938,0.341797,-2.744141,-2.257813,0.029053,0.157776,-0.76178,-0.627625,down
147257,-3.160156,8.449219,-1.710938,0.544922,-2.763672,-2.296875,0.029053,0.157776,-0.76178,-0.627625,down
147262,-3.3125,8.683594,-1.824219,0.544922,-2.763672,-2.296875,0.002197,0.157837,-0.761414,-0.628723,down
147267,-3.464844,8.988281,-1.941406,0.544922,-2.763672,-2.296875,0.007385,-0.157837,0.761658,0.628418,down
147273,-3.65625,9.289063,-2.054688,0.785156,-2.931641,-2.326172,0.016724,-0.157715,0.761841,0.627991,down
147278,-3.65625,9.289063,-2.054688,0.683594,-2.996094,-2.310547,0.02655,-0.15741,0.761963,0.627686,down
147284,-4.195312,10.332031,-2.324219,0.683594,-2.996094,-2.310547,0.036072,-0.157043,0.761719,0.627563,down
147290,-4.347656,10.402344,-2.363281,0.244141,-3.136719,-2.287109,0.055481,-0.155884,0.759827,0.628723,down
147295,-4.460937,10.371094,-2.246094,0.244141,-3.136719,-2.287109,0.065979,-0.155151,0.757874,0.630249,down
147300,-4.578125,10.171875,-2.207031,0.244141,-3.136719,-2.287109,0.074768,-0.15448,0.755554,0.632202,down
147305,-4.652344,9.90625,-2.171875,-1.205078,-3.302734,-2.341797,0.084534,-0.15387,0.752258,0.63501,down
147310,-4.769531,9.597656,-2.09375,-1.511719,-3.328125,-2.380859,0.084534,-0.15387,0.752258,0.63501,down
147316,-4.769531,9.40625,-2.054688,-1.734375,-3.353516,-2.416016,0.103943,-0.152832,0.743835,0.642273,down
147321,-4.84375,8.5625,-1.75,-1.734375,-3.353516,-2.416016,0.11261,-0.152466,0.739441,0.645996,down
147326,-4.84375,8.5625,-1.75,-1.951172,-3.300781,-2.482422,0.122559,-0.152161,0.73407,0.65033,down
147331,-4.84375,8.5625,-1.75,-1.890625,-3.253906,-2.501953,0.13147,-0.151978,0.729187,0.654175,down
147336,-4.921875,8.257813,-1.480469,-1.890625,-3.253906,-2.501953,0.13147,-0.151978,0.729187,0.654175,down
147341,-5.074219,8.339844,-1.402344,-1.755859,-3.212891,-2.527344,0.140686,-0.151917,0.724182,0.657837,down
147347,-5.191406,8.449219,-1.367188,-1.755859,-3.212891,-2.527344,0.159424,-0.151672,0.714783,0.663879,down
147352,-5.535156,8.792969,-1.328125,-1.755859,-3.212891,-2.527344,0.16864,-0.151489,0.710815,0.665833,down
147357,-5.609375,8.949219,-1.210938,-0.503906,-3.058594,-2.474609,0.16864,-0.151489,0.710815,0.665833,down
147362,-5.535156,8.984375,-1.136719,-0.193359,-3.048828,-2.402344,0.16864,-0.151489,0.710815,0.665833,down
147367,-5.609375,8.949219,-0.984375,0.058594,-3.007813,-2.310547,0.16864,-0.151489,0.710815,0.665833,down
147372,-5.765625,9.023438,-0.984375,0.058594,-3.007813,-2.310547,0.16864,-0.151489,0.710815,0.665833,down
147378,-5.839844,8.945313,-1.058594,0.427734,-2.855469,-2.074219,0.16864,-0.151489,0.710815,0.665833,down
147383,-5.917969,8.945313,-1.058594,0.542969,-2.791016,-1.951172,0.16864,-0.151489,0.710815,0.665833,down
147389,-5.917969,8.945313,-0.984375,0.558594,-2.755859,-1.849609,0.16864,-0.151489,0.710815,0.665833,down
147394,-5.957031,8.871094,-0.828125,0.523437,-2.712891,-1.761719,0.23938,-0.142395,0.693787,0.664185,down
147399,-5.957031,8.871094,-0.828125,0.423828,-2.650391,-1.691406,0.246948,-0.140686,0.692261,0.663269,down
147404,-5.957031,8.761719,-0.753906,0.423828,-2.650391,-1.691406,0.254272,-0.139038,0.690674,0.662598,down
147410,-5.765625,8.300781,-0.5625,0.423828,-2.650391,-1.691406,0.268066,-0.136292,0.686584,0.661926,down
147415,-5.726562,8.21875,-0.523437,-0.193359,-2.195313,-1.480469,0.268066,-0.136292,0.686584,0.661926,down
147420,-5.6875,8.0625,-0.523437,-0.228516,-2.123047,-1.431641,0.275024,-0.135132,0.684082,0.661926,down
147425,-5.535156,7.914062,-0.445312,-0.228516,-2.123047,-1.431641,0.281067,-0.134155,0.681702,0.661987,down
147430,-5.457031,7.683594,-0.253906,-0.261719,-2.070313,-1.384766,0.292053,-0.132507,0.677124,0.662292,down
147435,-5.496094,7.492187,-0.101563,-0.242187,-1.974609,-1.349609,0.292053,-0.132507,0.677124,0.662292,down
147440,-5.457031,7.378906,0.128906,-0.242187,-1.974609,-1.349609,0.298157,-0.131592,0.6745,0.662415,down
147445,-5.382812,7.300781,0.203125,-0.242187,-1.974609,-1.349609,0.308716,-0.130066,0.670288,0.662231,down
147450,-5.417969,7.148437,0.28125,0.021484,-1.931641,-1.482422,0.308716,-0.130066,0.670288,0.662231,down
147455,-5.34375,7.070312,0.320313,0.107422,-1.986328,-1.535156,0.31488,-0.129211,0.66803,0.661743,down
147460,-5.304687,7.148437,0.472656,0.107422,-1.986328,-1.535156,0.326355,-0.127686,0.664246,0.660278,down
147465,-5.417969,7.300781,0.359375,0.107422,-1.986328,-1.535156,0.326355,-0.127686,0.664246,0.660278,down
147470,-5.417969,7.300781,0.359375,0.212891,-2.085938,-1.626953,0.332214,-0.126831,0.662415,0.659363,down
147475,-5.535156,7.574219,0.359375,0.216797,-2.140625,-1.65625,0.332214,-0.126831,0.662415,0.659363,down
147481,-5.457031,8.105469,0.394531,0.105469,-2.398438,-1.738281,0.332214,-0.126831,0.662415,0.659363,down
147486,-5.457031,8.105469,0.394531,-0.089844,-2.554688,-1.775391,0.358765,-0.122498,0.653198,0.655457,down
147492,-5.152344,8.140625,0.359375,-0.089844,-2.554688,-1.775391,0.365784,-0.121399,0.650024,0.654907,down
147498,-4.921875,8.023438,0.167969,-0.089844,-2.554688,-1.775391,0.373108,-0.120483,0.646301,0.654663,down
147503,-4.730469,7.914062,0.128906,-0.839844,-2.595703,-1.894531,0.373108,-0.120483,0.646301,0.654663,down
147509,-4.691406,7.796875,0.203125,-1.105469,-2.626953,-1.904297,0.373108,-0.120483,0.646301,0.654663,down
147515,-4.539062,7.375,0.242187,-1.392578,-2.652344,-1.875,0.400757,-0.119629,0.626587,0.657654,down
147520,-4.460937,6.992187,0.433594,-1.882813,-2.509766,-1.798828,0.400757,-0.119629,0.626587,0.657654,down
147525,-4.421875,6.6875,0.359375,-1.882813,-2.509766,-1.798828,0.407654,-0.120056,0.620056,0.659485,down
147530,-4.421875,6.417969,0.359375,-2.042969,-2.490234,-1.736328,0.407654,-0.120056,0.620056,0.659485,down
147535,-4.578125,6.347656,0.359375,-2.042969,-2.490234,-1.736328,0.425842,-0.12207,0.600037,0.666138,down
147540,-4.578125,6.109375,0.433594,-2.164063,-2.53125,-1.582031,0.425842,-0.12207,0.600037,0.666138,down
147545,-4.578125,5.804687,0.625,-2.164063,-2.53125,-1.582031,0.431519,-0.122559,0.593262,0.668457,down
147550,-4.578125,5.804687,0.625,-2.164063,-2.53125,-1.582031,0.437317,-0.122925,0.586426,0.670654,down
147555,-4.347656,5.5,1.085938,-2.164063,-2.53125,-1.582031,0.437317,-0.122925,0.586426,0.670654,down
147560,-4.195312,5.5,1.238281,-1.789063,-2.960938,-1.589844,0.437317,-0.122925,0.586426,0.670654,down
147565,-4.195312,5.386719,1.429688,-1.597656,-3.113281,-1.621094,0.462402,-0.120117,0.559753,0.677063,down
147571,-3.695313,5.269531,1.277344,-1.597656,-3.113281,-1.621094,0.469482,-0.118103,0.553162,0.677979,down
147576,-3.695313,5.269531,1.277344,-0.902344,-3.431641,-1.529297,0.477478,-0.115356,0.546082,0.678589,down
147582,-3.695313,5.0,1.277344,-0.902344,-3.431641,-1.529297,0.483398,-0.112915,0.541077,0.678833,down
147587,-3.734375,4.84375,1.429688,-0.474609,-3.617188,-1.304688,0.483398,-0.112915,0.541077,0.678833,down
147593,-3.886719,3.929688,2.121094,-0.474609,-3.617188,-1.304688,0.497314,-0.105347,0.529724,0.678955,down
147598,-4.199219,3.394531,2.503906,-0.183594,-3.685547,-0.986328,0.497314,-0.105347,0.529724,0.678955,down
147603,-4.691406,3.011719,2.695313,-0.033203,-3.574219,-0.898437,0.497314,-0.105347,0.529724,0.678955,down
147608,-5.382812,3.203125,2.847656,-0.033203,-3.574219,-0.898437,0.497314,-0.105347,0.529724,0.678955,down
147614,-5.730469,3.46875,2.808594,-0.033203,-3.574219,-0.898437,0.522278,-0.085876,0.510254,0.677856,down
147620,-6.070312,3.546875,2.925781,0.390625,-3.517578,-0.798828,0.534058,-0.075073,0.501953,0.676208,down
147625,-6.914062,4.542969,2.734375,0.390625,-3.517578,-0.798828,0.534058,-0.075073,0.501953,0.676208,down
147630,-6.914062,4.542969,2.734375,0.630859,-3.730469,-0.933594,0.540405,-0.069092,0.497681,0.674927,down
147635,-6.917969,5.308594,2.65625,0.630859,-3.730469,-0.933594,0.546814,-0.062988,0.49353,0.673401,down
147640,-6.300781,6.53125,2.808594,0.806641,-4.113281,-1.134766,0.55365,-0.05658,0.489136,0.67157,down
147645,-5.917969,6.726562,3.539063,0.896484,-4.197266,-1.228516,0.560974,-0.049683,0.484497,0.669434,down
147650,-5.609375,7.1875,4.148437,0.896484,-4.197266,-1.228516,0.568176,-0.042969,0.480042,0.666992,down
147655,-5.382812,7.535156,4.34375,0.896484,-4.197266,-1.228516,0.582581,-0.029724,0.471802,0.661133,down
147660,-5.417969,7.570312,4.226562,0.896484,-4.197266,-1.228516,0.588074,-0.025024,0.468933,0.658508,down
147665,-5.839844,7.339844,4.570312,0.896484,-4.197266,-1.228516,0.588074,-0.025024,0.468933,0.658508,down
147670,-5.726562,7.378906,4.917969,0.525391,-2.894531,-1.169922,0.588074,-0.025024,0.468933,0.658508,down
147675,-5.535156,7.257812,5.183594,0.046875,-2.804688,-1.046875,0.603455,-0.013794,0.457458,0.652954,down
147680,-5.304687,7.191406,4.839844,0.046875,-2.804688,-1.046875,0.603455,-0.013794,0.457458,0.652954,down
147685,-5.34375,6.917969,4.34375,-1.041016,-2.148438,-0.876953,0.608215,-0.011536,0.452209,0.652283,down
147690,-5.496094,6.34375,3.996094,-1.132813,-2.115234,-0.908203,0.611816,-0.010437,0.447632,0.652039,down
147695,-6.109375,5.386719,4.917969,-1.132813,-2.115234,-0.908203,0.615967,-0.009521,0.442078,0.651978,down
147701,-6.492187,5.308594,5.300781,-0.933594,-1.982422,-0.982422,0.619568,-0.008972,0.437195,0.651855,down
147706,-6.417969,5.578125,5.261719,-0.933594,-1.982422,-0.982422,0.627136,-0.007568,0.427795,0.650879,down
147711,-6.417969,5.578125,5.261719,-0.429687,-1.84375,-1.138672,0.630737,-0.006653,0.424133,0.649841,down
147716,-7.183594,6.765625,5.566406,-0.429687,-1.84375,-1.138672,0.630737,-0.006653,0.424133,0.649841,down
147721,-7.183594,6.765625,5.566406,-0.126953,-1.908203,-1.224609,0.634583,-0.00531,0.420715,0.648315,down
147726,-6.953125,7.878906,6.71875,-0.126953,-1.908203,-1.224609,0.638611,-0.003479,0.417603,0.646362,down
147732,-6.414062,9.105469,7.40625,-0.126953,-1.908203,-1.224609,0.647644,0.001526,0.412109,0.64093,down
147738,-6.070312,9.253906,7.75,-0.126953,-1.908203,-1.224609,0.647644,0.001526,0.412109,0.64093,down
147743,-6.1875,8.910156,7.867187,0.667969,-1.667969,-1.363281,0.647644,0.001526,0.412109,0.64093,down
147749,-6.300781,8.792969,8.058594,0.710937,-1.552734,-1.308594,0.647644,0.001526,0.412109,0.64093,down
147754,-6.1875,8.566406,8.402344,0.652344,-1.482422,-1.197266,0.647644,0.001526,0.412109,0.64093,down
147759,-6.1875,8.445313,8.171875,0.652344,-1.482422,-1.197266,0.665833,0.012939,0.404114,0.627075,down
147765,-6.339844,8.296875,7.980469,0.392578,-1.279297,-0.882812,0.665833,0.012939,0.404114,0.627075,down
147771,-6.492187,8.066406,8.136719,0.392578,-1.279297,-0.882812,0.674072,0.01825,0.399414,0.621094,down
147776,-6.414062,8.105469,8.324219,0.533203,-1.216797,-0.798828,0.676758,0.020325,0.397949,0.619019,down
147781,-6.644531,8.066406,8.398438,0.587891,-1.251953,-0.757812,0.679138,0.0224,0.39679,0.617126,down
147787,-6.796875,8.144531,8.480469,0.714844,-1.304688,-0.732422,0.681335,0.024536,0.395752,0.615295,down
147792,-5.609375,9.523438,9.625,0.714844,-1.304688,-0.732422,0.683533,0.0271,0.394897,0.613281,down
147797,-5.535156,8.601563,8.742188,0.919922,-1.177734,-0.640625,0.683533,0.0271,0.394897,0.613281,down
147803,-6.109375,8.683594,6.792969,0.818359,-1.210938,-0.558594,0.683533,0.0271,0.394897,0.613281,down
147808,-6.875,7.953125,8.015625,0.818359,-1.210938,-0.558594,0.683533,0.0271,0.394897,0.613281,down
147813,-6.03125,7.953125,7.867187,0.871094,-1.609375,-0.375,0.683533,0.0271,0.394897,0.613281,down
147819,-5.382812,8.027344,7.675781,0.769531,-1.8125,-0.232422,0.683533,0.0271,0.394897,0.613281,down
147824,-5.113281,7.835937,8.09375,0.769531,-1.8125,-0.232422,0.695618,0.046387,0.387695,0.602966,down
147830,-5.113281,7.835937,8.09375,0.441406,-1.833984,0.074219,0.697327,0.049988,0.385315,0.602295,down
147835,-4.921875,7.722656,7.910156,0.310547,-1.863281,0.207031,0.698792,0.053528,0.38269,0.601929,down
147840,-4.921875,7.722656,7.910156,0.181641,-1.896484,0.314453,0.700195,0.057129,0.379639,0.601929,down
147845,-4.269531,7.1875,7.25,0.164062,-1.90625,0.384766,0.701477,0.060547,0.376587,0.602051,down
147850,-3.847656,7.339844,6.21875,0.164062,-1.90625,0.384766,0.701477,0.060547,0.376587,0.602051,down
147855,-4.195312,6.652344,6.601562,0.164062,-1.90625,0.384766,0.703613,0.06781,0.370117,0.602722,down
147860,-4.347656,6.6875,6.601562,0.164062,-1.90625,0.384766,0.704407,0.071106,0.367554,0.603027,down
147865,-4.269531,6.730469,6.71875,0.164062,-1.90625,0.384766,0.705139,0.074341,0.365356,0.603149,down
147871,-4.230469,6.496094,6.488281,0.476562,-1.591797,0.392578,0.706726,0.081787,0.360901,0.603027,down
147876,-4.230469,6.808594,5.414062,0.476562,-1.591797,0.392578,0.707458,0.085327,0.359009,0.602722,down
147881,-4.15625,7.109375,5.414062,0.519531,-1.460938,0.242187,0.707458,0.085327,0.359009,0.602722,down
147886,-3.925781,7.152344,5.722656,0.519531,-1.460938,0.242187,0.709106,0.091858,0.355347,0.602051,down
147891,-3.925781,7.152344,5.722656,0.232422,-1.355469,0.230469,0.7099,0.094543,0.353394,0.601868,down
147897,-3.503906,7.53125,5.566406,0.095703,-1.306641,0.275391,0.710632,0.097107,0.351196,0.601868,down
147902,-3.199219,6.996094,5.566406,-0.107422,-1.255859,0.34375,0.711365,0.099609,0.348511,0.602112,down
147907,-3.121094,6.878906,5.988281,-0.107422,-1.255859,0.34375,0.711792,0.101135,0.346436,0.6026,down
147912,-3.351563,6.613281,6.257812,-0.107422,-1.255859,0.34375,0.712097,0.102844,0.343689,0.603516,down
147918,-3.542969,6.265625,7.105469,-0.107422,-1.255859,0.34375,0.712097,0.102844,0.343689,0.603516,down
147923,-3.464844,6.191406,7.023437,-0.486328,-1.087891,0.794922,0.712097,0.102844,0.343689,0.603516,down
147929,-3.464844,5.882812,6.753906,-0.472656,-1.083984,0.839844,0.712097,0.102844,0.343689,0.603516,down
147934,-3.199219,5.539062,6.484375,-0.472656,-1.083984,0.839844,0.712097,0.102844,0.343689,0.603516,down
147939,-3.007813,5.421875,6.449219,-0.472656,-1.083984,0.839844,0.711304,0.110168,0.32959,0.610962,down
147944,-3.007813,5.230469,6.523437,-0.423828,-1.097656,0.822266,0.711304,0.110168,0.32959,0.610962,down
147949,-3.007813,5.539062,6.644531,-0.423828,-1.097656,0.822266,0.710815,0.113342,0.324036,0.613953,down
147954,-2.96875,5.613281,6.683594,-0.304688,-1.003906,0.693359,0.710815,0.113342,0.324036,0.613953,down
147960,-2.96875,5.691406,6.722656,-0.304688,-1.003906,0.693359,0.710449,0.116455,0.319092,0.616394,down
147966,-3.007813,5.730469,6.679687,-0.4375,-0.835937,0.539062,0.710449,0.116455,0.319092,0.616394,down
147971,-3.042969,5.84375,6.601562,-0.4375,-0.835937,0.539062,0.710327,0.118713,0.314453,0.618469,down
147976,-3.042969,5.5,7.171875,-0.523437,-0.804687,0.541016,0.710266,0.119568,0.312073,0.619568,down
147981,-3.042969,5.5,7.171875,-0.677734,-0.785156,0.541016,0.710205,0.120178,0.309631,0.620728,down
147986,-3.582031,5.460937,7.980469,-0.677734,-0.785156,0.541016,0.710144,0.120422,0.306824,0.622131,down
147991,-3.65625,4.582031,7.910156,-1.591797,-0.634766,0.470703,0.710144,0.120422,0.306824,0.622131,down
147996,-2.851563,4.425781,7.636719,-1.591797,-0.634766,0.470703,0.710266,0.119202,0.299438,0.625854,down
148002,-2.394531,4.542969,7.867187,-1.591797,-0.634766,0.470703,0.710083,0.117188,0.292908,0.629456,down
148007,-3.234375,4.425781,9.203125,-1.591797,-0.634766,0.470703,0.709717,0.116821,0.290344,0.631165,down
148013,-3.503906,4.503906,9.441406,-0.855469,-0.568359,0.759766,0.709167,0.116699,0.287598,0.633057,down
148018,-3.390625,4.273437,9.324219,-0.708984,-0.599609,0.669922,0.708679,0.11676,0.285217,0.634644,down
148023,-3.042969,4.160156,9.398438,-0.708984,-0.599609,0.669922,0.708313,0.116821,0.282593,0.636169,down
148029,-2.96875,4.042969,8.671875,-0.708984,-0.599609,0.669922,0.708191,0.116882,0.280396,0.63739,down
148034,-2.546875,4.847656,7.910156,-0.505859,-0.597656,0.392578,0.708191,0.116882,0.280396,0.63739,down
148040,-2.699219,8.871094,8.441406,-0.505859,-0.597656,0.392578,0.707825,0.118042,0.27655,0.639221,down
148046,-3.964844,4.007812,9.703125,-0.505859,-0.597656,0.392578,0.707825,0.118042,0.27655,0.639221,down
148051,-2.546875,4.121094,8.785156,-1.291016,-0.517578,0.279297,0.707764,0.11792,0.268738,0.642639,down
148056,-0.898437,6.0,8.558594,-1.291016,-0.517578,0.279297,0.707764,0.11792,0.268738,0.642639,down
148061,-1.820313,4.542969,9.476563,-1.021484,-0.382813,0.625,0.707581,0.117493,0.265991,0.644043,down
148066,-2.738281,2.4375,9.785156,-1.021484,-0.382813,0.625,0.706726,0.115845,0.261353,0.647156,down
148071,-3.007813,1.785156,9.128906,-1.021484,-0.382813,0.625,0.706238,0.114441,0.259277,0.648743,down
148076,-1.78125,5.117187,9.511719,-0.740234,-0.423828,0.808594,0.706238,0.114441,0.259277,0.648743,down
148081,-1.855469,3.203125,10.390625,-0.740234,-0.423828,0.808594,0.705505,0.113892,0.257202,0.650513,down
148086,-2.777344,2.207031,10.511719,-0.740234,-0.423828,0.808594,0.704651,0.113464,0.255005,0.652344,down
148091,-3.082031,2.742188,10.125,-0.882812,-0.166016,0.628906,0.703186,0.112305,0.251221,0.655579,down
148096,-2.660156,3.660156,10.085938,-0.882812,-0.166016,0.628906,0.702454,0.112793,0.249512,0.656921,down
148101,-2.394531,3.46875,9.96875,-0.882812,-0.166016,0.628906,0.702454,0.112793,0.249512,0.656921,down
148106,-2.355469,4.273437,9.824219,-0.458984,-0.783203,0.75,0.702454,0.112793,0.249512,0.656921,down
148111,-2.011719,4.160156,10.246094,-0.435547,-1.021484,0.757812,0.700745,0.116211,0.242126,0.66095,down
148116,-1.628906,2.398438,8.863281,-0.435547,-1.021484,0.757812,0.700745,0.116211,0.242126,0.66095,down
148121,-1.167969,3.125,8.363281,-0.1875,-0.994141,0.609375,0.700439,0.117554,0.239258,0.662109,down
148126,-0.402344,3.316406,8.398438,-0.1875,-0.994141,0.609375,0.700073,0.118958,0.237,0.663025,down
148131,-0.554687,3.929688,8.476563,-0.1875,-0.994141,0.609375,0.699646,0.120667,0.235046,0.663818,down
148136,-0.554687,3.929688,8.476563,-0.056641,-0.626953,0.574219,0.699158,0.12207,0.233521,0.664612,down
148141,-1.207031,4.042969,8.476563,0.021484,-0.484375,0.513672,0.699158,0.12207,0.233521,0.664612,down
148147,-1.820313,4.425781,8.597656,0.021484,-0.484375,0.513672,0.698547,0.123291,0.232422,0.665405,down
148153,-1.742188,3.929688,8.519531,0.208984,-0.283203,0.570312,0.696594,0.126465,0.23053,0.667542,down
148158,-2.277344,4.8125,8.941406,0.208984,-0.283203,0.570312,0.695679,0.127869,0.230286,0.668335,down
148163,-2.625,4.121094,8.941406,0.369141,-0.503906,0.757812,0.695679,0.127869,0.230286,0.668335,down
148169,-2.394531,5.308594,8.402344,0.369141,-0.503906,0.757812,0.69342,0.131775,0.229431,0.670227,down
148174,-2.355469,4.8125,8.25,0.427734,-0.763672,0.994141,0.69342,0.131775,0.229431,0.670227,down
148180,-2.699219,5.308594,8.015625,0.380859,-0.755859,1.070313,0.69342,0.131775,0.229431,0.670227,down
148186,-2.699219,5.539062,8.253906,0.234375,-0.787109,1.144531,0.69342,0.131775,0.229431,0.670227,down
148192,-2.429688,5.808594,8.015625,0.035156,-0.958984,1.291016,0.69342,0.131775,0.229431,0.670227,down
148197,-1.972656,5.769531,7.789062,0.035156,-0.958984,1.291016,0.684021,0.146606,0.220947,0.679565,down
148202,-1.511719,5.269531,7.023437,0.035156,-0.958984,1.291016,0.68219,0.148621,0.218689,0.681702,down
148207,-1.550781,4.925781,6.945312,0.035156,-0.958984,1.291016,0.680603,0.149963,0.216736,0.683594,down
148213,-1.589844,4.773437,7.367187,0.035156,-0.958984,1.291016,0.678711,0.151184,0.214539,0.685913,down
148219,-1.320313,4.65625,7.675781,-0.429687,-0.611328,1.417969,0.678711,0.151184,0.214539,0.685913,down
148224,-0.746094,3.777344,7.980469,-0.429687,-0.611328,1.417969,0.674805,0.15332,0.210022,0.690674,down
148229,-0.554687,3.355469,7.941406,-0.423828,-0.435547,1.330078,0.674805,0.15332,0.210022,0.690674,down
148234,-0.785156,3.085938,7.871094,-0.339844,-0.318359,1.263672,0.674805,0.15332,0.210022,0.690674,down
148239,-1.207031,3.046875,7.9375,-0.224609,-0.285156,1.232422,0.674805,0.15332,0.210022,0.690674,down
148244,-1.472656,3.316406,8.824219,-0.224609,-0.285156,1.232422,0.667053,0.156555,0.20343,0.699402,down
148250,-1.398438,3.929688,8.976563,0.119141,-0.496094,1.263672,0.667053,0.156555,0.20343,0.699402,down
148255,-0.898437,4.3125,8.898438,0.306641,-0.484375,1.320313,0.667053,0.156555,0.20343,0.699402,down
148260,-0.476562,4.007812,8.863281,0.40625,-0.388672,1.357422,0.667053,0.156555,0.20343,0.699402,down
148266,-0.285156,4.464844,8.746094,0.40625,-0.388672,1.357422,0.65802,0.164185,0.2005,0.70697,down
148272,-0.476562,3.96875,8.675781,0.927734,-0.185547,1.552734,0.651917,0.169434,0.201904,0.710999,down
148277,-1.050781,4.582031,9.125,0.927734,-0.185547,1.552734,0.648437,0.172424,0.203186,0.713074,down
148283,-0.441406,5.15625,9.546875,0.927734,-0.185547,1.552734,0.644287,0.176025,0.204773,0.715515,down
148288,-0.402344,6.035156,9.664063,1.3125,-0.001953,1.986328,0.640442,0.179138,0.206177,0.717834,down
148293,-0.515625,6.074219,9.480469,0.890625,0.021484,2.070313,0.636475,0.181763,0.207275,0.720337,down
148298,-0.976562,6.765625,9.707031,0.890625,0.021484,2.070313,0.636475,0.181763,0.207275,0.720337,down
148303,-0.976562,6.765625,9.707031,0.908203,-0.070312,2.121094,0.632202,0.184387,0.207947,0.723267,down
148309,-0.515625,6.074219,9.054688,0.908203,-0.070312,2.121094,0.624084,0.189575,0.207947,0.728943,down
148314,-0.210937,5.117187,8.292969,0.908203,-0.070312,2.121094,0.620483,0.191406,0.207092,0.731812,down
148319,-0.324219,5.117187,7.941406,0.058594,-0.238281,1.962891,0.620483,0.191406,0.207092,0.731812,down
148324,-0.363281,5.003906,8.019531,-0.121094,-0.341797,1.96875,0.620483,0.191406,0.207092,0.731812,down
148330,-0.324219,4.734375,8.058594,-0.378906,-0.361328,1.957031,0.620483,0.191406,0.207092,0.731812,down
148336,0.363281,4.160156,7.941406,-0.378906,-0.361328,1.957031,0.620483,0.191406,0.207092,0.731812,down
148342,0.863281,3.96875,7.871094,-0.640625,-0.392578,1.841797,0.620483,0.191406,0.207092,0.731812,down
148347,1.398438,3.660156,7.828125,-0.640625,-0.392578,1.841797,0.597839,0.199219,0.192627,0.752197,down
148353,1.972656,3.355469,7.710937,-0.640625,-0.392578,1.841797,0.594971,0.199707,0.190369,0.754883,down
148358,2.320313,2.972656,7.867187,-0.212891,-0.019531,1.546875,0.591858,0.200256,0.188721,0.757568,down
148363,2.242188,2.972656,7.910156,0.027344,0.144531,1.375,0.58905,0.200684,0.187927,0.759888,down
148369,1.707031,3.277344,8.863281,0.027344,0.144531,1.375,0.586731,0.201172,0.187927,0.761597,down
148375,1.324219,3.96875,9.203125,0.644531,0.382813,1.175781,0.586731,0.201172,0.187927,0.761597,down
148380,0.59375,5.15625,9.585938,1.021484,0.5,1.195313,0.586731,0.201172,0.187927,0.761597,down
148386,0.328125,5.84375,9.859375,1.318359,0.509766,1.228516,0.586731,0.201172,0.187927,0.761597,down
148391,0.632812,6.574219,9.929688,1.318359,0.509766,1.228516,0.586731,0.201172,0.187927,0.761597,down
148397,0.671875,6.996094,9.785156,1.191406,0.173828,1.353516,0.586731,0.201172,0.187927,0.761597,down
148402,0.902344,7.148437,9.707031,1.191406,0.173828,1.353516,0.567993,0.209473,0.199951,0.770447,down
148407,0.863281,6.804687,9.785156,1.191406,0.173828,1.353516,0.561584,0.213562,0.202942,0.773193,down
148412,1.054688,6.304687,9.664063,1.191406,0.173828,1.353516,0.561584,0.213562,0.202942,0.773193,down
148417,1.359375,5.421875,9.28125,0.527344,-0.189453,1.302734,0.556152,0.217102,0.203186,0.776062,down
148422,1.742188,3.851563,8.324219,0.527344,-0.189453,1.302734,0.553955,0.218445,0.202148,0.777527,down
148427,1.742188,3.816406,8.175781,0.527344,-0.189453,1.302734,0.553955,0.218445,0.202148,0.777527,down
148432,1.742188,3.816406,8.175781,-0.400391,-0.519531,1.181641,0.551941,0.219604,0.200317,0.779114,down
148437,1.820313,3.816406,8.136719,-0.535156,-0.605469,1.121094,0.551941,0.219604,0.200317,0.779114,down
148442,1.898438,3.738281,8.597656,-0.548828,-0.708984,1.064453,0.551941,0.219604,0.200317,0.779114,down
148447,1.898438,3.738281,8.597656,-0.474609,-0.708984,1.001953,0.547363,0.2229,0.192932,0.783264,down
148453,2.320313,3.546875,7.59375,-0.271484,-0.638672,1.001953,0.544312,0.225647,0.189148,0.785522,down
148459,2.203125,3.777344,7.558594,-0.271484,-0.638672,1.001953,0.54248,0.227356,0.188171,0.786499,down
148464,2.164063,4.160156,7.210937,0.597656,-0.390625,1.013672,0.54248,0.227356,0.188171,0.786499,down
148469,2.089844,4.503906,7.214844,0.863281,-0.279297,1.042969,0.54248,0.227356,0.188171,0.786499,down
148475,1.78125,5.308594,7.410156,1.085938,-0.232422,1.085938,0.54248,0.227356,0.188171,0.786499,down
148481,1.742188,5.613281,7.171875,1.185547,-0.171875,1.121094,0.54248,0.227356,0.188171,0.786499,down
148486,1.667969,5.808594,7.132812,1.146484,-0.150391,1.15625,0.54248,0.227356,0.188171,0.786499,down
148492,1.667969,6.226562,7.105469,0.869141,-0.152344,1.226563,0.54248,0.227356,0.188171,0.786499,down
148497,1.820313,6.574219,7.027344,0.869141,-0.152344,1.226563,0.524048,0.243164,0.194397,0.792725,down
148502,1.820313,6.535156,7.210937,0.53125,-0.167969,1.232422,0.521057,0.245178,0.195007,0.793945,down
148507,1.898438,6.457031,7.292969,0.53125,-0.167969,1.232422,0.518372,0.246826,0.195251,0.795105,down
148512,1.933594,6.191406,7.484375,0.380859,-0.15625,1.222656,0.515747,0.248352,0.195312,0.796326,down
148517,1.898438,6.226562,7.753906,0.380859,-0.15625,1.222656,0.513245,0.249695,0.19519,0.797546,down
148522,1.820313,6.113281,7.789062,0.289063,-0.193359,1.214844,0.513245,0.249695,0.19519,0.797546,down
148527,1.742188,6.113281,7.554687,0.289063,-0.193359,1.214844,0.507935,0.252625,0.19458,0.800232,down
148532,1.667969,5.808594,7.40625,0.289063,-0.193359,1.214844,0.503296,0.255005,0.193604,0.802612,down
148537,1.515625,5.691406,8.359375,0.289063,-0.193359,1.214844,0.503296,0.255005,0.193604,0.802612,down
148542,1.707031,5.386719,8.707031,0.257813,-0.318359,1.15625,0.503296,0.255005,0.193604,0.802612,down
148547,1.78125,5.15625,7.980469,0.234375,-0.275391,1.160156,0.498535,0.257935,0.192261,0.804993,down
148553,1.78125,5.421875,7.289062,0.234375,-0.275391,1.160156,0.493774,0.260742,0.19104,0.807312,down
148558,1.859375,5.578125,7.171875,0.134766,-0.185547,1.154297,0.491272,0.261963,0.190308,0.808594,down
148563,1.972656,5.691406,7.871094,0.134766,-0.185547,1.154297,0.488953,0.263062,0.189636,0.809814,down
148569,2.164063,5.769531,8.175781,0.134766,-0.185547,1.154297,0.486816,0.264099,0.189087,0.810913,down
148574,1.933594,6.34375,7.171875,0.216797,-0.179687,1.023438,0.484436,0.265259,0.188538,0.812073,down
148581,1.820313,6.648437,7.027344,0.201172,-0.21875,0.962891,0.484436,0.265259,0.188538,0.812073,down
148587,2.164063,6.382812,6.871094,0.201172,-0.21875,0.962891,0.484436,0.265259,0.188538,0.812073,down
148592,2.164063,6.382812,6.871094,-0.025391,-0.267578,0.716797,0.479248,0.268372,0.186829,0.814514,down
148597,2.320313,5.882812,6.789062,-0.126953,-0.246094,0.552734,0.479248,0.268372,0.186829,0.814514,down
148602,2.320313,5.882812,6.789062,-0.148437,-0.185547,0.404297,0.477356,0.269592,0.18512,0.815613,down
148607,2.664063,4.695312,6.867187,-0.148437,-0.185547,0.404297,0.476868,0.269897,0.184448,0.815918,down
148612,2.394531,5.386719,7.40625,-0.148437,-0.185547,0.404297,0.476562,0.270142,0.183777,0.816162,down
148617,2.050781,6.035156,8.09375,-0.148437,-0.185547,0.404297,0.476562,0.270142,0.183777,0.816162,down
148622,1.972656,5.882812,8.136719,-0.171875,-0.025391,-0.113281,0.476807,0.27002,0.183472,0.816162,down
148627,1.78125,5.613281,8.289063,-0.382813,0.058594,-0.300781,0.477234,0.269714,0.183167,0.81604,down
148632,1.589844,5.039062,8.359375,-0.382813,0.058594,-0.300781,0.478943,0.268311,0.18219,0.815735,down
148637,1.398438,4.082031,8.554688,-0.382813,0.058594,-0.300781,0.478943,0.268311,0.18219,0.815735,down
148642,1.398438,3.929688,8.863281,-0.382813,0.058594,-0.300781,0.47998,0.267456,0.181702,0.815491,down
148647,1.476563,4.042969,9.128906,-0.382813,0.058594,-0.300781,0.481018,0.266602,0.181213,0.815308,down
148653,1.476563,4.3125,9.058594,-0.392578,0.0625,-0.402344,0.483093,0.265076,0.180237,0.814758,down
148659,1.628906,4.695312,6.792969,-0.392578,0.0625,-0.402344,0.484131,0.264099,0.179504,0.814636,down
148664,1.015625,4.734375,6.988281,-0.966797,0.203125,-0.412109,0.485352,0.262573,0.178345,0.814636,down
148669,1.015625,4.503906,7.449219,-1.244141,0.115234,-0.451172,0.486938,0.26062,0.176514,0.814758,down
148674,1.132813,3.96875,7.832031,-1.244141,0.115234,-0.451172,0.488892,0.258362,0.174194,0.814758,down
148680,0.402344,3.585938,8.632813,-1.244141,0.115234,-0.451172,0.49054,0.25647,0.172363,0.814758,down
148685,0.019531,3.585938,8.558594,-0.972656,0.179687,-0.601562,0.49054,0.25647,0.172363,0.814758,down
148690,-0.246094,3.46875,8.476563,-0.818359,0.078125,-0.669922,0.49054,0.25647,0.172363,0.814758,down
148695,-0.09375,3.433594,8.363281,-0.818359,0.078125,-0.669922,0.496094,0.251709,0.168457,0.813721,down
148701,0.171875,3.355469,8.210938,-0.636719,-0.367188,-0.853516,0.496094,0.251709,0.168457,0.813721,down
148707,0.519531,3.277344,7.792969,-0.515625,-0.515625,-0.957031,0.496094,0.251709,0.168457,0.813721,down
148712,1.628906,3.890625,7.632812,-0.353516,-0.648437,-1.048828,0.505859,0.251648,0.164551,0.808533,down
148717,1.933594,4.3125,7.710937,-0.353516,-0.648437,-1.048828,0.505859,0.251648,0.164551,0.808533,down
148723,2.28125,4.390625,7.714844,0.144531,-0.53125,-1.123047,0.505859,0.251648,0.164551,0.808533,down
148728,2.664063,4.425781,7.792969,0.144531,-0.53125,-1.123047,0.513367,0.25415,0.164978,0.802917,down
148733,2.777344,5.039062,9.09375,0.144531,-0.53125,-1.123047,0.515198,0.254822,0.165955,0.80127,down
148738,2.703125,5.613281,9.667969,0.144531,-0.53125,-1.123047,0.516846,0.255676,0.167419,0.799683,down
148743,2.394531,6.226562,9.890625,0.708984,-0.128906,-0.705078,0.518188,0.256653,0.169312,0.798096,down
148748,1.628906,6.265625,9.820313,0.708984,-0.128906,-0.705078,0.518982,0.257568,0.170654,0.796997,down
148753,1.898438,7.222656,10.207031,0.708984,-0.128906,-0.705078,0.519653,0.258972,0.171814,0.795837,down
148758,2.703125,8.144531,10.890625,0.427734,-0.457031,-0.210937,0.519653,0.258972,0.171814,0.795837,down
148763,3.277344,7.53125,9.585938,0.427734,-0.457031,-0.210937,0.520447,0.261536,0.172668,0.794312,down
148768,2.929688,6.996094,8.703125,0.427734,-0.457031,-0.210937,0.520813,0.262268,0.172729,0.793823,down
148773,3.046875,7.03125,8.320313,0.099609,-0.341797,-0.191406,0.520813,0.262268,0.172729,0.793823,down
148778,3.046875,7.109375,8.4375,-0.011719,-0.306641,-0.199219,0.521301,0.263062,0.172668,0.793213,down
148783,2.929688,6.574219,8.019531,-0.011719,-0.306641,-0.199219,0.5224,0.264038,0.17218,0.792297,down
148788,2.777344,6.382812,7.515625,-0.011719,-0.306641,-0.199219,0.523071,0.26416,0.171753,0.791931,down
148793,2.585938,5.808594,6.832031,-0.298828,-0.113281,-0.291016,0.523071,0.26416,0.171753,0.791931,down
148798,2.242188,5.5,6.753906,-0.333984,-0.097656,-0.291016,0.523926,0.263977,0.171265,0.791504,down
148803,1.550781,5.691406,7.210937,-0.333984,-0.097656,-0.291016,0.525574,0.263306,0.170105,0.790894,down
148808,1.324219,5.882812,7.214844,-0.371094,-0.136719,-0.28125,0.525574,0.263306,0.170105,0.790894,down
148813,1.132813,6.152344,7.175781,-0.371094,-0.136719,-0.28125,0.527283,0.262573,0.16864,0.790283,down
148818,1.398438,5.421875,7.210937,-0.371094,-0.136719,-0.28125,0.52832,0.262207,0.167542,0.789978,down
148823,1.550781,4.925781,7.214844,-0.371094,-0.136719,-0.28125,0.529297,0.261902,0.166382,0.789673,down
148828,1.667969,4.65625,7.328125,-0.583984,-0.378906,-0.292969,0.529297,0.261902,0.166382,0.789673,down
148833,1.859375,4.425781,7.671875,-0.533203,-0.416016,-0.335938,0.530457,0.261658,0.164856,0.789307,down
148838,2.394531,4.464844,8.015625,-0.533203,-0.416016,-0.335938,0.532776,0.261536,0.16217,0.78833,down
148843,2.625,4.542969,8.171875,-0.533203,-0.416016,-0.335938,0.534119,0.261475,0.160767,0.78772,down
148848,2.585938,4.8125,8.398438,-0.533203,-0.416016,-0.335938,0.534119,0.261475,0.160767,0.78772,down
148853,2.738281,4.847656,8.636719,-0.433594,-0.455078,-0.390625,0.53656,0.261719,0.158508,0.786438,down
148859,2.703125,5.003906,8.171875,-0.433594,-0.455078,-0.390625,0.537659,0.261841,0.157532,0.785828,down
148864,2.703125,5.003906,8.171875,-0.195312,-0.425781,-0.326172,0.538818,0.262268,0.156616,0.785095,down
148870,2.433594,5.808594,8.289063,-0.195312,-0.425781,-0.326172,0.539551,0.262695,0.156006,0.784546,down
148875,2.511719,5.84375,8.054688,-0.195312,-0.425781,-0.326172,0.540344,0.263367,0.155273,0.783936,down
148881,2.320313,5.652344,7.75,-0.236328,-0.421875,-0.183594,0.540344,0.263367,0.155273,0.783936,down
148886,2.164063,5.269531,7.445312,-0.353516,-0.363281,-0.144531,0.540344,0.263367,0.155273,0.783936,down
148891,2.164063,4.847656,7.328125,-0.464844,-0.324219,-0.107422,0.540344,0.263367,0.155273,0.783936,down
148896,2.625,4.351562,7.519531,-0.556641,-0.357422,-0.072266,0.540344,0.263367,0.155273,0.783936,down
148902,2.929688,4.425781,7.484375,-0.556641,-0.357422,-0.072266,0.543701,0.264038,0.149292,0.782593,down
148908,3.085938,4.351562,7.449219,-0.632812,-0.291016,-0.033203,0.543701,0.264038,0.149292,0.782593,down
148913,3.316406,4.542969,7.292969,-0.632812,-0.291016,-0.033203,0.545532,0.263184,0.14447,0.782471,down
148918,3.46875,4.582031,7.40625,-0.457031,-0.197266,-0.09375,0.545532,0.263184,0.14447,0.782471,down
148923,3.46875,4.503906,7.710937,-0.457031,-0.197266,-0.09375,0.546143,0.262817,0.143127,0.78241,down
148928,3.46875,4.582031,7.90625,-0.332031,-0.130859,-0.150391,0.547241,0.26239,0.141724,0.782043,down
148933,3.199219,5.117187,8.636719,-0.332031,-0.130859,-0.150391,0.547241,0.26239,0.141724,0.782043,down
148938,3.199219,5.117187,8.636719,0.037109,-0.072266,-0.207031,0.547668,0.26239,0.141663,0.781738,down
148943,2.929688,5.15625,8.824219,0.037109,-0.072266,-0.207031,0.548035,0.262512,0.141907,0.781372,down
148948,2.511719,5.347656,8.820313,0.251953,0.003906,-0.201172,0.548035,0.262512,0.141907,0.781372,down
148953,1.628906,5.230469,8.363281,0.216797,-0.162109,-0.089844,0.548035,0.262512,0.141907,0.781372,down
148958,1.589844,5.5,8.171875,0.082031,-0.238281,-0.056641,0.548645,0.26355,0.143555,0.780334,down
148964,1.820313,5.195312,8.019531,-0.126953,-0.25,-0.072266,0.548767,0.264099,0.143616,0.780029,down
148969,1.898438,4.8125,7.75,-0.126953,-0.25,-0.072266,0.549377,0.264648,0.142639,0.779602,down
148974,1.933594,4.425781,7.515625,-0.429687,-0.246094,-0.132812,0.549988,0.264526,0.141541,0.779419,down
148979,1.972656,4.199219,7.519531,-0.449219,-0.28125,-0.160156,0.55072,0.264343,0.140442,0.779175,down
148985,2.203125,4.734375,7.792969,-0.449219,-0.28125,-0.160156,0.551392,0.264282,0.139404,0.778931,down
148990,2.320313,4.925781,7.867187,-0.380859,-0.365234,-0.201172,0.552124,0.264282,0.138245,0.778564,down
148995,2.625,5.117187,7.980469,-0.353516,-0.378906,-0.226562,0.552124,0.264282,0.138245,0.778564,down
149000,2.738281,5.195312,7.976562,-0.353516,-0.378906,-0.226562,0.553894,0.264587,0.136047,0.777649,down
149005,2.855469,4.964844,8.09375,-0.353516,-0.378906,-0.226562,0.553894,0.264587,0.136047,0.777649,down
149011,2.816406,4.847656,8.175781,-0.263672,-0.3125,-0.273438,0.553894,0.264587,0.136047,0.777649,down
149016,2.703125,4.847656,8.253906,-0.1875,-0.308594,-0.267578,0.553894,0.264587,0.136047,0.777649,down
149022,2.738281,4.65625,8.320313,-0.1875,-0.308594,-0.267578,0.553894,0.264587,0.136047,0.777649,down
149028,2.777344,4.65625,8.175781,-0.171875,-0.310547,-0.251953,0.553894,0.264587,0.136047,0.777649,down
149033,2.664063,4.65625,8.058594,-0.205078,-0.287109,-0.212891,0.553894,0.264587,0.136047,0.777649,down
149039,2.894531,4.695312,7.867187,-0.205078,-0.287109,-0.212891,0.559692,0.266174,0.130676,0.773865,down
149044,2.894531,4.390625,7.714844,-0.103516,-0.222656,-0.201172,0.560303,0.266357,0.130188,0.773437,down
149050,2.894531,4.542969,7.558594,-0.103516,-0.222656,-0.201172,0.56073,0.266602,0.129944,0.77301,down
149056,3.085938,5.078125,7.671875,0.113281,-0.185547,-0.177734,0.56073,0.266602,0.129944,0.77301,down
149062,2.929688,5.117187,7.558594,0.238281,-0.150391,-0.140625,0.56073,0.266602,0.129944,0.77301,down
149067,2.777344,5.386719,7.519531,0.326172,-0.056641,-0.117188,0.56073,0.266602,0.129944,0.77301,down
149073,2.894531,5.730469,7.710937,0.402344,-0.044922,-0.070312,0.56073,0.266602,0.129944,0.77301,down
149078,2.855469,5.808594,7.867187,0.402344,-0.044922,-0.070312,0.561035,0.269958,0.132751,0.771179,down
149083,2.929688,5.84375,7.867187,0.402344,-0.044922,-0.070312,0.561035,0.269958,0.132751,0.771179,down
149088,2.894531,5.921875,7.75,0.234375,-0.044922,0.052734,0.560547,0.270752,0.133484,0.771118,down
149093,2.855469,5.347656,7.671875,0.234375,-0.044922,0.052734,0.560425,0.270752,0.13324,0.77124,down
149098,2.816406,5.117187,7.75,0.234375,-0.044922,0.052734,0.560425,0.270752,0.13324,0.77124,down
149103,2.894531,4.886719,7.789062,-0.408203,-0.089844,0.007813,0.560425,0.270752,0.13324,0.77124,down
149108,3.085938,4.695312,7.90625,-0.486328,-0.083984,-0.035156,0.56073,0.270203,0.131958,0.771484,down
149114,2.96875,4.582031,8.054688,-0.486328,-0.083984,-0.035156,0.561523,0.269165,0.130005,0.771545,down
149119,2.96875,4.464844,8.324219,-0.472656,-0.144531,-0.117188,0.562134,0.268616,0.128906,0.771484,down
149124,3.046875,4.234375,8.359375,-0.472656,-0.144531,-0.117188,0.562134,0.268616,0.128906,0.771484,down
149129,3.046875,4.234375,8.359375,-0.246094,-0.177734,-0.173828,0.563293,0.268066,0.127258,0.771118,down
149135,3.199219,4.234375,8.136719,-0.246094,-0.177734,-0.173828,0.563782,0.268127,0.126831,0.770813,down
149140,3.277344,4.160156,7.9375,0.007813,-0.148437,-0.197266,0.56427,0.268311,0.126648,0.770447,down
149145,3.277344,4.273437,7.941406,0.087891,-0.128906,-0.197266,0.56427,0.268311,0.126648,0.770447,down
149151,2.894531,4.503906,8.136719,0.087891,-0.128906,-0.197266,0.564941,0.268921,0.126892,0.769653,down
149157,2.96875,4.734375,8.09375,0.203125,-0.072266,-0.169922,0.564941,0.268921,0.126892,0.769653,down
149162,2.855469,4.925781,8.214844,0.230469,-0.072266,-0.134766,0.564941,0.268921,0.126892,0.769653,down
149167,2.664063,5.269531,8.019531,0.230469,-0.072266,-0.134766,0.565491,0.27002,0.128113,0.768677,down
149172,2.664063,5.347656,7.90625,0.107422,-0.050781,-0.048828,0.565491,0.27002,0.128113,0.768677,down
149177,2.546875,5.460937,7.867187,0.005859,-0.044922,-0.005859,0.565491,0.27002,0.128113,0.768677,down
149182,2.511719,5.269531,7.867187,0.005859,-0.044922,-0.005859,0.565613,0.270447,0.128296,0.768433,down
149187,2.511719,4.773437,7.90625,0.005859,-0.044922,-0.005859,0.565613,0.270447,0.128296,0.768433,down
149192,2.585938,4.582031,7.9375,-0.207031,-0.068359,0.009766,0.565613,0.270447,0.128296,0.768433,down
149197,2.816406,4.582031,7.941406,-0.210937,-0.089844,-0.013672,0.565613,0.270447,0.128296,0.768433,down
149202,2.929688,4.464844,7.714844,-0.210937,-0.089844,-0.013672,0.566223,0.269775,0.126465,0.768555,down
149207,2.894531,4.390625,7.671875,-0.210937,-0.089844,-0.013672,0.566406,0.269653,0.125977,0.768494,down
149213,3.238281,4.351562,7.675781,-0.150391,-0.099609,-0.048828,0.566406,0.269653,0.125977,0.768494,down
149218,3.277344,4.582031,8.171875,-0.056641,-0.128906,-0.058594,0.566406,0.269653,0.125977,0.768494,down
149223,3.277344,4.464844,8.136719,-0.056641,-0.128906,-0.058594,0.567017,0.269714,0.125122,0.768188,down
149228,3.316406,4.695312,7.980469,0.091797,-0.076172,-0.054687,0.567017,0.269714,0.125122,0.768188,down
149234,3.390625,4.8125,8.09375,0.154297,-0.09375,-0.029297,0.567078,0.270691,0.125488,0.7677,down
149239,3.351563,4.773437,8.25,0.154297,-0.09375,-0.029297,0.566956,0.271118,0.125732,0.767639,down
149244,3.390625,4.621094,8.019531,0.154297,-0.09375,-0.029297,0.566772,0.271484,0.125916,0.767578,down
149249,3.121094,4.542969,8.097656,0.154297,-0.09375,-0.029297,0.566772,0.271484,0.125916,0.767578,down
149254,2.96875,4.621094,8.214844,0.140625,-0.070312,0.101563,0.566772,0.271484,0.125916,0.767578,down
149259,2.929688,4.582031,8.175781,0.140625,-0.070312,0.101563,0.565979,0.272461,0.126099,0.767822,down
149264,2.894531,4.65625,8.019531,-0.025391,-0.083984,0.089844,0.565979,0.272461,0.126099,0.767822,down
149269,2.855469,4.695312,7.941406,-0.025391,-0.083984,0.089844,0.565857,0.272583,0.125916,0.767883,down
149274,2.816406,4.695312,7.792969,-0.076172,-0.091797,0.015625,0.565857,0.272583,0.125916,0.767883,down
149279,2.664063,4.886719,7.789062,-0.076172,-0.091797,0.015625,0.565857,0.272888,0.125122,0.767944,down
149284,2.585938,4.964844,7.828125,-0.029297,-0.09375,0.0,0.565857,0.272888,0.125122,0.767944,down
149289,2.664063,5.117187,7.871094,-0.029297,-0.09375,0.0,0.565979,0.273071,0.124756,0.767822,down
149294,2.625,5.15625,7.871094,-0.029297,-0.09375,0.0,0.565979,0.273193,0.124634,0.767761,down
149299,2.625,5.039062,7.910156,-0.029297,-0.09375,0.0,0.565979,0.273193,0.124634,0.767761,down
149304,2.625,4.964844,7.867187,-0.007813,-0.066406,0.027344,0.565918,0.273438,0.124329,0.767761,down
149309,2.585938,4.886719,8.054688,0.001953,-0.070312,0.054687,0.565857,0.27356,0.124207,0.767761,down
149315,2.703125,4.773437,7.941406,0.001953,-0.070312,0.054687,0.565796,0.273682,0.124084,0.767822,down
149320,2.816406,4.773437,8.054688,-0.011719,-0.089844,0.070312,0.565735,0.273865,0.123901,0.767883,down
149325,2.855469,4.734375,8.136719,-0.044922,-0.076172,0.0625,0.565674,0.273987,0.123718,0.767883,down
149331,2.96875,4.582031,8.171875,-0.044922,-0.076172,0.0625,0.565613,0.274048,0.123474,0.767944,down
149336,2.855469,4.582031,8.058594,-0.050781,-0.023437,0.0625,0.565613,0.274048,0.123474,0.767944,down
149342,2.738281,4.695312,8.253906,-0.029297,-0.011719,0.0625,0.565613,0.274048,0.123474,0.767944,down
149347,2.855469,4.582031,8.289063,0.025391,-0.03125,0.058594,0.565613,0.274048,0.123474,0.767944,down
149353,2.738281,4.582031,8.171875,0.048828,-0.019531,0.058594,0.565613,0.274048,0.123474,0.767944,down
149359,2.703125,4.582031,8.136719,0.048828,-0.001953,0.041016,0.565613,0.274048,0.123474,0.767944,down
149364,2.664063,4.464844,8.015625,0.048828,-0.001953,0.041016,0.564941,0.274353,0.123108,0.768372,down
149369,2.738281,4.542969,7.976562,0.048828,-0.001953,0.041016,0.564819,0.274475,0.123108,0.768433,down
149374,2.816406,4.621094,7.871094,0.048828,-0.001953,0.041016,0.564819,0.274475,0.123108,0.768433,down
149379,2.777344,4.695312,7.828125,-0.027344,-0.052734,-0.019531,0.564941,0.274597,0.122925,0.768311,down
149384,2.664063,5.15625,7.980469,-0.027344,-0.052734,-0.019531,0.565063,0.274658,0.122803,0.76825,down
149389,2.703125,5.230469,8.097656,-0.060547,-0.048828,0.0,0.565063,0.274658,0.122803,0.76825,down
149394,2.703125,5.230469,8.054688,-0.060547,-0.048828,0.0,0.565125,0.274658,0.12262,0.768188,down
149399,2.703125,4.886719,7.90625,-0.078125,-0.037109,0.033203,0.565125,0.274658,0.12262,0.768188,down
149404,2.738281,4.734375,7.941406,-0.078125,-0.037109,0.033203,0.565186,0.274597,0.122131,0.768311,down
149409,2.816406,4.621094,7.941406,-0.078125,-0.037109,0.033203,0.565125,0.274536,0.121826,0.768372,down
149414,2.777344,4.542969,8.054688,-0.091797,-0.035156,0.050781,0.565125,0.274414,0.121338,0.768494,down
149419,2.855469,4.542969,8.175781,-0.091797,-0.035156,0.050781,0.565125,0.274414,0.121155,0.768494,down
149424,2.96875,4.503906,8.136719,-0.091797,-0.035156,0.050781,0.565125,0.274414,0.121155,0.768494,down
149429,2.894531,4.542969,8.097656,-0.03125,-0.027344,-0.007813,0.565125,0.274414,0.121155,0.768494,down
149434,2.929688,4.582031,8.058594,-0.023437,-0.023437,-0.019531,0.565308,0.274475,0.120911,0.768433,down
149439,2.894531,4.582031,8.097656,-0.023437,-0.023437,-0.019531,0.565308,0.274475,0.120911,0.768433,down
149444,2.929688,4.582031,8.058594,-0.003906,-0.013672,-0.050781,0.565369,0.274475,0.120911,0.768372,down
149449,2.894531,4.621094,7.976562,-0.003906,-0.013672,-0.050781,0.565491,0.274475,0.120911,0.768311,down
149455,2.894531,4.65625,7.910156,-0.003906,-0.013672,-0.050781,0.565674,0.274414,0.120911,0.768127,down
149461,2.894531,4.773437,7.832031,-0.003906,-0.013672,-0.050781,0.565857,0.274414,0.120972,0.768066,down
149466,2.625,4.847656,7.976562,-0.037109,0.017578,-0.058594,0.565979,0.274292,0.120972,0.768005,down
149471,2.511719,4.886719,8.175781,-0.029297,-0.023437,-0.046875,0.566101,0.274231,0.120911,0.767944,down
149476,2.625,4.964844,8.136719,-0.029297,-0.023437,-0.046875,0.566101,0.274231,0.120911,0.767944,down
149482,2.738281,4.964844,7.9375,-0.013672,-0.035156,-0.005859,0.566101,0.274231,0.120911,0.767944,down
149487,2.777344,4.8125,7.90625,-0.033203,-0.025391,0.021484,0.566101,0.274231,0.120911,0.767944,down
149492,2.703125,4.65625,8.019531,-0.033203,-0.025391,0.021484,0.566101,0.274231,0.120911,0.767944,down
149497,2.738281,4.695312,8.136719,-0.035156,-0.019531,0.027344,0.566101,0.274231,0.120911,0.767944,down
149502,2.816406,4.621094,8.210938,-0.019531,-0.029297,0.015625,0.566101,0.274231,0.120911,0.767944,down
149508,2.855469,4.542969,8.25,-0.009766,-0.021484,0.005859,0.566101,0.274231,0.120911,0.767944,down
149514,2.929688,4.582031,8.09375,-0.009766,-0.021484,0.005859,0.566223,0.274292,0.120239,0.767944,down
149519,2.855469,4.621094,8.09375,-0.009766,-0.021484,0.005859,0.566223,0.274292,0.120239,0.767944,down
149524,2.929688,4.582031,8.25,0.003906,-0.025391,-0.013672,0.566284,0.274353,0.120239,0.767883,down
149529,2.816406,4.621094,8.019531,0.003906,-0.025391,-0.013672,0.566284,0.274353,0.120239,0.767883,down
149535,2.738281,4.621094,8.097656,0.005859,0.0,-0.007813,0.566284,0.274353,0.120239,0.767883,down
149540,2.894531,4.65625,8.019531,0.005859,0.0,-0.007813,0.566345,0.274292,0.120239,0.767822,down
149545,2.894531,4.582031,7.90625,0.005859,0.0,-0.007813,0.566406,0.274231,0.120239,0.767761,down
149550,2.816406,4.65625,7.9375,0.005859,0.0,-0.007813,0.566467,0.27417,0.120239,0.767761,down
149555,2.894531,4.734375,8.058594,-0.039063,0.017578,-0.044922,0.566589,0.274048,0.120178,0.767761,down
149560,2.894531,4.773437,7.980469,-0.046875,0.03125,-0.048828,0.566711,0.273926,0.120178,0.7677,down
149566,2.929688,4.8125,8.019531,-0.046875,0.03125,-0.048828,0.566772,0.273804,0.120117,0.7677,down
149571,2.929688,4.773437,8.054688,-0.046875,0.050781,-0.027344,0.566895,0.273621,0.120117,0.7677,down
149576,2.929688,4.734375,8.136719,-0.046875,0.058594,-0.025391,0.566895,0.273621,0.120117,0.7677,down
149581,2.929688,4.773437,8.214844,-0.046875,0.058594,-0.025391,0.567017,0.273254,0.120117,0.7677,down
149586,2.816406,4.8125,8.363281,-0.046875,0.058594,-0.025391,0.567017,0.273254,0.120117,0.7677,down
149591,2.777344,4.773437,8.25,-0.021484,0.060547,-0.039063,0.567017,0.273254,0.120117,0.7677,down
149598,2.703125,4.65625,8.058594,-0.029297,0.082031,-0.035156,0.567017,0.273254,0.120117,0.7677,down
149603,2.777344,4.734375,8.09375,-0.029297,0.082031,-0.035156,0.567017,0.273254,0.120117,0.7677,down
149609,2.738281,4.621094,7.976562,-0.052734,0.033203,-0.029297,0.567017,0.273254,0.120117,0.7677,down
149615,2.664063,4.582031,7.90625,-0.050781,0.042969,-0.033203,0.567505,0.272034,0.120239,0.767761,down
149621,2.664063,4.621094,8.097656,-0.050781,0.042969,-0.033203,0.567627,0.271912,0.120239,0.767761,down
149626,2.703125,4.542969,7.9375,0.009766,-0.009766,-0.044922,0.567627,0.271912,0.120239,0.767761,down
149631,2.585938,4.503906,7.90625,0.001953,0.0,-0.064453,0.567627,0.271912,0.120239,0.767761,down
149638,2.355469,4.847656,8.09375,0.001953,0.0,-0.064453,0.567932,0.271973,0.1203,0.767517,down
149644,2.433594,4.8125,8.054688,0.072266,-0.060547,-0.052734,0.567932,0.271973,0.1203,0.767517,down
149649,2.546875,4.773437,7.90625,0.09375,-0.054687,-0.013672,0.567932,0.271973,0.1203,0.767517,down
149654,2.433594,4.773437,7.871094,0.09375,-0.054687,-0.013672,0.567993,0.272522,0.120544,0.767151,down
149659,2.546875,4.734375,7.9375,0.09375,-0.054687,-0.013672,0.567993,0.272766,0.120667,0.76709,down
149665,2.625,4.582031,8.015625,0.111328,-0.050781,0.025391,0.567993,0.272766,0.120667,0.76709,down
149670,2.703125,4.464844,8.054688,0.111328,-0.050781,0.025391,0.567688,0.27356,0.121033,0.766968,down
149676,2.777344,4.425781,8.289063,0.111328,-0.050781,0.025391,0.567566,0.273926,0.121155,0.766907,down
149681,2.816406,4.464844,8.175781,0.148437,-0.064453,0.0,0.567566,0.273926,0.121155,0.766907,down
149687,2.894531,4.503906,8.136719,0.142578,-0.070312,-0.007813,0.567444,0.274597,0.12146,0.766724,down
149693,3.007813,4.464844,8.324219,0.160156,-0.097656,-0.015625,0.567444,0.274597,0.12146,0.766724,down
149698,2.894531,4.464844,8.441406,0.160156,-0.097656,-0.015625,0.567444,0.274597,0.12146,0.766724,down
149703,2.855469,4.503906,8.363281,0.234375,-0.103516,-0.046875,0.567444,0.274597,0.12146,0.766724,down
149708,3.121094,4.925781,8.058594,0.25,-0.132812,-0.054687,0.567444,0.274597,0.12146,0.766724,down
149714,3.238281,5.078125,7.792969,0.208984,-0.085937,-0.083984,0.567444,0.274597,0.12146,0.766724,down
149719,3.199219,5.117187,7.75,0.208984,-0.085937,-0.083984,0.567261,0.277405,0.123169,0.765564,down
149725,3.429688,5.613281,7.75,0.136719,-0.052734,-0.111328,0.567261,0.277405,0.123169,0.765564,down
149730,3.46875,5.808594,7.792969,0.136719,-0.052734,-0.111328,0.567749,0.278076,0.12384,0.764832,down
149735,3.160156,6.035156,7.554687,0.136719,-0.052734,-0.111328,0.567749,0.278076,0.12384,0.764832,down
149740,3.007813,6.035156,7.292969,-0.095703,0.107422,-0.140625,0.568359,0.277344,0.123901,0.764648,down
149745,2.433594,5.5,7.253906,-0.095703,0.107422,-0.140625,0.568665,0.27655,0.123779,0.764771,down
149750,2.203125,5.269531,7.136719,-0.095703,0.107422,-0.140625,0.568848,0.275635,0.123535,0.764954,down
149755,2.050781,5.421875,8.292969,-0.228516,0.019531,0.119141,0.568848,0.275635,0.123535,0.764954,down
149760,4.003906,5.578125,8.902344,-0.228516,0.019531,0.119141,0.568848,0.274902,0.123047,0.76532,down
149766,3.316406,4.390625,6.566406,-0.228516,0.019531,0.119141,0.568787,0.274048,0.122192,0.765747,down
149771,3.316406,4.390625,6.566406,-0.496094,0.355469,0.0625,0.568909,0.272827,0.121765,0.766235,down
149776,2.511719,4.007812,7.941406,-0.496094,0.355469,0.0625,0.56897,0.271423,0.121277,0.766724,down
149782,2.355469,4.121094,8.59375,-0.496094,0.355469,0.0625,0.56897,0.27063,0.120972,0.76709,down
149788,2.011719,3.929688,8.292969,-0.177734,0.265625,0.056641,0.56897,0.27063,0.120972,0.76709,down
149793,1.898438,3.738281,8.097656,-0.115234,0.253906,0.007813,0.56897,0.27063,0.120972,0.76709,down
149798,1.820313,4.042969,8.863281,-0.044922,0.132812,0.0,0.56897,0.27063,0.120972,0.76709,down
149804,2.089844,3.96875,8.675781,0.056641,0.035156,-0.013672,0.56897,0.27063,0.120972,0.76709,down
149809,2.320313,4.082031,8.058594,0.105469,0.033203,-0.025391,0.56897,0.27063,0.120972,0.76709,down
149815,2.164063,4.425781,8.132813,0.132812,0.025391,-0.044922,0.56897,0.27063,0.120972,0.76709,down
149820,2.050781,4.582031,8.292969,0.132812,0.025391,-0.044922,0.568726,0.269226,0.122375,0.767517,down
149825,2.128906,4.773437,8.359375,0.132812,0.025391,-0.044922,0.568726,0.269226,0.122375,0.767517,down
149830,2.242188,4.773437,8.289063,0.300781,-0.140625,-0.03125,0.568726,0.269226,0.122375,0.767517,down
149836,2.394531,4.503906,7.867187,0.300781,-0.140625,-0.03125,0.568481,0.270996,0.123535,0.766907,down
149841,2.355469,4.582031,7.910156,0.300781,-0.140625,-0.03125,0.568298,0.271851,0.123901,0.766663,down
181034,-6.691406,6.996094,2.636719,-0.306641,0.248047,-0.625,0.167053,-0.338501,0.512756,0.771118,down
181039,-6.730469,7.023437,2.671875,-0.306641,0.248047,-0.625,0.167664,-0.339844,0.51178,0.770996,down
181044,-6.882812,7.144531,2.671875,-0.306641,0.248047,-0.625,0.168945,-0.342834,0.50946,0.770996,down
181049,-6.960937,7.222656,2.710938,-0.306641,0.248047,-0.625,0.168945,-0.342834,0.50946,0.770996,down
181054,-7.039062,7.261719,2.710938,-0.558594,0.277344,-0.835937,0.170532,-0.346497,0.506042,0.771179,down
181060,-7.152344,7.296875,2.789063,-0.558594,0.277344,-0.835937,0.170532,-0.346497,0.506042,0.771179,down
181066,-7.230469,7.300781,2.789063,-0.876953,0.324219,-1.078125,0.172363,-0.351013,0.501465,0.77179,down
181071,-7.382812,7.257812,2.671875,-0.876953,0.324219,-1.078125,0.173218,-0.353271,0.499023,0.772095,down
181076,-7.425781,7.21875,2.636719,-0.876953,0.324219,-1.078125,0.174194,-0.35614,0.495911,0.772583,down
181081,-7.535156,7.027344,2.636719,-0.876953,0.324219,-1.078125,0.174194,-0.35614,0.495911,0.772583,down
181086,-7.652344,6.835937,2.671875,-1.242188,0.429687,-1.326172,0.175964,-0.362,0.489258,0.773682,down
181091,-7.652344,6.835937,2.671875,-1.470703,0.433594,-1.464844,0.17688,-0.365173,0.485474,0.774414,down
181096,-7.847656,6.722656,2.980469,-1.470703,0.433594,-1.464844,0.17688,-0.365173,0.485474,0.774414,down
181101,-7.847656,6.722656,2.980469,-1.615234,0.464844,-1.599609,0.177917,-0.368591,0.481201,0.775208,down
181107,-8.339844,7.144531,3.09375,-1.615234,0.464844,-1.599609,0.179932,-0.37561,0.472473,0.776733,down
181112,-8.644531,7.296875,3.132813,-1.714844,0.533203,-1.71875,0.179932,-0.37561,0.472473,0.776733,down
181118,-8.800781,7.335937,3.171875,-1.763672,0.550781,-1.742188,0.179932,-0.37561,0.472473,0.776733,down
181123,-9.035156,7.375,3.285156,-1.818359,0.548828,-1.757813,0.179932,-0.37561,0.472473,0.776733,down
181129,-9.644531,7.601562,3.324219,-1.892578,0.585937,-1.755859,0.179932,-0.37561,0.472473,0.776733,down
181134,-9.644531,7.601562,3.324219,-2.046875,0.666016,-1.791016,0.184998,-0.395203,0.447815,0.780396,down
181139,-10.222656,7.679687,3.324219,-2.173828,0.6875,-1.814453,0.185791,-0.399475,0.442322,0.781189,down
181144,-10.292969,7.640625,3.476563,-2.173828,0.6875,-1.814453,0.186462,-0.403625,0.436829,0.781982,down
181150,-10.714844,7.679687,3.4375,-2.173828,0.6875,-1.814453,0.187317,-0.41272,0.424744,0.783691,down
181155,-10.75,7.601562,3.476563,-2.605469,0.869141,-1.800781,0.187378,-0.417908,0.417664,0.784729,down
181160,-11.019531,7.601562,3.4375,-2.712891,0.927734,-1.738281,0.187378,-0.417908,0.417664,0.784729,down
181165,-11.019531,7.601562,3.4375,-2.712891,0.927734,-1.738281,0.187195,-0.422302,0.41156,0.785645,down
181170,-11.136719,7.640625,3.4375,-2.755859,0.943359,-1.632813,0.187195,-0.422302,0.41156,0.785645,down
181175,-11.632813,7.757812,3.59375,-2.804688,0.931641,-1.513672,0.185791,-0.431946,0.39801,0.78772,down
181180,-11.632813,7.757812,3.59375,-2.849609,0.902344,-1.382813,0.184692,-0.436401,0.391357,0.788818,down
181185,-12.058594,7.949219,4.015625,-2.849609,0.902344,-1.382813,0.183289,-0.440735,0.384705,0.790039,down
181191,-12.171875,7.792969,4.050781,-2.849609,0.902344,-1.382813,0.179626,-0.448914,0.37146,0.792603,down
181198,-12.242188,7.679687,4.128906,-2.910156,0.867187,-0.904297,0.179626,-0.448914,0.37146,0.792603,down
181203,-12.628906,7.566406,4.015625,-2.923828,0.890625,-0.787109,0.179626,-0.448914,0.37146,0.792603,down
181208,-12.824219,7.488281,3.898438,-2.904297,0.921875,-0.650391,0.179626,-0.448914,0.37146,0.792603,down
181213,-13.085938,7.375,3.859375,-2.904297,0.947266,-0.523437,0.179626,-0.448914,0.37146,0.792603,down
181218,-13.363281,7.183594,3.785156,-2.935547,0.966797,-0.375,0.179626,-0.448914,0.37146,0.792603,down
181223,-13.472656,6.992187,3.746094,-2.962891,0.974609,-0.21875,0.179626,-0.448914,0.37146,0.792603,down
181228,-13.742188,6.570312,3.746094,-2.962891,0.974609,-0.21875,0.179626,-0.448914,0.37146,0.792603,down
181233,-13.8125,6.414062,3.824219,-2.962891,0.974609,-0.21875,0.153625,-0.477234,0.323059,0.802673,down
181238,-13.96875,6.378906,3.785156,-3.056641,0.949219,0.347656,0.153625,-0.477234,0.323059,0.802673,down
181243,-14.007813,6.378906,3.785156,-3.056641,0.949219,0.347656,0.153625,-0.477234,0.323059,0.802673,down
181248,-14.007813,6.378906,3.785156,-2.917969,0.845703,0.763672,0.137817,-0.485046,0.307556,0.806946,down
181254,-14.007813,6.378906,3.785156,-2.773438,0.806641,0.976562,0.132019,-0.487,0.303162,0.808411,down
181259,-14.238281,6.492187,4.050781,-2.773438,0.806641,0.976562,0.125793,-0.488708,0.299255,0.809814,down
181264,-14.394531,6.492187,4.015625,-2.773438,0.806641,0.976562,0.119629,-0.490051,0.296143,0.811096,down
181270,-14.351563,6.683594,4.015625,-2.166016,0.669922,1.681641,0.10614,-0.491455,0.291809,0.81366,down
181275,-14.472656,6.570312,4.28125,-2.166016,0.669922,1.681641,0.099243,-0.491333,0.29071,0.815002,down
181280,-14.550781,6.53125,4.398437,-1.527344,0.269531,2.513672,0.099243,-0.491333,0.29071,0.815002,down
181285,-14.65625,6.605469,4.242187,-1.367188,0.214844,2.810547,0.092529,-0.490723,0.290405,0.816284,down
181290,-14.8125,6.53125,4.050781,-1.367188,0.214844,2.810547,0.07666,-0.487915,0.291809,0.819092,down
181295,-14.933594,6.378906,3.976563,-1.367188,0.214844,2.810547,0.069092,-0.485962,0.293213,0.820435,down
181301,-14.851563,6.300781,4.015625,-1.367188,0.214844,2.810547,0.059937,-0.482971,0.29541,0.822144,down
181306,-14.660156,6.109375,4.015625,-0.949219,-0.359375,4.074219,0.050659,-0.479553,0.298035,0.823792,down
181311,-14.234375,5.6875,3.859375,-0.949219,-0.359375,4.074219,0.040527,-0.475403,0.301392,0.825562,down
181317,-14.011719,5.800781,3.402344,-0.949219,-0.359375,4.074219,0.031982,-0.471802,0.304504,0.826843,down
181322,-14.011719,5.800781,3.402344,-0.640625,-0.556641,5.072266,0.021118,-0.466919,0.308838,0.828369,down
181328,-13.628906,5.800781,3.402344,-0.482422,-0.679687,5.376953,0.010254,-0.461609,0.313721,0.829712,down
181333,-13.628906,5.800781,3.402344,-0.296875,-0.779297,5.691406,0.010254,-0.461609,0.313721,0.829712,down
181338,-12.203125,5.6875,3.246094,-0.296875,-0.779297,5.691406,0.000977,0.455811,-0.319153,-0.830872,down
181343,-12.203125,5.6875,3.246094,0.041016,-0.855469,6.324219,0.025085,0.442444,-0.332275,-0.832581,down
181348,-10.292969,4.460937,2.519531,0.041016,-0.855469,6.324219,0.025085,0.442444,-0.332275,-0.832581,down
181354,-9.71875,4.15625,2.40625,0.40625,-0.933594,6.902344,0.025085,0.442444,-0.332275,-0.832581,down
181359,-9.140625,3.886719,2.367188,0.605469,-1.03125,7.175781,0.025085,0.442444,-0.332275,-0.832581,down
181364,-9.140625,3.886719,2.367188,0.839844,-1.126953,7.417969,0.077759,0.4104,-0.365967,-0.831604,down
181369,-8.453125,3.542969,2.480469,1.076172,-1.238281,7.650391,0.077759,0.4104,-0.365967,-0.831604,down
181374,-8.453125,3.542969,2.480469,1.292969,-1.320313,7.876953,0.104736,0.391663,-0.386108,-0.828613,down
181379,-6.84375,2.507813,2.636719,1.292969,-1.320313,7.876953,0.104736,0.391663,-0.386108,-0.828613,down
181384,-5.460937,1.050781,2.636719,1.507813,-1.361328,8.099609,0.132812,0.370728,-0.408691,-0.823364,down
181390,-4.933594,0.785156,2.671875,1.933594,-1.392578,8.439453,0.161133,0.348572,-0.433044,-0.815491,down
181395,-4.355469,0.667969,2.902344,1.933594,-1.392578,8.439453,0.161133,0.348572,-0.433044,-0.815491,down
181400,-3.785156,0.402344,3.019531,2.755859,-1.447266,8.957031,0.161133,0.348572,-0.433044,-0.815491,down
181405,-3.359375,0.019531,3.054688,2.755859,-1.447266,8.957031,0.189087,0.325439,-0.458984,-0.804749,down
181410,-2.632813,-0.785156,2.789063,3.015625,-1.361328,9.09375,0.203613,0.313232,-0.473022,-0.797913,down
181415,-2.632813,-0.785156,2.789063,3.271484,-1.185547,9.238281,0.217651,0.301514,-0.486816,-0.790405,down
181420,-1.636719,-1.589844,2.410156,3.271484,-1.185547,9.238281,0.231873,0.289917,-0.500854,-0.78186,down
181425,-1.636719,-1.589844,2.410156,3.884766,-0.980469,9.458984,0.246582,0.277893,-0.515747,-0.771973,down
181431,-0.792969,-2.320313,2.332031,3.884766,-0.980469,9.458984,0.275208,0.254944,-0.545776,-0.749268,down
181436,-0.5625,-2.355469,2.214844,3.884766,-0.980469,9.458984,0.289246,0.244324,-0.560547,-0.736511,down
181441,-0.410156,-2.628906,1.371094,3.884766,-0.980469,9.458984,0.303467,0.234253,-0.575134,-0.722656,down
181446,-0.066406,-2.894531,1.027344,3.884766,-0.980469,9.458984,0.318298,0.224487,-0.589905,-0.707336,down
181451,0.625,-2.890625,0.835937,3.884766,-0.980469,9.458984,0.33374,0.214844,-0.604797,-0.69043,down
181456,0.816406,-2.738281,0.835937,5.574219,0.990234,9.541016,0.33374,0.214844,-0.604797,-0.69043,down
181461,0.855469,-2.625,0.835937,5.574219,0.990234,9.541016,0.362244,0.198975,-0.630859,-0.656616,down
181466,0.855469,-2.625,0.835937,5.945312,1.707031,9.316406,0.362244,0.198975,-0.630859,-0.656616,down
181471,0.890625,-2.625,0.871094,5.945312,1.707031,9.316406,0.376831,0.192078,-0.643372,-0.638062,down
181476,0.699219,-2.929688,1.984375,6.148437,1.976563,9.179688,0.391846,0.185608,-0.655823,-0.617981,down
181481,0.699219,-2.929688,1.984375,6.148437,1.976563,9.179688,0.391846,0.185608,-0.655823,-0.617981,down
181486,0.664062,-2.890625,2.597656,6.605469,2.609375,8.785156,0.391846,0.185608,-0.655823,-0.617981,down
181491,0.125,-2.816406,3.242188,6.796875,2.933594,8.576172,0.391846,0.185608,-0.655823,-0.617981,down
181497,-0.21875,-2.738281,3.863281,6.796875,2.933594,8.576172,0.461792,0.166504,-0.706848,-0.509277,down
181502,-0.21875,-2.738281,3.863281,7.228516,3.496094,7.865234,0.47522,0.164917,-0.715271,-0.485168,down
181507,-0.21875,-2.738281,3.863281,7.339844,3.451172,7.585937,0.487427,0.16394,-0.722778,-0.461609,down
181512,-0.792969,-2.050781,5.429687,7.339844,3.451172,7.585937,0.487427,0.16394,-0.722778,-0.461609,down
181517,-0.832031,-2.320313,5.933594,7.367187,3.314453,7.285156,0.498779,0.16333,-0.729858,-0.437988,down
181522,-0.832031,-2.320313,5.933594,7.332031,3.302734,6.974609,0.509705,0.163025,-0.736572,-0.413574,down
181528,-1.597656,-1.09375,6.238281,7.273437,3.3125,6.669922,0.529053,0.163574,-0.747803,-0.366272,down
181533,-1.558594,-1.550781,8.070313,7.128906,2.744141,6.001953,0.529053,0.163574,-0.747803,-0.366272,down
181538,-1.519531,-1.285156,8.386719,7.011719,2.40625,5.675781,0.529053,0.163574,-0.747803,-0.366272,down
181543,-1.519531,-1.285156,8.386719,6.826172,2.15625,5.339844,0.5495,0.165588,-0.761963,-0.30011,down
181548,-1.902344,-1.589844,8.03125,6.462891,1.832031,5.0,0.554382,0.166382,-0.766296,-0.278931,down
181553,-1.902344,-1.589844,8.03125,6.462891,1.832031,5.0,0.554382,0.166382,-0.766296,-0.278931,down
181559,-2.289063,-1.820313,7.460937,6.042969,1.509766,4.671875,0.561096,0.167175,-0.773987,-0.24115,down
181564,-2.289063,-1.820313,7.460937,5.269531,0.46875,3.972656,0.562622,0.167236,-0.777832,-0.224609,down
181569,-3.511719,-1.898438,7.847656,5.269531,0.46875,3.972656,0.562988,0.167175,-0.781799,-0.209473,down
181574,-4.472656,-1.820313,7.226562,5.269531,0.46875,3.972656,0.562988,0.167175,-0.781799,-0.209473,down
181580,-5.046875,-1.820313,6.960937,3.873047,-0.945312,2.806641,0.562988,0.167175,-0.781799,-0.209473,down
181585,-4.890625,-1.933594,6.542969,3.392578,-1.488281,2.353516,0.562988,0.167175,-0.781799,-0.209473,down
181591,-6.269531,-1.972656,6.539062,2.648438,-2.525391,1.332031,0.553894,0.165405,-0.799194,-0.164795,down
181596,-7.492187,-1.898438,5.929687,2.648438,-2.525391,1.332031,0.541931,0.165283,-0.809875,-0.151978,down
181601,-7.613281,-1.933594,5.085937,1.71875,-3.873047,0.158203,0.534302,0.16571,-0.815369,-0.148865,down
181606,-8.113281,-1.324219,5.011719,1.71875,-3.873047,0.158203,0.534302,0.16571,-0.815369,-0.148865,down
181611,-8.453125,-0.824219,5.085937,1.615234,-4.902344,-0.519531,0.525391,0.166565,-0.821228,-0.147644,down
181616,-8.453125,-0.824219,5.085937,1.615234,-4.902344,-0.519531,0.513367,0.168518,-0.828369,-0.147827,down
181621,-10.066406,0.476562,5.164062,1.105469,-6.939453,-2.175781,0.498352,0.17157,-0.836487,-0.150085,down
181626,-10.066406,0.476562,5.164062,0.277344,-7.822266,-3.089844,0.498352,0.17157,-0.836487,-0.150085,down
181632,-11.519531,1.742188,3.210938,0.277344,-7.822266,-3.089844,0.44104,0.184265,-0.860718,-0.175293,down
181639,-13.285156,5.917969,-0.660156,0.277344,-7.822266,-3.089844,0.44104,0.184265,-0.860718,-0.175293,down
181644,-13.929688,7.601562,-2.152344,-4.048828,-12.359375,-8.052734,0.44104,0.184265,-0.860718,-0.175293,down
181650,-14.550781,9.019531,-4.03125,-7.060547,-14.220703,-11.148438,0.44104,0.184265,-0.860718,-0.175293,down
181655,-16.847656,11.546875,-8.511719,-7.060547,-14.220703,-11.148438,0.324768,0.213013,-0.88208,-0.266602,down
181660,-17.609375,13.539063,-11.15625,-7.060547,-14.220703,-11.148438,0.286316,0.223694,-0.880981,-0.303162,down
181666,-17.609375,13.539063,-11.15625,-10.285156,-14.810547,-14.542969,0.250061,0.234863,-0.875671,-0.339844,down
181671,-17.996094,16.261719,-14.257813,-10.285156,-14.810547,-14.542969,0.211243,0.248718,-0.865051,-0.381042,down
181676,-17.570312,22.695312,-21.34375,-13.214844,-14.390625,-18.0625,0.169861,0.26532,-0.847961,-0.42627,down
181681,-17.570312,22.695312,-21.34375,-13.214844,-14.390625,-18.0625,0.169861,0.26532,-0.847961,-0.42627,down
181686,-16.347656,25.335937,-21.152344,-16.498047,-13.607422,-21.363281,0.085083,0.303528,-0.793335,-0.520874,down
181691,-16.0,24.003906,-21.191406,-18.917969,-9.566406,-24.28125,0.085083,0.303528,-0.793335,-0.520874,down
181696,-17.417969,21.816406,-20.464844,-18.917969,-9.566406,-24.28125,0.035217,-0.384277,0.649231,0.655457,down
181701,-20.484375,21.355469,-18.777344,-18.917969,-9.566406,-24.28125,0.066467,-0.410461,0.598694,0.684631,down
181706,-25.238281,21.355469,-15.292969,-16.689453,-6.433594,-25.074219,0.105347,-0.441467,0.533386,0.713806,down
181711,-32.324219,22.046875,-4.757812,-16.689453,-6.433594,-25.074219,0.138489,-0.46405,0.478027,0.732788,down
181716,-33.851562,24.421875,0.988281,-16.689453,-6.433594,-25.074219,0.175049,-0.483521,0.41864,0.748535,down
181721,-34.699219,28.136719,4.972656,-9.6875,-6.712891,-17.974609,0.175049,-0.483521,0.41864,0.748535,down
181726,-33.585937,24.113281,8.074219,-9.6875,-6.712891,-17.974609,0.203064,-0.494324,0.374634,0.75769,down
181732,-27.03125,11.96875,10.066406,-9.6875,-6.712891,-17.974609,0.249268,-0.503113,0.30249,0.770264,down
181737,-24.355469,5.535156,10.257813,-3.9375,-5.652344,-7.582031,0.249268,-0.503113,0.30249,0.770264,down
181742,-22.824219,1.050781,9.070313,-1.066406,-4.417969,-4.744141,0.249268,-0.503113,0.30249,0.770264,down
181748,-18.839844,-2.011719,6.007812,-1.066406,-4.417969,-4.744141,0.249268,-0.503113,0.30249,0.770264,down
181753,-15.960938,0.667969,1.714844,4.939453,-0.464844,-0.570312,0.249268,-0.503113,0.30249,0.770264,down
181758,-14.855469,6.53125,-3.1875,8.730469,1.802734,0.642578,0.249268,-0.503113,0.30249,0.770264,down
181764,-15.65625,13.65625,-5.523437,10.398438,2.945313,1.558594,0.249268,-0.503113,0.30249,0.770264,down
181770,-18.949219,22.921875,-0.582031,10.398438,2.945313,1.558594,0.249268,-0.503113,0.30249,0.770264,down
181775,-19.027344,24.492187,1.292969,9.863281,3.603516,2.107422,0.249268,-0.503113,0.30249,0.770264,down
181781,-18.722656,24.496094,1.832031,10.142578,4.21875,1.542969,0.249268,-0.503113,0.30249,0.770264,down
181786,-18.261719,21.085937,1.753906,10.142578,4.21875,1.542969,0.338196,-0.466309,0.410461,0.706909,down
181791,-18.453125,18.0625,2.023438,8.101563,1.582031,0.882812,0.338196,-0.466309,0.410461,0.706909,down
181796,-18.113281,14.804688,2.480469,6.595703,-0.195312,0.517578,0.34436,-0.46167,0.430359,0.695007,down
181801,-16.34375,11.546875,3.285156,6.595703,-0.195312,0.517578,0.357178,-0.44928,0.453308,0.682007,down
181806,-13.703125,8.980469,4.972656,6.595703,-0.195312,0.517578,0.362732,-0.44281,0.458496,0.67981,down
181811,-9.644531,6.1875,7.15625,6.595703,-0.195312,0.517578,0.362732,-0.44281,0.458496,0.67981,down
181816,-8.800781,5.457031,6.425781,1.326172,-1.339844,0.240234,0.368164,-0.435181,0.461304,0.679932,down
181821,-7.609375,4.539062,3.898438,-1.490234,-0.236328,0.339844,0.368164,-0.435181,0.461304,0.679932,down
181826,-7.609375,4.539062,3.898438,-1.490234,-0.236328,0.339844,0.364685,-0.436096,0.456421,0.684448,down
181831,-6.882812,4.652344,3.476563,-3.935547,0.152344,0.736328,0.364685,-0.436096,0.456421,0.684448,down
181836,-7.230469,3.925781,4.015625,-3.935547,0.152344,0.736328,0.359558,-0.438721,0.45105,0.689026,down
181841,-7.042969,3.582031,4.089844,-3.935547,0.152344,0.736328,0.344543,-0.446838,0.436035,0.70105,down
181846,-7.113281,3.007813,4.015625,-7.341797,0.701172,1.322266,0.344543,-0.446838,0.436035,0.70105,down
181851,-7.496094,2.316406,3.632813,-6.619141,0.759766,1.205078,0.332703,-0.453125,0.424561,0.709717,down
181857,-7.808594,1.398438,1.832031,-6.619141,0.759766,1.205078,0.312805,-0.46344,0.405762,0.723022,down
181862,-7.996094,1.742188,1.332031,-6.619141,0.759766,1.205078,0.30658,-0.466125,0.400513,0.726868,down
181868,-7.875,2.394531,2.367188,-0.669922,-0.03125,0.798828,0.30304,-0.466858,0.398499,0.728943,down
181873,-7.765625,3.273438,3.824219,0.84375,-0.052734,0.746094,0.30304,-0.466858,0.398499,0.728943,down
181878,-7.957031,3.542969,3.324219,1.824219,0.298828,0.6875,0.30304,-0.466858,0.398499,0.728943,down
181884,-8.261719,3.734375,2.636719,2.486328,0.658203,0.662109,0.30304,-0.466858,0.398499,0.728943,down
181889,-8.613281,3.773438,2.097656,2.980469,0.783203,0.652344,0.30304,-0.466858,0.398499,0.728943,down
181896,-8.761719,3.886719,1.140625,2.980469,0.783203,0.652344,0.30304,-0.466858,0.398499,0.728943,down
181901,-8.800781,4.003906,1.101563,3.679688,0.441406,0.652344,0.30304,-0.466858,0.398499,0.728943,down
181906,-8.761719,4.117187,1.257813,3.619141,0.158203,0.667969,0.31366,-0.451294,0.443298,0.70813,down
181911,-8.683594,4.539062,1.523438,3.619141,0.158203,0.667969,0.31604,-0.447998,0.449463,0.705261,down
181916,-8.683594,4.578125,1.640625,3.619141,0.158203,0.667969,0.318054,-0.444824,0.455017,0.70282,down
181921,-8.796875,4.691406,1.640625,3.619141,0.158203,0.667969,0.318054,-0.444824,0.455017,0.70282,down
181926,-8.761719,4.769531,1.5625,1.582031,-0.117188,0.683594,0.319397,-0.440552,0.461548,0.700623,down
181931,-8.875,4.691406,1.332031,1.582031,-0.117188,0.683594,0.319397,-0.440552,0.461548,0.700623,down
181936,-8.917969,4.5,1.292969,-0.544922,-0.017578,0.697266,0.318787,-0.43927,0.463074,0.700745,down
181941,-8.835938,4.230469,1.21875,-0.544922,-0.017578,0.697266,0.317322,-0.43866,0.463379,0.701538,down
181947,-8.835938,3.886719,1.101563,-0.544922,-0.017578,0.697266,0.312805,-0.438599,0.461548,0.704834,down
181953,-8.683594,3.542969,1.21875,-0.544922,-0.017578,0.697266,0.309998,-0.438965,0.4599,0.706909,down
181959,-8.683594,3.464844,1.292969,-1.605469,0.060547,0.75,0.309998,-0.438965,0.4599,0.706909,down
181964,-8.535156,3.273438,1.332031,-1.554688,0.111328,0.748047,0.309998,-0.438965,0.4599,0.706909,down
181970,-8.613281,3.273438,1.332031,-1.337891,0.189453,0.755859,0.309998,-0.438965,0.4599,0.706909,down
181976,-8.574219,3.351563,1.332031,-0.560547,0.326172,0.769531,0.309998,-0.438965,0.4599,0.706909,down
181981,-8.613281,3.390625,1.292969,-0.560547,0.326172,0.769531,0.295288,-0.441284,0.45282,0.716248,down
181986,-8.722656,3.273438,1.292969,-0.560547,0.326172,0.769531,0.293152,-0.441345,0.453369,0.716736,down
181991,-8.414063,3.082031,1.371094,0.779297,0.416016,0.738281,0.291382,-0.441101,0.454895,0.716614,down
181996,-8.414063,3.082031,1.601563,0.779297,0.416016,0.738281,0.290283,-0.440674,0.456909,0.716064,down
182001,-8.957031,3.390625,1.792969,0.779297,0.416016,0.738281,0.289429,-0.440002,0.459717,0.715027,down
182007,-9.296875,3.425781,1.410156,1.007813,0.580078,0.775391,0.287659,-0.438965,0.465454,0.712646,down
182012,-9.5625,3.542969,1.21875,0.773437,0.451172,0.685547,0.286682,-0.438477,0.468262,0.711548,down
182017,-9.601563,3.621094,1.332031,0.773437,0.451172,0.685547,0.28595,-0.437805,0.470703,0.710632,down
182022,-9.566406,3.847656,1.640625,0.773437,0.451172,0.685547,0.285706,-0.437012,0.472839,0.709778,down
182027,-9.488281,4.195312,1.945313,1.044922,0.150391,0.4375,0.285767,-0.435974,0.475464,0.708679,down
182032,-9.488281,4.460937,2.058594,0.929687,0.117188,0.378906,0.286011,-0.435059,0.477783,0.707581,down
182037,-9.484375,4.730469,2.058594,0.929687,0.117188,0.378906,0.286072,-0.434326,0.479431,0.706909,down
182043,-9.378906,4.960937,2.136719,0.929687,0.117188,0.378906,0.285828,-0.433594,0.480774,0.706482,down
182048,-9.378906,5.0,2.097656,0.007813,0.001953,0.386719,0.285278,-0.433044,0.481506,0.706543,down
182053,-9.417969,4.769531,1.753906,0.007813,0.001953,0.386719,0.284668,-0.432678,0.48175,0.706848,down
182059,-9.179688,4.421875,1.90625,0.007813,0.001953,0.386719,0.283875,-0.432251,0.481689,0.70752,down
182064,-9.035156,4.269531,2.097656,-0.417969,-0.210937,0.361328,0.283875,-0.432251,0.481689,0.70752,down
182069,-8.878906,4.078125,1.945313,-0.447266,-0.210937,0.341797,0.283875,-0.432251,0.481689,0.70752,down
182074,-8.640625,3.925781,1.714844,-0.458984,-0.201172,0.332031,0.283875,-0.432251,0.481689,0.70752,down
182080,-8.375,3.8125,1.832031,-0.498047,-0.234375,0.345703,0.283875,-0.432251,0.481689,0.70752,down
182086,-8.300781,3.734375,1.867188,-0.533203,-0.234375,0.359375,0.283875,-0.432251,0.481689,0.70752,down
182091,-8.226563,3.65625,1.832031,-0.474609,-0.115234,0.388672,0.283875,-0.432251,0.481689,0.70752,down
182096,-8.148438,3.621094,1.601563,-0.474609,-0.115234,0.388672,0.27771,-0.42926,0.477539,0.714539,down
182101,-7.875,3.3125,1.640625,-0.388672,-0.083984,0.417969,0.27771,-0.42926,0.477539,0.714539,down
182106,-7.808594,3.65625,1.640625,-0.257813,-0.068359,0.455078,0.274597,-0.42804,0.477051,0.716797,down
182111,-7.730469,3.234375,1.5625,-0.257813,-0.068359,0.455078,0.274597,-0.42804,0.477051,0.716797,down
182116,-7.382812,3.121094,1.832031,-0.257813,-0.068359,0.455078,0.273621,-0.427429,0.477478,0.717285,down
182122,-7.457031,3.273438,2.058594,0.240234,0.146484,0.597656,0.273621,-0.427429,0.477478,0.717285,down
182127,-7.914062,3.464844,1.640625,0.273438,0.205078,0.605469,0.271912,-0.426147,0.479126,0.717529,down
182133,-7.914062,3.390625,1.753906,0.273438,0.205078,0.605469,0.269958,-0.42511,0.481567,0.717285,down
182138,-7.917969,3.503906,1.792969,0.419922,0.1875,0.554687,0.269104,-0.424561,0.48291,0.717041,down
182144,-8.03125,3.695313,1.753906,0.603516,0.214844,0.511719,0.269104,-0.424561,0.48291,0.717041,down
182149,-8.070313,4.003906,1.867188,0.603516,0.214844,0.511719,0.268005,-0.423279,0.486389,0.71582,down
182155,-8.03125,4.117187,1.984375,0.675781,0.177734,0.425781,0.268005,-0.423279,0.486389,0.71582,down
182160,-8.03125,4.308594,2.058594,0.572266,0.171875,0.402344,0.268005,-0.423279,0.486389,0.71582,down
182165,-8.1875,4.460937,1.945313,0.462891,0.203125,0.378906,0.268005,-0.423279,0.486389,0.71582,down
182171,-8.230469,4.5,1.867188,0.210937,0.199219,0.324219,0.268005,-0.423279,0.486389,0.71582,down
182176,-8.191406,4.421875,1.832031,0.210937,0.199219,0.324219,0.265991,-0.421021,0.493652,0.712952,down
182182,-8.261719,4.421875,1.867188,0.099609,0.171875,0.296875,0.265991,-0.421021,0.493652,0.712952,down
182187,-8.226563,4.347656,1.90625,-0.113281,0.144531,0.234375,0.264709,-0.420837,0.494873,0.712708,down
182192,-8.191406,4.308594,1.867188,-0.113281,0.144531,0.234375,0.263184,-0.420898,0.495178,0.712952,down
182197,-8.152344,4.308594,1.945313,-0.113281,0.144531,0.234375,0.263184,-0.420898,0.495178,0.712952,down
182202,-8.152344,4.308594,1.945313,-0.28125,0.097656,0.185547,0.261841,-0.421143,0.494934,0.713562,down
182207,-8.109375,4.269531,1.90625,-0.28125,0.097656,0.185547,0.260986,-0.421265,0.494629,0.713928,down
182212,-8.074219,4.269531,1.867188,-0.222656,0.072266,0.185547,0.260986,-0.421265,0.494629,0.713928,down
182217,-8.035156,4.269531,1.792969,-0.132812,0.070312,0.175781,0.260315,-0.421387,0.494446,0.714294,down
182222,-8.035156,4.269531,1.753906,-0.132812,0.070312,0.175781,0.259277,-0.421387,0.494446,0.714661,down
182227,-8.035156,4.308594,1.714844,0.050781,0.058594,0.1875,0.259277,-0.421387,0.494446,0.714661,down
182232,-7.992187,4.347656,1.675781,0.134766,0.0625,0.183594,0.258789,-0.421265,0.49469,0.714722,down
182238,-7.914062,4.386719,1.640625,0.134766,0.0625,0.183594,0.258301,-0.420898,0.495605,0.714478,down
182243,-7.875,4.460937,1.601563,0.134766,0.0625,0.183594,0.258118,-0.420715,0.496216,0.714233,down
182248,-7.917969,4.460937,1.523438,0.257813,0.099609,0.15625,0.257996,-0.420532,0.496887,0.713928,down
182253,-7.957031,4.5,1.449219,0.257813,0.099609,0.15625,0.257874,-0.42041,0.497681,0.713501,down
182258,-7.957031,4.539062,1.449219,0.257813,0.099609,0.15625,0.257813,-0.420349,0.498352,0.713074,down
182264,-7.953125,4.652344,1.5625,0.257813,0.099609,0.15625,0.25769,-0.420349,0.499084,0.712585,down
182270,-7.953125,4.652344,1.5625,0.203125,0.177734,0.078125,0.25769,-0.420349,0.499084,0.712585,down
182277,-7.992187,4.730469,1.484375,0.203125,0.177734,0.078125,0.25769,-0.420349,0.499084,0.712585,down
182282,-8.035156,4.691406,1.484375,0.070312,0.208984,0.0625,0.25769,-0.420349,0.499084,0.712585,down
182287,-8.03125,4.652344,1.523438,0.011719,0.199219,0.052734,0.25647,-0.421448,0.501099,0.710937,down
182292,-8.03125,4.613281,1.640625,0.011719,0.199219,0.052734,0.256165,-0.421814,0.501221,0.710815,down
182297,-8.035156,4.578125,1.601563,-0.089844,0.158203,0.03125,0.256165,-0.421814,0.501221,0.710815,down
182302,-7.992187,4.578125,1.5625,-0.103516,0.132812,0.019531,0.255798,-0.42218,0.501282,0.710693,down
182307,-7.953125,4.539062,1.5625,-0.103516,0.132812,0.019531,0.255493,-0.422485,0.501221,0.710632,down
182312,-7.953125,4.539062,1.5625,-0.103516,0.132812,0.019531,0.254944,-0.423035,0.501099,0.710632,down
182317,-7.953125,4.5,1.5625,-0.103516,0.132812,0.019531,0.254944,-0.423035,0.501099,0.710632,down
182322,-7.917969,4.460937,1.523438,-0.052734,0.048828,-0.013672,0.254944,-0.423035,0.501099,0.710632,down
182327,-7.917969,4.5,1.523438,-0.052734,0.048828,-0.013672,0.254639,-0.423401,0.500916,0.710571,down
182332,-7.917969,4.5,1.484375,-0.025391,0.005859,-0.042969,0.254578,-0.423584,0.500854,0.710571,down
182338,-7.957031,4.539062,1.523438,-0.025391,0.005859,-0.042969,0.2547,-0.423767,0.500732,0.71051,down
182343,-7.917969,4.578125,1.484375,0.001953,-0.037109,-0.072266,0.254822,-0.423828,0.500671,0.710449,down
182349,-7.992187,4.652344,1.410156,0.001953,-0.037109,-0.072266,0.255005,-0.423889,0.500549,0.710449,down
182354,-7.996094,4.613281,1.449219,0.003906,-0.083984,-0.105469,0.25531,-0.423889,0.500427,0.710449,down
182359,-7.996094,4.613281,1.484375,-0.017578,-0.119141,-0.105469,0.25531,-0.423889,0.500427,0.710449,down
182365,-8.070313,4.613281,1.410156,-0.017578,-0.119141,-0.105469,0.25592,-0.423828,0.5,0.71051,down
