timestamp,ax,ay,az,gx,gy,gz,qw,qx,qy,qz,label
328958,4.605469,8.066406,-3.195313,-0.367188,-0.248047,-0.162109,0.219421,-0.08075,-0.808899,-0.53949,down
328963,4.605469,8.066406,-3.195313,0.271484,-0.234375,-0.214844,0.218567,-0.080505,-0.809387,-0.539124,down
328969,4.566406,8.0625,-3.039063,0.271484,-0.234375,-0.214844,0.217957,-0.0802,-0.809937,-0.538635,down
328975,4.527344,8.105469,-2.925781,0.271484,-0.234375,-0.214844,0.217224,-0.079773,-0.810608,-0.537903,down
328980,4.527344,8.214844,-2.964844,0.423828,-0.226562,-0.253906,0.217224,-0.079773,-0.810608,-0.537903,down
328985,4.527344,8.328125,-2.925781,0.365234,-0.246094,-0.255859,0.217224,-0.079773,-0.810608,-0.537903,down
328990,4.527344,8.449219,-2.925781,0.244141,-0.255859,-0.271484,0.217224,-0.079773,-0.810608,-0.537903,down
328995,4.527344,8.636719,-2.964844,0.244141,-0.255859,-0.271484,0.217224,-0.079773,-0.810608,-0.537903,down
329001,4.527344,8.710938,-3.039063,0.244141,-0.255859,-0.271484,0.213074,-0.078003,-0.813293,-0.535828,down
329007,4.527344,8.519531,-3.117188,-0.314453,-0.283203,-0.251953,0.213074,-0.078003,-0.813293,-0.535828,down
329013,4.527344,8.449219,-3.117188,-0.464844,-0.273438,-0.232422,0.210083,-0.078186,-0.812378,-0.53833,down
329018,4.527344,8.328125,-3.15625,-0.607422,-0.255859,-0.181641,0.209106,-0.078491,-0.811707,-0.539673,down
329023,4.488281,8.171875,-3.195313,-0.607422,-0.255859,-0.181641,0.208191,-0.078735,-0.811096,-0.540955,down
329028,4.488281,8.136719,-3.230469,-0.607422,-0.255859,-0.181641,0.207458,-0.079041,-0.810547,-0.541992,down
329034,4.414062,8.101563,-3.230469,-0.607422,-0.255859,-0.181641,0.206604,-0.079285,-0.809998,-0.543091,down
329039,4.414062,8.175781,-3.308594,-0.291016,-0.169922,-0.111328,0.206055,-0.079407,-0.809692,-0.543762,down
329044,4.414062,8.210938,-3.308594,-0.291016,-0.169922,-0.111328,0.205444,-0.079529,-0.809448,-0.54425,down
329050,4.375,8.292969,-3.347656,-0.291016,-0.169922,-0.111328,0.205078,-0.079529,-0.809448,-0.544495,down
329055,4.335937,8.253906,-3.347656,0.091797,-0.083984,-0.054687,0.205078,-0.079529,-0.809448,-0.544495,down
329060,4.296875,8.253906,-3.308594,0.177734,-0.046875,-0.050781,0.205078,-0.079529,-0.809448,-0.544495,down
329065,4.335937,8.175781,-3.269531,0.177734,-0.046875,-0.050781,0.204468,-0.079224,-0.81012,-0.543762,down
329070,4.257812,8.132813,-3.117188,0.177734,-0.046875,-0.050781,0.204468,-0.079224,-0.81012,-0.543762,down
329075,4.257812,8.132813,-3.117188,0.277344,0.009766,-0.001953,0.204468,-0.079224,-0.81012,-0.543762,down
329080,4.222656,8.171875,-3.0,0.251953,0.023437,0.007813,0.204468,-0.079224,-0.81012,-0.543762,down
329086,4.183594,8.175781,-2.925781,0.191406,0.039063,0.007813,0.204468,-0.079224,-0.81012,-0.543762,down
329091,4.105469,8.175781,-2.847656,0.126953,0.041016,0.019531,0.204468,-0.079224,-0.81012,-0.543762,down
329096,4.066406,8.210938,-2.847656,0.126953,0.041016,0.019531,0.204773,-0.078308,-0.811768,-0.541199,down
329102,4.066406,8.25,-2.847656,0.126953,0.041016,0.019531,0.204895,-0.078186,-0.811768,-0.541199,down
329107,4.027344,8.214844,-2.847656,0.126953,0.041016,0.019531,0.204895,-0.078186,-0.811768,-0.541199,down
329113,3.992188,8.214844,-2.886719,-0.056641,0.009766,-0.009766,0.204895,-0.078125,-0.811646,-0.541443,down
329119,3.992188,8.136719,-2.964844,-0.056641,0.009766,-0.009766,0.204834,-0.078125,-0.811523,-0.541626,down
329124,3.953125,8.0625,-2.964844,-0.044922,-0.013672,-0.033203,0.204712,-0.078064,-0.811523,-0.541748,down
329129,3.992188,8.105469,-3.0,-0.015625,-0.017578,-0.048828,0.20459,-0.078003,-0.811462,-0.541809,down
329135,3.953125,8.066406,-3.0,-0.009766,-0.03125,-0.0625,0.20459,-0.078003,-0.811462,-0.541809,down
329142,3.953125,8.023438,-3.0,0.001953,-0.017578,-0.072266,0.20459,-0.078003,-0.811462,-0.541809,down
329147,3.914063,8.066406,-3.0,0.019531,-0.005859,-0.09375,0.20459,-0.078003,-0.811462,-0.541809,down
329152,3.875,8.027344,-2.964844,0.019531,-0.005859,-0.09375,0.203857,-0.077393,-0.811584,-0.541992,down
329158,3.875,8.023438,-2.925781,0.017578,-0.013672,-0.111328,0.203857,-0.077393,-0.811584,-0.541992,down
329163,3.835938,8.027344,-2.886719,0.017578,-0.013672,-0.111328,0.203247,-0.076599,-0.811768,-0.542114,down
329168,3.800781,7.988281,-2.808594,-0.005859,-0.03125,-0.121094,0.203003,-0.076355,-0.811768,-0.542175,down
329173,3.761719,7.949219,-2.808594,-0.005859,-0.03125,-0.121094,0.202698,-0.076172,-0.811829,-0.542297,down
329178,3.761719,7.871094,-2.695313,-0.037109,-0.054687,-0.130859,0.202332,-0.075928,-0.811829,-0.542419,down
329183,3.761719,7.871094,-2.695313,-0.037109,-0.054687,-0.130859,0.201965,-0.075684,-0.811829,-0.542664,down
329188,3.800781,7.871094,-2.734375,-0.083984,-0.089844,-0.171875,0.201599,-0.0755,-0.811768,-0.542847,down
329194,3.722656,7.90625,-2.808594,-0.083984,-0.089844,-0.171875,0.201111,-0.075256,-0.811707,-0.543152,down
329199,3.761719,7.90625,-2.808594,-0.123047,-0.09375,-0.207031,0.201111,-0.075256,-0.811707,-0.543152,down
329204,3.800781,7.867187,-2.886719,-0.128906,-0.097656,-0.214844,0.201111,-0.075256,-0.811707,-0.543152,down
329210,3.761719,7.871094,-2.964844,-0.128906,-0.097656,-0.214844,0.199402,-0.074463,-0.811462,-0.544189,down
329217,3.761719,7.867187,-3.0,-0.15625,-0.095703,-0.248047,0.199402,-0.074463,-0.811462,-0.544189,down
329223,3.761719,7.792969,-2.964844,-0.164062,-0.083984,-0.265625,0.199402,-0.074463,-0.811462,-0.544189,down
329228,3.722656,7.789062,-2.925781,-0.166016,-0.085937,-0.296875,0.197571,-0.073364,-0.811096,-0.545593,down
329234,3.722656,7.75,-2.925781,-0.166016,-0.085937,-0.296875,0.196289,-0.07251,-0.810852,-0.54657,down
329239,3.683594,7.710937,-2.964844,-0.154297,-0.060547,-0.349609,0.195618,-0.07196,-0.81073,-0.547058,down
329245,3.644531,7.679687,-2.886719,-0.154297,-0.060547,-0.349609,0.194885,-0.07135,-0.810608,-0.547546,down
329252,3.609375,7.640625,-2.886719,-0.154297,-0.060547,-0.349609,0.194885,-0.07135,-0.810608,-0.547546,down
329257,3.609375,7.644531,-2.808594,-0.134766,-0.044922,-0.427734,0.194885,-0.07135,-0.810608,-0.547546,down
329262,3.53125,7.601562,-2.773438,-0.134766,-0.044922,-0.427734,0.192749,-0.069214,-0.810303,-0.549072,down
329267,3.53125,7.640625,-2.695313,-0.134766,-0.044922,-0.427734,0.191956,-0.06842,-0.810242,-0.5495,down
329273,3.453125,7.679687,-2.695313,-0.085937,-0.064453,-0.445312,0.191956,-0.06842,-0.810242,-0.5495,down
329278,3.378906,7.679687,-2.617188,-0.085937,-0.064453,-0.445312,0.19043,-0.066833,-0.81012,-0.550415,down
329284,3.339844,7.871094,-2.503906,-0.085937,-0.064453,-0.445312,0.188782,-0.065247,-0.81012,-0.551147,down
329290,3.300781,7.984375,-2.503906,-0.060547,-0.160156,-0.419922,0.187866,-0.064575,-0.810181,-0.551514,down
329296,3.261719,8.105469,-2.542969,-0.042969,-0.210937,-0.390625,0.187866,-0.064575,-0.810181,-0.551514,down
329302,3.261719,8.367188,-2.503906,-0.042969,-0.210937,-0.390625,0.187866,-0.064575,-0.810181,-0.551514,down
329307,3.261719,8.328125,-2.503906,-0.035156,-0.351563,-0.324219,0.187866,-0.064575,-0.810181,-0.551514,down
329313,3.261719,8.289063,-2.542969,-0.058594,-0.400391,-0.296875,0.182068,-0.063171,-0.810852,-0.552612,down
329318,3.261719,8.214844,-2.65625,-0.058594,-0.400391,-0.296875,0.180725,-0.063293,-0.810913,-0.552917,down
329323,3.261719,8.210938,-2.695313,-0.169922,-0.507812,-0.246094,0.180725,-0.063293,-0.810913,-0.552917,down
329328,3.300781,8.175781,-2.773438,-0.169922,-0.507812,-0.246094,0.177856,-0.063782,-0.810974,-0.553711,down
329333,3.339844,8.328125,-2.964844,-0.169922,-0.507812,-0.246094,0.176208,-0.064026,-0.810974,-0.55426,down
329338,3.339844,8.410156,-3.0,-0.169922,-0.507812,-0.246094,0.174683,-0.06427,-0.810913,-0.55481,down
329343,3.378906,8.445313,-3.039063,-0.169922,-0.507812,-0.246094,0.174683,-0.06427,-0.810913,-0.55481,down
329348,3.378906,8.554688,-3.117188,-0.326172,-0.5625,-0.402344,0.174683,-0.06427,-0.810913,-0.55481,down
329353,3.339844,8.714844,-3.269531,-0.349609,-0.5625,-0.443359,0.171326,-0.064575,-0.810669,-0.556091,down
329358,3.378906,8.753906,-3.308594,-0.349609,-0.5625,-0.443359,0.169434,-0.064636,-0.810486,-0.556946,down
329363,3.417969,8.789063,-3.347656,-0.349609,-0.5625,-0.443359,0.165527,-0.064514,-0.81012,-0.558716,down
329368,3.417969,8.871094,-3.460938,-0.410156,-0.53125,-0.554687,0.165527,-0.064514,-0.81012,-0.558716,down
329373,3.378906,9.015625,-3.578125,-0.410156,-0.53125,-0.554687,0.161865,-0.064087,-0.80957,-0.560608,down
329378,3.453125,9.09375,-3.652344,-0.474609,-0.515625,-0.621094,0.161865,-0.064087,-0.80957,-0.560608,down
329383,3.453125,9.171875,-3.691406,-0.498047,-0.509766,-0.650391,0.159668,-0.063721,-0.809204,-0.561768,down
329388,3.492188,9.292969,-3.691406,-0.498047,-0.509766,-0.650391,0.155701,-0.062866,-0.808411,-0.564148,down
329393,3.492188,9.398438,-3.730469,-0.498047,-0.509766,-0.650391,0.153625,-0.062439,-0.807983,-0.56543,down
329398,3.492188,9.59375,-3.769531,-0.580078,-0.494141,-0.710937,0.153625,-0.062439,-0.807983,-0.56543,down
329403,3.453125,9.671875,-3.804688,-0.603516,-0.490234,-0.703125,0.151428,-0.06189,-0.807434,-0.566833,down
329408,3.492188,9.746094,-3.84375,-0.603516,-0.490234,-0.703125,0.1474,-0.060913,-0.806335,-0.569519,down
329413,3.453125,9.820313,-3.84375,-0.617187,-0.457031,-0.671875,0.1474,-0.060913,-0.806335,-0.569519,down
329418,3.453125,9.820313,-3.84375,-0.625,-0.427734,-0.640625,0.145081,-0.060364,-0.805664,-0.571167,down
329423,3.453125,9.632813,-3.84375,-0.625,-0.427734,-0.640625,0.14325,-0.059875,-0.805054,-0.572571,down
329428,3.492188,9.632813,-3.769531,-0.625,-0.427734,-0.640625,0.139587,-0.05896,-0.803711,-0.575378,down
329433,3.417969,9.59375,-3.804688,-0.625,-0.427734,-0.640625,0.138184,-0.058594,-0.803101,-0.57666,down
329438,3.417969,9.515625,-3.769531,-0.625,-0.427734,-0.640625,0.138184,-0.058594,-0.803101,-0.57666,down
329443,3.378906,9.398438,-3.539063,-0.582031,-0.275391,-0.501953,0.138184,-0.058594,-0.803101,-0.57666,down
329448,3.378906,9.292969,-3.5,-0.582031,-0.275391,-0.501953,0.134094,-0.057251,-0.801025,-0.580627,down
329453,3.226563,9.214844,-3.269531,-0.582031,-0.275391,-0.501953,0.133118,-0.056824,-0.800415,-0.581726,down
329458,3.109375,8.976563,-3.078125,-0.582031,-0.275391,-0.501953,0.133118,-0.056824,-0.800415,-0.581726,down
329463,3.109375,8.867188,-2.925781,-0.582031,-0.275391,-0.501953,0.131165,-0.055725,-0.799011,-0.584167,down
329468,3.03125,8.867188,-2.808594,-0.582031,-0.275391,-0.501953,0.131165,-0.055725,-0.799011,-0.584167,down
329473,2.917969,8.828125,-2.695313,-0.408203,-0.072266,-0.402344,0.131165,-0.055725,-0.799011,-0.584167,down
329479,2.839844,8.675781,-2.464844,-0.361328,-0.072266,-0.386719,0.129456,-0.054626,-0.797852,-0.586243,down
329484,2.804688,8.554688,-2.3125,-0.361328,-0.072266,-0.386719,0.127747,-0.053345,-0.796875,-0.588074,down
329490,2.726563,8.40625,-2.160156,-0.361328,-0.072266,-0.386719,0.127075,-0.052856,-0.79657,-0.588684,down
329495,2.648438,8.292969,-2.082031,-0.248047,-0.089844,-0.369141,0.127075,-0.052856,-0.79657,-0.588684,down
329501,2.613281,8.101563,-1.929688,-0.248047,-0.089844,-0.369141,0.127075,-0.052856,-0.79657,-0.588684,down
329506,2.535156,8.066406,-1.8125,-0.181641,-0.111328,-0.357422,0.127075,-0.052856,-0.79657,-0.588684,down
329511,2.496094,8.023438,-1.8125,-0.152344,-0.138672,-0.351563,0.127075,-0.052856,-0.79657,-0.588684,down
329517,2.382813,7.945312,-1.777344,-0.152344,-0.138672,-0.351563,0.122925,-0.050232,-0.795471,-0.591309,down
329522,2.304688,7.949219,-1.738281,-0.152344,-0.138672,-0.351563,0.122131,-0.049805,-0.795349,-0.591614,down
329528,2.265625,7.949219,-1.660156,-0.013672,-0.21875,-0.3125,0.122131,-0.049805,-0.795349,-0.591614,down
329534,2.191406,7.867187,-1.660156,0.023437,-0.242187,-0.302734,0.1203,-0.049072,-0.79541,-0.59198,down
329539,2.113281,7.832031,-1.585938,0.023437,-0.242187,-0.302734,0.118286,-0.048462,-0.795654,-0.592102,down
329544,2.074219,7.714844,-1.546875,0.064453,-0.273438,-0.306641,0.11731,-0.048218,-0.795837,-0.592041,down
329549,2.039063,7.640625,-1.546875,0.064453,-0.273438,-0.306641,0.116394,-0.048035,-0.796082,-0.59198,down
329555,1.882813,7.410156,-1.46875,0.064453,-0.273438,-0.306641,0.115295,-0.047791,-0.796265,-0.591919,down
329560,1.84375,7.40625,-1.429688,0.083984,-0.341797,-0.335938,0.115295,-0.047791,-0.796265,-0.591919,down
329566,1.808594,7.40625,-1.355469,0.082031,-0.367188,-0.357422,0.115295,-0.047791,-0.796265,-0.591919,down
329572,1.769531,7.445312,-1.394531,0.082031,-0.367188,-0.357422,0.111572,-0.047119,-0.797058,-0.591614,down
329578,1.730469,7.445312,-1.429688,0.068359,-0.412109,-0.421875,0.111572,-0.047119,-0.797058,-0.591614,down
329599,1.617188,7.40625,-1.429688,-0.072266,-0.605469,-0.613281,0.101013,-0.045349,-0.798218,-0.592102,down
329604,1.617188,7.410156,-1.394531,-0.072266,-0.605469,-0.613281,0.101013,-0.045349,-0.798218,-0.592102,down
329609,1.578125,7.332031,-1.394531,-0.072266,-0.605469,-0.613281,0.096558,-0.044678,-0.798401,-0.592651,down
329614,1.578125,7.261719,-1.316406,-0.1875,-0.71875,-0.757812,0.096558,-0.044678,-0.798401,-0.592651,down
329619,1.539063,7.261719,-1.316406,-0.1875,-0.71875,-0.757812,0.091187,-0.043823,-0.79834,-0.593689,down
329624,1.5,7.179687,-1.316406,-0.300781,-0.806641,-0.875,0.091187,-0.043823,-0.79834,-0.593689,down
329629,1.425781,7.105469,-1.316406,-0.300781,-0.806641,-0.875,0.08551,-0.042847,-0.797974,-0.595032,down
329634,1.347656,7.101562,-1.316406,-0.441406,-0.896484,-1.037109,0.08551,-0.042847,-0.797974,-0.595032,down
329639,1.347656,7.21875,-1.355469,-0.441406,-0.896484,-1.037109,0.07843,-0.041504,-0.79718,-0.597168,down
329644,1.269531,7.300781,-1.394531,-0.441406,-0.896484,-1.037109,0.075012,-0.04071,-0.796753,-0.598267,down
329649,1.15625,7.527344,-1.507813,-0.441406,-0.896484,-1.037109,0.070862,-0.039795,-0.796143,-0.599609,down
329654,1.042969,7.640625,-1.507813,-0.712891,-1.111328,-1.402344,0.066284,-0.038757,-0.79541,-0.601196,down
329660,0.964844,7.789062,-1.621094,-0.712891,-1.111328,-1.402344,0.06189,-0.03772,-0.794617,-0.602783,down
329665,0.8125,7.949219,-1.777344,-0.712891,-1.111328,-1.402344,0.057434,-0.036682,-0.793762,-0.604431,down
329670,0.8125,7.949219,-1.777344,-0.847656,-1.234375,-1.599609,0.052246,-0.0354,-0.792725,-0.606262,down
329675,0.8125,7.949219,-1.777344,-0.873047,-1.302734,-1.636719,0.047607,-0.034302,-0.791809,-0.60791,down
329680,0.65625,8.132813,-1.851563,-0.873047,-1.302734,-1.636719,0.042236,-0.033142,-0.790771,-0.609802,down
329685,0.582031,8.214844,-1.8125,-0.873047,-1.302734,-1.636719,0.036865,-0.031982,-0.789673,-0.611572,down
329691,0.464844,8.367188,-1.890625,-0.873047,-1.302734,-1.636719,0.031311,-0.030823,-0.788635,-0.613281,down
329697,0.351563,8.132813,-1.929688,-0.878906,-1.482422,-1.837891,0.031311,-0.030823,-0.788635,-0.613281,down
329703,0.273438,7.988281,-2.007813,-0.894531,-1.521484,-1.904297,0.031311,-0.030823,-0.788635,-0.613281,down
329708,0.273438,7.949219,-1.890625,-0.890625,-1.599609,-1.976563,0.031311,-0.030823,-0.788635,-0.613281,down
329713,0.199219,8.105469,-1.8125,-0.884766,-1.65625,-2.076172,0.031311,-0.030823,-0.788635,-0.613281,down
329718,-0.03125,8.410156,-1.777344,-0.884766,-1.65625,-2.076172,0.031311,-0.030823,-0.788635,-0.613281,down
329723,-0.222656,8.597656,-1.890625,-0.884766,-1.65625,-2.076172,0.00708,0.021729,0.781311,0.623718,down
329729,-0.375,8.871094,-2.007813,-1.042969,-1.621094,-2.535156,0.00708,0.021729,0.781311,0.623718,down
329734,-0.566406,9.359375,-2.234375,-1.042969,-1.621094,-2.535156,0.027832,0.014893,0.776855,0.628906,down
329739,-0.644531,9.636719,-2.3125,-1.257813,-1.666016,-2.708984,0.027832,0.014893,0.776855,0.628906,down
329744,-0.683594,9.898438,-2.3125,-1.257813,-1.666016,-2.708984,0.043518,0.009216,0.772522,0.633423,down
329749,-0.835937,9.902344,-2.234375,-1.667969,-1.669922,-2.830078,0.043518,0.009216,0.772522,0.633423,down
329754,-0.949219,9.742188,-2.273438,-1.667969,-1.669922,-2.830078,0.051147,0.006348,0.769897,0.636047,down
329759,-0.949219,9.742188,-2.273438,-1.853516,-1.642578,-2.880859,0.058533,0.003357,0.767029,0.638916,down
329764,-1.027344,9.636719,-2.3125,-1.853516,-1.642578,-2.880859,0.066223,0.000183,0.763733,0.642151,down
329769,-1.105469,9.515625,-2.273438,-2.177734,-1.564453,-2.941406,0.066223,0.000183,0.763733,0.642151,down
329774,-1.449219,9.398438,-2.199219,-2.261719,-1.515625,-2.949219,0.089233,-0.010376,0.751953,0.653076,down
329779,-1.601563,9.441406,-2.042969,-2.261719,-1.515625,-2.949219,0.089233,-0.010376,0.751953,0.653076,down
329784,-1.679688,9.519531,-1.777344,-2.353516,-1.466797,-2.912109,0.104492,-0.017822,0.743103,0.660706,down
329789,-1.871094,9.636719,-1.621094,-2.353516,-1.466797,-2.912109,0.104492,-0.017822,0.743103,0.660706,down
329794,-1.984375,9.636719,-1.546875,-2.320313,-1.328125,-2.898438,0.118652,-0.025391,0.734436,0.667725,down
329799,-2.136719,9.636719,-1.46875,-2.320313,-1.328125,-2.898438,0.126038,-0.029602,0.729919,0.671204,down
329804,-2.445313,9.742188,-1.238281,-2.044922,-1.128906,-2.927734,0.126038,-0.029602,0.729919,0.671204,down
329809,-2.445313,9.742188,-1.238281,-2.044922,-1.128906,-2.927734,0.13916,-0.037537,0.722046,0.676697,down
329814,-2.445313,9.742188,-1.238281,-2.044922,-1.128906,-2.927734,0.13916,-0.037537,0.722046,0.676697,down
329819,-2.710938,10.09375,-1.125,-1.816406,-1.021484,-2.960938,0.13916,-0.037537,0.722046,0.676697,down
329824,-3.019531,10.664063,-0.855469,-1.753906,-1.003906,-2.984375,0.15271,-0.046082,0.714355,0.681396,down
329829,-3.132813,10.667969,-0.703125,-1.746094,-0.970703,-3.003906,0.159302,-0.050415,0.710632,0.683472,down
329834,-3.210938,10.746094,-0.625,-1.746094,-0.970703,-3.003906,0.166016,-0.054993,0.706726,0.685547,down
329840,-3.402344,10.890625,-0.433594,-1.746094,-0.970703,-3.003906,0.179138,-0.064758,0.698242,0.690002,down
329846,-3.632813,10.859375,-0.167969,-1.746094,-0.970703,-3.003906,0.184509,-0.069092,0.694336,0.692139,down
329852,-3.707031,10.820313,-0.015625,-2.035156,-0.59375,-2.724609,0.19043,-0.074036,0.689758,0.69458,down
329857,-3.785156,10.703125,0.140625,-2.037109,-0.521484,-2.585938,0.19043,-0.074036,0.689758,0.69458,down
329863,-3.863281,10.359375,0.367188,-2.037109,-0.521484,-2.585938,0.19043,-0.074036,0.689758,0.69458,down
329868,-3.976563,10.125,0.484375,-1.923828,-0.365234,-2.236328,0.19043,-0.074036,0.689758,0.69458,down
329874,-4.054687,9.9375,0.523437,-1.802734,-0.291016,-2.048828,0.211914,-0.094727,0.669678,0.705444,down
329879,-4.246094,10.058594,0.714844,-1.802734,-0.291016,-2.048828,0.215088,-0.098206,0.666382,0.707092,down
329884,-4.398437,10.480469,0.636719,-1.181641,-0.128906,-1.572266,0.215088,-0.098206,0.666382,0.707092,down
329889,-4.589844,10.890625,0.714844,-1.181641,-0.128906,-1.572266,0.218201,-0.101685,0.66333,0.708557,down
329894,-4.589844,10.890625,0.714844,-0.986328,-0.101563,-1.466797,0.220642,-0.104309,0.661133,0.709473,down
329899,-4.894531,11.816406,0.828125,-0.861328,-0.066406,-1.419922,0.220642,-0.104309,0.661133,0.709473,down
329904,-4.894531,11.816406,0.828125,-0.755859,-0.023437,-1.416016,0.225525,-0.109863,0.657166,0.710815,down
329909,-5.699219,13.0,0.636719,-0.8125,0.083984,-1.476563,0.225525,-0.109863,0.657166,0.710815,down
329914,-6.199219,13.386719,0.484375,-0.955078,0.099609,-1.53125,0.230042,-0.115479,0.653687,0.711609,down
329919,-6.3125,13.382813,0.523437,-0.955078,0.099609,-1.53125,0.232483,-0.118835,0.651611,0.712219,down
329924,-6.351562,13.386719,0.5625,-1.480469,0.164062,-1.683594,0.234924,-0.122375,0.64917,0.713074,down
329929,-6.277344,13.15625,0.675781,-1.480469,0.164062,-1.683594,0.237183,-0.126038,0.646362,0.714172,down
329935,-6.160156,12.777344,0.980469,-1.480469,0.164062,-1.683594,0.241211,-0.134399,0.639404,0.71759,down
329940,-6.082031,12.621094,1.097656,-2.462891,0.515625,-1.833984,0.243164,-0.139954,0.634521,0.720215,down
329945,-6.082031,12.472656,1.289063,-2.730469,0.638672,-1.820313,0.244629,-0.145386,0.629578,0.722961,down
329951,-6.121094,12.3125,1.441406,-2.730469,0.638672,-1.820313,0.245667,-0.151001,0.62439,0.725891,down
329956,-6.503906,12.195313,1.941406,-2.730469,0.638672,-1.820313,0.246399,-0.157043,0.618774,0.729187,down
329962,-6.582031,12.117188,2.207031,-3.265625,0.960937,-1.644531,0.246399,-0.157043,0.618774,0.729187,down
329968,-6.621094,11.890625,2.476563,-3.351563,1.019531,-1.541016,0.246399,-0.157043,0.618774,0.729187,down
329974,-6.8125,11.589844,2.667969,-3.351563,1.019531,-1.541016,0.246399,-0.157043,0.618774,0.729187,down
329980,-7.003906,11.511719,2.667969,-3.263672,1.208984,-1.320313,0.244873,-0.189087,0.58783,0.747498,down
329985,-7.195312,11.207031,2.820313,-3.263672,1.208984,-1.320313,0.243713,-0.195007,0.582581,0.750427,down
329990,-7.269531,11.128906,2.898438,-3.263672,1.208984,-1.320313,0.242615,-0.200073,0.57843,0.752686,down
329995,-7.269531,11.128906,2.898438,-3.263672,1.208984,-1.320313,0.242615,-0.200073,0.57843,0.752686,down
330000,-7.347656,11.046875,3.089844,-2.144531,1.318359,-0.945312,0.242615,-0.200073,0.57843,0.752686,down
330005,-7.769531,10.929688,3.664063,-1.853516,1.316406,-0.871094,0.240173,-0.210449,0.570801,0.756409,down
330010,-7.960937,10.972656,3.585938,-1.423828,1.361328,-0.753906,0.238953,-0.215332,0.56781,0.75769,down
330015,-7.960937,10.972656,3.585938,-1.423828,1.361328,-0.753906,0.23645,-0.224182,0.563171,0.759399,down
330021,-8.574219,10.894531,3.511719,-1.423828,1.361328,-0.753906,0.234985,-0.228821,0.560913,0.760132,down
330027,-8.652344,11.085938,3.433594,-1.423828,1.361328,-0.753906,0.233826,-0.232544,0.559021,0.760742,down
330032,-8.726563,11.390625,3.355469,-1.371094,1.214844,-0.595703,0.233826,-0.232544,0.559021,0.760742,down
330038,-8.878906,11.589844,3.320313,-1.453125,1.197266,-0.523437,0.233826,-0.232544,0.559021,0.760742,down
330044,-8.84375,11.3125,3.585938,-1.789063,1.044922,-0.341797,0.233826,-0.232544,0.559021,0.760742,down
330049,-8.765625,11.085938,3.816406,-1.789063,1.044922,-0.341797,0.227661,-0.247742,0.549133,0.765015,down
330054,-8.804688,10.929688,3.96875,-2.076172,0.933594,-0.064453,0.227661,-0.247742,0.549133,0.765015,down
330059,-8.996094,10.742188,4.007812,-2.076172,0.933594,-0.064453,0.223267,-0.254395,0.542358,0.768921,down
330064,-8.957031,10.550781,3.933594,-2.076172,0.933594,-0.064453,0.220642,-0.257263,0.538818,0.77124,down
330069,-8.917969,10.242188,3.894531,-2.216797,0.777344,0.263672,0.220642,-0.257263,0.538818,0.77124,down
330075,-8.878906,9.941406,4.007812,-2.259766,0.652344,0.439453,0.211243,-0.263733,0.527466,0.77948,down
330080,-8.726563,9.359375,4.160156,-2.259766,0.652344,0.439453,0.207458,-0.265015,0.523437,0.782776,down
330085,-8.6875,9.136719,4.277344,-2.111328,0.34375,0.898437,0.207458,-0.265015,0.523437,0.782776,down
330090,-8.613281,8.898438,4.277344,-2.111328,0.34375,0.898437,0.200562,-0.266113,0.516968,0.788452,down
330095,-8.304688,8.328125,4.160156,-2.111328,0.34375,0.898437,0.200562,-0.266113,0.516968,0.788452,down
330100,-8.304688,8.328125,4.160156,-2.111328,0.34375,0.898437,0.200562,-0.266113,0.516968,0.788452,down
330105,-8.304688,8.328125,4.160156,-1.525391,0.146484,1.238281,0.193481,-0.265808,0.511963,0.79364,down
330110,-7.960937,7.988281,3.933594,-1.525391,0.146484,1.238281,0.186279,-0.263916,0.508789,0.797974,down
330116,-7.578125,8.023438,3.664063,-1.525391,0.146484,1.238281,0.182617,-0.262329,0.508057,0.799805,down
330121,-7.386719,8.027344,3.703125,-0.464844,-0.136719,1.695313,0.179138,-0.260376,0.507874,0.801331,down
330126,-7.15625,7.988281,3.664063,-0.294922,-0.210937,1.8125,0.175598,-0.257996,0.508179,0.802734,down
330132,-6.695312,7.832031,3.511719,-0.162109,-0.244141,1.962891,0.175598,-0.257996,0.508179,0.802734,down
330137,-6.621094,7.753906,3.355469,-0.027344,-0.285156,2.121094,0.175598,-0.257996,0.508179,0.802734,down
330143,-6.429687,7.753906,3.203125,0.085937,-0.316406,2.271484,0.175598,-0.257996,0.508179,0.802734,down
330149,-6.277344,7.640625,3.242188,0.169922,-0.396484,2.449219,0.175598,-0.257996,0.508179,0.802734,down
330154,-6.082031,7.679687,3.394531,0.228516,-0.470703,2.638672,0.175598,-0.257996,0.508179,0.802734,down
330160,-5.890625,7.601562,3.394531,0.330078,-0.595703,3.013672,0.175598,-0.257996,0.508179,0.802734,down
330165,-5.699219,7.371094,3.433594,0.376953,-0.650391,3.205078,0.14563,-0.231018,0.518494,0.810303,down
330170,-5.316406,6.988281,3.394531,0.376953,-0.650391,3.205078,0.134644,-0.219604,0.523254,0.812317,down
330175,-5.089844,6.839844,3.355469,0.376953,-0.650391,3.205078,0.128418,-0.213013,0.526062,0.813293,down
330180,-4.820312,6.566406,3.320313,0.597656,-0.84375,3.798828,0.128418,-0.213013,0.526062,0.813293,down
330185,-4.207031,5.992187,3.433594,0.597656,-0.84375,3.798828,0.122131,-0.206177,0.52887,0.814148,down
330191,-4.207031,5.992187,3.433594,0.882812,-0.878906,4.212891,0.109436,-0.1922,0.535034,0.815369,down
330196,-4.207031,5.992187,3.433594,0.882812,-0.878906,4.212891,0.109436,-0.1922,0.535034,0.815369,down
330201,-3.785156,5.417969,3.089844,1.072266,-0.894531,4.40625,0.109436,-0.1922,0.535034,0.815369,down
330206,-3.019531,4.886719,2.78125,1.292969,-0.914062,4.580078,0.094788,-0.175964,0.543091,0.815552,down
330211,-3.019531,4.886719,2.78125,1.568359,-0.943359,4.732422,0.08728,-0.167542,0.547729,0.815063,down
330216,-2.253906,4.464844,2.628906,2.130859,-0.933594,5.011719,0.08728,-0.167542,0.547729,0.815063,down
330221,-2.253906,4.464844,2.628906,2.433594,-0.902344,5.164062,0.08728,-0.167542,0.547729,0.815063,down
330227,-1.523438,4.503906,1.941406,2.433594,-0.902344,5.164062,0.053345,-0.128845,0.573059,0.807556,down
330232,-1.332031,4.347656,1.632813,2.957031,-0.716797,5.466797,0.045837,-0.120667,0.579163,0.804932,down
330238,-1.257813,4.230469,1.402344,3.175781,-0.556641,5.658203,0.045837,-0.120667,0.579163,0.804932,down
330245,-0.757812,4.5,0.980469,3.175781,-0.556641,5.658203,0.015869,-0.091492,0.603333,0.792053,down
330250,-0.605469,4.613281,0.789062,3.175781,-0.556641,5.658203,0.015869,-0.091492,0.603333,0.792053,down
330255,-0.605469,4.613281,0.789062,3.876953,0.003906,6.337891,0.004272,-0.081482,0.612305,0.786438,down
330260,-0.53125,4.539062,0.636719,4.107422,0.210937,6.509766,0.004272,-0.081482,0.612305,0.786438,down
330265,-0.53125,4.539062,0.636719,4.289062,0.421875,6.666016,0.02002,0.062439,-0.630371,-0.773499,down
330270,0.351563,3.542969,0.140625,4.578125,0.832031,6.929687,0.02002,0.062439,-0.630371,-0.773499,down
330275,0.503906,2.734375,0.253906,4.578125,0.832031,6.929687,0.047119,0.043701,-0.64917,-0.757935,down
330280,0.503906,2.734375,0.253906,4.578125,0.832031,6.929687,0.076111,0.025757,-0.667969,-0.739807,down
330285,0.925781,2.394531,0.445312,4.578125,0.832031,6.929687,0.076111,0.025757,-0.667969,-0.739807,down
330290,1.078125,2.085938,0.597656,5.496094,1.464844,7.091797,0.076111,0.025757,-0.667969,-0.739807,down
330295,1.078125,2.085938,0.597656,5.496094,1.464844,7.091797,0.106201,0.008911,-0.687134,-0.718689,down
330300,1.269531,1.664063,0.753906,5.496094,1.464844,7.091797,0.106201,0.008911,-0.687134,-0.718689,down
330305,1.347656,1.625,0.675781,5.900391,1.769531,7.03125,0.106201,0.008911,-0.687134,-0.718689,down
330310,1.578125,1.703125,0.5625,6.142578,1.882813,7.009766,0.167603,-0.020447,-0.725281,-0.667419,down
330316,1.578125,1.742188,0.714844,6.142578,1.882813,7.009766,0.183411,-0.027039,-0.735046,-0.652161,down
330321,1.578125,1.742188,0.714844,6.966797,2.105469,6.783203,0.200806,-0.033936,-0.745789,-0.634277,down
330327,1.347656,1.511719,0.945312,6.966797,2.105469,6.783203,0.21582,-0.03949,-0.755005,-0.61792,down
330332,1.386719,1.546875,1.171875,6.966797,2.105469,6.783203,0.21582,-0.03949,-0.755005,-0.61792,down
330337,1.386719,1.777344,1.289063,7.357422,2.150391,6.591797,0.229004,-0.044128,-0.763062,-0.602783,down
330342,1.386719,1.777344,1.289063,7.357422,2.150391,6.591797,0.24353,-0.049072,-0.771973,-0.585083,down
330348,1.117188,0.898437,2.78125,7.568359,2.054688,6.316406,0.257568,-0.05365,-0.78064,-0.566895,down
330353,0.886719,0.707031,3.050781,7.564453,2.017578,5.904297,0.257568,-0.05365,-0.78064,-0.566895,down
330359,0.160156,-0.019531,3.46875,7.564453,2.017578,5.904297,0.257568,-0.05365,-0.78064,-0.566895,down
330365,-0.183594,-0.367188,3.738281,7.208984,1.853516,5.289062,0.320435,-0.07135,-0.817444,-0.473328,down
330370,-0.605469,0.054687,4.085937,7.208984,1.853516,5.289062,0.320435,-0.07135,-0.817444,-0.473328,down
330375,-0.605469,0.054687,4.085937,6.828125,1.419922,4.576172,0.330566,-0.073792,-0.823486,-0.455078,down
330381,-0.875,0.054687,4.234375,6.568359,1.126953,4.195312,0.330566,-0.073792,-0.823486,-0.455078,down
330386,-1.832031,0.476562,4.777344,6.257812,0.785156,3.810547,0.346741,-0.077576,-0.83429,-0.42157,down
330391,-2.175781,0.398438,4.738281,5.861328,0.458984,3.378906,0.35791,-0.080505,-0.844055,-0.391052,down
330397,-2.867188,0.207031,4.925781,5.861328,0.458984,3.378906,0.36145,-0.081604,-0.848511,-0.377869,down
330402,-3.289063,0.054687,4.894531,4.457031,-0.580078,1.902344,0.36145,-0.081604,-0.848511,-0.377869,down
330407,-4.167969,-0.019531,4.816406,4.457031,-0.580078,1.902344,0.36145,-0.081604,-0.848511,-0.377869,down
330412,-4.628906,0.4375,4.925781,3.402344,-1.371094,0.714844,0.36145,-0.081604,-0.848511,-0.377869,down
330417,-5.089844,0.667969,5.199219,2.869141,-1.951172,0.048828,0.36145,-0.081604,-0.848511,-0.377869,down
330423,-6.078125,0.820312,5.769531,2.242188,-2.572266,-0.671875,0.36145,-0.081604,-0.848511,-0.377869,down
330429,-6.46875,1.242188,6.0,1.5,-3.121094,-1.419922,0.36145,-0.081604,-0.848511,-0.377869,down
330434,-7.082031,1.394531,6.113281,0.658203,-3.685547,-2.181641,0.36145,-0.081604,-0.848511,-0.377869,down
330440,-8.421875,1.394531,5.921875,-0.205078,-4.322266,-2.992188,0.36145,-0.081604,-0.848511,-0.377869,down
330446,-8.878906,0.898437,5.578125,-1.919922,-5.761719,-4.785156,0.316833,-0.071472,-0.885803,-0.331421,down
330451,-9.226563,1.011719,5.042969,-2.611328,-6.529297,-5.748047,0.299622,-0.0672,-0.889771,-0.337646,down
330456,-9.226563,1.011719,5.042969,-2.611328,-6.529297,-5.748047,0.282654,-0.062805,-0.892883,-0.344849,down
330461,-9.53125,1.433594,4.582031,-3.414063,-7.410156,-6.740234,0.282654,-0.062805,-0.892883,-0.344849,down
330466,-10.375,3.042969,3.394531,-4.408203,-8.140625,-7.773437,0.236328,-0.050049,-0.898193,-0.367249,down
330471,-10.375,3.042969,3.394531,-5.410156,-8.685547,-8.826172,0.179932,-0.032593,-0.898743,-0.39856,down
330476,-11.289063,4.84375,0.945312,-5.410156,-8.685547,-8.826172,0.146729,-0.020935,-0.896179,-0.418152,down
330481,-13.09375,8.828125,-2.925781,-5.410156,-8.685547,-8.826172,0.108459,-0.006104,-0.890808,-0.441162,down
330486,-14.050781,11.546875,-5.03125,-9.236328,-10.214844,-13.769531,0.071777,0.00946,-0.883179,-0.463379,down
330491,-15.128906,13.730469,-7.214844,-10.064453,-10.488281,-15.162109,0.031372,0.028076,-0.87207,-0.487549,down
330496,-16.695312,19.324219,-11.621094,-10.064453,-10.488281,-15.162109,0.031372,0.028076,-0.87207,-0.487549,down
330501,-17.347656,23.121094,-13.804688,-10.064453,-10.488281,-15.162109,0.005249,-0.046265,0.85968,0.508667,down
330506,-18.226562,27.328125,-15.566406,-10.064453,-10.488281,-15.162109,0.098328,-0.096497,0.817749,0.558838,down
330511,-18.917969,30.007812,-16.371094,-13.363281,-11.154297,-19.941406,0.098328,-0.096497,0.817749,0.558838,down
330516,-18.917969,30.007812,-16.371094,-14.59375,-10.941406,-20.830078,0.187012,-0.149536,0.76178,0.60199,down
330521,-17.652344,34.230469,-15.566406,-15.867188,-10.529297,-21.537109,0.187012,-0.149536,0.76178,0.60199,down
330526,-16.773437,35.066406,-15.71875,-15.867188,-10.529297,-21.537109,0.281921,-0.21637,0.675964,0.645569,down
330531,-14.972656,34.417969,-15.375,-19.0625,-8.541016,-22.648437,0.281921,-0.21637,0.675964,0.645569,down
330536,-12.023438,23.691406,-13.957031,-19.0625,-8.541016,-22.648437,0.357971,-0.288696,0.572021,0.679138,down
330541,-11.0625,18.515625,-12.921875,-21.236328,-5.880859,-21.916016,0.357971,-0.288696,0.572021,0.679138,down
330546,-11.828125,13.925781,-11.007813,-21.236328,-5.880859,-21.916016,0.414978,-0.365662,0.450378,0.700867,down
330551,-13.019531,8.902344,-7.90625,-21.167969,-5.064453,-19.035156,0.414978,-0.365662,0.450378,0.700867,down
330556,-14.703125,1.242188,0.292969,-21.167969,-5.064453,-19.035156,0.449097,-0.429199,0.328857,0.711304,down
330561,-15.890625,-1.324219,4.925781,-21.167969,-5.064453,-19.035156,0.458496,-0.454834,0.268311,0.714783,down
330566,-18.304687,-5.078125,13.660156,-21.167969,-5.064453,-19.035156,0.462463,-0.475037,0.215088,0.717102,down
330571,-18.226562,-8.027344,18.449219,-21.167969,-5.064453,-19.035156,0.462585,-0.490234,0.173523,0.718018,down
330576,-16.964844,-12.777344,22.394531,-10.513672,-0.537109,-5.857422,0.462585,-0.490234,0.173523,0.718018,down
330581,-15.164063,-17.257812,20.78125,-5.683594,1.886719,-2.966797,0.460327,-0.505554,0.136719,0.716797,down
330586,-15.855469,-11.246094,5.617187,-5.683594,1.886719,-2.966797,0.455688,-0.525574,0.111877,0.709656,down
330591,-16.277344,-6.1875,0.367188,-5.683594,1.886719,-2.966797,0.456299,-0.527161,0.117493,0.707153,down
330596,-16.351562,-3.277344,-2.007813,7.972656,0.783203,2.681641,0.456299,-0.527161,0.117493,0.707153,down
330601,-13.246094,2.085938,1.976563,7.972656,0.783203,2.681641,0.460632,-0.521362,0.133118,0.705872,down
330607,-14.320313,6.300781,2.9375,7.972656,0.783203,2.681641,0.471313,-0.499512,0.178772,0.704529,down
330612,-13.703125,7.296875,3.011719,14.1875,3.5625,5.482422,0.477234,-0.485901,0.212219,0.700806,down
330617,-13.9375,9.171875,4.125,16.408203,5.25,6.074219,0.477234,-0.485901,0.212219,0.700806,down
330622,-14.933594,11.164063,5.425781,16.408203,5.25,6.074219,0.48822,-0.456909,0.295349,0.682373,down
330627,-17.308594,14.34375,4.199219,16.408203,5.25,6.074219,0.48822,-0.456909,0.295349,0.682373,down
330632,-17.308594,14.34375,4.199219,20.257812,7.974609,5.085937,0.498108,-0.42511,0.389832,0.647461,down
330637,-21.671875,16.566406,-3.195313,20.257812,7.974609,5.085937,0.504639,-0.40686,0.434814,0.625122,down
330643,-25.394531,18.558594,-3.269531,20.257812,7.974609,5.085937,0.513916,-0.385376,0.473633,0.602539,down
330649,-21.714844,16.488281,1.785156,14.677734,-1.578125,1.339844,0.513916,-0.385376,0.473633,0.602539,down
330654,-14.933594,14.074219,8.757813,10.8125,-3.908203,0.523437,0.513916,-0.385376,0.473633,0.602539,down
330660,-7.769531,13.308594,15.308594,-1.689453,0.285156,-0.078125,0.513916,-0.385376,0.473633,0.602539,down
330665,-9.109375,7.105469,7.6875,-1.689453,0.285156,-0.078125,0.554077,-0.317932,0.525391,0.562012,down
330671,-12.980469,3.886719,1.941406,-3.792969,0.773437,0.197266,0.554077,-0.317932,0.525391,0.562012,down
330676,-10.605469,-0.058594,4.125,-3.978516,-0.541016,0.636719,0.544739,-0.331055,0.518616,0.569824,down
330681,-9.800781,0.476562,6.5,-3.978516,-0.541016,0.636719,0.536987,-0.339661,0.507141,0.582336,down
330686,-8.957031,1.242188,6.882812,-5.228516,-0.667969,1.271484,0.536987,-0.339661,0.507141,0.582336,down
330691,-9.113281,1.664063,7.417969,-5.228516,-0.667969,1.271484,0.525696,-0.349365,0.491516,0.599976,down
330696,-9.800781,1.585938,7.648437,-5.228516,-0.667969,1.271484,0.516296,-0.358948,0.479248,0.612305,down
330701,-8.691406,2.007813,7.074219,-5.228516,-0.667969,1.271484,0.516296,-0.358948,0.479248,0.612305,down
330706,-8.808594,1.816406,6.421875,-11.671875,0.539062,0.607422,0.516296,-0.358948,0.479248,0.612305,down
330711,-8.914063,0.859375,4.851562,-11.671875,0.539062,0.607422,0.478577,-0.400269,0.428772,0.653381,down
330716,-8.574219,-0.40625,2.628906,-11.671875,0.539062,0.607422,0.469727,-0.409912,0.41571,0.66217,down
330721,-7.078125,-1.246094,-0.207031,-11.671875,0.539062,0.607422,0.469727,-0.409912,0.41571,0.66217,down
330726,-6.816406,-0.75,0.175781,-4.707031,-0.900391,0.402344,0.459839,-0.417786,0.398315,0.674805,down
330731,-6.960937,-0.058594,1.785156,0.300781,-1.349609,0.644531,0.45929,-0.415894,0.395996,0.677673,down
330736,-6.851562,0.859375,5.617187,0.300781,-1.349609,0.644531,0.45929,-0.415894,0.395996,0.677673,down
330741,-6.660156,1.167969,5.847656,0.300781,-1.349609,0.644531,0.462036,-0.407959,0.4021,0.677124,down
330746,-7.199219,1.550781,4.125,0.300781,-1.349609,0.644531,0.462036,-0.407959,0.4021,0.677124,down
330751,-7.269531,1.742188,3.28125,0.300781,-1.349609,0.644531,0.463806,-0.404114,0.409424,0.673767,down
330756,-7.464844,1.96875,2.707031,6.0625,1.373047,0.751953,0.463806,-0.404114,0.409424,0.673767,down
330761,-7.691406,2.277344,2.285156,6.0625,1.373047,0.751953,0.468872,-0.394897,0.430542,0.662476,down
330766,-8.382813,3.042969,1.289063,6.0625,1.373047,0.751953,0.476746,-0.381531,0.456543,0.647095,down
330771,-8.609375,3.386719,1.171875,6.0625,1.373047,0.751953,0.481506,-0.373657,0.468689,0.639465,down
330776,-8.808594,3.695313,1.328125,6.0625,1.373047,0.751953,0.481506,-0.373657,0.468689,0.639465,down
330781,-8.804688,4.078125,1.976563,6.439453,-0.294922,0.490234,0.492126,-0.35614,0.489441,0.62561,down
330786,-8.496094,4.691406,3.511719,6.439453,-0.294922,0.490234,0.496582,-0.348633,0.496338,0.620911,down
330791,-8.308594,4.957031,4.125,6.439453,-0.294922,0.490234,0.499695,-0.342957,0.501099,0.617737,down
330796,-8.265625,5.074219,4.46875,6.439453,-0.294922,0.490234,0.499695,-0.342957,0.501099,0.617737,down
330801,-8.304688,4.5,3.816406,1.142578,-0.191406,0.361328,0.499695,-0.342957,0.501099,0.617737,down
330807,-8.496094,4.117187,3.050781,1.142578,-0.191406,0.361328,0.499451,-0.33905,0.504883,0.617004,down
330812,-8.804688,3.769531,2.667969,1.142578,-0.191406,0.361328,0.497131,-0.34082,0.503418,0.61908,down
330817,-8.726563,3.65625,2.78125,-2.490234,0.175781,0.564453,0.497131,-0.34082,0.503418,0.61908,down
330822,-9.109375,3.808594,2.707031,-2.490234,0.175781,0.564453,0.49054,-0.34613,0.497314,0.626282,down
330827,-9.109375,3.847656,2.515625,-2.949219,0.070312,0.568359,0.486694,-0.349304,0.493225,0.630737,down
330833,-7.578125,2.199219,2.476563,-2.949219,0.070312,0.568359,0.483643,-0.351868,0.489624,0.634521,down
330838,-7.769531,2.390625,2.628906,-2.472656,-0.119141,0.617187,0.483643,-0.351868,0.489624,0.634521,down
330844,-8.804688,2.429688,2.820313,-2.472656,-0.119141,0.617187,0.477478,-0.356018,0.482788,0.641968,down
330850,-8.992188,2.199219,2.589844,-1.757813,0.179687,0.611328,0.477478,-0.356018,0.482788,0.641968,down
330856,-9.261719,2.085938,2.132813,-1.175781,0.195312,0.496094,0.477478,-0.356018,0.482788,0.641968,down
330861,-9.191406,2.238281,2.015625,-1.175781,0.195312,0.496094,0.469727,-0.359436,0.478577,0.648987,down
330866,-9.074219,2.738281,2.324219,-1.175781,0.195312,0.496094,0.469727,-0.359436,0.478577,0.648987,down
330871,-9.109375,3.082031,2.742188,1.947266,-0.089844,0.074219,0.469727,-0.359436,0.478577,0.648987,down
330877,-9.035156,3.542969,2.9375,1.947266,-0.089844,0.074219,0.473328,-0.353149,0.486328,0.643982,down
330883,-9.300781,3.886719,2.742188,1.947266,-0.089844,0.074219,0.475281,-0.350403,0.490234,0.641113,down
330888,-9.335938,3.925781,2.667969,1.851563,0.064453,0.013672,0.476746,-0.348328,0.493286,0.638794,down
330893,-9.335938,3.925781,2.628906,1.458984,0.001953,0.017578,0.478088,-0.346313,0.496094,0.636658,down
330898,-9.1875,3.769531,2.742188,1.458984,0.001953,0.017578,0.479126,-0.344788,0.498108,0.635193,down
330903,-9.152344,3.734375,2.898438,0.515625,-0.115234,0.060547,0.479126,-0.344788,0.498108,0.635193,down
330909,-9.035156,3.578125,2.898438,0.037109,-0.099609,0.082031,0.479126,-0.344788,0.498108,0.635193,down
330914,-9.03125,3.3125,2.742188,0.037109,-0.099609,0.082031,0.479126,-0.344788,0.498108,0.635193,down
330919,-8.992188,3.234375,2.667969,-0.763672,-0.044922,0.136719,0.479126,-0.344788,0.498108,0.635193,down
330925,-8.996094,3.042969,2.667969,-1.042969,-0.074219,0.158203,0.479126,-0.344788,0.498108,0.635193,down
330930,-8.847656,2.929688,2.707031,-1.042969,-0.074219,0.158203,0.476929,-0.345276,0.495544,0.63855,down
330936,-8.804688,2.773438,2.628906,-1.042969,-0.074219,0.158203,0.474243,-0.347595,0.491638,0.642334,down
330941,-8.808594,2.738281,2.628906,-1.042969,-0.074219,0.158203,0.474243,-0.347595,0.491638,0.642334,down
330946,-8.53125,2.46875,2.550781,-1.169922,-0.121094,0.212891,0.474243,-0.347595,0.491638,0.642334,down
330951,-8.648438,3.003906,2.359375,-1.169922,-0.121094,0.212891,0.471741,-0.349426,0.488037,0.645874,down
330956,-8.730469,2.660156,2.359375,-1.169922,-0.121094,0.212891,0.470764,-0.349854,0.486877,0.647278,down
330962,-8.148438,2.238281,2.398438,-0.214844,-0.126953,0.25,0.469727,-0.349365,0.48645,0.64856,down
330967,-8.492188,2.546875,2.476563,-0.214844,-0.126953,0.25,0.469421,-0.34845,0.487366,0.64856,down
330972,-8.570313,2.738281,2.207031,-0.214844,-0.126953,0.25,0.469238,-0.34729,0.488831,0.648254,down
330977,-8.652344,2.738281,2.09375,0.878906,0.072266,0.408203,0.469238,-0.34729,0.488831,0.648254,down
330982,-8.425781,2.660156,2.285156,1.041016,0.09375,0.408203,0.469177,-0.345886,0.490784,0.647583,down
330988,-8.425781,2.851563,2.207031,1.041016,0.09375,0.408203,0.469299,-0.342896,0.494995,0.645874,down
330993,-8.425781,2.851563,2.207031,1.265625,0.216797,0.433594,0.469421,-0.341125,0.497681,0.644653,down
330998,-8.457031,2.964844,2.207031,1.148438,0.25,0.460937,0.469421,-0.339294,0.500671,0.643311,down
331004,-8.613281,3.273438,2.359375,1.148438,0.25,0.460937,0.469238,-0.338135,0.502747,0.642456,down
331009,-8.609375,3.351563,2.359375,0.794922,0.337891,0.46875,0.469238,-0.338135,0.502747,0.642456,down
331015,-8.6875,3.425781,2.359375,0.621094,0.367188,0.453125,0.469238,-0.338135,0.502747,0.642456,down
331021,-8.691406,3.386719,2.398438,0.449219,0.357422,0.447266,0.469238,-0.338135,0.502747,0.642456,down
331026,-8.691406,3.386719,2.398438,0.449219,0.357422,0.447266,0.466492,-0.335083,0.510132,0.640198,down
331032,-8.769531,3.386719,2.4375,0.044922,0.328125,0.396484,0.466492,-0.335083,0.510132,0.640198,down
331037,-8.730469,3.351563,2.515625,0.044922,0.328125,0.396484,0.464539,-0.334717,0.512268,0.640137,down
331042,-8.730469,3.351563,2.515625,-0.091797,0.263672,0.332031,0.462524,-0.334778,0.513489,0.640503,down
331047,-8.847656,3.3125,2.515625,-0.115234,0.230469,0.287109,0.462524,-0.334778,0.513489,0.640503,down
331052,-8.917969,3.273438,2.550781,-0.115234,0.230469,0.287109,0.460754,-0.335022,0.514221,0.641052,down
331058,-8.917969,3.273438,2.550781,-0.115234,0.230469,0.287109,0.460083,-0.335144,0.514465,0.641357,down
331063,-8.878906,3.195313,2.628906,-0.130859,0.082031,0.126953,0.459473,-0.335266,0.514709,0.641541,down
331069,-8.878906,3.195313,2.589844,-0.144531,0.023437,0.070312,0.458984,-0.335327,0.514771,0.641785,down
331074,-8.804688,3.234375,2.589844,-0.175781,-0.011719,0.015625,0.45874,-0.335449,0.514648,0.642029,down
331079,-8.765625,3.273438,2.589844,-0.207031,-0.050781,-0.021484,0.45874,-0.335449,0.514648,0.642029,down
331084,-8.726563,3.273438,2.550781,-0.230469,-0.068359,-0.054687,0.45874,-0.335449,0.514648,0.642029,down
331090,-8.691406,3.351563,2.515625,-0.261719,-0.082031,-0.066406,0.45874,-0.335449,0.514648,0.642029,down
331095,-8.609375,3.464844,2.515625,-0.261719,-0.082031,-0.066406,0.45874,-0.335449,0.514648,0.642029,down
331100,-8.535156,3.425781,2.515625,-0.261719,-0.082031,-0.066406,0.458069,-0.336487,0.512573,0.643616,down
331105,-8.535156,3.425781,2.515625,-0.365234,-0.066406,-0.033203,0.458069,-0.336487,0.512573,0.643616,down
331111,-8.535156,3.386719,2.4375,-0.365234,-0.066406,-0.033203,0.457642,-0.337158,0.511292,0.644592,down
331117,-8.453125,3.234375,2.4375,-0.365234,-0.066406,-0.033203,0.456909,-0.337769,0.510376,0.645508,down
331122,-8.453125,3.195313,2.398438,-0.216797,0.033203,0.080078,0.456909,-0.337769,0.510376,0.645508,down
331127,-8.457031,3.195313,2.476563,-0.216797,0.033203,0.080078,0.456482,-0.338013,0.510071,0.645935,down
331133,-8.457031,3.195313,2.476563,-0.017578,0.109375,0.144531,0.455688,-0.338135,0.510193,0.646301,down
331138,-8.453125,3.234375,2.4375,0.103516,0.132812,0.179687,0.4552,-0.338074,0.51062,0.646362,down
331144,-8.492188,3.273438,2.476563,0.103516,0.132812,0.179687,0.454773,-0.337891,0.51123,0.64624,down
331150,-8.570313,3.425781,2.398438,0.103516,0.132812,0.179687,0.454346,-0.337585,0.512146,0.645996,down
331156,-8.53125,3.464844,2.398438,0.396484,0.244141,0.248047,0.454346,-0.337585,0.512146,0.645996,down
331162,-8.613281,3.542969,2.4375,0.482422,0.28125,0.267578,0.453064,-0.336365,0.515991,0.644531,down
331167,-8.613281,3.617188,2.515625,0.482422,0.28125,0.267578,0.452576,-0.335815,0.517578,0.64386,down
331172,-8.691406,3.695313,2.515625,0.482422,0.28125,0.267578,0.452087,-0.335327,0.519165,0.643188,down
