timestamp,ax,ay,az,gx,gy,gz,qw,qx,qy,qz,label
460205,1.703125,8.339844,-4.867187,0.263672,-0.085937,0.111328,0.026062,-0.136475,-0.853149,-0.502869,down
460210,1.703125,8.378906,-4.828125,0.152344,-0.119141,0.027344,0.026123,-0.136169,-0.853638,-0.502075,down
460215,1.742188,8.339844,-4.867187,0.001953,-0.142578,-0.041016,0.026123,-0.136169,-0.853638,-0.502075,down
460220,1.703125,8.257813,-4.945312,-0.083984,-0.134766,-0.078125,0.026001,-0.135986,-0.85376,-0.501953,down
460225,1.664063,8.222656,-4.984375,-0.083984,-0.134766,-0.078125,0.025757,-0.135681,-0.85376,-0.502014,down
460230,1.703125,8.1875,-4.90625,-0.083984,-0.134766,-0.078125,0.025208,-0.13501,-0.853516,-0.502625,down
460235,1.703125,8.1875,-4.90625,-0.083984,-0.134766,-0.078125,0.024902,-0.134583,-0.853333,-0.503052,down
460240,1.78125,7.953125,-4.984375,-0.083984,-0.134766,-0.078125,0.024902,-0.134583,-0.853333,-0.503052,down
460245,1.816406,7.914062,-4.945312,-0.306641,-0.085937,-0.115234,0.024902,-0.134583,-0.853333,-0.503052,down
460251,1.78125,7.875,-4.90625,-0.261719,-0.080078,-0.101563,0.024414,-0.133606,-0.852783,-0.504272,down
460256,1.78125,7.875,-4.90625,-0.261719,-0.080078,-0.101563,0.024048,-0.13269,-0.852356,-0.50531,down
460261,1.78125,7.804687,-4.828125,-0.128906,-0.0625,-0.058594,0.023926,-0.132324,-0.852173,-0.505676,down
460267,1.742188,7.835937,-4.867187,-0.128906,-0.0625,-0.058594,0.023865,-0.132019,-0.852112,-0.505859,down
460272,1.78125,7.835937,-4.828125,-0.128906,-0.0625,-0.058594,0.023926,-0.131714,-0.852173,-0.505859,down
460277,1.78125,7.835937,-4.90625,-0.128906,-0.0625,-0.058594,0.024048,-0.13147,-0.852295,-0.505676,down
460282,1.78125,7.835937,-4.828125,0.222656,-0.042969,0.037109,0.024048,-0.13147,-0.852295,-0.505676,down
460288,1.742188,7.878906,-4.753906,0.291016,-0.041016,0.050781,0.024048,-0.13147,-0.852295,-0.505676,down
460294,1.703125,7.996094,-4.792969,0.335938,-0.029297,0.054687,0.024048,-0.13147,-0.852295,-0.505676,down
460299,1.664063,8.113281,-4.867187,0.355469,-0.027344,0.037109,0.024048,-0.13147,-0.852295,-0.505676,down
460305,1.664063,8.296875,-4.867187,0.349609,-0.044922,0.023437,0.024048,-0.13147,-0.852295,-0.505676,down
460310,1.664063,8.339844,-4.867187,0.349609,-0.044922,0.023437,0.025513,-0.129944,-0.855225,-0.501099,down
460315,1.664063,8.378906,-4.867187,0.349609,-0.044922,0.023437,0.025574,-0.129578,-0.85553,-0.500671,down
460320,1.664063,8.378906,-4.867187,0.349609,-0.044922,0.023437,0.025574,-0.129578,-0.85553,-0.500671,down
460325,1.664063,8.339844,-4.90625,0.058594,-0.078125,-0.111328,0.025574,-0.129578,-0.85553,-0.500671,down
460331,1.664063,8.257813,-4.945312,-0.105469,-0.101563,-0.166016,0.02533,-0.128723,-0.855835,-0.500366,down
460336,1.664063,8.257813,-4.945312,-0.177734,-0.115234,-0.167969,0.024719,-0.127686,-0.855774,-0.500732,down
460341,1.664063,8.152344,-5.019531,-0.177734,-0.115234,-0.167969,0.024292,-0.127197,-0.855591,-0.50116,down
460346,1.703125,8.152344,-5.019531,-0.177734,-0.115234,-0.167969,0.023987,-0.126709,-0.855408,-0.501648,down
460351,1.703125,8.070313,-5.058594,-0.263672,-0.0625,-0.177734,0.023621,-0.126099,-0.855164,-0.502258,down
460357,1.703125,8.070313,-5.019531,-0.263672,-0.0625,-0.177734,0.023376,-0.12561,-0.85498,-0.502686,down
460362,1.703125,8.148438,-5.097656,-0.263672,-0.0625,-0.177734,0.023193,-0.125,-0.854797,-0.503174,down
460368,1.664063,8.21875,-5.097656,-0.263672,-0.0625,-0.177734,0.023193,-0.125,-0.854797,-0.503174,down
460373,1.664063,8.21875,-5.097656,0.013672,0.025391,-0.117188,0.023193,-0.125,-0.854797,-0.503174,down
460378,1.664063,8.261719,-5.019531,0.087891,0.027344,-0.099609,0.023193,-0.125,-0.854797,-0.503174,down
460383,1.625,8.300781,-4.945312,0.179687,0.037109,-0.083984,0.023193,-0.125,-0.854797,-0.503174,down
460388,1.625,8.378906,-4.90625,0.242187,0.044922,-0.078125,0.023193,-0.125,-0.854797,-0.503174,down
460393,1.625,8.339844,-4.867187,0.287109,0.037109,-0.054687,0.023193,-0.125,-0.854797,-0.503174,down
460398,1.625,8.375,-4.792969,0.316406,0.027344,-0.042969,0.023193,-0.125,-0.854797,-0.503174,down
460404,1.625,8.335938,-4.753906,0.316406,0.027344,-0.042969,0.024231,-0.121094,-0.856689,-0.500854,down
460409,1.625,8.335938,-4.714844,0.294922,-0.011719,-0.03125,0.024231,-0.121094,-0.856689,-0.500854,down
460414,1.625,8.300781,-4.714844,0.294922,-0.011719,-0.03125,0.024536,-0.120422,-0.857544,-0.499573,down
460419,1.625,8.191406,-4.714844,0.294922,-0.011719,-0.03125,0.024536,-0.120422,-0.857544,-0.499573,down
460425,1.625,8.148438,-4.714844,0.294922,-0.011719,-0.03125,0.024658,-0.119873,-0.858032,-0.498779,down
460430,1.664063,8.074219,-4.753906,0.294922,-0.011719,-0.03125,0.024597,-0.119629,-0.858215,-0.498596,down
460435,1.625,8.035156,-4.867187,-0.001953,-0.058594,-0.0625,0.024536,-0.119385,-0.858276,-0.498535,down
460441,1.625,8.070313,-4.867187,-0.070312,-0.037109,-0.083984,0.024536,-0.119385,-0.858276,-0.498535,down
460446,1.625,8.035156,-4.828125,-0.070312,-0.037109,-0.083984,0.024231,-0.118347,-0.858215,-0.49884,down
460451,1.664063,7.992187,-4.828125,-0.070312,-0.037109,-0.083984,0.02417,-0.117981,-0.858215,-0.498962,down
460457,1.664063,7.953125,-4.867187,-0.070312,-0.037109,-0.083984,0.024048,-0.117554,-0.858215,-0.499084,down
460462,1.664063,7.953125,-4.867187,0.015625,-0.013672,-0.126953,0.023987,-0.117065,-0.858276,-0.499084,down
460467,1.664063,8.03125,-4.792969,0.015625,-0.013672,-0.126953,0.023987,-0.116577,-0.858398,-0.498962,down
460472,1.625,8.074219,-4.792969,0.015625,-0.013672,-0.126953,0.023926,-0.116089,-0.858582,-0.498779,down
460477,1.625,8.21875,-4.792969,0.015625,-0.013672,-0.126953,0.023865,-0.115601,-0.858765,-0.498535,down
460482,1.625,8.261719,-4.828125,0.138672,-0.041016,-0.136719,0.023865,-0.115601,-0.858765,-0.498535,down
460487,1.625,8.296875,-4.867187,0.134766,-0.041016,-0.130859,0.023682,-0.114624,-0.859253,-0.497986,down
460493,1.625,8.296875,-4.90625,0.134766,-0.041016,-0.130859,0.02356,-0.114197,-0.859497,-0.497681,down
460498,1.625,8.335938,-4.945312,0.097656,-0.068359,-0.107422,0.023376,-0.113831,-0.85968,-0.497437,down
460504,1.664063,8.339844,-4.984375,0.076172,-0.078125,-0.107422,0.023376,-0.113831,-0.85968,-0.497437,down
460510,1.625,8.417969,-5.019531,0.076172,-0.078125,-0.107422,0.023376,-0.113831,-0.85968,-0.497437,down
460515,1.625,8.417969,-5.019531,0.023437,-0.080078,-0.091797,0.023376,-0.113831,-0.85968,-0.497437,down
460520,1.625,8.492188,-5.097656,0.011719,-0.082031,-0.082031,0.022522,-0.112244,-0.860229,-0.496887,down
460525,1.625,8.53125,-5.097656,0.011719,-0.082031,-0.082031,0.022522,-0.112244,-0.860229,-0.496887,down
460530,1.664063,8.535156,-5.175781,0.011719,-0.082031,-0.082031,0.022339,-0.112,-0.860229,-0.496887,down
460535,1.625,8.535156,-5.175781,-0.021484,-0.0625,-0.072266,0.022339,-0.112,-0.860229,-0.496887,down
460541,1.625,8.417969,-5.175781,-0.021484,-0.058594,-0.078125,0.022339,-0.112,-0.860229,-0.496887,down
460546,1.664063,8.417969,-5.210937,-0.021484,-0.058594,-0.078125,0.021851,-0.110901,-0.860413,-0.496948,down
460551,1.625,8.417969,-5.175781,0.048828,-0.046875,-0.058594,0.021851,-0.110901,-0.860413,-0.496948,down
460556,1.625,8.375,-5.097656,0.048828,-0.046875,-0.058594,0.021729,-0.110413,-0.860596,-0.496704,down
460561,1.625,8.375,-5.136719,0.048828,-0.046875,-0.058594,0.021729,-0.110168,-0.860718,-0.496521,down
460566,1.625,8.378906,-5.058594,0.048828,-0.046875,-0.058594,0.021729,-0.109924,-0.860901,-0.496338,down
460571,1.625,8.339844,-5.058594,0.109375,-0.027344,-0.023437,0.021729,-0.109924,-0.860901,-0.496338,down
460576,1.625,8.296875,-4.984375,0.109375,-0.027344,-0.023437,0.02179,-0.109558,-0.861206,-0.49585,down
460581,1.589844,8.339844,-4.945312,0.109375,-0.027344,-0.023437,0.021851,-0.109375,-0.861389,-0.495544,down
460586,1.589844,8.375,-4.984375,0.142578,-0.039063,0.0,0.021851,-0.109375,-0.861389,-0.495544,down
460591,1.589844,8.335938,-5.019531,0.142578,-0.037109,0.0,0.021851,-0.109253,-0.861572,-0.495239,down
460596,1.589844,8.375,-4.984375,0.142578,-0.037109,0.0,0.021973,-0.109009,-0.862,-0.494629,down
460601,1.589844,8.414063,-4.984375,0.142578,-0.037109,0.0,0.021973,-0.108887,-0.862183,-0.494324,down
460606,1.589844,8.453125,-4.984375,0.142578,-0.037109,0.0,0.021973,-0.108887,-0.862183,-0.494324,down
460611,1.625,8.417969,-5.019531,0.111328,-0.0625,-0.001953,0.021912,-0.108704,-0.862488,-0.493774,down
460616,1.589844,8.492188,-5.058594,0.070312,-0.066406,-0.013672,0.021851,-0.108643,-0.86261,-0.493591,down
460621,1.589844,8.417969,-5.136719,0.070312,-0.066406,-0.013672,0.021851,-0.108643,-0.86261,-0.493591,down
460626,1.589844,8.417969,-5.136719,0.070312,-0.066406,-0.013672,0.021606,-0.108459,-0.862793,-0.493286,down
460631,1.625,8.375,-5.136719,0.070312,-0.066406,-0.013672,0.021606,-0.108459,-0.862793,-0.493286,down
460636,1.589844,8.378906,-5.136719,0.009766,-0.068359,-0.029297,0.021484,-0.108337,-0.862915,-0.493164,down
460642,1.589844,8.378906,-5.136719,-0.005859,-0.068359,-0.029297,0.021301,-0.108093,-0.862976,-0.493103,down
460647,1.625,8.257813,-5.097656,-0.019531,-0.054687,-0.035156,0.021179,-0.107971,-0.862976,-0.493103,down
460653,1.625,8.1875,-5.019531,-0.019531,-0.054687,-0.035156,0.021118,-0.107788,-0.862976,-0.493164,down
460658,1.589844,8.148438,-5.019531,-0.033203,-0.025391,-0.041016,0.021118,-0.107788,-0.862976,-0.493164,down
460664,1.625,8.113281,-4.984375,-0.015625,-0.029297,-0.042969,0.021118,-0.107788,-0.862976,-0.493164,down
460669,1.550781,8.1875,-4.984375,-0.001953,-0.017578,-0.041016,0.021118,-0.107788,-0.862976,-0.493164,down
460674,1.589844,8.148438,-5.019531,0.017578,-0.009766,-0.042969,0.021118,-0.107788,-0.862976,-0.493164,down
460680,1.589844,8.191406,-4.984375,0.023437,-0.005859,-0.054687,0.021118,-0.107788,-0.862976,-0.493164,down
460685,1.550781,8.191406,-4.945312,0.041016,-0.019531,-0.044922,0.021118,-0.107788,-0.862976,-0.493164,down
460690,1.511719,8.191406,-4.984375,0.041016,-0.019531,-0.044922,0.020935,-0.106323,-0.863281,-0.492981,down
460695,1.589844,8.1875,-4.945312,0.041016,-0.019531,-0.044922,0.020935,-0.106079,-0.863342,-0.49292,down
460701,1.550781,8.222656,-4.984375,0.052734,-0.025391,-0.039063,0.020874,-0.105713,-0.863525,-0.492615,down
460706,1.589844,8.191406,-4.984375,0.052734,-0.025391,-0.039063,0.020874,-0.105591,-0.863647,-0.492493,down
460711,1.550781,8.222656,-4.984375,0.048828,-0.039063,-0.019531,0.020874,-0.105591,-0.863647,-0.492493,down
460716,1.550781,8.261719,-5.019531,0.048828,-0.039063,-0.019531,0.020813,-0.105469,-0.863708,-0.492371,down
460721,1.550781,8.261719,-5.019531,0.023437,-0.044922,-0.019531,0.020813,-0.105469,-0.863708,-0.492371,down
460726,1.550781,8.300781,-5.136719,0.023437,-0.044922,-0.019531,0.020752,-0.105225,-0.863892,-0.492187,down
460731,1.550781,8.375,-5.136719,-0.011719,-0.035156,-0.035156,0.020691,-0.105103,-0.863892,-0.492126,down
460736,1.550781,8.378906,-5.210937,-0.011719,-0.035156,-0.035156,0.02063,-0.10498,-0.863953,-0.492126,down
460741,1.589844,8.375,-5.210937,-0.011719,-0.035156,-0.035156,0.020569,-0.104797,-0.863953,-0.492126,down
460746,1.589844,8.335938,-5.210937,-0.050781,-0.025391,-0.070312,0.020447,-0.104614,-0.863953,-0.492187,down
460751,1.589844,8.335938,-5.25,-0.050781,-0.025391,-0.070312,0.020386,-0.104431,-0.863892,-0.492249,down
460756,1.589844,8.335938,-5.25,-0.050781,-0.025391,-0.070312,0.020264,-0.104187,-0.863892,-0.492371,down
460761,1.550781,8.296875,-5.210937,-0.080078,-0.017578,-0.083984,0.020264,-0.104187,-0.863892,-0.492371,down
460766,1.550781,8.339844,-5.175781,-0.080078,-0.017578,-0.083984,0.020081,-0.103577,-0.86377,-0.492676,down
460771,1.550781,8.339844,-5.210937,-0.080078,0.0,-0.080078,0.02002,-0.103333,-0.863708,-0.492859,down
460776,1.550781,8.296875,-5.210937,-0.080078,0.0,-0.080078,0.019958,-0.103027,-0.863647,-0.493042,down
460781,1.550781,8.296875,-5.175781,-0.080078,0.0,-0.080078,0.019836,-0.102539,-0.863586,-0.493286,down
460786,1.589844,8.21875,-5.175781,-0.080078,0.0,-0.080078,0.019836,-0.102539,-0.863586,-0.493286,down
460791,1.550781,8.257813,-5.136719,-0.019531,0.009766,-0.029297,0.019958,-0.102173,-0.863586,-0.493347,down
460796,1.589844,8.222656,-5.136719,0.048828,0.029297,0.001953,0.019958,-0.102173,-0.863586,-0.493347,down
460802,1.550781,8.21875,-5.097656,0.087891,0.021484,0.019531,0.020081,-0.10199,-0.863647,-0.493286,down
460807,1.550781,8.222656,-5.058594,0.087891,0.021484,0.019531,0.020386,-0.101807,-0.863831,-0.49292,down
460812,1.550781,8.222656,-5.058594,0.087891,0.021484,0.019531,0.020569,-0.101685,-0.864014,-0.492676,down
460817,1.472656,8.261719,-5.097656,0.087891,0.021484,0.019531,0.020691,-0.101624,-0.864197,-0.492371,down
460822,1.472656,8.21875,-5.058594,0.164062,0.011719,0.023437,0.020874,-0.101501,-0.864441,-0.492004,down
460827,1.511719,8.222656,-4.945312,0.154297,0.007813,0.005859,0.020996,-0.10144,-0.864624,-0.491638,down
460832,1.433594,8.261719,-5.058594,0.154297,0.007813,0.005859,0.021118,-0.101318,-0.864807,-0.491333,down
460837,1.433594,8.261719,-5.058594,0.154297,0.007813,0.005859,0.021179,-0.101196,-0.864929,-0.491089,down
460842,1.433594,8.300781,-5.097656,0.050781,-0.005859,-0.037109,0.02124,-0.101013,-0.865051,-0.490906,down
460847,1.472656,8.257813,-5.058594,0.050781,-0.005859,-0.037109,0.02124,-0.101013,-0.865051,-0.490906,down
460852,1.472656,8.222656,-5.136719,0.050781,-0.005859,-0.037109,0.021179,-0.100586,-0.865173,-0.490845,down
460857,1.472656,8.21875,-5.058594,-0.072266,-0.007813,-0.087891,0.021057,-0.100342,-0.865112,-0.490967,down
460862,1.433594,8.191406,-5.136719,-0.072266,-0.007813,-0.087891,0.020996,-0.100037,-0.865051,-0.49115,down
460867,1.433594,8.148438,-5.136719,-0.072266,-0.007813,-0.087891,0.020813,-0.09967,-0.864929,-0.491394,down
460872,1.433594,8.191406,-5.136719,-0.072266,-0.007813,-0.087891,0.020691,-0.099365,-0.864807,-0.491699,down
460877,1.472656,8.148438,-5.175781,-0.144531,-0.005859,-0.125,0.020569,-0.098999,-0.864685,-0.492004,down
460883,1.433594,8.148438,-5.136719,-0.144531,-0.005859,-0.125,0.020447,-0.098694,-0.864563,-0.49231,down
460888,1.472656,8.148438,-5.175781,-0.144531,-0.005859,-0.125,0.020325,-0.098267,-0.864441,-0.492615,down
460895,1.433594,8.109375,-5.136719,-0.144531,-0.005859,-0.125,0.020325,-0.098267,-0.864441,-0.492615,down
460900,1.398438,8.109375,-5.136719,-0.035156,0.017578,-0.095703,0.020325,-0.098267,-0.864441,-0.492615,down
460906,1.433594,8.074219,-5.097656,0.009766,0.015625,-0.089844,0.020325,-0.098267,-0.864441,-0.492615,down
460911,1.398438,8.113281,-5.058594,0.054687,0.017578,-0.080078,0.020325,-0.098267,-0.864441,-0.492615,down
460916,1.398438,8.113281,-5.058594,0.123047,0.003906,-0.080078,0.020325,-0.098267,-0.864441,-0.492615,down
460921,1.398438,8.035156,-4.984375,0.123047,0.003906,-0.080078,0.020142,-0.096436,-0.864746,-0.492493,down
460927,1.359375,8.03125,-4.945312,0.123047,0.003906,-0.080078,0.020142,-0.095947,-0.865112,-0.491882,down
460933,1.359375,7.992187,-4.90625,0.142578,-0.03125,-0.078125,0.02002,-0.095703,-0.865356,-0.491516,down
460938,1.320313,7.917969,-4.867187,0.142578,-0.03125,-0.078125,0.019958,-0.095459,-0.86554,-0.491272,down
460944,1.320313,7.957031,-4.828125,0.142578,-0.03125,-0.078125,0.019836,-0.095215,-0.865723,-0.490967,down
460950,1.320313,7.917969,-4.867187,0.083984,-0.0625,-0.103516,0.019836,-0.095215,-0.865723,-0.490967,down
460955,1.320313,7.917969,-4.828125,0.056641,-0.076172,-0.105469,0.019836,-0.095215,-0.865723,-0.490967,down
460960,1.320313,7.875,-4.792969,0.029297,-0.087891,-0.123047,0.019836,-0.095215,-0.865723,-0.490967,down
460965,1.28125,7.875,-4.828125,0.029297,-0.087891,-0.123047,0.019836,-0.095215,-0.865723,-0.490967,down
460971,1.28125,7.835937,-4.867187,0.029297,-0.087891,-0.123047,0.018494,-0.093994,-0.866211,-0.490417,down
460976,1.242188,7.875,-4.90625,-0.033203,-0.117188,-0.171875,0.018494,-0.093994,-0.866211,-0.490417,down
460981,1.28125,7.875,-4.984375,-0.035156,-0.109375,-0.183594,0.018494,-0.093994,-0.866211,-0.490417,down
460987,1.242188,7.875,-5.058594,-0.050781,-0.103516,-0.201172,0.018494,-0.093994,-0.866211,-0.490417,down
460992,1.28125,7.914062,-4.984375,-0.050781,-0.103516,-0.201172,0.016296,-0.092163,-0.866272,-0.490723,down
460997,1.28125,7.914062,-5.019531,-0.050781,-0.103516,-0.201172,0.01593,-0.091736,-0.866333,-0.490784,down
461002,1.320313,8.035156,-5.136719,-0.033203,-0.095703,-0.25,0.01593,-0.091736,-0.866333,-0.490784,down
461007,1.28125,8.074219,-5.097656,-0.023437,-0.09375,-0.261719,0.015381,-0.091248,-0.866333,-0.490845,down
461012,1.28125,8.109375,-5.097656,-0.023437,-0.09375,-0.279297,0.014893,-0.090698,-0.866394,-0.490845,down
461017,1.28125,8.109375,-5.136719,-0.023437,-0.09375,-0.279297,0.013916,-0.0896,-0.866455,-0.490967,down
461022,1.28125,8.109375,-5.136719,-0.035156,-0.103516,-0.341797,0.013916,-0.0896,-0.866455,-0.490967,down
461027,1.242188,8.148438,-5.136719,-0.035156,-0.103516,-0.341797,0.012634,-0.088196,-0.866577,-0.491089,down
461032,1.242188,8.148438,-5.097656,-0.035156,-0.103516,-0.341797,0.011963,-0.087463,-0.866577,-0.49115,down
461037,1.207031,8.148438,-5.019531,-0.035156,-0.103516,-0.341797,0.011169,-0.086548,-0.866577,-0.491333,down
461042,1.242188,8.113281,-5.019531,-0.035156,-0.103516,-0.341797,0.011169,-0.086548,-0.866577,-0.491333,down
461047,1.207031,8.152344,-4.945312,-0.125,-0.164062,-0.494141,0.009277,-0.084656,-0.866516,-0.491821,down
461052,1.207031,8.113281,-4.945312,-0.125,-0.164062,-0.494141,0.008057,-0.083496,-0.866455,-0.492187,down
461057,1.089844,8.148438,-4.828125,-0.125,-0.164062,-0.494141,0.006958,-0.082458,-0.866333,-0.492554,down
461062,1.089844,8.1875,-4.792969,-0.271484,-0.289063,-0.71875,0.006958,-0.082458,-0.866333,-0.492554,down
461067,1.015625,8.21875,-4.601562,-0.271484,-0.289063,-0.71875,0.005371,-0.081116,-0.86615,-0.493103,down
461072,0.9375,8.296875,-4.5625,-0.365234,-0.40625,-0.867187,0.003784,-0.079834,-0.865967,-0.493652,down
461077,0.9375,8.335938,-4.523437,-0.365234,-0.40625,-0.867187,0.001709,-0.078308,-0.865723,-0.494385,down
461082,0.824219,8.378906,-4.523437,-0.517578,-0.542969,-1.0625,6.1e-05,0.077026,0.865479,0.495056,down
461088,0.824219,8.378906,-4.523437,-0.607422,-0.632812,-1.158203,0.005188,0.073608,0.864563,0.49707,down
461093,0.628906,8.417969,-4.410156,-0.712891,-0.714844,-1.265625,0.008484,0.071533,0.863892,0.498474,down
461098,0.59375,8.457031,-4.371094,-0.820312,-0.789062,-1.376953,0.011475,0.069763,0.863281,0.499817,down
461103,0.59375,8.457031,-4.371094,-0.919922,-0.876953,-1.474609,0.015259,0.067566,0.862366,0.501526,down
461109,0.515625,8.414063,-4.292969,-1.042969,-0.962891,-1.572266,0.019226,0.065308,0.861389,0.503418,down
461115,0.246094,8.417969,-4.101562,-1.042969,-0.962891,-1.572266,0.019226,0.065308,0.861389,0.503418,down
461120,0.171875,8.414063,-4.101562,-1.287109,-1.099609,-1.746094,0.019226,0.065308,0.861389,0.503418,down
461126,-0.058594,8.53125,-4.140625,-1.287109,-1.099609,-1.746094,0.03302,0.057922,0.8573,0.510437,down
461131,-0.171875,8.609375,-4.101562,-1.53125,-1.21875,-1.898438,0.03302,0.057922,0.8573,0.510437,down
461136,-0.25,8.644531,-4.179687,-1.625,-1.271484,-1.974609,0.03302,0.057922,0.8573,0.510437,down
461141,-0.441406,8.992188,-4.21875,-1.863281,-1.369141,-2.125,0.03302,0.057922,0.8573,0.510437,down
461146,-0.558594,9.140625,-4.253906,-1.863281,-1.369141,-2.125,0.054871,0.046509,0.849304,0.522949,down
461152,-0.632812,9.261719,-4.253906,-1.972656,-1.449219,-2.3125,0.054871,0.046509,0.849304,0.522949,down
461157,-0.785156,9.378906,-4.292969,-2.046875,-1.486328,-2.414063,0.067017,0.040161,0.844299,0.530151,down
461162,-1.015625,9.71875,-4.292969,-2.046875,-1.486328,-2.414063,0.080078,0.033081,0.838745,0.537659,down
461167,-1.132813,9.761719,-4.21875,-2.238281,-1.533203,-2.603516,0.080078,0.033081,0.838745,0.537659,down
461172,-1.246094,9.796875,-4.292969,-2.341797,-1.539063,-2.708984,0.08728,0.028992,0.835449,0.54187,down
461177,-1.359375,9.871094,-4.253906,-2.341797,-1.539063,-2.708984,0.100952,0.020935,0.828796,0.549988,down
461182,-1.554688,9.796875,-4.140625,-2.341797,-1.539063,-2.708984,0.100952,0.020935,0.828796,0.549988,down
461187,-1.667969,9.722656,-4.0625,-2.341797,-1.539063,-2.708984,0.115967,0.011414,0.820679,0.559387,down
461192,-1.820313,9.605469,-3.988281,-2.341797,-1.539063,-2.708984,0.115967,0.011414,0.820679,0.559387,down
461198,-1.898438,9.527344,-3.832031,-2.341797,-1.539063,-2.708984,0.123352,0.006348,0.816284,0.56427,down
461203,-1.898438,9.527344,-3.832031,-3.144531,-1.447266,-3.244141,0.130188,0.001526,0.812012,0.568909,down
461208,-1.972656,9.445313,-3.679688,-3.144531,-1.447266,-3.244141,0.130188,0.001526,0.812012,0.568909,down
461213,-2.355469,9.527344,-3.296875,-3.251953,-1.380859,-3.294922,0.145325,-0.009766,0.80188,0.579468,down
461218,-2.472656,9.566406,-3.257813,-3.337891,-1.292969,-3.347656,0.159973,-0.022034,0.790833,0.590393,down
461223,-2.664063,9.640625,-3.222656,-3.337891,-1.292969,-3.347656,0.166992,-0.028442,0.785095,0.595764,down
461228,-2.855469,9.71875,-3.105469,-3.494141,-1.078125,-3.435547,0.174561,-0.035583,0.778625,0.601624,down
461234,-3.277344,10.214844,-2.53125,-3.494141,-1.078125,-3.435547,0.180847,-0.041687,0.773071,0.606567,down
461239,-3.277344,10.214844,-2.53125,-3.441406,-1.041016,-3.414063,0.188293,-0.049011,0.766296,0.612305,down
461244,-3.699219,10.527344,-2.070313,-3.441406,-1.041016,-3.414063,0.194458,-0.054993,0.760681,0.616882,down
461250,-4.003906,10.484375,-1.726563,-3.294922,-1.113281,-3.25,0.194458,-0.054993,0.760681,0.616882,down
461256,-4.234375,10.371094,-1.535156,-3.257813,-1.115234,-3.140625,0.194458,-0.054993,0.760681,0.616882,down
461261,-4.347656,10.367188,-1.496094,-3.255859,-1.068359,-3.013672,0.194458,-0.054993,0.760681,0.616882,down
461267,-4.769531,10.023438,-1.191406,-3.255859,-1.033203,-2.886719,0.194458,-0.054993,0.760681,0.616882,down
461272,-4.847656,9.871094,-0.921875,-3.255859,-1.033203,-2.886719,0.230957,-0.089294,0.723022,0.644958,down
461277,-4.921875,9.800781,-0.730469,-3.255859,-1.033203,-2.886719,0.230957,-0.089294,0.723022,0.644958,down
461282,-4.921875,9.800781,-0.730469,-3.197266,-0.951172,-2.482422,0.236145,-0.09436,0.716492,0.649597,down
461287,-4.960937,9.5625,-0.5,-3.160156,-0.921875,-2.328125,0.236145,-0.09436,0.716492,0.649597,down
461293,-4.960937,9.5625,-0.5,-3.097656,-0.875,-2.175781,0.2453,-0.103394,0.704041,0.658386,down
461298,-5.230469,8.835938,-0.042969,-3.097656,-0.875,-2.175781,0.253296,-0.111511,0.692017,0.666748,down
461303,-5.230469,8.71875,0.074219,-2.582031,-0.748047,-1.728516,0.256775,-0.115051,0.686584,0.67041,down
461308,-5.308594,8.570313,0.304688,-2.582031,-0.748047,-1.728516,0.260498,-0.118713,0.680786,0.674194,down
461313,-5.308594,8.53125,0.417969,-2.074219,-0.636719,-1.451172,0.263428,-0.121582,0.676331,0.677063,down
461318,-5.382812,8.53125,0.570312,-1.791016,-0.597656,-1.308594,0.266113,-0.124146,0.672241,0.679565,down
461323,-5.382812,8.574219,0.6875,-1.791016,-0.597656,-1.308594,0.268433,-0.126221,0.668945,0.681519,down
461329,-5.460937,8.492188,0.761719,-1.791016,-0.597656,-1.308594,0.270874,-0.128235,0.665649,0.683472,down
461334,-5.460937,8.609375,0.917969,-1.019531,-0.476562,-0.800781,0.272705,-0.129517,0.663269,0.684753,down
461339,-5.460937,8.609375,0.917969,-0.808594,-0.425781,-0.630859,0.274292,-0.130554,0.661194,0.685913,down
461344,-5.574219,8.613281,0.878906,-0.808594,-0.425781,-0.630859,0.274292,-0.130554,0.661194,0.685913,down
461349,-5.574219,8.613281,0.878906,-0.626953,-0.371094,-0.480469,0.275635,-0.131348,0.659546,0.68689,down
461354,-5.574219,8.574219,0.992187,-0.626953,-0.371094,-0.480469,0.276794,-0.131775,0.658142,0.687622,down
461360,-5.574219,8.417969,1.070313,-0.626953,-0.371094,-0.480469,0.278137,-0.131836,0.65625,0.688904,down
461366,-5.574219,8.417969,1.070313,-0.236328,-0.197266,0.083984,0.278137,-0.131836,0.65625,0.688904,down
461371,-5.535156,8.457031,1.109375,-0.216797,-0.158203,0.179687,0.278137,-0.131836,0.65625,0.688904,down
461376,-5.613281,8.535156,1.144531,-0.216797,-0.158203,0.179687,0.278076,-0.130798,0.654785,0.690552,down
461382,-5.613281,8.574219,1.261719,-0.216797,-0.158203,0.179687,0.2771,-0.129639,0.654236,0.69165,down
461387,-5.613281,8.574219,1.261719,-0.216797,-0.158203,0.179687,0.2771,-0.129639,0.654236,0.69165,down
461392,-5.613281,8.574219,1.222656,-0.101563,-0.123047,0.457031,0.275818,-0.12793,0.653992,0.692688,down
461397,-5.613281,8.570313,1.183594,-0.101563,-0.123047,0.457031,0.275818,-0.12793,0.653992,0.692688,down
461402,-5.613281,8.570313,1.183594,-0.101563,-0.123047,0.457031,0.275085,-0.126831,0.653931,0.693237,down
461408,-5.574219,8.609375,1.183594,-0.029297,-0.167969,0.560547,0.273621,-0.124512,0.653992,0.694214,down
461413,-5.5,8.609375,1.222656,-0.029297,-0.167969,0.560547,0.272949,-0.12323,0.654053,0.694641,down
461418,-5.460937,8.574219,1.222656,-0.029297,-0.167969,0.560547,0.272339,-0.121826,0.654053,0.695129,down
461423,-5.421875,8.570313,1.261719,0.007813,-0.3125,0.609375,0.272339,-0.121826,0.654053,0.695129,down
461428,-5.34375,8.457031,1.183594,0.007813,-0.3125,0.609375,0.271667,-0.120178,0.654053,0.695679,down
461433,-5.230469,8.492188,1.183594,0.007813,-0.3125,0.609375,0.27063,-0.116943,0.65387,0.696838,down
461438,-5.191406,8.414063,1.183594,-0.082031,-0.410156,0.595703,0.27063,-0.116943,0.65387,0.696838,down
461443,-5.117187,8.417969,1.144531,-0.113281,-0.427734,0.582031,0.270264,-0.115601,0.653687,0.697327,down
461448,-5.078125,8.457031,1.144531,-0.113281,-0.427734,0.582031,0.26947,-0.112244,0.653015,0.698853,down
461453,-5.152344,8.496094,1.183594,-0.113281,-0.427734,0.582031,0.269165,-0.110413,0.652527,0.699707,down
461458,-5.152344,8.640625,1.144531,-0.113281,-0.427734,0.582031,0.269165,-0.110413,0.652527,0.699707,down
461463,-5.230469,8.800781,1.144531,-0.228516,-0.548828,0.589844,0.268738,-0.106995,0.651367,0.701477,down
461468,-5.34375,9.066406,1.144531,-0.228516,-0.548828,0.589844,0.268616,-0.105103,0.650635,0.702454,down
461473,-5.34375,9.261719,1.183594,-0.292969,-0.746094,0.699219,0.268616,-0.105103,0.650635,0.702454,down
461478,-5.421875,9.417969,1.222656,-0.292969,-0.746094,0.699219,0.268494,-0.102844,0.649841,0.703613,down
461483,-5.34375,9.523438,1.375,-0.302734,-0.820312,0.761719,0.268494,-0.102844,0.649841,0.703613,down
461488,-5.382812,9.484375,1.335938,-0.302734,-0.820312,0.761719,0.26825,-0.0979,0.64801,0.706055,down
461493,-5.269531,9.339844,1.375,-0.435547,-0.818359,0.935547,0.268066,-0.095093,0.646973,0.707458,down
461498,-5.191406,9.21875,1.375,-0.435547,-0.818359,0.935547,0.267761,-0.09259,0.645996,0.708862,down
461503,-5.0,8.761719,1.335938,-0.435547,-0.818359,0.935547,0.266602,-0.087585,0.643616,0.712036,down
461508,-4.808594,8.640625,1.300781,-0.435547,-0.818359,0.935547,0.265686,-0.084839,0.642151,0.71405,down
461513,-4.65625,8.570313,1.300781,-0.435547,-0.818359,0.935547,0.265686,-0.084839,0.642151,0.71405,down
461518,-4.539062,8.417969,1.300781,-0.650391,-0.525391,1.048828,0.265686,-0.084839,0.642151,0.71405,down
461523,-4.121094,8.074219,1.492188,-0.650391,-0.525391,1.048828,0.262512,-0.078247,0.638306,0.719421,down
461528,-4.042969,7.839844,1.527344,-0.490234,-0.376953,1.048828,0.262512,-0.078247,0.638306,0.719421,down
461533,-3.964844,7.652344,1.527344,-0.490234,-0.376953,1.048828,0.261047,-0.075989,0.637146,0.721191,down
461538,-3.929688,7.613281,1.566406,-0.333984,-0.277344,1.070313,0.258057,-0.072083,0.636047,0.723633,down
461544,-3.890625,7.835937,1.375,-0.333984,-0.277344,1.070313,0.256287,-0.069946,0.636169,0.724365,down
461549,-3.890625,7.835937,1.375,0.417969,-0.056641,1.240234,0.254089,-0.067383,0.636902,0.724731,down
461554,-3.929688,8.222656,1.300781,0.417969,-0.056641,1.240234,0.251831,-0.06488,0.638184,0.72467,down
461559,-4.003906,8.496094,1.222656,0.417969,-0.056641,1.240234,0.249756,-0.062683,0.639648,0.724243,down
461565,-4.082031,8.992188,1.03125,0.417969,-0.056641,1.240234,0.246887,-0.059631,0.64209,0.723328,down
461572,-4.082031,9.144531,0.992187,1.394531,0.171875,1.566406,0.246887,-0.059631,0.64209,0.723328,down
461577,-3.8125,9.300781,0.953125,1.394531,0.171875,1.566406,0.24115,-0.053589,0.647705,0.720764,down
461582,-3.8125,9.300781,0.953125,1.394531,0.171875,1.566406,0.24115,-0.053589,0.647705,0.720764,down
461587,-3.734375,9.335938,0.839844,1.644531,0.271484,1.707031,0.24115,-0.053589,0.647705,0.720764,down
461592,-3.734375,9.335938,0.839844,1.6875,0.464844,1.826172,0.231018,-0.044128,0.657593,0.715698,down
461597,-3.277344,9.90625,-0.078125,1.6875,0.464844,1.826172,0.22699,-0.040955,0.661133,0.713928,down
461603,-3.125,10.105469,-0.15625,1.435547,0.6875,2.109375,0.22699,-0.040955,0.661133,0.713928,down
461608,-2.855469,10.101563,-0.15625,1.302734,0.828125,2.224609,0.218201,-0.034912,0.667603,0.710937,down
461614,-2.546875,9.871094,-0.15625,1.302734,0.828125,2.224609,0.20752,-0.028931,0.673584,0.708801,down
461619,-2.394531,9.796875,-0.308594,1.041016,1.333984,2.476563,0.200684,-0.026184,0.676636,0.708008,down
461625,-2.203125,9.417969,-0.460937,1.041016,1.333984,2.476563,0.194702,-0.024231,0.678894,0.70752,down
461632,-2.164063,9.140625,-0.425781,1.041016,1.333984,2.476563,0.18689,-0.022034,0.68158,0.707092,down
461637,-2.089844,8.574219,-0.308594,1.041016,1.333984,2.476563,0.18689,-0.022034,0.68158,0.707092,down
461642,-2.011719,8.417969,-0.195312,1.064453,1.859375,2.777344,0.18689,-0.022034,0.68158,0.707092,down
461648,-1.820313,8.1875,0.074219,1.248047,1.917969,2.84375,0.18689,-0.022034,0.68158,0.707092,down
461653,-1.820313,8.257813,0.035156,1.755859,2.033203,3.029297,0.155151,-0.014221,0.693054,0.703857,down
461659,-1.78125,8.261719,-0.117188,1.984375,2.144531,3.128906,0.145691,-0.011658,0.697083,0.701904,down
461664,-1.78125,8.261719,-0.117188,2.216797,2.253906,3.226563,0.137451,-0.009521,0.700867,0.69989,down
461669,-1.859375,8.109375,-0.730469,2.216797,2.253906,3.226563,0.127869,-0.006958,0.705444,0.697144,down
461674,-1.859375,8.414063,-1.421875,2.425781,2.316406,3.326172,0.118286,-0.004456,0.710144,0.694031,down
461679,-1.859375,8.414063,-1.421875,2.585938,2.378906,3.417969,0.0979,0.000977,0.720459,0.686523,down
461685,-1.285156,9.027344,-1.839844,2.585938,2.378906,3.417969,0.087585,0.003723,0.725769,0.682312,down
461691,-1.359375,9.101563,-1.765625,2.947266,2.625,3.535156,0.087585,0.003723,0.725769,0.682312,down
461696,-1.09375,9.300781,-1.917969,2.955078,2.638672,3.574219,0.065857,0.009033,0.736694,0.672974,down
461702,-0.59375,9.601563,-2.417969,2.892578,2.8125,3.615234,0.054871,0.011536,0.741821,0.668213,down
461707,-0.289063,9.796875,-2.800781,2.892578,2.8125,3.615234,0.054871,0.011536,0.741821,0.668213,down
461712,-0.210937,9.679688,-2.492188,2.617188,3.361328,3.640625,0.054871,0.011536,0.741821,0.668213,down
461718,-0.136719,9.378906,-2.070313,2.464844,3.541016,3.636719,0.054871,0.011536,0.741821,0.668213,down
461723,-0.136719,9.378906,-2.070313,2.314453,3.613281,3.669922,0.00531,0.018005,0.759644,0.650024,down
461728,0.363281,8.570313,-1.265625,2.314453,3.613281,3.669922,0.00531,0.018005,0.759644,0.650024,down
461733,0.132812,7.648437,-0.730469,2.199219,3.380859,3.652344,0.00531,0.018005,0.759644,0.650024,down
461738,0.707031,4.695312,0.953125,2.199219,3.380859,3.652344,0.033325,-0.021729,-0.769348,-0.637573,down
461744,0.976562,5.007812,1.300781,2.427734,3.050781,3.582031,0.056519,-0.025269,-0.776001,-0.627686,down
461749,1.28125,5.117187,1.183594,3.267578,2.65625,3.388672,0.068604,-0.027466,-0.780579,-0.620667,down
461755,0.785156,5.429687,0.535156,3.267578,2.65625,3.388672,0.078796,-0.029419,-0.785217,-0.613525,down
461760,0.707031,6.121094,-0.042969,3.267578,2.65625,3.388672,0.087585,-0.031311,-0.789917,-0.606079,down
461765,0.707031,6.121094,-0.042969,4.105469,2.023438,3.123047,0.097046,-0.033508,-0.79541,-0.59729,down
461770,0.363281,6.769531,-0.882812,4.105469,2.023438,3.123047,0.097046,-0.033508,-0.79541,-0.59729,down
461775,0.246094,7.535156,-1.613281,4.035156,1.785156,3.097656,0.113953,-0.038391,-0.805603,-0.580139,down
461780,1.015625,7.347656,-1.535156,4.035156,1.785156,3.097656,0.122192,-0.041016,-0.810425,-0.571472,down
461785,1.359375,6.847656,-1.6875,3.636719,1.697266,2.794922,0.131104,-0.04364,-0.81543,-0.562073,down
461790,1.589844,5.617187,-1.878906,3.636719,1.697266,2.794922,0.138672,-0.045532,-0.819458,-0.55426,down
461796,1.625,4.3125,-1.957031,3.636719,1.697266,2.794922,0.145325,-0.046875,-0.822571,-0.547791,down
461802,1.625,4.3125,-1.957031,2.628906,1.966797,2.214844,0.153442,-0.048096,-0.825745,-0.540588,down
461807,1.625,4.3125,-1.957031,2.246094,2.050781,1.986328,0.160095,-0.048767,-0.82782,-0.535461,down
461812,1.511719,3.28125,-1.574219,2.246094,2.050781,1.986328,0.167053,-0.049011,-0.829529,-0.530579,down
461817,1.242188,1.867188,-0.730469,2.246094,2.050781,1.986328,0.173767,-0.048767,-0.830933,-0.526306,down
461823,1.167969,1.484375,-0.460937,1.705078,2.097656,1.269531,0.173767,-0.048767,-0.830933,-0.526306,down
461828,1.015625,1.597656,-0.460937,1.818359,2.216797,0.832031,0.173767,-0.048767,-0.830933,-0.526306,down
461833,0.628906,1.675781,-0.460937,1.818359,2.216797,0.832031,0.192261,-0.04541,-0.834412,-0.514465,down
461838,0.324219,1.597656,-0.460937,1.818359,2.216797,0.832031,0.198669,-0.042969,-0.835754,-0.510132,down
461844,0.210937,1.484375,-0.652344,2.048828,2.296875,0.513672,0.209839,-0.037292,-0.83844,-0.501587,down
461849,-0.632812,0.714844,-0.730469,2.048828,2.296875,0.513672,0.215149,-0.033936,-0.839966,-0.49707,down
461854,-0.097656,0.988281,-0.539062,2.662109,2.238281,0.050781,0.215149,-0.033936,-0.839966,-0.49707,down
461859,-0.25,0.640625,0.339844,2.662109,2.238281,0.050781,0.225098,-0.025818,-0.843994,-0.486084,down
461864,-0.785156,0.640625,2.828125,2.662109,2.238281,0.050781,0.229065,-0.021057,-0.847046,-0.479187,down
461869,-1.515625,0.066406,3.910156,2.662109,2.238281,0.050781,0.23114,-0.01709,-0.849976,-0.473083,down
461875,-2.164063,-0.585937,4.476562,3.628906,0.541016,-0.910156,0.232239,-0.012085,-0.854065,-0.465271,down
461880,-2.933594,-1.503906,4.675781,3.628906,0.541016,-0.910156,0.231384,-0.007813,-0.85791,-0.45874,down
461885,-4.886719,-2.15625,6.28125,3.628906,0.541016,-0.910156,0.231384,-0.007813,-0.85791,-0.45874,down
461890,-4.886719,-2.15625,6.28125,3.664063,-1.318359,-1.851563,0.227844,-0.003052,-0.86261,-0.451599,down
461896,-6.570312,-0.472656,8.582031,3.664063,-1.318359,-1.851563,0.211609,0.006836,-0.872925,-0.439514,down
461902,-8.140625,3.4375,9.496094,2.607422,-4.853516,-4.626953,0.211609,0.006836,-0.872925,-0.439514,down
461908,-11.128906,4.96875,6.816406,2.607422,-4.853516,-4.626953,0.211609,0.006836,-0.872925,-0.439514,down
461914,-11.589844,7.765625,4.59375,-2.146484,-9.076172,-8.744141,0.211609,0.006836,-0.872925,-0.439514,down
461919,-11.324219,10.90625,2.257813,-2.146484,-9.076172,-8.744141,0.130249,0.034729,-0.88739,-0.440857,down
461924,-8.101563,13.929688,-2.992188,-4.193359,-10.324219,-10.361328,0.130249,0.034729,-0.88739,-0.440857,down
461929,-8.101563,13.929688,-2.992188,-6.585937,-11.794922,-11.990234,0.061646,0.055237,-0.880432,-0.466919,down
461934,-6.378906,13.324219,-4.140625,-6.585937,-11.794922,-11.990234,0.020569,0.067078,-0.870422,-0.487244,down
461939,-3.429688,15.808594,-4.410156,-11.820313,-14.746094,-14.716797,0.024963,-0.079834,0.854797,0.512146,down
461944,-4.3125,16.503906,-4.101562,-13.828125,-15.703125,-15.53125,0.125732,-0.107056,0.80426,0.570862,down
461949,-7.105469,15.078125,-3.183594,-16.630859,-16.050781,-16.105469,0.125732,-0.107056,0.80426,0.570862,down
461954,-18.828125,7.113281,-0.195312,-16.630859,-16.050781,-16.105469,0.180481,-0.122009,0.767273,0.603149,down
461960,-18.828125,7.113281,-0.195312,-16.886719,-13.347656,-15.416016,0.270264,-0.152039,0.688293,0.655823,down
461965,-26.949219,15.542969,-0.882812,-14.912109,-12.154297,-14.365234,0.313782,-0.168579,0.642395,0.678528,down
461970,-38.675781,5.925781,-3.027344,-14.912109,-12.154297,-14.365234,0.34906,-0.182739,0.604126,0.692688,down
461976,-40.589844,2.898438,-5.671875,-14.912109,-12.154297,-14.365234,0.379456,-0.195129,0.57373,0.699097,down
461982,-35.796875,3.398438,-3.640625,-4.369141,-9.486328,-13.160156,0.379456,-0.195129,0.57373,0.699097,down
461987,-29.59375,4.433594,-3.257813,-0.107422,-9.451172,-12.742188,0.379456,-0.195129,0.57373,0.699097,down
461993,-15.152344,21.820312,-6.628906,4.416016,-7.867187,-12.136719,0.379456,-0.195129,0.57373,0.699097,down
461998,-7.527344,38.71875,-6.324219,7.847656,-6.523437,-10.683594,0.379456,-0.195129,0.57373,0.699097,down
462004,-6.648437,47.988281,-3.949219,10.041016,-4.447266,-7.419922,0.379456,-0.195129,0.57373,0.699097,down
462009,-12.125,32.085937,1.796875,10.041016,-4.447266,-7.419922,0.565186,-0.180847,0.515259,0.618408,down
462015,-15.191406,13.359375,-5.175781,10.041016,-4.447266,-7.419922,0.598633,-0.160522,0.533997,0.575134,down
462020,-15.191406,13.359375,-5.175781,11.132813,-0.837891,-4.929687,0.610718,-0.150146,0.54718,0.552307,down
462025,-14.425781,-0.777344,1.222656,11.132813,-0.837891,-4.929687,0.624695,-0.137695,0.555603,0.531128,down
462030,-8.984375,2.785156,9.808594,11.132813,-0.837891,-4.929687,0.635864,-0.129883,0.556091,0.519226,down
462036,-8.714844,10.90625,2.488281,11.132813,-0.837891,-4.929687,0.643982,-0.129639,0.554321,0.511108,down
462041,-11.242188,7.6875,-5.289062,-2.033203,2.1875,-4.378906,0.647705,-0.13855,0.553284,0.505127,down
462047,-10.707031,10.714844,-2.609375,-2.634766,1.791016,-3.669922,0.647705,-0.13855,0.553284,0.505127,down
462052,-9.253906,10.601563,1.070313,-3.601563,1.021484,-2.601563,0.647705,-0.13855,0.553284,0.505127,down
462057,-8.101563,8.152344,3.292969,-5.681641,1.089844,-1.441406,0.647705,-0.13855,0.553284,0.505127,down
462062,-7.800781,5.886719,4.746094,-7.705078,1.658203,-0.212891,0.647705,-0.13855,0.553284,0.505127,down
462067,-9.066406,5.582031,6.316406,-7.705078,1.658203,-0.212891,0.647705,-0.13855,0.553284,0.505127,down
462073,-9.976563,5.351562,5.511719,-7.705078,1.658203,-0.212891,0.628784,-0.218079,0.524109,0.531372,down
462079,-11.167969,4.277344,4.019531,-4.416016,3.621094,1.0,0.628784,-0.218079,0.524109,0.531372,down
462084,-12.429688,3.472656,1.453125,-4.416016,3.621094,1.0,0.608337,-0.245483,0.518555,0.548462,down
462089,-12.277344,4.625,2.753906,-4.416016,3.621094,1.0,0.597107,-0.256287,0.523071,0.551453,down
462094,-11.246094,5.273437,5.054687,2.693359,1.089844,0.107422,0.597107,-0.256287,0.523071,0.551453,down
462099,-10.476563,5.464844,6.546875,2.693359,1.089844,0.107422,0.596252,-0.255066,0.52771,0.548584,down
462104,-10.519531,6.042969,6.546875,3.816406,1.148438,-0.027344,0.597839,-0.24762,0.540771,0.537476,down
462109,-10.558594,6.003906,5.667969,3.816406,1.148438,-0.027344,0.597839,-0.24762,0.540771,0.537476,down
462114,-10.515625,5.582031,4.515625,4.759766,1.105469,-0.199219,0.601257,-0.236816,0.556152,0.522644,down
462119,-10.441406,5.160156,3.445313,4.753906,-0.083984,-0.197266,0.601257,-0.236816,0.556152,0.522644,down
462125,-9.292969,4.507812,2.832031,4.017578,-0.767578,-0.0625,0.604065,-0.229919,0.562988,0.515015,down
462130,-8.449219,4.433594,3.558594,4.017578,-0.767578,-0.0625,0.61084,-0.216064,0.571106,0.504028,down
462135,-7.300781,4.46875,4.9375,4.017578,-0.767578,-0.0625,0.613342,-0.211121,0.572327,0.501648,down
462140,-7.074219,4.125,5.09375,4.017578,-0.767578,-0.0625,0.614563,-0.208618,0.572327,0.501221,down
462145,-7.101562,3.78125,4.363281,-0.955078,-0.117188,0.410156,0.614441,-0.208191,0.571411,0.502563,down
462151,-7.414062,3.207031,2.5625,-0.955078,-0.117188,0.410156,0.613037,-0.209839,0.569702,0.505493,down
462156,-7.375,2.707031,2.410156,-0.955078,-0.117188,0.410156,0.611023,-0.212646,0.5672,0.509583,down
462161,-7.378906,2.863281,2.296875,-3.453125,0.117188,0.748047,0.608215,-0.216797,0.563599,0.515259,down
462167,-7.683594,3.015625,2.296875,-3.652344,0.191406,0.765625,0.608215,-0.216797,0.563599,0.515259,down
462172,-7.761719,3.054688,2.332031,-3.642578,0.320313,0.734375,0.608215,-0.216797,0.563599,0.515259,down
462177,-7.910156,3.054688,2.066406,-3.642578,0.320313,0.734375,0.598267,-0.231018,0.552124,0.532776,down
462183,-8.289063,3.320313,1.875,-2.347656,0.662109,0.517578,0.598267,-0.231018,0.552124,0.532776,down
462188,-8.710938,3.589844,1.757813,-1.3125,0.773437,0.425781,0.598267,-0.231018,0.552124,0.532776,down
462193,-8.984375,3.628906,1.757813,-1.3125,0.773437,0.425781,0.590149,-0.240234,0.548767,0.541199,down
462198,-8.90625,3.589844,2.332031,0.550781,0.685547,0.259766,0.590149,-0.240234,0.548767,0.541199,down
462203,-8.910156,3.589844,2.523438,1.140625,0.654297,0.224609,0.590149,-0.240234,0.548767,0.541199,down
462208,-9.023438,3.550781,2.523438,1.546875,0.708984,0.203125,0.590149,-0.240234,0.548767,0.541199,down
462214,-9.289063,3.550781,2.179688,1.546875,0.708984,0.203125,0.587463,-0.234863,0.562378,0.53241,down
462219,-9.292969,3.511719,2.140625,1.546875,0.708984,0.203125,0.587463,-0.234863,0.562378,0.53241,down
462225,-9.328125,3.511719,2.257813,1.955078,0.455078,0.183594,0.587891,-0.229919,0.569153,0.526855,down
462230,-9.214844,4.011719,2.523438,1.955078,0.455078,0.183594,0.588196,-0.227722,0.571655,0.52478,down
462236,-9.136719,4.203125,2.601563,1.955078,0.455078,0.183594,0.588196,-0.22583,0.573853,0.523193,down
462241,-9.136719,4.203125,2.601563,0.400391,0.287109,0.361328,0.58783,-0.224731,0.575256,0.522522,down
462246,-9.332031,3.742188,2.601563,0.400391,0.287109,0.361328,0.586792,-0.224426,0.576233,0.522766,down
462251,-9.476563,3.472656,2.410156,0.400391,0.287109,0.361328,0.585571,-0.224792,0.576599,0.52356,down
462256,-9.40625,3.4375,2.371094,-0.818359,0.435547,0.472656,0.585571,-0.224792,0.576599,0.52356,down
462261,-9.328125,3.511719,2.410156,-0.986328,0.414062,0.453125,0.585571,-0.224792,0.576599,0.52356,down
462267,-9.25,3.628906,2.371094,-0.986328,0.414062,0.453125,0.580444,-0.228394,0.575867,0.528442,down
462273,-9.25,3.589844,2.332031,-0.960937,0.427734,0.363281,0.580444,-0.228394,0.575867,0.528442,down
462278,-9.132813,3.472656,2.332031,-0.783203,0.410156,0.326172,0.580444,-0.228394,0.575867,0.528442,down
462283,-9.0625,3.398438,2.257813,-0.539062,0.386719,0.304688,0.580444,-0.228394,0.575867,0.528442,down
462289,-9.023438,3.359375,2.179688,0.017578,0.351563,0.253906,0.580444,-0.228394,0.575867,0.528442,down
462294,-8.949219,3.207031,2.21875,0.017578,0.351563,0.253906,0.57373,-0.233276,0.575684,0.533813,down
462300,-8.75,2.785156,2.332031,0.214844,0.291016,0.230469,0.57373,-0.233276,0.575684,0.533813,down
462305,-8.75,2.785156,2.332031,0.431641,0.189453,0.167969,0.572205,-0.232422,0.578308,0.53302,down
462311,-8.484375,2.746094,2.371094,0.451172,0.150391,0.128906,0.572021,-0.231812,0.579285,0.53241,down
462316,-8.367188,2.785156,2.332031,0.402344,0.117188,0.107422,0.571899,-0.231262,0.5802,0.53186,down
462321,-8.105469,3.015625,2.179688,0.402344,0.117188,0.107422,0.571777,-0.230835,0.580811,0.531433,down
462326,-8.066406,3.015625,2.179688,0.146484,0.09375,0.142578,0.571777,-0.230835,0.580811,0.531433,down
462331,-8.066406,3.015625,2.296875,-0.003906,0.109375,0.171875,0.571777,-0.230835,0.580811,0.531433,down
462336,-8.144531,3.015625,2.332031,-0.128906,0.126953,0.207031,0.571777,-0.230835,0.580811,0.531433,down
462341,-8.21875,2.976563,2.296875,-0.128906,0.126953,0.207031,0.57019,-0.230469,0.582031,0.531921,down
462347,-8.40625,3.015625,2.140625,-0.128906,0.126953,0.207031,0.569397,-0.230713,0.582214,0.532532,down
462353,-8.484375,3.015625,2.179688,-0.267578,0.236328,0.316406,0.569397,-0.230713,0.582214,0.532532,down
462359,-8.601563,3.015625,2.257813,-0.267578,0.236328,0.316406,0.569397,-0.230713,0.582214,0.532532,down
462365,-8.828125,2.785156,2.21875,-0.078125,0.259766,0.359375,0.569397,-0.230713,0.582214,0.532532,down
462370,-8.90625,2.671875,2.140625,0.060547,0.238281,0.324219,0.565674,-0.231323,0.583313,0.534973,down
462375,-8.945313,2.863281,2.105469,0.060547,0.238281,0.324219,0.564209,-0.230957,0.584534,0.5354,down
462380,-8.949219,3.015625,2.140625,0.308594,0.160156,0.205078,0.564209,-0.230957,0.584534,0.5354,down
462385,-8.949219,3.167969,2.21875,0.373047,0.142578,0.152344,0.563721,-0.230469,0.585388,0.535217,down
462390,-8.949219,3.359375,2.105469,0.373047,0.142578,0.152344,0.563477,-0.22998,0.586182,0.534851,down
462396,-8.871094,3.398438,1.988281,0.373047,0.142578,0.152344,0.56311,-0.229126,0.587708,0.533875,down
462401,-8.871094,3.398438,1.988281,0.324219,0.128906,0.080078,0.562988,-0.228699,0.58844,0.533386,down
462406,-8.792969,3.398438,1.988281,0.265625,0.115234,0.072266,0.562866,-0.228333,0.589111,0.532898,down
462412,-8.601563,3.28125,2.027344,0.265625,0.115234,0.072266,0.562744,-0.228088,0.5896,0.532593,down
462418,-8.484375,3.28125,1.949219,0.09375,0.103516,0.082031,0.562744,-0.228088,0.5896,0.532593,down
462423,-8.484375,3.246094,1.914063,0.0,0.117188,0.089844,0.562744,-0.228088,0.5896,0.532593,down
462428,-8.484375,3.207031,1.914063,-0.048828,0.123047,0.089844,0.562744,-0.228088,0.5896,0.532593,down
462433,-8.523438,3.207031,1.914063,-0.103516,0.125,0.099609,0.562744,-0.228088,0.5896,0.532593,down
462438,-8.605469,3.246094,1.914063,-0.101563,0.134766,0.101563,0.562744,-0.228088,0.5896,0.532593,down
462443,-8.644531,3.359375,1.914063,-0.089844,0.162109,0.095703,0.562744,-0.228088,0.5896,0.532593,down
462448,-8.753906,3.550781,1.988281,-0.089844,0.162109,0.095703,0.562744,-0.228088,0.5896,0.532593,down
462454,-8.789063,3.628906,1.988281,-0.089844,0.162109,0.095703,0.559937,-0.228943,0.591431,0.533142,down
462460,-8.871094,3.703125,1.988281,0.146484,0.195312,0.105469,0.559937,-0.228943,0.591431,0.533142,down
462465,-9.023438,3.550781,2.066406,0.146484,0.195312,0.105469,0.559204,-0.228943,0.592346,0.532898,down
462470,-8.988281,3.550781,2.027344,0.234375,0.148437,0.099609,0.558899,-0.228821,0.592896,0.532654,down
462475,-8.988281,3.511719,2.140625,0.234375,0.148437,0.099609,0.558594,-0.228577,0.593567,0.532349,down
462480,-8.832031,3.511719,2.140625,0.214844,0.111328,0.046875,0.558411,-0.228333,0.594116,0.531982,down
462486,-8.644531,3.589844,2.140625,0.214844,0.111328,0.046875,0.558228,-0.227966,0.595093,0.531372,down
462491,-8.5625,3.628906,2.105469,0.132812,0.087891,-0.007813,0.558533,-0.227356,0.595642,0.53064,down
462497,-8.410156,3.703125,1.914063,0.132812,0.087891,-0.007813,0.558899,-0.226929,0.596069,0.529968,down
462502,-8.292969,3.550781,1.914063,0.132812,0.087891,-0.007813,0.559204,-0.226562,0.596313,0.529419,down
462507,-8.289063,3.511719,1.914063,-0.066406,0.048828,-0.013672,0.559204,-0.226562,0.596313,0.529419,down
462512,-8.328125,3.4375,1.875,-0.107422,0.056641,-0.007813,0.559204,-0.226562,0.596313,0.529419,down
462517,-8.367188,3.398438,1.796875,-0.134766,0.074219,0.003906,0.559204,-0.226562,0.596313,0.529419,down
462522,-8.523438,3.472656,1.914063,-0.134766,0.074219,0.003906,0.559204,-0.226562,0.596313,0.529419,down
462527,-8.605469,3.589844,1.875,-0.119141,0.078125,-0.001953,0.559204,-0.226562,0.596313,0.529419,down
462532,-8.605469,3.589844,1.875,-0.087891,0.097656,-0.017578,0.559204,-0.226562,0.596313,0.529419,down
462537,-8.871094,3.894531,1.835938,-0.087891,0.097656,-0.017578,0.559204,-0.226562,0.596313,0.529419,down
462542,-8.871094,3.894531,1.835938,0.005859,0.101563,-0.007813,0.559204,-0.226562,0.596313,0.529419,down
462549,-8.988281,4.085937,1.757813,0.005859,0.101563,-0.007813,0.559204,-0.226562,0.596313,0.529419,down
462555,-9.097656,4.125,1.835938,0.089844,0.095703,0.0,0.559204,-0.226562,0.596313,0.529419,down
462560,-9.09375,4.125,1.796875,0.089844,0.095703,0.0,0.561523,-0.224304,0.598694,0.525269,down
462565,-9.066406,4.164062,1.722656,0.097656,0.113281,0.042969,0.561523,-0.224304,0.598694,0.525269,down
462570,-8.90625,4.011719,1.757813,0.097656,0.113281,0.042969,0.561829,-0.223511,0.59967,0.52417,down
462575,-8.789063,3.972656,1.683594,0.097656,0.113281,0.042969,0.561951,-0.223083,0.600098,0.523743,down
462580,-8.75,3.859375,1.722656,0.097656,0.113281,0.042969,0.562012,-0.222778,0.600525,0.523376,down
462586,-8.714844,3.703125,1.683594,-0.023437,0.103516,0.09375,0.562012,-0.222168,0.601074,0.522888,down
462591,-8.566406,3.550781,1.722656,-0.023437,0.103516,0.09375,0.562073,-0.221863,0.601379,0.522705,down
462597,-8.449219,3.472656,1.683594,-0.023437,0.103516,0.09375,0.562012,-0.221619,0.601624,0.522522,down
462602,-8.484375,3.511719,1.644531,-0.007813,0.113281,0.068359,0.562073,-0.221313,0.601929,0.522278,down
462608,-8.5625,3.742188,1.683594,0.03125,0.123047,0.058594,0.562073,-0.221313,0.601929,0.522278,down
462615,-8.601563,3.820313,1.605469,0.085937,0.138672,0.046875,0.562073,-0.221313,0.601929,0.522278,down
462620,-8.679688,3.894531,1.605469,0.121094,0.132812,0.035156,0.562073,-0.221313,0.601929,0.522278,down
462625,-8.683594,3.933594,1.644531,0.167969,0.125,0.035156,0.562439,-0.219604,0.604248,0.519958,down
462630,-8.75,3.859375,1.722656,0.167969,0.125,0.035156,0.562439,-0.219604,0.604248,0.519958,down
462635,-8.792969,3.894531,1.644531,0.167969,0.125,0.035156,0.562561,-0.219116,0.604858,0.519348,down
462640,-8.75,3.859375,1.722656,0.171875,0.09375,0.039063,0.562561,-0.219116,0.604858,0.519348,down
462645,-8.753906,3.820313,1.796875,0.171875,0.09375,0.039063,0.562805,-0.218201,0.605896,0.518188,down
462650,-8.710938,3.78125,1.796875,0.171875,0.09375,0.039063,0.562927,-0.217773,0.606384,0.517639,down
462656,-8.679688,3.820313,1.757813,0.015625,0.078125,0.042969,0.562927,-0.217773,0.606384,0.517639,down
462661,-8.683594,3.859375,1.683594,0.015625,0.078125,0.042969,0.563232,-0.216919,0.6073,0.516663,down
462667,-8.601563,3.742188,1.644531,0.015625,0.078125,0.042969,0.563293,-0.216736,0.607483,0.516479,down
462672,-8.5625,3.667969,1.605469,-0.097656,0.058594,0.041016,0.563293,-0.216736,0.607483,0.516479,down
462678,-8.5625,3.628906,1.566406,-0.113281,0.060547,0.039063,0.563293,-0.216736,0.607483,0.516479,down
462684,-8.488281,3.550781,1.527344,-0.113281,0.060547,0.039063,0.563354,-0.216431,0.607727,0.516174,down
462689,-8.449219,3.550781,1.566406,-0.078125,0.072266,0.013672,0.563354,-0.216431,0.607727,0.516174,down
462694,-8.449219,3.550781,1.566406,-0.054687,0.080078,0.009766,0.563354,-0.216431,0.607727,0.516174,down
462699,-8.488281,3.550781,1.527344,-0.054687,0.080078,0.009766,0.563477,-0.216187,0.608154,0.515686,down
462705,-8.523438,3.628906,1.492188,-0.054687,0.080078,0.009766,0.563599,-0.215881,0.608704,0.515015,down
462710,-8.523438,3.667969,1.527344,-0.054687,0.080078,0.009766,0.563599,-0.215881,0.608704,0.515015,down
462715,-8.566406,3.628906,1.644531,0.103516,0.115234,-0.013672,0.563843,-0.215454,0.609436,0.514038,down
462720,-8.605469,3.703125,1.722656,0.103516,0.115234,-0.013672,0.563843,-0.215454,0.609436,0.514038,down
462725,-8.679688,3.742188,1.722656,0.103516,0.115234,-0.013672,0.563965,-0.21521,0.609924,0.513489,down
462731,-8.710938,3.78125,1.722656,0.173828,0.132812,-0.017578,0.564148,-0.214661,0.610901,0.512329,down
462736,-8.679688,3.820313,1.757813,0.173828,0.132812,-0.017578,0.564209,-0.214417,0.611328,0.51178,down
462742,-8.683594,3.859375,1.757813,0.173828,0.132812,-0.017578,0.564331,-0.214111,0.611755,0.511292,down
462747,-8.644531,3.894531,1.683594,0.109375,0.103516,0.003906,0.564453,-0.213867,0.612183,0.510803,down
462752,-8.644531,3.894531,1.683594,0.089844,0.097656,0.007813,0.564514,-0.213623,0.612549,0.510376,down
462758,-8.601563,3.972656,1.605469,0.089844,0.097656,0.007813,0.564575,-0.213379,0.612854,0.51001,down
462763,-8.5625,3.972656,1.605469,0.021484,0.089844,0.025391,0.564636,-0.213196,0.613159,0.509705,down
462769,-8.527344,4.011719,1.566406,-0.005859,0.095703,0.033203,0.564636,-0.213196,0.613159,0.509705,down
462775,-8.601563,3.972656,1.605469,-0.005859,0.095703,0.033203,0.564636,-0.212891,0.613586,0.509277,down
462780,-8.679688,3.933594,1.566406,-0.050781,0.103516,0.052734,0.564636,-0.212891,0.613586,0.509277,down
462786,-8.75,3.894531,1.566406,-0.074219,0.115234,0.058594,0.564331,-0.212769,0.614136,0.508972,down
462791,-8.832031,3.78125,1.683594,-0.074219,0.115234,0.058594,0.56427,-0.212708,0.614319,0.508911,down
462796,-8.871094,3.78125,1.683594,-0.083984,0.109375,0.015625,0.56427,-0.212708,0.614319,0.508911,down
462801,-8.871094,3.742188,1.683594,-0.083984,0.105469,-0.001953,0.564209,-0.212769,0.614441,0.50885,down
462806,-8.90625,3.859375,1.722656,-0.083984,0.105469,-0.001953,0.564148,-0.212769,0.614563,0.508667,down
462811,-8.90625,3.859375,1.722656,-0.083984,0.105469,-0.001953,0.564087,-0.212891,0.614868,0.508362,down
462816,-8.984375,4.011719,1.683594,-0.037109,0.119141,-0.023437,0.564087,-0.212891,0.614868,0.508362,down
462821,-8.984375,4.011719,1.757813,-0.037109,0.119141,-0.023437,0.564087,-0.212952,0.615234,0.507874,down
462826,-8.949219,3.972656,1.757813,-0.037109,0.119141,-0.023437,0.564087,-0.212952,0.615479,0.507629,down
462831,-8.984375,4.011719,1.757813,0.027344,0.134766,0.003906,0.564087,-0.212952,0.615479,0.507629,down
462836,-8.910156,3.933594,1.757813,0.052734,0.138672,0.017578,0.564026,-0.212952,0.615784,0.507324,down
462841,-8.945313,3.894531,1.757813,0.052734,0.138672,0.017578,0.563965,-0.212708,0.616455,0.506714,down
462846,-8.867188,3.859375,1.722656,0.052734,0.138672,0.017578,0.563904,-0.212463,0.616821,0.506348,down
462851,-8.867188,3.859375,1.722656,0.136719,0.128906,0.042969,0.563904,-0.212463,0.616821,0.506348,down
462856,-8.792969,3.972656,1.722656,0.136719,0.128906,0.042969,0.563904,-0.212158,0.61731,0.50592,down
462861,-8.789063,4.011719,1.683594,0.164062,0.119141,0.050781,0.563904,-0.212158,0.61731,0.50592,down
462866,-8.792969,4.164062,1.683594,0.164062,0.119141,0.050781,0.563843,-0.211182,0.618713,0.504639,down
462871,-8.871094,4.242187,1.644531,0.148437,0.105469,0.044922,0.563843,-0.211182,0.618713,0.504639,down
462876,-8.832031,4.277344,1.683594,0.148437,0.105469,0.044922,0.563843,-0.210876,0.619141,0.504211,down
462881,-8.832031,4.277344,1.683594,0.130859,0.080078,0.060547,0.563904,-0.210205,0.619873,0.50354,down
462886,-8.832031,4.277344,1.683594,0.130859,0.080078,0.060547,0.563904,-0.210205,0.619873,0.50354,down
462891,-8.832031,4.203125,1.683594,-0.019531,0.029297,0.042969,0.563904,-0.2099,0.620178,0.503296,down
462897,-8.832031,4.085937,1.644531,-0.019531,0.029297,0.042969,0.563965,-0.209534,0.620422,0.503113,down
462903,-8.789063,3.933594,1.722656,-0.019531,0.029297,0.042969,0.564026,-0.209473,0.6203,0.503174,down
462910,-8.714844,3.894531,1.757813,-0.210937,-0.027344,0.03125,0.564026,-0.209473,0.6203,0.503174,down
462915,-8.644531,3.78125,1.683594,-0.246094,-0.03125,0.013672,0.564026,-0.209473,0.6203,0.503174,down
462920,-8.601563,3.742188,1.683594,-0.246094,-0.03125,0.013672,0.564087,-0.209717,0.619629,0.503906,down
462925,-8.5625,3.742188,1.644531,-0.246094,-0.03125,0.013672,0.564087,-0.2099,0.619263,0.504211,down
462931,-8.488281,3.703125,1.683594,-0.251953,-0.023437,0.007813,0.564148,-0.210205,0.618713,0.5047,down
462936,-8.488281,3.667969,1.605469,-0.251953,-0.023437,0.007813,0.564148,-0.210266,0.618591,0.504883,down
462941,-8.445313,3.667969,1.605469,-0.251953,-0.023437,0.007813,0.564148,-0.210327,0.618469,0.504944,down
462946,-8.445313,3.667969,1.605469,-0.251953,-0.023437,0.007813,0.564148,-0.210327,0.618469,0.504944,down
462951,-8.410156,3.667969,1.566406,-0.058594,0.041016,0.037109,0.564148,-0.210266,0.618591,0.504883,down
462956,-8.445313,3.667969,1.566406,-0.058594,0.041016,0.037109,0.564148,-0.210266,0.618591,0.504883,down
462961,-8.449219,3.667969,1.527344,0.105469,0.066406,0.066406,0.564087,-0.210022,0.618774,0.504761,down
462966,-8.445313,3.703125,1.527344,0.136719,0.068359,0.074219,0.564087,-0.209778,0.61908,0.504517,down
462972,-8.527344,3.78125,1.527344,0.136719,0.068359,0.074219,0.564087,-0.209045,0.619812,0.503967,down
462978,-8.601563,3.859375,1.527344,0.136719,0.068359,0.074219,0.564087,-0.208679,0.620178,0.503601,down
462983,-8.683594,4.050781,1.527344,0.130859,0.0625,0.0625,0.564087,-0.208313,0.620544,0.503296,down
462989,-8.789063,4.085937,1.566406,0.097656,0.056641,0.058594,0.564087,-0.208313,0.620544,0.503296,down
462995,-8.90625,4.011719,1.527344,0.072266,0.042969,0.056641,0.564087,-0.208313,0.620544,0.503296,down
463000,-8.910156,4.050781,1.527344,0.029297,0.027344,0.044922,0.564087,-0.208313,0.620544,0.503296,down
463006,-8.949219,4.050781,1.566406,-0.025391,-0.001953,0.042969,0.564087,-0.208313,0.620544,0.503296,down
463011,-8.949219,4.050781,1.566406,-0.025391,-0.001953,0.042969,0.564331,-0.207031,0.621399,0.502563,down
463016,-8.988281,4.085937,1.492188,-0.025391,-0.001953,0.042969,0.564331,-0.207031,0.621399,0.502563,down
463021,-8.945313,4.125,1.453125,-0.173828,-0.03125,0.011719,0.564331,-0.207031,0.621399,0.502563,down
463026,-8.910156,4.050781,1.453125,-0.173828,-0.03125,0.011719,0.564453,-0.207092,0.621094,0.502808,down
463031,-8.867188,3.972656,1.492188,-0.173828,-0.03125,0.011719,0.564514,-0.207153,0.62085,0.502991,down
463036,-8.832031,3.933594,1.453125,-0.179687,-0.015625,0.019531,0.564514,-0.207214,0.620605,0.503235,down
463041,-8.753906,3.894531,1.414063,-0.179687,-0.015625,0.019531,0.564514,-0.207275,0.620422,0.503418,down
463047,-8.683594,3.78125,1.375,-0.179687,-0.015625,0.019531,0.564575,-0.207336,0.620117,0.503662,down
463052,-8.5625,3.742188,1.375,-0.097656,0.009766,0.029297,0.564575,-0.207336,0.620056,0.503784,down
463058,-8.527344,3.742188,1.375,-0.097656,0.009766,0.029297,0.564575,-0.207275,0.620056,0.503845,down
463063,-8.527344,3.78125,1.414063,-0.097656,0.009766,0.029297,0.564514,-0.207214,0.620117,0.503784,down
