timestamp,ax,ay,az,gx,gy,gz,qw,qx,qy,qz,label
564684,6.394531,6.824219,-2.523438,-0.269531,-0.330078,-0.251953,0.261414,-0.216431,-0.75708,-0.558289,down
564690,6.355469,6.933594,-2.597656,-0.232422,-0.302734,-0.257813,0.261414,-0.216431,-0.75708,-0.558289,down
564695,6.355469,7.011719,-2.675781,-0.232422,-0.302734,-0.257813,0.257935,-0.216675,-0.75708,-0.559753,down
564700,6.355469,7.089844,-2.675781,-0.232422,-0.302734,-0.257813,0.256897,-0.216675,-0.75708,-0.560242,down
564706,6.355469,7.167969,-2.675781,-0.205078,-0.197266,-0.277344,0.254944,-0.216431,-0.757141,-0.561157,down
564711,6.394531,7.089844,-2.636719,-0.238281,-0.164062,-0.273438,0.254089,-0.216248,-0.75708,-0.561646,down
564716,6.394531,7.167969,-2.5625,-0.238281,-0.164062,-0.273438,0.253296,-0.216064,-0.757019,-0.562195,down
564721,6.429687,7.242187,-2.5625,-0.238281,-0.164062,-0.273438,0.253296,-0.216064,-0.757019,-0.562195,down
564726,6.355469,7.433594,-2.636719,-0.228516,-0.125,-0.300781,0.253296,-0.216064,-0.757019,-0.562195,down
564731,6.355469,7.433594,-2.5625,-0.228516,-0.125,-0.300781,0.250671,-0.215271,-0.756775,-0.563965,down
564736,6.316406,7.433594,-2.5625,-0.287109,-0.162109,-0.322266,0.250671,-0.215271,-0.756775,-0.563965,down
564741,6.316406,7.390625,-2.484375,-0.287109,-0.162109,-0.322266,0.248718,-0.214783,-0.756531,-0.565369,down
564746,6.238281,7.316406,-2.332031,-0.287109,-0.162109,-0.322266,0.248718,-0.214783,-0.756531,-0.565369,down
564752,6.238281,7.316406,-2.332031,-0.332031,-0.175781,-0.296875,0.246826,-0.214478,-0.756226,-0.566772,down
564757,6.164062,7.277344,-2.40625,-0.333984,-0.185547,-0.294922,0.245789,-0.214355,-0.755981,-0.567505,down
564762,6.203125,7.128906,-2.253906,-0.333984,-0.185547,-0.294922,0.244751,-0.214294,-0.755798,-0.568298,down
564767,6.164062,7.128906,-2.292969,-0.333984,-0.185547,-0.294922,0.243896,-0.214233,-0.755615,-0.568909,down
564772,6.125,7.167969,-2.332031,-0.296875,-0.166016,-0.248047,0.242981,-0.214111,-0.755432,-0.569641,down
564778,6.085937,7.128906,-2.332031,-0.296875,-0.166016,-0.248047,0.242187,-0.21405,-0.755249,-0.570129,down
564784,6.011719,7.164062,-2.214844,-0.296875,-0.166016,-0.248047,0.241333,-0.21405,-0.755066,-0.57074,down
564789,5.972656,7.164062,-2.332031,-0.208984,-0.121094,-0.164062,0.241333,-0.21405,-0.755066,-0.57074,down
564794,5.894531,7.128906,-2.332031,-0.160156,-0.095703,-0.132812,0.241333,-0.21405,-0.755066,-0.57074,down
564800,5.933594,6.972656,-2.214844,-0.160156,-0.095703,-0.132812,0.239746,-0.213928,-0.754822,-0.571838,down
564805,5.894531,6.96875,-2.140625,-0.160156,-0.095703,-0.132812,0.23938,-0.213928,-0.754761,-0.572083,down
564811,5.820312,7.011719,-2.179688,-0.029297,-0.056641,-0.078125,0.23938,-0.213928,-0.754761,-0.572083,down
564816,5.855469,6.972656,-2.179688,0.015625,-0.033203,-0.066406,0.238708,-0.213684,-0.754944,-0.572205,down
564821,5.742187,7.011719,-2.0625,0.015625,-0.033203,-0.066406,0.238708,-0.213684,-0.754944,-0.572205,down
564826,5.742187,7.011719,-2.0625,0.056641,-0.001953,-0.048828,0.238586,-0.213501,-0.755066,-0.572144,down
564831,5.78125,6.96875,-2.023438,0.056641,-0.001953,-0.048828,0.238464,-0.213379,-0.755188,-0.572083,down
564837,5.78125,6.933594,-1.949219,0.056641,-0.001953,-0.048828,0.238281,-0.213074,-0.755371,-0.572021,down
564843,5.742187,6.894531,-1.984375,0.056641,-0.001953,-0.048828,0.238159,-0.212952,-0.755493,-0.57196,down
564849,5.78125,6.972656,-1.910156,0.03125,-0.046875,-0.117188,0.238159,-0.212952,-0.755493,-0.57196,down
564854,5.78125,6.972656,-1.871094,-0.021484,-0.076172,-0.138672,0.238159,-0.212952,-0.755493,-0.57196,down
564861,5.78125,7.007812,-1.984375,-0.021484,-0.076172,-0.138672,0.238159,-0.212952,-0.755493,-0.57196,down
564866,5.742187,7.050781,-2.023438,-0.107422,-0.113281,-0.201172,0.238159,-0.212952,-0.755493,-0.57196,down
564871,5.78125,7.085937,-1.949219,-0.140625,-0.142578,-0.201172,0.236145,-0.211975,-0.755981,-0.57251,down
564877,5.78125,7.085937,-1.949219,-0.15625,-0.15625,-0.203125,0.234802,-0.21167,-0.755981,-0.573181,down
564882,5.855469,6.890625,-1.949219,-0.179687,-0.167969,-0.212891,0.234009,-0.211548,-0.755981,-0.573547,down
564888,5.855469,6.859375,-1.792969,-0.179687,-0.167969,-0.212891,0.233154,-0.211487,-0.755981,-0.573975,down
564893,5.894531,6.785156,-1.871094,-0.179687,-0.167969,-0.212891,0.232422,-0.211426,-0.755981,-0.57428,down
564898,5.933594,6.863281,-1.832031,-0.121094,-0.21875,-0.1875,0.232422,-0.211426,-0.755981,-0.57428,down
564903,5.933594,6.863281,-1.792969,-0.09375,-0.236328,-0.169922,0.232422,-0.211426,-0.755981,-0.57428,down
564908,5.894531,6.929687,-1.910156,-0.060547,-0.238281,-0.160156,0.232422,-0.211426,-0.755981,-0.57428,down
564913,5.933594,6.933594,-1.984375,-0.060547,-0.238281,-0.160156,0.232422,-0.211426,-0.755981,-0.57428,down
564918,5.933594,6.933594,-1.984375,0.003906,-0.271484,-0.119141,0.232422,-0.211426,-0.755981,-0.57428,down
564926,6.011719,7.007812,-2.101563,0.003906,-0.271484,-0.119141,0.232422,-0.211426,-0.755981,-0.57428,down
564931,6.011719,7.046875,-2.179688,0.109375,-0.263672,-0.09375,0.232422,-0.211426,-0.755981,-0.57428,down
564936,6.011719,7.085937,-2.214844,0.166016,-0.28125,-0.085937,0.232422,-0.211426,-0.755981,-0.57428,down
564941,6.046875,7.128906,-2.179688,0.166016,-0.28125,-0.085937,0.22583,-0.212036,-0.758057,-0.573975,down
564947,6.011719,7.242187,-2.214844,0.166016,-0.28125,-0.085937,0.224609,-0.212158,-0.758972,-0.57312,down
564952,6.046875,7.277344,-2.292969,0.166016,-0.28125,-0.085937,0.223999,-0.21228,-0.75946,-0.572693,down
564957,6.046875,7.3125,-2.332031,0.152344,-0.275391,-0.105469,0.223267,-0.212341,-0.759949,-0.572327,down
564962,6.046875,7.273437,-2.40625,0.152344,-0.275391,-0.105469,0.222656,-0.212402,-0.760376,-0.57196,down
564967,6.046875,7.273437,-2.40625,0.152344,-0.275391,-0.105469,0.222046,-0.212463,-0.760681,-0.571777,down
564972,6.085937,7.242187,-2.40625,0.050781,-0.273438,-0.132812,0.221252,-0.212585,-0.761047,-0.571533,down
564978,6.085937,7.277344,-2.484375,0.050781,-0.273438,-0.132812,0.220581,-0.212585,-0.761292,-0.571472,down
564983,6.085937,7.3125,-2.484375,0.050781,-0.273438,-0.132812,0.219788,-0.212585,-0.761536,-0.571411,down
564989,6.085937,7.394531,-2.523438,0.050781,-0.273438,-0.132812,0.219788,-0.212585,-0.761536,-0.571411,down
564995,6.011719,7.433594,-2.5625,-0.054687,-0.244141,-0.226562,0.219788,-0.212585,-0.761536,-0.571411,down
565000,6.046875,7.433594,-2.597656,-0.083984,-0.242187,-0.242187,0.219788,-0.212585,-0.761536,-0.571411,down
565005,6.046875,7.46875,-2.714844,-0.083984,-0.242187,-0.242187,0.21637,-0.21228,-0.762268,-0.571899,down
565010,6.046875,7.429687,-2.675781,-0.107422,-0.226562,-0.267578,0.21637,-0.21228,-0.762268,-0.571899,down
565015,6.046875,7.390625,-2.675781,-0.123047,-0.214844,-0.269531,0.21637,-0.21228,-0.762268,-0.571899,down
565020,6.046875,7.429687,-2.675781,-0.123047,-0.214844,-0.269531,0.213745,-0.211853,-0.762573,-0.572632,down
565025,6.046875,7.429687,-2.675781,-0.095703,-0.179687,-0.285156,0.213745,-0.211853,-0.762573,-0.572632,down
565030,6.011719,7.472656,-2.675781,-0.068359,-0.169922,-0.277344,0.213745,-0.211853,-0.762573,-0.572632,down
565035,6.011719,7.46875,-2.597656,-0.050781,-0.164062,-0.285156,0.213745,-0.211853,-0.762573,-0.572632,down
565041,5.933594,7.472656,-2.597656,-0.050781,-0.164062,-0.285156,0.209839,-0.210388,-0.763306,-0.573608,down
565046,5.894531,7.429687,-2.5625,-0.050781,-0.164062,-0.285156,0.209839,-0.210388,-0.763306,-0.573608,down
565051,5.894531,7.429687,-2.597656,0.009766,-0.109375,-0.242187,0.209839,-0.210388,-0.763306,-0.573608,down
565056,5.855469,7.390625,-2.523438,0.009766,-0.109375,-0.242187,0.208618,-0.209717,-0.763733,-0.573792,down
565061,5.855469,7.390625,-2.523438,0.009766,-0.109375,-0.242187,0.207947,-0.209351,-0.763977,-0.573853,down
565067,5.820312,7.390625,-2.523438,0.041016,-0.080078,-0.238281,0.207031,-0.208618,-0.764404,-0.573914,down
565072,5.78125,7.429687,-2.5625,0.052734,-0.072266,-0.242187,0.206543,-0.208191,-0.764648,-0.573853,down
565077,5.742187,7.546875,-2.597656,0.052734,-0.072266,-0.242187,0.206116,-0.207825,-0.764832,-0.573853,down
565082,5.664062,7.472656,-2.5625,0.048828,-0.042969,-0.228516,0.205627,-0.207397,-0.765076,-0.573853,down
565087,5.625,7.546875,-2.5625,0.048828,-0.042969,-0.228516,0.205261,-0.20697,-0.76532,-0.573914,down
565092,5.625,7.507812,-2.523438,0.033203,-0.013672,-0.222656,0.205261,-0.20697,-0.76532,-0.573914,down
565098,5.625,7.46875,-2.523438,0.033203,-0.013672,-0.222656,0.20459,-0.206116,-0.765625,-0.573975,down
565103,5.589844,7.429687,-2.484375,0.041016,0.001953,-0.234375,0.204224,-0.205627,-0.765808,-0.574036,down
565108,5.589844,7.429687,-2.484375,0.044922,0.007813,-0.253906,0.203918,-0.205139,-0.766052,-0.574036,down
565114,5.511719,7.433594,-2.445313,0.044922,0.007813,-0.253906,0.203552,-0.20459,-0.766235,-0.574097,down
565121,5.472656,7.394531,-2.371094,0.025391,0.011719,-0.277344,0.203552,-0.20459,-0.766235,-0.574097,down
565127,5.398437,7.273437,-2.332031,0.033203,0.011719,-0.291016,0.203552,-0.20459,-0.766235,-0.574097,down
565132,5.359375,7.273437,-2.253906,0.033203,0.011719,-0.291016,0.201965,-0.202148,-0.766907,-0.574585,down
565137,5.320312,7.203125,-2.214844,0.033203,0.011719,-0.291016,0.201538,-0.201599,-0.76709,-0.574707,down
565143,5.359375,7.164062,-2.179688,0.033203,0.005859,-0.318359,0.20105,-0.200928,-0.767273,-0.574829,down
565148,5.242187,7.128906,-2.0625,0.033203,0.005859,-0.318359,0.200684,-0.200317,-0.767517,-0.574951,down
565154,5.207031,7.128906,-2.023438,0.044922,-0.017578,-0.333984,0.200195,-0.199646,-0.7677,-0.575012,down
565161,5.167969,7.167969,-1.984375,0.050781,-0.039063,-0.351563,0.200195,-0.199646,-0.7677,-0.575012,down
565166,5.089844,7.128906,-1.949219,0.050781,-0.039063,-0.351563,0.198364,-0.197693,-0.768555,-0.575195,down
565171,5.050781,7.128906,-1.910156,0.050781,-0.039063,-0.351563,0.198364,-0.197693,-0.768555,-0.575195,down
565176,5.050781,7.089844,-1.910156,0.064453,-0.119141,-0.384766,0.198364,-0.197693,-0.768555,-0.575195,down
565181,5.015625,7.046875,-1.792969,0.064453,-0.162109,-0.392578,0.198364,-0.197693,-0.768555,-0.575195,down
565186,5.015625,7.128906,-1.71875,0.064453,-0.162109,-0.392578,0.195862,-0.195923,-0.769653,-0.575256,down
565192,4.9375,7.164062,-1.71875,0.056641,-0.255859,-0.423828,0.195862,-0.195923,-0.769653,-0.575256,down
565197,4.9375,7.128906,-1.640625,0.060547,-0.320313,-0.433594,0.192322,-0.194519,-0.770935,-0.575195,down
565203,4.898437,7.203125,-1.640625,0.060547,-0.320313,-0.433594,0.190735,-0.194153,-0.771423,-0.575195,down
565208,4.824219,7.203125,-1.640625,-0.021484,-0.480469,-0.458984,0.189087,-0.193909,-0.771912,-0.575195,down
565214,4.785156,7.277344,-1.871094,-0.021484,-0.480469,-0.458984,0.187622,-0.193726,-0.772217,-0.575256,down
565220,4.746094,7.390625,-2.023438,-0.021484,-0.480469,-0.458984,0.185669,-0.193665,-0.772644,-0.575378,down
565225,4.785156,7.429687,-2.140625,-0.15625,-0.595703,-0.484375,0.185669,-0.193665,-0.772644,-0.575378,down
565230,4.785156,7.550781,-2.214844,-0.197266,-0.619141,-0.496094,0.185669,-0.193665,-0.772644,-0.575378,down
565235,4.785156,7.585937,-2.332031,-0.246094,-0.640625,-0.513672,0.185669,-0.193665,-0.772644,-0.575378,down
565240,4.707031,7.699219,-2.484375,-0.246094,-0.640625,-0.513672,0.185669,-0.193665,-0.772644,-0.575378,down
565246,4.785156,7.8125,-2.636719,-0.246094,-0.640625,-0.513672,0.175476,-0.193604,-0.773743,-0.577087,down
565252,4.785156,7.890625,-2.675781,-0.3125,-0.546875,-0.550781,0.175476,-0.193604,-0.773743,-0.577087,down
565257,4.785156,8.007813,-2.90625,-0.3125,-0.546875,-0.550781,0.16925,-0.193176,-0.773987,-0.578796,down
565262,4.824219,8.082031,-2.980469,-0.345703,-0.486328,-0.550781,0.16925,-0.193176,-0.773987,-0.578796,down
565267,4.859375,8.046875,-3.019531,-0.376953,-0.441406,-0.554687,0.167175,-0.192932,-0.773987,-0.579468,down
565272,4.785156,8.078125,-2.980469,-0.376953,-0.441406,-0.554687,0.163574,-0.192322,-0.773865,-0.580872,down
565277,4.824219,8.121094,-3.097656,-0.376953,-0.441406,-0.554687,0.161926,-0.191956,-0.773804,-0.581543,down
565282,4.746094,8.117188,-3.097656,-0.376953,-0.441406,-0.554687,0.161926,-0.191956,-0.773804,-0.581543,down
565287,4.746094,8.121094,-3.058594,-0.283203,-0.316406,-0.535156,0.158752,-0.190918,-0.773743,-0.582825,down
565292,4.746094,8.195313,-3.019531,-0.185547,-0.234375,-0.521484,0.15741,-0.190369,-0.773804,-0.583313,down
565297,4.667969,8.234375,-2.945313,-0.185547,-0.234375,-0.521484,0.15741,-0.190369,-0.773804,-0.583313,down
565302,4.667969,8.234375,-2.945313,-0.160156,-0.197266,-0.5,0.155945,-0.189697,-0.773865,-0.583801,down
565307,4.632812,8.351563,-2.828125,-0.160156,-0.197266,-0.5,0.154785,-0.189087,-0.773926,-0.584167,down
565312,4.632812,8.433594,-2.828125,-0.160156,-0.197266,-0.5,0.152405,-0.187744,-0.77417,-0.585022,down
565317,4.59375,8.464844,-2.789063,-0.160156,-0.197266,-0.5,0.152405,-0.187744,-0.77417,-0.585022,down
565322,4.59375,8.464844,-2.789063,-0.138672,-0.177734,-0.494141,0.151367,-0.187195,-0.774231,-0.585327,down
565327,4.554687,8.503906,-2.753906,-0.144531,-0.207031,-0.480469,0.148987,-0.185974,-0.774414,-0.586121,down
565332,4.554687,8.503906,-2.636719,-0.144531,-0.207031,-0.480469,0.147766,-0.185425,-0.774414,-0.586609,down
565337,4.515625,8.429688,-2.675781,-0.144531,-0.207031,-0.480469,0.147766,-0.185425,-0.774414,-0.586609,down
565342,4.554687,8.390625,-2.675781,-0.267578,-0.21875,-0.474609,0.145203,-0.184387,-0.774231,-0.58783,down
565347,4.515625,8.3125,-2.714844,-0.267578,-0.21875,-0.474609,0.145203,-0.184387,-0.774231,-0.58783,down
565352,4.515625,8.273438,-2.789063,-0.355469,-0.236328,-0.447266,0.143799,-0.183899,-0.773987,-0.588562,down
565357,4.554687,8.238281,-2.753906,-0.355469,-0.236328,-0.447266,0.142639,-0.183533,-0.773804,-0.589233,down
565362,4.554687,8.199219,-2.675781,-0.365234,-0.234375,-0.425781,0.142639,-0.183533,-0.773804,-0.589233,down
565367,4.515625,8.238281,-2.714844,-0.365234,-0.234375,-0.425781,0.140076,-0.1828,-0.773254,-0.590759,down
565372,4.476562,8.234375,-2.714844,-0.365234,-0.234375,-0.425781,0.138794,-0.182495,-0.773071,-0.591492,down
565378,4.476562,8.234375,-2.714844,-0.242187,-0.203125,-0.34375,0.138794,-0.182495,-0.773071,-0.591492,down
565384,4.4375,8.15625,-2.597656,-0.242187,-0.203125,-0.34375,0.135986,-0.181702,-0.772766,-0.592712,down
565390,4.4375,8.15625,-2.597656,-0.035156,-0.164062,-0.251953,0.135254,-0.181458,-0.772888,-0.592834,down
565395,4.402344,8.15625,-2.714844,0.052734,-0.150391,-0.224609,0.134583,-0.181213,-0.773071,-0.592834,down
565400,4.363281,8.15625,-2.636719,0.115234,-0.146484,-0.203125,0.134583,-0.181213,-0.773071,-0.592834,down
565406,4.324219,8.160156,-2.597656,0.148437,-0.134766,-0.183594,0.134583,-0.181213,-0.773071,-0.592834,down
565411,4.324219,8.195313,-2.5625,0.162109,-0.109375,-0.175781,0.134583,-0.181213,-0.773071,-0.592834,down
565416,4.324219,8.160156,-2.597656,0.169922,-0.09375,-0.173828,0.134583,-0.181213,-0.773071,-0.592834,down
565421,4.285156,8.199219,-2.636719,0.169922,-0.09375,-0.173828,0.134583,-0.181213,-0.773071,-0.592834,down
565426,4.285156,8.15625,-2.636719,0.169922,-0.09375,-0.173828,0.131897,-0.179749,-0.775024,-0.591248,down
565431,4.246094,8.15625,-2.5625,0.117188,-0.078125,-0.179687,0.131897,-0.179749,-0.775024,-0.591248,down
565437,4.285156,8.199219,-2.5625,0.085937,-0.074219,-0.179687,0.130798,-0.178894,-0.775818,-0.590759,down
565442,4.285156,8.160156,-2.523438,0.085937,-0.074219,-0.179687,0.130798,-0.178894,-0.775818,-0.590759,down
565447,4.210937,8.082031,-2.523438,0.017578,-0.058594,-0.208984,0.130798,-0.178894,-0.775818,-0.590759,down
565452,4.246094,8.082031,-2.523438,0.013672,-0.052734,-0.230469,0.129944,-0.178223,-0.776123,-0.590759,down
565458,4.210937,8.050781,-2.40625,0.013672,-0.052734,-0.230469,0.129089,-0.17749,-0.776428,-0.590759,down
565463,4.210937,8.050781,-2.40625,0.005859,-0.070312,-0.244141,0.12854,-0.177124,-0.77655,-0.59082,down
565469,4.09375,8.046875,-2.371094,0.005859,-0.070312,-0.244141,0.128052,-0.176697,-0.776672,-0.590881,down
565474,4.054687,7.972656,-2.332031,0.005859,-0.070312,-0.244141,0.127502,-0.176392,-0.776855,-0.590881,down
565480,4.019531,7.894531,-2.253906,0.009766,-0.119141,-0.261719,0.127502,-0.176392,-0.776855,-0.590881,down
565485,4.054687,7.855469,-2.214844,0.0,-0.132812,-0.261719,0.127502,-0.176392,-0.776855,-0.590881,down
565491,4.019531,7.734375,-2.179688,-0.007813,-0.146484,-0.263672,0.127502,-0.176392,-0.776855,-0.590881,down
565497,3.980469,7.816406,-2.214844,0.0,-0.160156,-0.28125,0.127502,-0.176392,-0.776855,-0.590881,down
565502,3.941406,7.8125,-2.140625,-0.005859,-0.173828,-0.291016,0.123352,-0.1745,-0.777832,-0.591064,down
565507,3.941406,7.972656,-2.214844,-0.005859,-0.173828,-0.291016,0.123352,-0.1745,-0.777832,-0.591064,down
565512,3.902344,8.046875,-2.214844,-0.066406,-0.21875,-0.353516,0.122437,-0.174133,-0.777954,-0.591187,down
565517,3.902344,8.046875,-2.292969,-0.066406,-0.21875,-0.353516,0.121582,-0.173767,-0.778076,-0.591309,down
565523,3.902344,8.046875,-2.332031,-0.087891,-0.234375,-0.371094,0.119385,-0.173035,-0.778259,-0.591675,down
565528,3.902344,8.117188,-2.371094,-0.087891,-0.234375,-0.371094,0.118286,-0.172668,-0.77832,-0.59198,down
565533,3.863281,8.160156,-2.40625,-0.087891,-0.234375,-0.371094,0.117065,-0.172302,-0.778381,-0.592224,down
565538,3.902344,8.238281,-2.40625,-0.144531,-0.287109,-0.464844,0.115723,-0.171814,-0.778442,-0.592529,down
565544,3.863281,8.273438,-2.445313,-0.144531,-0.287109,-0.464844,0.114319,-0.171387,-0.778503,-0.592834,down
565549,3.863281,8.355469,-2.445313,-0.144531,-0.287109,-0.464844,0.113037,-0.170959,-0.778564,-0.59314,down
565554,3.863281,8.355469,-2.445313,-0.179687,-0.326172,-0.507812,0.111511,-0.170471,-0.778625,-0.593506,down
565560,3.828125,8.3125,-2.484375,-0.201172,-0.316406,-0.517578,0.111511,-0.170471,-0.778625,-0.593506,down
565566,3.828125,8.3125,-2.523438,-0.201172,-0.316406,-0.517578,0.108643,-0.169556,-0.778625,-0.594299,down
565572,3.789063,8.273438,-2.5625,-0.216797,-0.304688,-0.535156,0.108643,-0.169556,-0.778625,-0.594299,down
565577,3.828125,8.3125,-2.523438,-0.220703,-0.304688,-0.537109,0.104126,-0.167908,-0.778564,-0.595642,down
565582,3.789063,8.3125,-2.523438,-0.220703,-0.304688,-0.537109,0.104126,-0.167908,-0.778564,-0.595642,down
565587,3.75,8.390625,-2.5625,-0.220703,-0.304688,-0.537109,0.102722,-0.167358,-0.778564,-0.596069,down
565592,3.710938,8.433594,-2.523438,-0.160156,-0.242187,-0.515625,0.102722,-0.167358,-0.778564,-0.596069,down
565597,3.710938,8.460938,-2.597656,-0.160156,-0.242187,-0.515625,0.099976,-0.166199,-0.778503,-0.596924,down
565603,3.671875,8.582031,-2.636719,-0.160156,-0.242187,-0.515625,0.097351,-0.164917,-0.778625,-0.597534,down
565608,3.636719,8.621094,-2.636719,-0.095703,-0.208984,-0.515625,0.097351,-0.164917,-0.778625,-0.597534,down
565613,3.636719,8.695313,-2.597656,-0.095703,-0.208984,-0.515625,0.094971,-0.163574,-0.77887,-0.597961,down
565618,3.597656,8.738281,-2.636719,-0.095703,-0.208984,-0.515625,0.093811,-0.162903,-0.778992,-0.598145,down
565623,3.558594,8.816406,-2.636719,-0.044922,-0.189453,-0.494141,0.09259,-0.16217,-0.779175,-0.598328,down
565628,3.597656,8.816406,-2.675781,-0.029297,-0.199219,-0.474609,0.09259,-0.16217,-0.779175,-0.598328,down
565633,3.519531,8.84375,-2.636719,-0.029297,-0.199219,-0.474609,0.090454,-0.16095,-0.779541,-0.598511,down
565638,3.519531,8.84375,-2.597656,-0.029297,-0.199219,-0.474609,0.089355,-0.160339,-0.779724,-0.598572,down
565643,3.519531,8.882813,-2.597656,-0.027344,-0.185547,-0.462891,0.089355,-0.160339,-0.779724,-0.598572,down
565648,3.480469,8.921875,-2.597656,-0.027344,-0.185547,-0.462891,0.087158,-0.159058,-0.78009,-0.598755,down
565653,3.445313,8.921875,-2.597656,-0.0625,-0.195312,-0.457031,0.087158,-0.159058,-0.78009,-0.598755,down
565658,3.445313,8.964844,-2.5625,-0.0625,-0.195312,-0.457031,0.084961,-0.157898,-0.780334,-0.599121,down
565663,3.445313,8.964844,-2.5625,-0.132812,-0.195312,-0.458984,0.084961,-0.157898,-0.780334,-0.599121,down
565668,3.40625,8.886719,-2.523438,-0.173828,-0.191406,-0.470703,0.083862,-0.157288,-0.780396,-0.599365,down
565673,3.328125,8.8125,-2.523438,-0.173828,-0.191406,-0.470703,0.081665,-0.156128,-0.780334,-0.600037,down
565678,3.289063,8.738281,-2.523438,-0.226562,-0.175781,-0.478516,0.081665,-0.156128,-0.780334,-0.600037,down
565683,3.289063,8.660156,-2.484375,-0.226562,-0.175781,-0.478516,0.079224,-0.154846,-0.78009,-0.601013,down
565688,3.25,8.695313,-2.484375,-0.226562,-0.175781,-0.478516,0.079224,-0.154846,-0.78009,-0.601013,down
565693,3.214844,8.734375,-2.523438,-0.226562,-0.175781,-0.478516,0.077209,-0.153564,-0.779846,-0.601868,down
565698,3.175781,8.777344,-2.523438,-0.189453,-0.148437,-0.46875,0.077209,-0.153564,-0.779846,-0.601868,down
565703,3.214844,8.816406,-2.484375,-0.189453,-0.148437,-0.46875,0.075989,-0.152771,-0.779785,-0.602356,down
565708,3.136719,8.960938,-2.484375,-0.189453,-0.148437,-0.46875,0.074097,-0.15155,-0.779663,-0.603027,down
565713,3.097656,8.960938,-2.523438,-0.189453,-0.148437,-0.46875,0.073059,-0.150879,-0.779663,-0.603394,down
565718,3.097656,9.003906,-2.597656,-0.189453,-0.148437,-0.46875,0.073059,-0.150879,-0.779663,-0.603394,down
565723,3.097656,8.925781,-2.523438,-0.101563,-0.132812,-0.423828,0.071228,-0.149719,-0.779724,-0.603821,down
565728,3.058594,8.921875,-2.523438,-0.101563,-0.132812,-0.423828,0.07019,-0.149109,-0.779846,-0.603943,down
565733,3.023438,8.882813,-2.445313,-0.101563,-0.132812,-0.423828,0.07019,-0.149109,-0.779846,-0.603943,down
565738,3.023438,8.882813,-2.445313,-0.017578,-0.142578,-0.398438,0.069336,-0.14856,-0.779968,-0.603943,down
565743,3.023438,8.882813,-2.445313,-0.007813,-0.136719,-0.380859,0.069336,-0.14856,-0.779968,-0.603943,down
565748,2.984375,8.8125,-2.40625,-0.007813,-0.136719,-0.380859,0.067688,-0.147522,-0.780212,-0.604065,down
565753,2.945313,8.816406,-2.40625,-0.037109,-0.130859,-0.400391,0.067688,-0.147522,-0.780212,-0.604065,down
565758,2.90625,8.734375,-2.371094,-0.037109,-0.130859,-0.400391,0.065918,-0.146362,-0.780457,-0.604248,down
565763,2.90625,8.734375,-2.332031,-0.037109,-0.130859,-0.400391,0.064148,-0.145142,-0.78064,-0.604492,down
565768,2.832031,8.621094,-2.292969,-0.115234,-0.113281,-0.451172,0.064148,-0.145142,-0.78064,-0.604492,down
565773,2.832031,8.542969,-2.253906,-0.140625,-0.115234,-0.460937,0.06311,-0.144348,-0.78064,-0.604736,down
565779,2.832031,8.355469,-2.179688,-0.146484,-0.101563,-0.472656,0.062256,-0.143738,-0.78064,-0.605042,down
565785,2.792969,8.316406,-2.179688,-0.146484,-0.101563,-0.472656,0.060303,-0.142273,-0.780579,-0.605652,down
565791,2.753906,8.355469,-2.179688,-0.132812,-0.082031,-0.486328,0.060303,-0.142273,-0.780579,-0.605652,down
565797,2.753906,8.429688,-2.179688,-0.123047,-0.085937,-0.488281,0.060303,-0.142273,-0.780579,-0.605652,down
565803,2.714844,8.503906,-2.214844,-0.103516,-0.082031,-0.480469,0.05658,-0.139099,-0.780579,-0.60675,down
565808,2.675781,8.539063,-2.214844,-0.103516,-0.082031,-0.480469,0.05658,-0.139099,-0.780579,-0.60675,down
565813,2.640625,8.617188,-2.253906,0.0,-0.099609,-0.46875,0.05658,-0.139099,-0.780579,-0.60675,down
565819,2.640625,8.617188,-2.253906,0.0,-0.099609,-0.46875,0.053833,-0.136841,-0.781006,-0.606995,down
565824,2.640625,8.578125,-2.253906,0.050781,-0.130859,-0.460937,0.052856,-0.136047,-0.78125,-0.606934,down
565830,2.640625,8.5,-2.292969,0.050781,-0.130859,-0.460937,0.05188,-0.135376,-0.781555,-0.606812,down
565835,2.601563,8.542969,-2.332031,0.050781,-0.130859,-0.460937,0.051086,-0.134705,-0.781799,-0.606628,down
565840,2.601563,8.503906,-2.292969,0.103516,-0.152344,-0.474609,0.051086,-0.134705,-0.781799,-0.606628,down
565845,2.5625,8.503906,-2.253906,0.087891,-0.148437,-0.498047,0.051086,-0.134705,-0.781799,-0.606628,down
565850,2.640625,8.5,-2.292969,0.087891,-0.148437,-0.498047,0.047974,-0.132446,-0.782776,-0.60614,down
565855,2.5625,8.542969,-2.292969,0.087891,-0.148437,-0.498047,0.046997,-0.131714,-0.78302,-0.606079,down
565860,2.484375,8.429688,-2.292969,0.087891,-0.148437,-0.498047,0.046997,-0.131714,-0.78302,-0.606079,down
565865,2.484375,8.429688,-2.332031,-0.058594,-0.134766,-0.585937,0.046997,-0.131714,-0.78302,-0.606079,down
565871,2.523438,8.539063,-2.5625,-0.105469,-0.119141,-0.566406,0.046997,-0.131714,-0.78302,-0.606079,down
565878,2.5625,8.695313,-2.636719,-0.128906,-0.101563,-0.529297,0.046997,-0.131714,-0.78302,-0.606079,down
565883,2.5625,8.8125,-2.753906,-0.150391,-0.087891,-0.498047,0.040588,-0.126465,-0.783325,-0.607239,down
565888,2.5625,9.078125,-2.675781,-0.150391,-0.087891,-0.498047,0.040588,-0.126465,-0.783325,-0.607239,down
565893,2.5625,9.234375,-2.523438,-0.273438,-0.125,-0.425781,0.039673,-0.125732,-0.783142,-0.607666,down
565898,2.484375,9.386719,-2.523438,-0.273438,-0.125,-0.425781,0.038696,-0.125061,-0.782898,-0.608215,down
565904,2.410156,9.578125,-2.484375,-0.332031,-0.171875,-0.421875,0.036438,-0.123962,-0.782104,-0.609619,down
565910,2.332031,9.617188,-2.179688,-0.332031,-0.171875,-0.421875,0.035217,-0.123535,-0.781555,-0.610474,down
565915,2.332031,9.617188,-2.179688,-0.701172,-0.324219,-0.5625,0.033691,-0.122986,-0.780762,-0.611694,down
565921,2.292969,9.617188,-2.140625,-0.701172,-0.324219,-0.5625,0.033691,-0.122986,-0.780762,-0.611694,down
565926,2.179688,9.621094,-2.140625,-0.701172,-0.324219,-0.5625,0.029663,-0.121765,-0.778625,-0.614868,down
565932,2.140625,9.503906,-2.179688,-1.212891,-0.511719,-0.855469,0.029663,-0.121765,-0.778625,-0.614868,down
565937,2.179688,9.421875,-2.179688,-1.462891,-0.566406,-0.949219,0.029663,-0.121765,-0.778625,-0.614868,down
565943,2.257813,9.234375,-2.140625,-1.730469,-0.578125,-1.019531,0.029663,-0.121765,-0.778625,-0.614868,down
565948,2.257813,9.195313,-2.292969,-1.730469,-0.578125,-1.019531,0.018005,-0.118286,-0.770752,-0.625793,down
565953,2.292969,9.042969,-2.332031,-2.130859,-0.515625,-1.0625,0.018005,-0.118286,-0.770752,-0.625793,down
565959,2.410156,8.886719,-2.292969,-2.285156,-0.472656,-1.037109,0.018005,-0.118286,-0.770752,-0.625793,down
565964,2.410156,8.8125,-2.253906,-2.285156,-0.472656,-1.037109,0.005005,-0.113464,-0.757385,-0.643005,down
565969,2.371094,8.8125,-2.214844,-2.160156,-0.224609,-0.904297,0.005005,-0.113464,-0.757385,-0.643005,down
565974,2.332031,8.84375,-2.179688,-2.160156,-0.224609,-0.904297,0.000122,-0.11084,-0.751099,-0.650818,down
565979,2.21875,9.304688,-2.0625,-2.160156,-0.224609,-0.904297,0.000122,-0.11084,-0.751099,-0.650818,down
565984,2.21875,9.304688,-2.0625,-2.160156,-0.224609,-0.904297,0.000122,-0.11084,-0.751099,-0.650818,down
565989,2.179688,9.726563,-1.910156,-1.289063,-0.005859,-0.84375,0.00354,0.108032,0.746521,0.656494,down
565994,2.027344,10.535156,-1.949219,-0.585937,0.076172,-0.878906,0.005188,0.106445,0.744934,0.658569,down
565999,1.910156,10.914063,-1.910156,-0.585937,0.076172,-0.878906,0.008179,0.102905,0.743347,0.660889,down
566004,1.835938,11.257813,-1.792969,-0.585937,0.076172,-0.878906,0.009644,0.100952,0.743286,0.661255,down
566009,1.835938,11.640625,-1.679688,0.152344,0.146484,-1.070313,0.011169,0.098755,0.743591,0.661194,down
566014,1.757813,11.957031,-1.640625,0.152344,0.146484,-1.070313,0.012512,0.096558,0.744202,0.660828,down
566019,1.605469,12.605469,-1.71875,0.152344,0.146484,-1.070313,0.014282,0.093689,0.745056,0.660217,down
566024,1.566406,12.867188,-1.757813,0.107422,0.171875,-1.404297,0.016052,0.090942,0.745728,0.659851,down
566029,1.488281,12.988281,-1.757813,-0.244141,0.083984,-1.541016,0.016052,0.090942,0.745728,0.659851,down
566034,1.453125,12.871094,-1.71875,-0.244141,0.083984,-1.541016,0.020752,0.085083,0.745544,0.660645,down
566040,1.183594,12.757813,-1.183594,-0.244141,0.083984,-1.541016,0.023987,0.082031,0.744385,0.662231,down
566045,1.183594,12.488281,-0.914062,-1.716797,-0.351563,-1.978516,0.023987,0.082031,0.744385,0.662231,down
566050,1.144531,12.140625,-0.570312,-2.265625,-0.449219,-2.154297,0.023987,0.082031,0.744385,0.662231,down
566055,1.144531,11.761719,-0.378906,-2.265625,-0.449219,-2.154297,0.037598,0.072021,0.735535,0.672607,down
566060,0.953125,11.1875,-0.261719,-2.265625,-0.449219,-2.154297,0.042969,0.068237,0.730835,0.677734,down
566066,0.914062,11.035156,-0.222656,-3.498047,-0.464844,-2.648438,0.048889,0.063904,0.725403,0.683655,down
566071,0.683594,10.152344,-0.261719,-3.498047,-0.464844,-2.648438,0.054871,0.059326,0.719604,0.689636,down
566077,0.53125,10.0,-0.1875,-3.833984,-0.425781,-3.048828,0.054871,0.059326,0.719604,0.689636,down
566082,0.378906,9.960938,-0.148437,-3.845703,-0.384766,-3.271484,0.054871,0.059326,0.719604,0.689636,down
566088,-0.082031,10.074219,0.160156,-3.777344,-0.326172,-3.480469,0.054871,0.059326,0.719604,0.689636,down
566093,-0.273438,10.496094,0.195312,-3.777344,-0.326172,-3.480469,0.082336,0.036194,0.694153,0.714172,down
566098,-0.273438,10.496094,0.195312,-3.464844,-0.101563,-3.865234,0.089905,0.029053,0.687866,0.719666,down
566103,-0.503906,11.03125,0.121094,-3.253906,0.035156,-4.005859,0.089905,0.029053,0.687866,0.719666,down
566108,-0.503906,11.03125,0.121094,-3.044922,0.175781,-4.142578,0.089905,0.029053,0.687866,0.719666,down
566114,-0.503906,11.03125,0.121094,-3.044922,0.175781,-4.142578,0.111694,0.005676,0.671509,0.732544,down
566119,-1.84375,13.183594,-0.378906,-2.755859,0.515625,-4.289062,0.126038,-0.012512,0.661194,0.739441,down
566124,-2.648438,13.484375,-0.070312,-2.755859,0.515625,-4.289062,0.126038,-0.012512,0.661194,0.739441,down
566129,-2.953125,13.410156,0.195312,-2.755859,0.515625,-4.289062,0.139771,-0.03125,0.65033,0.746033,down
566134,-3.070313,13.40625,0.582031,-2.755859,0.515625,-4.289062,0.139771,-0.03125,0.65033,0.746033,down
566139,-3.335938,13.289063,0.925781,-3.222656,0.605469,-4.349609,0.153015,-0.049316,0.638184,0.752869,down
566144,-3.605469,13.0625,1.382813,-3.222656,0.605469,-4.349609,0.159851,-0.058411,0.631165,0.756714,down
566149,-3.683594,12.488281,1.730469,-3.984375,0.478516,-4.298828,0.159851,-0.058411,0.631165,0.756714,down
566154,-4.027344,11.679688,1.84375,-3.984375,0.478516,-4.298828,0.167236,-0.06842,0.622803,0.76123,down
566159,-4.027344,11.679688,1.84375,-4.289062,0.521484,-4.240234,0.173279,-0.076904,0.615051,0.765381,down
566164,-4.5625,10.652344,2.035156,-4.496094,0.519531,-4.150391,0.179749,-0.086487,0.605774,0.770264,down
566169,-4.5625,10.652344,2.035156,-4.601562,0.5,-4.027344,0.185791,-0.09552,0.596375,0.775024,down
566174,-4.832031,10.308594,2.34375,-4.601562,0.5,-4.027344,0.197327,-0.113159,0.57666,0.784668,down
566179,-4.871094,9.960938,2.957031,-4.601562,0.5,-4.027344,0.197327,-0.113159,0.57666,0.784668,down
566184,-5.097656,9.769531,3.261719,-4.601562,0.5,-4.027344,0.208374,-0.129822,0.557007,0.793396,down
566189,-5.480469,9.421875,3.644531,-4.601562,0.5,-4.027344,0.208374,-0.129822,0.557007,0.793396,down
566194,-5.75,9.648438,3.605469,-3.302734,0.740234,-3.041016,0.208374,-0.129822,0.557007,0.793396,down
566199,-6.132812,10.1875,3.53125,-3.302734,0.740234,-3.041016,0.216858,-0.144348,0.541382,0.799438,down
566204,-7.050781,11.070313,3.761719,-2.910156,0.71875,-2.736328,0.220459,-0.151245,0.534546,0.801758,down
566209,-7.050781,11.070313,3.761719,-2.585938,0.574219,-2.40625,0.223755,-0.157654,0.528259,0.803772,down
566214,-7.894531,11.644531,4.527344,-2.585938,0.574219,-2.40625,0.226562,-0.162903,0.522766,0.805542,down
566219,-8.164063,11.570313,4.871094,-2.585938,0.574219,-2.40625,0.228943,-0.167114,0.5177,0.807251,down
566224,-8.203125,11.191406,5.140625,-2.248047,-0.064453,-0.824219,0.231018,-0.171143,0.511902,0.809509,down
566229,-8.242188,10.769531,5.332031,-2.248047,-0.064453,-0.824219,0.232117,-0.173523,0.507202,0.811646,down
566234,-8.316406,9.730469,5.597656,-2.248047,-0.064453,-0.824219,0.232483,-0.175415,0.502258,0.814209,down
566240,-8.316406,9.304688,5.714844,-2.416016,-0.283203,-0.046875,0.231262,-0.177002,0.492432,0.82019,down
566245,-8.164063,8.621094,5.75,-2.416016,-0.283203,-0.046875,0.229614,-0.17688,0.487244,0.82373,down
566250,-8.085938,8.277344,5.675781,-2.111328,-0.517578,0.982422,0.229614,-0.17688,0.487244,0.82373,down
566255,-7.933594,8.050781,5.597656,-2.111328,-0.517578,0.982422,0.225098,-0.174744,0.479065,0.8302,down
566261,-7.550781,8.078125,5.484375,-2.111328,-0.517578,0.982422,0.221619,-0.172546,0.475342,0.83374,down
566268,-7.359375,7.890625,5.445312,-1.410156,-0.619141,1.953125,0.221619,-0.172546,0.475342,0.83374,down
566273,-6.824219,7.816406,5.0625,-1.410156,-0.619141,1.953125,0.221619,-0.172546,0.475342,0.83374,down
566278,-6.824219,7.816406,5.0625,-0.664062,-0.513672,2.591797,0.20929,-0.163513,0.469727,0.841919,down
566284,-6.667969,7.738281,4.910156,-0.25,-0.421875,2.908203,0.20929,-0.163513,0.469727,0.841919,down
566289,-5.941406,7.628906,4.601562,0.117188,-0.349609,3.216797,0.20929,-0.163513,0.469727,0.841919,down
566295,-5.710937,7.550781,4.5625,0.365234,-0.271484,3.525391,0.183533,-0.145142,0.474548,0.848572,down
566300,-5.636719,7.589844,4.371094,0.736328,-0.087891,4.128906,0.174927,-0.139526,0.477417,0.84967,down
566305,-5.367187,7.277344,4.257812,0.736328,-0.087891,4.128906,0.16626,-0.133911,0.48053,0.850586,down
566311,-4.675781,6.933594,4.527344,0.736328,-0.087891,4.128906,0.157349,-0.128174,0.483582,0.85144,down
566316,-4.675781,6.933594,4.527344,0.876953,-0.080078,4.996094,0.147095,-0.121643,0.487061,0.852295,down
566321,-4.066406,6.625,4.5625,0.876953,-0.080078,4.996094,0.137024,-0.115112,0.490234,0.853027,down
566327,-3.453125,6.019531,4.753906,0.876953,-0.080078,4.996094,0.12561,-0.107727,0.493713,0.85376,down
566333,-3.144531,5.820312,4.871094,0.976562,-0.195312,5.792969,0.12561,-0.107727,0.493713,0.85376,down
566338,-2.878906,5.785156,4.949219,1.09375,-0.269531,6.041016,0.12561,-0.107727,0.493713,0.85376,down
566343,-2.417969,5.398437,4.910156,1.300781,-0.355469,6.291016,0.12561,-0.107727,0.493713,0.85376,down
566348,-2.148438,5.210937,4.832031,1.546875,-0.451172,6.513672,0.12561,-0.107727,0.493713,0.85376,down
566354,-1.917969,5.097656,4.753906,1.816406,-0.533203,6.712891,0.12561,-0.107727,0.493713,0.85376,down
566359,-1.917969,5.097656,4.753906,2.132813,-0.626953,6.90625,0.049561,-0.053711,0.518616,0.851868,down
566364,-1.421875,4.519531,4.71875,2.132813,-0.626953,6.90625,0.049561,-0.053711,0.518616,0.851868,down
566369,-0.921875,3.832031,4.679687,2.476563,-0.773437,7.087891,0.049561,-0.053711,0.518616,0.851868,down
566374,-0.617187,3.601563,4.410156,2.476563,-0.773437,7.087891,0.008057,-0.019531,0.537292,0.84314,down
566380,-0.117188,2.910156,4.144531,2.476563,-0.773437,7.087891,0.020447,-0.004944,-0.552246,-0.833374,down
566385,0.1875,2.492188,4.101562,4.089844,-1.099609,7.507812,0.035522,-0.018066,-0.560791,-0.826965,down
566390,0.570312,2.222656,4.140625,4.363281,-1.115234,7.513672,0.050049,-0.030884,-0.569397,-0.819946,down
566395,0.992187,2.183594,4.023437,4.363281,-1.115234,7.513672,0.063049,-0.042236,-0.577271,-0.812988,down
566400,1.335938,2.03125,3.878906,4.363281,-1.115234,7.513672,0.063049,-0.042236,-0.577271,-0.812988,down
566405,1.605469,1.761719,3.566406,4.785156,-1.017578,7.486328,0.063049,-0.042236,-0.577271,-0.812988,down
566410,1.605469,1.761719,3.566406,4.785156,-1.017578,7.486328,0.105774,-0.078125,-0.603638,-0.786377,down
566415,2.292969,0.34375,3.03125,5.214844,-0.685547,7.376953,0.105774,-0.078125,-0.603638,-0.786377,down
566421,3.136719,-0.878906,2.765625,5.214844,-0.685547,7.376953,0.134888,-0.100342,-0.621155,-0.765442,down
566426,3.367188,-1.109375,2.648438,5.630859,-0.330078,7.287109,0.149414,-0.110535,-0.629761,-0.754272,down
566431,3.59375,-1.265625,2.609375,5.630859,-0.330078,7.287109,0.165771,-0.121155,-0.639343,-0.741028,down
566437,3.675781,-1.339844,2.378906,5.630859,-0.330078,7.287109,0.165771,-0.121155,-0.639343,-0.741028,down
566442,3.789063,-1.457031,2.1875,6.470703,0.316406,7.109375,0.179626,-0.129395,-0.647339,-0.729309,down
566447,3.789063,-1.457031,2.1875,6.755859,0.494141,7.042969,0.210754,-0.145447,-0.665405,-0.701172,down
566452,4.136719,-1.992188,2.1875,6.755859,0.494141,7.042969,0.226318,-0.152283,-0.674377,-0.686157,down
566458,4.398437,-1.722656,2.074219,6.755859,0.494141,7.042969,0.242004,-0.158386,-0.683472,-0.670227,down
566463,4.363281,-1.378906,1.769531,7.849609,1.115234,6.792969,0.242004,-0.158386,-0.683472,-0.670227,down
566468,3.753906,-0.765625,1.15625,7.849609,1.115234,6.792969,0.274719,-0.168213,-0.702148,-0.63501,down
566473,3.449219,-0.574219,1.191406,8.480469,1.53125,6.607422,0.274719,-0.168213,-0.702148,-0.63501,down
566479,3.132813,-0.496094,1.539063,8.728516,1.517578,6.488281,0.274719,-0.168213,-0.702148,-0.63501,down
566485,2.90625,-0.613281,2.226563,8.919922,1.433594,6.326172,0.339355,-0.179382,-0.738281,-0.554626,down
566490,2.5625,-0.039063,2.875,8.919922,1.433594,6.326172,0.35553,-0.181091,-0.74762,-0.530884,down
566495,2.027344,-0.152344,3.109375,8.919922,1.433594,6.326172,0.35553,-0.181091,-0.74762,-0.530884,down
566500,2.027344,-0.152344,3.109375,9.142578,1.158203,5.714844,0.367859,-0.182129,-0.754822,-0.511658,down
566505,1.679688,-0.6875,3.417969,9.066406,0.994141,5.421875,0.367859,-0.182129,-0.754822,-0.511658,down
566511,1.414063,-0.421875,3.796875,9.066406,0.994141,5.421875,0.393372,-0.183105,-0.770203,-0.467407,down
566517,0.914062,0.34375,3.757813,8.673828,0.591797,4.773437,0.414246,-0.182922,-0.784119,-0.424377,down
566523,0.339844,0.460937,3.679688,7.916016,-0.111328,4.013672,0.414246,-0.182922,-0.784119,-0.424377,down
566528,0.148437,0.613281,3.414063,7.345703,-0.464844,3.623047,0.414246,-0.182922,-0.784119,-0.424377,down
566533,-0.15625,0.691406,3.03125,6.613281,-0.808594,3.267578,0.414246,-0.182922,-0.784119,-0.424377,down
566539,-0.769531,0.652344,2.496094,5.757812,-1.175781,2.904297,0.414246,-0.182922,-0.784119,-0.424377,down
566544,-0.960937,0.5,2.34375,5.757812,-1.175781,2.904297,0.440063,-0.183533,-0.812317,-0.335815,down
566549,-1.230469,0.308594,2.230469,5.757812,-1.175781,2.904297,0.44043,-0.184814,-0.816772,-0.323669,down
566555,-1.574219,0.191406,2.269531,2.253906,-2.634766,1.208984,0.44043,-0.184814,-0.816772,-0.323669,down
566560,-1.574219,0.191406,2.269531,2.253906,-2.634766,1.208984,0.436523,-0.188538,-0.825073,-0.305298,down
566565,-2.375,0.230469,1.960938,2.253906,-2.634766,1.208984,0.436523,-0.188538,-0.825073,-0.305298,down
566570,-2.796875,0.269531,1.578125,1.207031,-3.109375,0.113281,0.436523,-0.188538,-0.825073,-0.305298,down
566575,-3.640625,0.230469,1.191406,0.720703,-3.392578,-0.460937,0.412964,-0.193481,-0.841858,-0.288635,down
566581,-4.671875,0.957031,1.230469,0.720703,-3.392578,-0.460937,0.402771,-0.193237,-0.847046,-0.288025,down
566586,-5.171875,1.800781,1.15625,-0.482422,-4.244141,-2.388672,0.392639,-0.1922,-0.851807,-0.288818,down
566592,-6.175781,3.488281,0.847656,-0.482422,-4.244141,-2.388672,0.380493,-0.190063,-0.857056,-0.29071,down
566597,-6.667969,3.832031,0.847656,-0.482422,-4.244141,-2.388672,0.36908,-0.187561,-0.861755,-0.293335,down
566602,-7.511719,4.445312,0.964844,-0.482422,-4.244141,-2.388672,0.352966,-0.183472,-0.867798,-0.297729,down
566608,-7.628906,4.902344,1.0,-2.105469,-6.443359,-5.519531,0.352966,-0.183472,-0.867798,-0.297729,down
566613,-8.011719,4.710937,0.964844,-2.8125,-7.085937,-6.355469,0.352966,-0.183472,-0.867798,-0.297729,down
566618,-8.472656,4.558594,0.695312,-2.8125,-7.085937,-6.355469,0.352966,-0.183472,-0.867798,-0.297729,down
566623,-9.078125,4.675781,0.195312,-3.611328,-7.6875,-7.242187,0.352966,-0.183472,-0.867798,-0.297729,down
566629,-9.078125,4.675781,0.195312,-4.404297,-8.263672,-8.201172,0.238037,-0.149109,-0.896118,-0.343628,down
566634,-10.964844,5.476562,-1.984375,-6.28125,-9.646484,-10.337891,0.238037,-0.149109,-0.896118,-0.343628,down
566640,-11.457031,6.167969,-2.597656,-8.425781,-10.732422,-12.660156,0.238037,-0.149109,-0.896118,-0.343628,down
566645,-11.914063,6.472656,-3.367188,-8.425781,-10.732422,-12.660156,0.132935,-0.111755,-0.901672,-0.395996,down
566650,-12.679688,8.082031,-5.777344,-9.416016,-10.945313,-13.9375,0.132935,-0.111755,-0.901672,-0.395996,down
566655,-12.679688,8.082031,-5.777344,-9.416016,-10.945313,-13.9375,0.00531,-0.05365,-0.884644,-0.463135,down
566660,-12.992188,15.054688,-9.648438,-9.416016,-10.945313,-13.9375,0.00531,-0.05365,-0.884644,-0.463135,down
566665,-13.949219,17.195312,-10.222656,-11.734375,-11.447266,-16.912109,0.085937,0.005859,0.856628,0.508667,down
566670,-15.632813,18.425781,-10.644531,-11.734375,-11.447266,-16.912109,0.085937,0.005859,0.856628,0.508667,down
566675,-17.050781,18.847656,-11.410156,-14.876953,-11.167969,-19.521484,0.13916,-0.023865,0.833557,0.534058,down
566680,-19.386719,18.042969,-12.0625,-14.876953,-11.167969,-19.521484,0.227966,-0.081421,0.781006,0.575684,down
566685,-24.449219,18.15625,-13.476563,-14.876953,-11.167969,-19.521484,0.227966,-0.081421,0.781006,0.575684,down
566690,-25.820312,18.734375,-13.285156,-14.876953,-11.167969,-19.521484,0.32251,-0.153625,0.70575,0.611816,down
566695,-26.402344,20.378906,-12.328125,-14.876953,-11.167969,-19.521484,0.32251,-0.153625,0.70575,0.611816,down
566700,-26.320312,22.601562,-10.335938,-13.802734,-9.742188,-20.998047,0.404297,-0.216309,0.628357,0.628479,down
566705,-22.183594,26.164062,-6.542969,-13.802734,-9.742188,-20.998047,0.404297,-0.216309,0.628357,0.628479,down
566710,-19.65625,25.746094,-4.515625,-11.152344,-8.162109,-17.5,0.441772,-0.244324,0.588318,0.631714,down
566715,-16.667969,24.359375,-2.179688,-11.152344,-8.162109,-17.5,0.477478,-0.271545,0.546021,0.632568,down
566721,-14.445313,18.082031,1.382813,-11.152344,-8.162109,-17.5,0.529114,-0.315063,0.472168,0.630737,down
566727,-17.703125,6.78125,6.171875,-11.152344,-8.162109,-17.5,0.545044,-0.33136,0.443787,0.629395,down
566732,-19.347656,2.03125,9.046875,-7.111328,-3.710938,-8.203125,0.545044,-0.33136,0.443787,0.629395,down
566737,-21.269531,-1.339844,11.652344,-5.453125,-2.871094,-5.822266,0.545044,-0.33136,0.443787,0.629395,down
566742,-22.296875,-3.832031,13.375,-5.453125,-2.871094,-5.822266,0.572693,-0.364502,0.381653,0.627258,down
566748,-22.300781,-5.554687,13.261719,-5.453125,-2.871094,-5.822266,0.572693,-0.364502,0.381653,0.627258,down
566753,-21.796875,-3.101563,11.421875,0.496094,0.484375,-1.269531,0.572693,-0.364502,0.381653,0.627258,down
566758,-21.191406,4.328125,8.242188,2.287109,1.373047,-0.435547,0.572693,-0.364502,0.381653,0.627258,down
566764,-20.996094,7.777344,7.4375,3.699219,2.074219,0.115234,0.572693,-0.364502,0.381653,0.627258,down
566769,-21.308594,10.574219,6.824219,5.078125,2.763672,0.587891,0.572693,-0.364502,0.381653,0.627258,down
566775,-21.835937,12.71875,6.25,7.306641,3.982422,1.214844,0.572693,-0.364502,0.381653,0.627258,down
566781,-21.070312,15.324219,6.136719,8.054688,4.289062,1.263672,0.585022,-0.357788,0.420227,0.594299,down
566786,-20.992187,15.628906,5.980469,8.054688,4.289062,1.263672,0.586609,-0.34259,0.461182,0.570801,down
566791,-21.148437,15.746094,3.375,8.054688,4.289062,1.263672,0.588989,-0.333252,0.480713,0.557678,down
566796,-20.84375,15.015625,2.265625,8.054688,4.289062,1.263672,0.592712,-0.323486,0.496582,0.54541,down
566802,-18.316406,12.566406,3.339844,8.054688,4.289062,1.263672,0.599121,-0.310181,0.512512,0.531189,down
566807,-16.707031,11.683594,5.214844,7.201172,-0.896484,-0.144531,0.599121,-0.310181,0.512512,0.531189,down
566812,-14.949219,11.453125,7.015625,5.105469,-1.507813,-0.025391,0.599121,-0.310181,0.512512,0.531189,down
566817,-12.109375,9.386719,8.28125,5.105469,-1.507813,-0.025391,0.615845,-0.28064,0.530701,0.510254,down
566823,-11.453125,7.929687,6.9375,0.234375,-0.482422,0.300781,0.615845,-0.28064,0.530701,0.510254,down
566828,-11.34375,6.472656,4.910156,-1.664063,0.052734,0.517578,0.617004,-0.277222,0.530334,0.511047,down
566833,-10.230469,4.828125,4.105469,-1.664063,0.052734,0.517578,0.61499,-0.279541,0.528259,0.514404,down
566839,-9.433594,4.214844,4.488281,-3.990234,-0.335938,0.976562,0.61499,-0.279541,0.528259,0.514404,down
566845,-8.816406,3.179688,5.101562,-5.833984,-0.394531,1.201172,0.61499,-0.279541,0.528259,0.514404,down
566851,-8.050781,2.144531,4.5625,-5.833984,-0.394531,1.201172,0.596802,-0.302002,0.503174,0.547241,down
566857,-7.664062,1.074219,4.179687,-5.833984,-0.394531,1.201172,0.591064,-0.309082,0.495178,0.556702,down
566864,-7.246094,0.613281,3.761719,-5.033203,-0.353516,0.884766,0.591064,-0.309082,0.495178,0.556702,down
566870,-6.59375,0.34375,2.726563,-3.373047,-0.322266,0.712891,0.591064,-0.309082,0.495178,0.556702,down
566875,-6.402344,0.574219,2.609375,-1.527344,-0.273438,0.628906,0.591064,-0.309082,0.495178,0.556702,down
566880,-6.363281,0.726562,2.6875,0.199219,-0.166016,0.603516,0.577942,-0.320496,0.479187,0.577576,down
566885,-6.324219,0.804687,3.222656,0.199219,-0.166016,0.603516,0.577942,-0.320496,0.479187,0.577576,down
566891,-6.320312,0.804687,3.453125,0.199219,-0.166016,0.603516,0.579956,-0.31189,0.488525,0.572449,down
566896,-6.558594,1.035156,3.222656,4.392578,0.773437,0.560547,0.579956,-0.31189,0.488525,0.572449,down
566901,-7.089844,1.761719,2.496094,4.392578,0.773437,0.560547,0.581421,-0.306396,0.495544,0.567871,down
566907,-7.511719,2.566406,1.84375,4.392578,0.773437,0.560547,0.5849,-0.293701,0.512024,0.556274,down
566912,-7.511719,2.566406,1.84375,4.652344,0.599609,0.546875,0.587036,-0.286072,0.521118,0.549561,down
566917,-7.707031,3.371094,2.304688,4.652344,0.599609,0.546875,0.58844,-0.280457,0.527466,0.544922,down
566922,-7.929687,3.679688,2.535156,4.652344,0.599609,0.546875,0.589478,-0.274841,0.533508,0.540649,down
566927,-8.390625,4.289062,2.609375,4.652344,0.599609,0.546875,0.589478,-0.274841,0.533508,0.540649,down
566932,-8.628906,4.253906,2.496094,1.654297,0.574219,0.822266,0.589478,-0.274841,0.533508,0.540649,down
566938,-8.550781,4.097656,2.304688,1.023438,0.605469,0.853516,0.589478,-0.274841,0.533508,0.540649,down
566943,-8.738281,4.175781,2.113281,1.023438,0.605469,0.853516,0.587097,-0.262939,0.548523,0.534119,down
566949,-8.855469,4.214844,2.1875,0.417969,0.441406,0.90625,0.587097,-0.262939,0.548523,0.534119,down
566954,-8.894531,4.289062,2.226563,0.052734,0.353516,0.931641,0.587097,-0.262939,0.548523,0.534119,down
566959,-9.042969,3.90625,2.1875,-0.330078,0.296875,0.931641,0.587097,-0.262939,0.548523,0.534119,down
566965,-9.15625,3.5625,2.1875,-0.730469,0.185547,0.839844,0.587097,-0.262939,0.548523,0.534119,down
566970,-9.316406,3.332031,2.152344,-0.730469,0.185547,0.839844,0.578308,-0.259766,0.553345,0.540222,down
566976,-9.394531,3.140625,1.769531,-0.527344,0.125,0.724609,0.578308,-0.259766,0.553345,0.540222,down
566981,-9.394531,3.140625,1.769531,-0.019531,-0.164062,0.490234,0.574585,-0.258972,0.553345,0.544617,down
566986,-9.199219,3.101563,2.1875,0.078125,-0.238281,0.40625,0.574585,-0.258972,0.553345,0.544617,down
566991,-8.96875,3.140625,2.457031,0.078125,-0.238281,0.40625,0.574219,-0.257996,0.553467,0.545349,down
566996,-8.929688,3.066406,2.304688,0.078125,-0.238281,0.40625,0.573975,-0.256348,0.553589,0.546265,down
567001,-8.929688,2.910156,2.152344,0.078125,-0.238281,0.40625,0.573975,-0.256348,0.553589,0.546265,down
567006,-8.929688,2.71875,2.113281,-0.128906,-0.115234,0.275391,0.573364,-0.255554,0.553406,0.547485,down
567011,-8.816406,2.566406,2.265625,-0.333984,-0.085937,0.25,0.573364,-0.255554,0.553406,0.547485,down
567017,-8.816406,2.566406,2.265625,-0.333984,-0.085937,0.25,0.572449,-0.255615,0.552612,0.549133,down
567022,-8.65625,2.335938,2.378906,-0.525391,0.027344,0.236328,0.571716,-0.256042,0.552063,0.550232,down
567027,-8.585938,2.261719,2.34375,-0.583984,0.099609,0.244141,0.570923,-0.256653,0.551575,0.551331,down
567033,-8.589844,2.261719,2.304688,-0.583984,0.099609,0.244141,0.570068,-0.257263,0.551147,0.552307,down
567038,-8.589844,2.261719,2.304688,-0.580078,0.224609,0.292969,0.56897,-0.258057,0.550781,0.553467,down
567043,-8.816406,2.261719,2.304688,-0.580078,0.224609,0.292969,0.56897,-0.258057,0.550781,0.553467,down
567049,-8.890625,2.261719,2.304688,-0.320313,0.324219,0.353516,0.56897,-0.258057,0.550781,0.553467,down
567054,-8.855469,2.300781,2.34375,-0.150391,0.324219,0.384766,0.56897,-0.258057,0.550781,0.553467,down
567059,-8.855469,2.335938,2.34375,0.072266,0.333984,0.400391,0.56897,-0.258057,0.550781,0.553467,down
567065,-8.738281,2.414063,2.304688,0.072266,0.333984,0.400391,0.563599,-0.259155,0.552979,0.556274,down
567070,-8.8125,2.492188,2.265625,0.072266,0.333984,0.400391,0.562805,-0.258484,0.55426,0.556091,down
567075,-8.816406,2.527344,2.226563,0.072266,0.333984,0.400391,0.561951,-0.257507,0.55603,0.555664,down
567081,-8.933594,2.566406,2.152344,0.785156,0.384766,0.472656,0.560608,-0.255188,0.559753,0.554321,down
567086,-8.855469,2.757813,1.960938,0.785156,0.384766,0.472656,0.559937,-0.253845,0.561829,0.553467,down
567091,-8.851563,2.796875,1.960938,0.876953,0.382813,0.466797,0.559937,-0.253845,0.561829,0.553467,down
567096,-8.816406,2.835938,1.996094,0.876953,0.382813,0.466797,0.559265,-0.25238,0.564148,0.552551,down
567101,-8.695313,2.949219,1.960938,0.847656,0.365234,0.445312,0.559265,-0.25238,0.564148,0.552551,down
