timestamp,ax,ay,az,gx,gy,gz,qw,qx,qy,qz,label
143735,1.839844,8.316406,-3.871094,0.052734,-0.140625,-0.201172,0.000183,0.198486,0.821289,0.534912,down
143740,1.839844,8.355469,-3.945313,0.052734,-0.140625,-0.201172,0.000732,0.198242,0.821411,0.534729,down
143746,1.839844,8.3125,-3.984375,0.050781,-0.154297,-0.201172,0.000732,0.198242,0.821411,0.534729,down
143752,1.800781,8.351563,-4.0625,0.050781,-0.154297,-0.201172,0.002502,0.197632,0.821899,0.534241,down
143757,1.800781,8.394531,-4.0625,0.068359,-0.173828,-0.197266,0.003113,0.197388,0.822083,0.534058,down
143762,1.800781,8.433594,-4.101562,0.083984,-0.183594,-0.207031,0.003113,0.197388,0.822083,0.534058,down
143767,1.800781,8.550781,-4.101562,0.083984,-0.183594,-0.207031,0.003113,0.197388,0.822083,0.534058,down
143772,1.765625,8.546875,-4.175781,0.087891,-0.175781,-0.220703,0.003113,0.197388,0.822083,0.534058,down
143777,1.765625,8.585938,-4.253906,0.080078,-0.167969,-0.232422,0.003113,0.197388,0.822083,0.534058,down
143782,1.800781,8.550781,-4.253906,0.064453,-0.167969,-0.244141,0.003113,0.197388,0.822083,0.534058,down
143788,1.765625,8.550781,-4.253906,0.064453,-0.167969,-0.244141,0.007141,0.195801,0.823303,0.532715,down
143793,1.765625,8.550781,-4.214844,0.023437,-0.15625,-0.287109,0.007141,0.195801,0.823303,0.532715,down
143799,1.800781,8.511719,-4.175781,-0.011719,-0.15625,-0.3125,0.007141,0.195801,0.823303,0.532715,down
143805,1.765625,8.550781,-4.214844,-0.054687,-0.164062,-0.318359,0.010437,0.19397,0.823792,0.532593,down
143810,1.800781,8.546875,-4.175781,-0.054687,-0.164062,-0.318359,0.010437,0.19397,0.823792,0.532593,down
143815,1.765625,8.550781,-4.214844,-0.130859,-0.179687,-0.386719,0.010437,0.19397,0.823792,0.532593,down
143820,1.765625,8.546875,-4.175781,-0.130859,-0.179687,-0.386719,0.012329,0.19281,0.823792,0.532959,down
143825,1.800781,8.589844,-4.175781,-0.130859,-0.179687,-0.386719,0.013428,0.192139,0.823792,0.533142,down
143831,1.765625,8.589844,-4.140625,-0.193359,-0.199219,-0.443359,0.013428,0.192139,0.823792,0.533142,down
143836,1.765625,8.589844,-4.140625,-0.193359,-0.199219,-0.443359,0.016846,0.190063,0.823608,0.534058,down
143841,1.765625,8.589844,-4.175781,-0.193359,-0.199219,-0.443359,0.018005,0.189392,0.823608,0.534363,down
143846,1.726563,8.585938,-4.140625,-0.193359,-0.199219,-0.443359,0.019348,0.188538,0.823486,0.534729,down
143851,1.726563,8.546875,-4.101562,-0.193359,-0.199219,-0.443359,0.020691,0.187683,0.823425,0.535095,down
143856,1.765625,8.585938,-4.0625,-0.25,-0.220703,-0.558594,0.021912,0.18689,0.823364,0.535461,down
143862,1.6875,8.550781,-4.023437,-0.25,-0.220703,-0.558594,0.023315,0.185974,0.823242,0.535889,down
143867,1.6875,8.550781,-3.984375,-0.316406,-0.224609,-0.619141,0.02478,0.184998,0.823059,0.536377,down
143873,1.6875,8.585938,-4.023437,-0.337891,-0.230469,-0.654297,0.02478,0.184998,0.823059,0.536377,down
143878,1.648438,8.695313,-4.101562,-0.337891,-0.230469,-0.654297,0.027954,0.182739,0.822754,0.537537,down
143885,1.648438,8.738281,-4.101562,-0.410156,-0.238281,-0.730469,0.027954,0.182739,0.822754,0.537537,down
143890,1.648438,8.734375,-4.140625,-0.503906,-0.259766,-0.810547,0.027954,0.182739,0.822754,0.537537,down
143896,1.648438,8.734375,-4.175781,-0.529297,-0.255859,-0.859375,0.033203,0.178894,0.821899,0.539795,down
143901,1.648438,8.734375,-4.175781,-0.529297,-0.255859,-0.859375,0.035217,0.177429,0.821533,0.54071,down
143906,1.6875,8.667969,-4.214844,-0.566406,-0.263672,-0.890625,0.03949,0.174194,0.820679,0.542725,down
143911,1.6875,8.667969,-4.214844,-0.580078,-0.259766,-0.955078,0.041565,0.172546,0.820251,0.543762,down
143916,1.6875,8.667969,-4.253906,-0.505859,-0.259766,-0.980469,0.041565,0.172546,0.820251,0.543762,down
143921,1.726563,8.734375,-4.332031,-0.505859,-0.259766,-0.980469,0.043762,0.170776,0.819885,0.544678,down
143926,1.726563,8.855469,-4.332031,-0.423828,-0.263672,-1.003906,0.047974,0.167297,0.819519,0.546021,down
143932,1.6875,9.199219,-4.253906,-0.423828,-0.263672,-1.003906,0.049927,0.165771,0.819397,0.546448,down
143937,1.648438,9.316406,-4.40625,-0.207031,-0.291016,-0.949219,0.052063,0.164062,0.819397,0.546753,down
143943,1.648438,9.429688,-4.484375,-0.128906,-0.263672,-0.917969,0.053955,0.162537,0.819519,0.546875,down
143949,1.609375,9.738281,-4.714844,-0.060547,-0.244141,-0.867187,0.053955,0.162537,0.819519,0.546875,down
143954,1.6875,9.8125,-4.867187,-0.017578,-0.189453,-0.814453,0.053955,0.162537,0.819519,0.546875,down
143959,1.6875,9.921875,-4.90625,-0.007813,-0.144531,-0.765625,0.053955,0.162537,0.819519,0.546875,down
143964,1.6875,9.964844,-4.867187,-0.017578,-0.125,-0.71875,0.053955,0.162537,0.819519,0.546875,down
143969,1.648438,10.039063,-4.867187,-0.017578,-0.125,-0.71875,0.053955,0.162537,0.819519,0.546875,down
143975,1.609375,10.039063,-4.90625,-0.017578,-0.125,-0.71875,0.062622,0.153992,0.820862,0.546387,down
143981,1.574219,10.0,-4.828125,-0.136719,0.056641,-0.667969,0.064392,0.151001,0.820984,0.546814,down
143986,1.417969,10.003906,-4.75,-0.136719,0.056641,-0.667969,0.065186,0.149414,0.820862,0.547363,down
143991,1.304688,10.003906,-4.714844,-0.400391,0.195312,-0.677734,0.065186,0.149414,0.820862,0.547363,down
143996,1.191406,10.0,-4.675781,-0.400391,0.195312,-0.677734,0.066589,0.145935,0.820374,0.548889,down
144001,0.921875,10.039063,-4.523437,-0.472656,0.289063,-0.720703,0.066589,0.145935,0.820374,0.548889,down
144006,0.921875,10.039063,-4.523437,-0.472656,0.289063,-0.720703,0.06781,0.141968,0.819702,0.550781,down
144011,0.730469,10.042969,-4.332031,-0.472656,0.289063,-0.720703,0.06781,0.141968,0.819702,0.550781,down
144016,0.652344,10.117188,-4.253906,-0.462891,0.355469,-0.814453,0.06781,0.141968,0.819702,0.550781,down
144021,0.5,10.195313,-4.140625,-0.462891,0.355469,-0.814453,0.06897,0.137573,0.819031,0.552734,down
144026,0.421875,10.199219,-4.023437,-0.462891,0.355469,-0.814453,0.070251,0.132812,0.818481,0.554565,down
144031,0.386719,10.160156,-3.945313,-0.416016,0.332031,-0.871094,0.070251,0.132812,0.818481,0.554565,down
144036,0.347656,10.195313,-3.792969,-0.416016,0.332031,-0.871094,0.070923,0.130493,0.818237,0.55542,down
144041,0.269531,10.121094,-3.640625,-0.423828,0.310547,-0.884766,0.072388,0.125977,0.817688,0.557007,down
144046,0.230469,10.082031,-3.5625,-0.423828,0.310547,-0.884766,0.072388,0.125977,0.817688,0.557007,down
144051,0.195312,10.042969,-3.488281,-0.496094,0.210937,-0.894531,0.072388,0.125977,0.817688,0.557007,down
144056,0.15625,10.0,-3.410156,-0.496094,0.210937,-0.894531,0.075256,0.119141,0.81665,0.559692,down
144061,0.078125,9.960938,-3.335938,-0.496094,0.210937,-0.894531,0.076355,0.117004,0.816101,0.56073,down
144066,0.078125,9.816406,-3.21875,-0.496094,0.210937,-0.894531,0.076355,0.117004,0.816101,0.56073,down
144071,0.039063,9.777344,-3.105469,-0.699219,0.099609,-0.945312,0.079102,0.112427,0.814697,0.563354,down
144076,-0.035156,9.65625,-3.027344,-0.833984,0.029297,-1.003906,0.079102,0.112427,0.814697,0.563354,down
144081,-0.035156,9.65625,-3.027344,-0.833984,0.029297,-1.003906,0.082336,0.107971,0.812927,0.566345,down
144086,-0.074219,9.503906,-2.953125,-0.833984,0.029297,-1.003906,0.082336,0.107971,0.812927,0.566345,down
144091,-0.074219,9.433594,-2.835938,-0.912109,-0.060547,-1.064453,0.086121,0.103333,0.810852,0.56958,down
144096,-0.113281,9.390625,-2.835938,-0.912109,-0.060547,-1.064453,0.086121,0.103333,0.810852,0.56958,down
144101,-0.113281,9.316406,-2.757813,-0.984375,-0.142578,-1.173828,0.088379,0.100891,0.809631,0.57135,down
144106,-0.1875,9.234375,-2.757813,-0.984375,-0.142578,-1.173828,0.090576,0.098511,0.808533,0.573059,down
144111,-0.226562,9.273438,-2.757813,-0.984375,-0.142578,-1.173828,0.095276,0.093628,0.806152,0.576416,down
144116,-0.304688,9.238281,-2.757813,-0.984375,-0.142578,-1.173828,0.097656,0.091187,0.805054,0.578003,down
144121,-0.417969,9.273438,-2.757813,-0.984375,-0.142578,-1.173828,0.097656,0.091187,0.805054,0.578003,down
144126,-0.496094,9.234375,-2.757813,-0.951172,-0.242187,-1.335938,0.103027,0.085937,0.802673,0.581116,down
144131,-0.609375,9.277344,-2.644531,-0.951172,-0.242187,-1.335938,0.105835,0.083313,0.801575,0.58252,down
144136,-0.6875,9.273438,-2.683594,-0.951172,-0.242187,-1.335938,0.108826,0.080566,0.800476,0.583862,down
144141,-0.765625,9.3125,-2.683594,-0.951172,-0.242187,-1.335938,0.108826,0.080566,0.800476,0.583862,down
144146,-0.992187,9.5,-2.605469,-0.861328,-0.34375,-1.474609,0.108826,0.080566,0.800476,0.583862,down
144152,-1.109375,9.539063,-2.605469,-0.861328,-0.34375,-1.474609,0.118286,0.072205,0.797119,0.587708,down
144157,-1.300781,9.617188,-2.605469,-0.861328,-0.34375,-1.474609,0.121399,0.069519,0.796021,0.588928,down
144162,-1.414063,9.699219,-2.605469,-0.921875,-0.419922,-1.576172,0.121399,0.069519,0.796021,0.588928,down
144167,-1.453125,9.738281,-2.53125,-0.921875,-0.419922,-1.576172,0.128113,0.063843,0.793518,0.591492,down
144172,-1.53125,9.738281,-2.492188,-1.074219,-0.455078,-1.580078,0.131897,0.06073,0.79187,0.59314,down
144178,-1.644531,9.660156,-2.492188,-1.074219,-0.455078,-1.580078,0.134888,0.058228,0.790527,0.594543,down
144183,-1.761719,9.65625,-2.492188,-1.263672,-0.447266,-1.578125,0.134888,0.058228,0.790527,0.594543,down
144188,-1.835938,9.46875,-2.375,-1.263672,-0.447266,-1.578125,0.134888,0.058228,0.790527,0.594543,down
144194,-1.914063,9.429688,-2.339844,-1.503906,-0.431641,-1.568359,0.134888,0.058228,0.790527,0.594543,down
144200,-2.105469,9.355469,-2.148438,-1.630859,-0.429687,-1.564453,0.134888,0.058228,0.790527,0.594543,down
144206,-2.066406,9.195313,-2.070313,-1.837891,-0.439453,-1.519531,0.134888,0.058228,0.790527,0.594543,down
144211,-2.105469,9.085938,-1.957031,-1.837891,-0.439453,-1.519531,0.155518,0.040283,0.777039,0.608582,down
144216,-2.179688,9.007813,-1.878906,-1.992188,-0.427734,-1.435547,0.155518,0.040283,0.777039,0.608582,down
144221,-2.257813,8.734375,-1.726563,-1.992188,-0.427734,-1.435547,0.16217,0.034363,0.771118,0.614746,down
144227,-2.335938,8.46875,-1.609375,-2.03125,-0.435547,-1.376953,0.165466,0.031372,0.767822,0.618103,down
144232,-2.296875,8.28125,-1.457031,-2.068359,-0.439453,-1.3125,0.171509,0.026001,0.761292,0.624756,down
144237,-2.296875,8.085938,-1.226563,-2.068359,-0.439453,-1.3125,0.1745,0.023376,0.757874,0.628174,down
144242,-2.296875,7.785156,-1.035156,-2.068359,-0.439453,-1.3125,0.177551,0.020752,0.754211,0.631836,down
144247,-2.335938,7.589844,-0.921875,-1.951172,-0.410156,-1.080078,0.180298,0.018372,0.750854,0.635071,down
144252,-2.371094,7.507812,-0.960937,-1.951172,-0.410156,-1.080078,0.182922,0.016052,0.74762,0.638245,down
144257,-2.371094,7.359375,-0.84375,-1.792969,-0.386719,-0.980469,0.185059,0.014221,0.744873,0.640869,down
144263,-2.410156,7.125,-0.539062,-1.792969,-0.386719,-0.980469,0.187378,0.012268,0.741943,0.643616,down
144268,-2.410156,7.097656,-0.5,-1.580078,-0.341797,-0.878906,0.187378,0.012268,0.741943,0.643616,down
144273,-2.449219,7.019531,-0.460937,-1.480469,-0.328125,-0.833984,0.187378,0.012268,0.741943,0.643616,down
144279,-2.410156,7.019531,-0.421875,-1.480469,-0.328125,-0.833984,0.193542,0.006897,0.73407,0.650879,down
144285,-2.449219,6.980469,-0.347656,-1.480469,-0.328125,-0.833984,0.195374,0.005371,0.73175,0.652954,down
144291,-2.488281,7.015625,-0.308594,-1.173828,-0.271484,-0.660156,0.195374,0.005371,0.73175,0.652954,down
144296,-2.527344,7.058594,-0.230469,-0.966797,-0.236328,-0.53125,0.198608,0.002625,0.7276,0.656616,down
144301,-2.527344,7.125,-0.269531,-0.966797,-0.236328,-0.53125,0.200012,0.001465,0.725769,0.658203,down
144307,-2.5625,7.164062,-0.269531,-0.841797,-0.220703,-0.462891,0.202454,-0.000427,0.722656,0.660889,down
144312,-2.640625,7.363281,-0.269531,-0.841797,-0.220703,-0.462891,0.20343,-0.001099,0.721436,0.661926,down
144317,-2.679688,7.546875,-0.308594,-0.841797,-0.220703,-0.462891,0.204224,-0.001587,0.720459,0.662781,down
144322,-2.71875,7.664062,-0.382813,-0.367188,-0.160156,-0.207031,0.204224,-0.001587,0.720459,0.662781,down
144327,-2.792969,7.933594,-0.460937,-0.367188,-0.160156,-0.207031,0.205017,-0.002014,0.719543,0.663452,down
144333,-2.792969,8.207031,-0.613281,-0.367188,-0.160156,-0.207031,0.206055,-0.002319,0.718567,0.664185,down
144338,-2.792969,8.207031,-0.613281,-0.033203,-0.152344,-0.041016,0.206482,-0.002258,0.718323,0.664307,down
144343,-2.792969,8.46875,-0.804687,-0.033203,-0.152344,-0.041016,0.206787,-0.002014,0.718262,0.664307,down
144348,-2.792969,8.589844,-0.882812,-0.033203,-0.152344,-0.041016,0.207031,-0.001709,0.718262,0.664246,down
144353,-2.679688,8.8125,-1.035156,-0.033203,-0.152344,-0.041016,0.207031,-0.001709,0.718262,0.664246,down
144358,-2.679688,8.8125,-1.035156,0.158203,-0.152344,0.128906,0.207336,-0.000732,0.718567,0.663879,down
144364,-2.601563,8.972656,-1.1875,0.158203,-0.152344,0.128906,0.207397,-0.000183,0.718689,0.663635,down
144369,-2.5625,9.089844,-1.152344,0.158203,-0.152344,0.128906,0.207397,0.000427,0.718872,0.663452,down
144374,-2.5625,9.089844,-1.226563,0.097656,-0.115234,0.1875,0.207397,0.000427,0.718872,0.663452,down
144379,-2.601563,9.199219,-1.152344,0.056641,-0.082031,0.201172,0.207397,0.000427,0.718872,0.663452,down
144384,-2.640625,9.011719,-1.074219,0.015625,-0.060547,0.226562,0.207397,0.000427,0.718872,0.663452,down
144389,-2.640625,8.96875,-1.035156,-0.013672,-0.046875,0.263672,0.207397,0.000427,0.718872,0.663452,down
144394,-2.640625,8.894531,-0.996094,-0.041016,-0.017578,0.294922,0.207397,0.000427,0.718872,0.663452,down
144400,-2.640625,8.8125,-0.882812,-0.033203,0.003906,0.341797,0.207397,0.000427,0.718872,0.663452,down
144406,-2.640625,8.667969,-0.804687,-0.033203,0.003906,0.341797,0.207397,0.000427,0.718872,0.663452,down
144412,-2.640625,8.585938,-0.769531,0.113281,0.085937,0.46875,0.207397,0.000427,0.718872,0.663452,down
144417,-2.601563,8.507813,-0.691406,0.113281,0.085937,0.46875,0.202759,0.006348,0.719299,0.664429,down
144423,-2.640625,8.507813,-0.652344,0.113281,0.085937,0.46875,0.201599,0.007202,0.719788,0.664185,down
144428,-2.679688,8.585938,-0.652344,0.404297,0.201172,0.550781,0.201599,0.007202,0.719788,0.664185,down
144433,-2.71875,8.589844,-0.652344,0.517578,0.248047,0.550781,0.201599,0.007202,0.719788,0.664185,down
144438,-2.679688,8.628906,-0.691406,0.517578,0.248047,0.550781,0.197693,0.009705,0.722412,0.662537,down
144444,-2.679688,8.738281,-0.613281,0.517578,0.248047,0.550781,0.196289,0.010376,0.723633,0.661621,down
144449,-2.71875,8.816406,-0.613281,0.761719,0.361328,0.466797,0.196289,0.010376,0.723633,0.661621,down
144455,-2.757813,8.890625,-0.613281,0.761719,0.361328,0.466797,0.193237,0.011658,0.726624,0.65918,down
144460,-2.871094,9.089844,-0.652344,0.761719,0.361328,0.466797,0.192017,0.011963,0.727783,0.658264,down
144466,-2.949219,9.160156,-0.652344,0.673828,0.464844,0.289063,0.192017,0.011963,0.727783,0.658264,down
144472,-3.023438,9.238281,-0.652344,0.605469,0.480469,0.212891,0.188171,0.011902,0.731567,0.655151,down
144477,-3.175781,9.351563,-0.539062,0.605469,0.480469,0.212891,0.187256,0.011475,0.732422,0.65448,down
144482,-3.214844,9.429688,-0.539062,0.605469,0.480469,0.212891,0.187256,0.011475,0.732422,0.65448,down
144487,-3.332031,9.5,-0.5,0.164062,0.431641,-0.0625,0.185913,0.009949,0.733398,0.653809,down
144492,-3.445313,9.734375,-0.539062,0.164062,0.431641,-0.0625,0.185547,0.00885,0.733521,0.653809,down
144497,-3.523438,9.886719,-0.578125,-0.1875,0.335938,-0.373047,0.185547,0.00885,0.733521,0.653809,down
144502,-3.636719,10.039063,-0.539062,-0.1875,0.335938,-0.373047,0.185425,0.007629,0.733459,0.653931,down
144507,-3.714844,10.273438,-0.578125,-0.273438,0.294922,-0.474609,0.185913,0.004578,0.732849,0.65448,down
144512,-3.75,10.503906,-0.578125,-0.273438,0.294922,-0.474609,0.186523,0.003052,0.7323,0.654907,down
144517,-3.945313,10.882813,-0.539062,-0.523437,0.113281,-0.726562,0.186523,0.003052,0.7323,0.654907,down
144522,-4.019531,11.074219,-0.539062,-0.523437,0.113281,-0.726562,0.187439,0.001282,0.731567,0.655518,down
144527,-4.097656,11.1875,-0.539062,-0.609375,0.048828,-0.773437,0.187439,0.001282,0.731567,0.655518,down
144532,-4.171875,11.1875,-0.5,-0.609375,0.048828,-0.773437,0.189819,-0.00238,0.729553,0.657043,down
144537,-4.097656,11.113281,-0.5,-0.982422,-0.144531,-0.871094,0.191345,-0.004272,0.728149,0.658142,down
144542,-4.097656,10.960938,-0.460937,-0.982422,-0.144531,-0.871094,0.19458,-0.007751,0.724915,0.660767,down
144547,-3.945313,10.582031,-0.421875,-0.982422,-0.144531,-0.871094,0.19458,-0.007751,0.724915,0.660767,down
144552,-3.867188,10.34375,-0.347656,-0.982422,-0.144531,-0.871094,0.198486,-0.011597,0.720215,0.664673,down
144557,-3.828125,10.082031,-0.269531,-0.982422,-0.144531,-0.871094,0.198486,-0.011597,0.720215,0.664673,down
144562,-3.714844,9.8125,-0.230469,-1.550781,-0.292969,-0.902344,0.202393,-0.01532,0.714844,0.669189,down
144567,-3.558594,9.433594,-0.039063,-1.550781,-0.292969,-0.902344,0.202393,-0.01532,0.714844,0.669189,down
144572,-3.558594,9.273438,0.074219,-1.695313,-0.322266,-0.871094,0.20459,-0.017456,0.711548,0.671936,down
144577,-3.484375,9.160156,0.152344,-1.695313,-0.322266,-0.871094,0.206543,-0.019287,0.708557,0.6745,down
144582,-3.484375,9.160156,0.152344,-1.695313,-0.322266,-0.871094,0.208374,-0.021118,0.705627,0.67688,down
144587,-3.484375,9.046875,0.265625,-1.695313,-0.322266,-0.871094,0.208374,-0.021118,0.705627,0.67688,down
144592,-3.484375,9.046875,0.265625,-1.431641,-0.289063,-0.876953,0.212158,-0.024658,0.700134,0.681335,down
144597,-3.523438,9.007813,0.417969,-1.431641,-0.289063,-0.876953,0.215942,-0.028259,0.695251,0.684998,down
144602,-3.597656,8.972656,0.535156,-1.431641,-0.289063,-0.876953,0.215942,-0.028259,0.695251,0.684998,down
144607,-3.597656,9.011719,0.535156,-0.994141,-0.261719,-0.884766,0.217896,-0.030029,0.693054,0.686523,down
144612,-3.636719,9.011719,0.535156,-0.994141,-0.261719,-0.884766,0.219971,-0.031799,0.690918,0.687927,down
144617,-3.675781,8.933594,0.535156,-0.949219,-0.271484,-0.873047,0.221863,-0.033447,0.689026,0.689148,down
144622,-3.675781,8.933594,0.535156,-0.974609,-0.283203,-0.869141,0.223755,-0.035034,0.687195,0.690308,down
144627,-3.75,8.816406,0.574219,-1.017578,-0.283203,-0.853516,0.225586,-0.036499,0.685364,0.691406,down
144632,-3.789063,8.734375,0.609375,-1.017578,-0.283203,-0.853516,0.2276,-0.038208,0.683228,0.692749,down
144637,-3.789063,8.667969,0.574219,-1.09375,-0.283203,-0.833984,0.229492,-0.039795,0.681152,0.694092,down
144643,-3.828125,8.546875,0.648437,-1.09375,-0.283203,-0.833984,0.233032,-0.042786,0.677063,0.696777,down
144648,-3.828125,8.511719,0.648437,-1.113281,-0.300781,-0.828125,0.235046,-0.044495,0.674622,0.698303,down
144653,-3.789063,8.433594,0.6875,-1.113281,-0.300781,-0.828125,0.236938,-0.046021,0.672363,0.699707,down
144658,-3.828125,8.394531,0.726562,-0.996094,-0.304688,-0.818359,0.236938,-0.046021,0.672363,0.699707,down
144664,-3.789063,8.355469,0.765625,-0.996094,-0.304688,-0.818359,0.240479,-0.048767,0.668579,0.702026,down
144669,-3.789063,8.351563,0.726562,-0.804687,-0.287109,-0.824219,0.240479,-0.048767,0.668579,0.702026,down
144674,-3.828125,8.355469,0.765625,-0.804687,-0.287109,-0.824219,0.244141,-0.051575,0.665161,0.703796,down
144680,-3.867188,8.355469,0.804687,-0.804687,-0.287109,-0.824219,0.246033,-0.052856,0.663696,0.704407,down
144686,-3.90625,8.355469,0.765625,-0.564453,-0.28125,-0.837891,0.246033,-0.052856,0.663696,0.704407,down
144692,-3.90625,8.355469,0.765625,-0.503906,-0.283203,-0.847656,0.246033,-0.052856,0.663696,0.704407,down
144698,-3.90625,8.355469,0.804687,-0.480469,-0.287109,-0.882812,0.251709,-0.056641,0.659973,0.705627,down
144703,-3.90625,8.316406,0.804687,-0.507812,-0.298828,-0.902344,0.253723,-0.057922,0.658752,0.705933,down
144708,-3.980469,8.28125,0.804687,-0.507812,-0.298828,-0.902344,0.257935,-0.060608,0.656189,0.706543,down
144713,-3.945313,8.28125,0.804687,-0.507812,-0.298828,-0.902344,0.259766,-0.06189,0.654968,0.706909,down
144718,-3.945313,8.246094,0.839844,-0.708984,-0.310547,-1.009766,0.262146,-0.063538,0.65332,0.707397,down
144723,-3.980469,8.207031,0.839844,-0.708984,-0.310547,-1.009766,0.26416,-0.065063,0.651733,0.707947,down
144728,-3.980469,8.089844,0.957031,-0.708984,-0.310547,-1.009766,0.266541,-0.066895,0.64978,0.70874,down
144734,-4.058594,8.007813,0.917969,-0.708984,-0.310547,-1.009766,0.268982,-0.069031,0.647522,0.709656,down
144739,-4.097656,7.96875,0.957031,-1.064453,-0.261719,-1.171875,0.271118,-0.070984,0.645508,0.710449,down
144744,-4.136719,7.898437,0.917969,-1.126953,-0.25,-1.222656,0.273376,-0.07312,0.64325,0.711426,down
144749,-4.171875,7.742187,0.996094,-1.126953,-0.25,-1.222656,0.273376,-0.07312,0.64325,0.711426,down
144754,-4.171875,7.742187,0.996094,-1.191406,-0.236328,-1.324219,0.273376,-0.07312,0.64325,0.711426,down
144759,-4.171875,7.742187,0.996094,-1.162109,-0.21875,-1.375,0.280823,-0.080505,0.635742,0.714478,down
144765,-4.171875,7.507812,1.222656,-1.162109,-0.21875,-1.375,0.280823,-0.080505,0.635742,0.714478,down
144770,-4.136719,7.441406,1.261719,-1.140625,-0.212891,-1.46875,0.280823,-0.080505,0.635742,0.714478,down
144776,-4.210937,7.359375,1.300781,-1.146484,-0.199219,-1.519531,0.280823,-0.080505,0.635742,0.714478,down
144781,-4.136719,7.363281,1.300781,-1.136719,-0.175781,-1.548828,0.280823,-0.080505,0.635742,0.714478,down
144786,-4.289062,7.28125,1.300781,-1.136719,-0.175781,-1.548828,0.280823,-0.080505,0.635742,0.714478,down
144792,-4.328125,7.246094,1.339844,-1.091797,-0.140625,-1.640625,0.280823,-0.080505,0.635742,0.714478,down
144797,-4.363281,7.203125,1.414063,-1.089844,-0.144531,-1.712891,0.280823,-0.080505,0.635742,0.714478,down
144802,-4.402344,7.125,1.453125,-1.089844,-0.144531,-1.712891,0.303406,-0.104126,0.615662,0.719727,down
144807,-4.402344,7.125,1.492188,-1.089844,-0.144531,-1.712891,0.306519,-0.107483,0.613037,0.720154,down
144813,-4.441406,7.128906,1.53125,-1.193359,-0.126953,-1.789063,0.312927,-0.114624,0.607361,0.72113,down
144818,-4.519531,7.097656,1.53125,-1.378906,-0.125,-1.873047,0.31604,-0.118225,0.60437,0.72168,down
144824,-4.554687,6.976562,1.644531,-1.378906,-0.125,-1.873047,0.319092,-0.121826,0.601318,0.722351,down
144829,-4.632812,6.9375,1.605469,-1.541016,-0.101563,-1.960938,0.319092,-0.121826,0.601318,0.722351,down
144834,-4.671875,6.859375,1.722656,-1.638672,-0.105469,-2.003906,0.319092,-0.121826,0.601318,0.722351,down
144839,-4.671875,6.859375,1.722656,-1.751953,-0.089844,-2.048828,0.319092,-0.121826,0.601318,0.722351,down
144844,-4.746094,6.710937,1.796875,-1.751953,-0.089844,-2.048828,0.319092,-0.121826,0.601318,0.722351,down
144849,-4.746094,6.671875,1.835938,-1.859375,-0.064453,-2.099609,0.319092,-0.121826,0.601318,0.722351,down
144854,-4.746094,6.671875,1.835938,-1.947266,-0.046875,-2.152344,0.338684,-0.147888,0.577698,0.727783,down
144859,-4.863281,6.324219,1.992188,-1.947266,-0.046875,-2.152344,0.341919,-0.152832,0.57312,0.728882,down
144865,-4.976562,6.136719,2.027344,-1.947266,-0.046875,-2.152344,0.345215,-0.158142,0.568176,0.730042,down
144871,-5.054687,6.058594,2.144531,-2.234375,0.074219,-2.333984,0.345215,-0.158142,0.568176,0.730042,down
144877,-5.132812,5.871094,2.335938,-2.234375,0.074219,-2.333984,0.345215,-0.158142,0.568176,0.730042,down
144883,-5.207031,5.789062,2.449219,-2.34375,0.21875,-2.4375,0.345215,-0.158142,0.568176,0.730042,down
144888,-5.324219,5.675781,2.488281,-2.378906,0.279297,-2.462891,0.358093,-0.180237,0.547974,0.734131,down
144893,-5.589844,5.675781,2.566406,-2.378906,0.279297,-2.462891,0.364197,-0.192322,0.537415,0.735901,down
144898,-5.898437,5.75,2.601563,-2.369141,0.390625,-2.488281,0.364197,-0.192322,0.537415,0.735901,down
144903,-6.007812,5.75,2.601563,-2.369141,0.390625,-2.488281,0.370056,-0.204834,0.526855,0.737244,down
144908,-6.28125,5.484375,2.910156,-2.369141,0.390625,-2.488281,0.373047,-0.211609,0.521179,0.737854,down
144913,-6.355469,5.445312,3.0625,-2.369141,0.390625,-2.488281,0.375366,-0.217468,0.516479,0.738281,down
144918,-6.507812,5.292969,3.140625,-2.296875,0.636719,-2.394531,0.375366,-0.217468,0.516479,0.738281,down
144923,-6.625,5.175781,3.214844,-2.212891,0.705078,-2.339844,0.377869,-0.22406,0.511353,0.738647,down
144929,-6.894531,5.0625,3.40625,-2.212891,0.705078,-2.339844,0.382141,-0.236694,0.501892,0.738953,down
144934,-7.089844,4.984375,3.675781,-2.212891,0.705078,-2.339844,0.384277,-0.243591,0.497131,0.738831,down
144939,-7.089844,4.984375,3.675781,-1.851563,0.888672,-2.142578,0.385864,-0.248962,0.493591,0.738586,down
144944,-7.089844,4.984375,3.675781,-1.708984,0.943359,-2.056641,0.387512,-0.255127,0.489746,0.738159,down
144949,-7.355469,4.984375,3.867188,-1.708984,0.943359,-2.056641,0.387512,-0.255127,0.489746,0.738159,down
144954,-7.542969,4.945312,4.019531,-1.568359,1.003906,-1.984375,0.388977,-0.260925,0.486389,0.737549,down
144960,-7.964844,5.0625,4.210937,-1.568359,1.003906,-1.984375,0.391541,-0.272278,0.480713,0.735901,down
144965,-8.464844,5.175781,4.367187,-1.568359,1.003906,-1.984375,0.392517,-0.277588,0.478455,0.734863,down
144971,-8.699219,5.253906,4.402344,-0.990234,1.199219,-1.585938,0.392517,-0.277588,0.478455,0.734863,down
144976,-8.921875,5.328125,4.519531,-0.882812,1.232422,-1.488281,0.392517,-0.277588,0.478455,0.734863,down
144981,-9.078125,5.292969,4.59375,-0.767578,1.248047,-1.357422,0.392517,-0.277588,0.478455,0.734863,down
144987,-9.382813,5.367187,4.671875,-0.767578,1.248047,-1.357422,0.392517,-0.277588,0.478455,0.734863,down
144993,-9.492188,5.484375,4.75,-0.423828,1.255859,-0.994141,0.392517,-0.277588,0.478455,0.734863,down
144998,-9.609375,5.484375,4.863281,-0.423828,1.255859,-0.994141,0.395264,-0.309326,0.471252,0.725281,down
145003,-9.691406,5.523437,4.902344,-0.423828,1.255859,-0.994141,0.395081,-0.312683,0.471313,0.723877,down
145008,-9.847656,5.714844,5.015625,-0.423828,1.255859,-0.994141,0.395081,-0.312683,0.471313,0.723877,down
145013,-9.886719,5.714844,5.054687,-0.029297,1.144531,-0.476562,0.395081,-0.312683,0.471313,0.723877,down
145018,-9.917969,5.75,5.054687,0.039063,1.115234,-0.351563,0.394348,-0.318726,0.472229,0.721069,down
145024,-10.03125,5.828125,5.09375,0.099609,1.091797,-0.232422,0.393738,-0.321228,0.473022,0.719727,down
145029,-10.109375,5.867187,5.09375,0.099609,1.091797,-0.232422,0.39209,-0.325745,0.475281,0.717102,down
145034,-10.269531,5.90625,5.054687,0.099609,1.091797,-0.232422,0.391113,-0.327576,0.476624,0.715942,down
145039,-10.300781,5.980469,5.015625,0.099609,1.091797,-0.232422,0.390259,-0.328918,0.477905,0.714966,down
145044,-10.265625,5.980469,5.054687,0.341797,0.912109,0.146484,0.389099,-0.330261,0.479675,0.713806,down
145049,-10.300781,6.019531,4.976562,0.404297,0.859375,0.220703,0.387939,-0.331299,0.481384,0.712769,down
145054,-10.269531,6.097656,4.976562,0.404297,0.859375,0.220703,0.386841,-0.332092,0.483154,0.711792,down
145059,-10.269531,6.097656,4.976562,0.404297,0.859375,0.220703,0.385864,-0.332581,0.484741,0.710999,down
145064,-10.269531,6.097656,4.976562,0.404297,0.859375,0.220703,0.385864,-0.332581,0.484741,0.710999,down
145069,-10.226563,6.132812,4.941406,0.480469,0.689453,0.371094,0.385864,-0.332581,0.484741,0.710999,down
145074,-10.074219,6.171875,4.824219,0.492187,0.634766,0.400391,0.383667,-0.333252,0.488403,0.709412,down
145079,-10.074219,6.171875,4.824219,0.472656,0.566406,0.412109,0.382629,-0.333374,0.490173,0.708679,down
145084,-9.953125,6.210937,4.785156,0.472656,0.566406,0.412109,0.380615,-0.333313,0.493591,0.707397,down
145089,-9.730469,6.132812,4.75,0.472656,0.566406,0.412109,0.3797,-0.33313,0.495056,0.706909,down
145094,-9.574219,6.097656,4.671875,0.472656,0.566406,0.412109,0.378967,-0.332947,0.496277,0.706543,down
145099,-9.496094,6.097656,4.632812,0.304688,0.271484,0.367188,0.378235,-0.332703,0.497498,0.706238,down
145105,-9.265625,5.980469,4.480469,0.304688,0.271484,0.367188,0.377563,-0.332458,0.498474,0.705994,down
145111,-9.109375,5.90625,4.367187,0.304688,0.271484,0.367188,0.376892,-0.332153,0.49939,0.705872,down
145117,-9.042969,5.867187,4.289062,0.142578,0.111328,0.292969,0.376892,-0.332153,0.49939,0.705872,down
145122,-8.964844,5.789062,4.289062,0.074219,0.074219,0.263672,0.376892,-0.332153,0.49939,0.705872,down
145128,-8.847656,5.789062,4.210937,-0.078125,0.011719,0.193359,0.376892,-0.332153,0.49939,0.705872,down
145133,-8.808594,5.714844,4.175781,-0.078125,0.011719,0.193359,0.374878,-0.331238,0.501038,0.706177,down
145138,-8.730469,5.75,4.058594,-0.154297,-0.023437,0.162109,0.374878,-0.331238,0.501038,0.706177,down
145144,-8.726563,5.675781,3.980469,-0.302734,-0.066406,0.085937,0.374878,-0.331238,0.501038,0.706177,down
145149,-8.617188,5.675781,3.945313,-0.302734,-0.066406,0.085937,0.373474,-0.331177,0.499634,0.708008,down
145154,-8.660156,5.597656,3.945313,-0.421875,-0.09375,0.019531,0.373474,-0.331177,0.499634,0.708008,down
145159,-8.617188,5.675781,3.945313,-0.421875,-0.09375,0.019531,0.372925,-0.331604,0.498047,0.709167,down
145165,-8.730469,5.558594,3.90625,-0.421875,-0.09375,0.019531,0.372681,-0.331909,0.497131,0.709778,down
145170,-8.65625,5.597656,3.867188,-0.421875,-0.09375,0.019531,0.372375,-0.332336,0.496094,0.71051,down
145177,-8.695313,5.523437,3.90625,-0.583984,-0.09375,-0.074219,0.372375,-0.332336,0.496094,0.71051,down
145182,-8.695313,5.523437,3.90625,-0.597656,-0.089844,-0.095703,0.372375,-0.332336,0.496094,0.71051,down
145187,-8.726563,5.523437,3.945313,-0.625,-0.074219,-0.115234,0.372375,-0.332336,0.496094,0.71051,down
145193,-8.769531,5.484375,3.945313,-0.671875,-0.042969,-0.142578,0.372375,-0.332336,0.496094,0.71051,down
145198,-8.886719,5.523437,3.90625,-0.671875,-0.042969,-0.142578,0.371216,-0.335144,0.489868,0.714111,down
145204,-9.0,5.484375,3.945313,-0.693359,-0.03125,-0.154297,0.370667,-0.336731,0.487,0.715576,down
145209,-9.039063,5.484375,3.980469,-0.759766,0.013672,-0.173828,0.3703,-0.337708,0.485413,0.71637,down
145215,-9.078125,5.445312,4.019531,-0.759766,0.013672,-0.173828,0.369934,-0.338684,0.483948,0.717102,down
145220,-9.113281,5.445312,4.058594,-0.759766,0.013672,-0.173828,0.369629,-0.3396,0.482483,0.717834,down
145225,-9.109375,5.367187,4.058594,-0.84375,0.042969,-0.212891,0.369141,-0.34082,0.480652,0.71875,down
145230,-9.191406,5.328125,4.019531,-0.873047,0.070312,-0.226562,0.368713,-0.34198,0.478882,0.719543,down
145235,-9.226563,5.367187,3.980469,-0.873047,0.070312,-0.226562,0.368408,-0.343018,0.477478,0.720154,down
145241,-9.535156,5.445312,3.90625,-0.873047,0.070312,-0.226562,0.36792,-0.34436,0.475647,0.720947,down
145246,-9.691406,5.523437,3.828125,-0.929687,0.142578,-0.28125,0.36792,-0.34436,0.475647,0.720947,down
145252,-9.804688,5.558594,3.828125,-0.964844,0.166016,-0.296875,0.36792,-0.34436,0.475647,0.720947,down
145258,-9.914063,5.523437,3.828125,-0.964844,0.166016,-0.296875,0.36792,-0.34436,0.475647,0.720947,down
145264,-9.992188,5.484375,3.789063,-1.039063,0.175781,-0.328125,0.36792,-0.34436,0.475647,0.720947,down
145269,-10.03125,5.484375,3.828125,-1.082031,0.169922,-0.318359,0.365356,-0.352173,0.466248,0.72467,down
145274,-10.070313,5.40625,3.980469,-1.082031,0.169922,-0.318359,0.364258,-0.355408,0.462158,0.726257,down
145279,-10.035156,5.40625,3.980469,-1.068359,0.166016,-0.248047,0.364258,-0.355408,0.462158,0.726257,down
145284,-10.109375,5.367187,4.019531,-1.076172,0.164062,-0.189453,0.363525,-0.357117,0.459961,0.727173,down
145289,-9.992188,5.445312,4.097656,-1.076172,0.164062,-0.189453,0.362854,-0.358521,0.45813,0.727966,down
145295,-9.992188,5.484375,4.289062,-1.076172,0.164062,-0.189453,0.361023,-0.361023,0.454224,0.730042,down
145300,-9.992188,5.484375,4.289062,-0.933594,-0.046875,0.123047,0.360046,-0.361816,0.452515,0.731201,down
145305,-10.191406,5.445312,4.441406,-0.933594,-0.046875,0.123047,0.358826,-0.362305,0.450806,0.732605,down
145311,-10.414063,5.253906,4.441406,-0.933594,-0.046875,0.123047,0.357788,-0.362305,0.449768,0.733765,down
145316,-10.453125,5.101562,4.480469,-0.558594,-0.240234,0.603516,0.357788,-0.362305,0.449768,0.733765,down
145322,-10.53125,4.910156,4.671875,-0.439453,-0.365234,0.765625,0.357788,-0.362305,0.449768,0.733765,down
145327,-10.722656,4.753906,4.785156,-0.296875,-0.490234,0.925781,0.357788,-0.362305,0.449768,0.733765,down
145332,-10.917969,4.753906,4.710937,-0.130859,-0.589844,1.072266,0.357788,-0.362305,0.449768,0.733765,down
145337,-10.957031,4.601562,4.402344,0.005859,-0.613281,1.203125,0.357788,-0.362305,0.449768,0.733765,down
145342,-10.878906,4.601562,4.058594,0.107422,-0.619141,1.357422,0.357788,-0.362305,0.449768,0.733765,down
145347,-10.839844,4.601562,3.789063,0.166016,-0.619141,1.527344,0.357788,-0.362305,0.449768,0.733765,down
145352,-10.679688,4.601562,3.828125,0.166016,-0.619141,1.527344,0.345093,-0.346558,0.451355,0.746338,down
145357,-10.535156,4.71875,4.019531,0.404297,-0.730469,1.867188,0.345093,-0.346558,0.451355,0.746338,down
145362,-10.375,4.910156,4.097656,0.617187,-0.796875,2.03125,0.345093,-0.346558,0.451355,0.746338,down
145367,-10.113281,5.0625,3.867188,0.617187,-0.796875,2.03125,0.345093,-0.346558,0.451355,0.746338,down
145372,-10.074219,5.253906,3.597656,0.617187,-0.796875,2.03125,0.33551,-0.32959,0.460205,0.752991,down
145377,-9.914063,5.40625,3.40625,1.117188,-0.78125,2.490234,0.33551,-0.32959,0.460205,0.752991,down
145383,-9.914063,5.40625,3.40625,1.214844,-0.820312,2.644531,0.329712,-0.318909,0.467163,0.755859,down
145388,-9.730469,5.636719,3.332031,1.214844,-0.820312,2.644531,0.329712,-0.318909,0.467163,0.755859,down
145393,-9.652344,5.867187,3.445313,1.40625,-0.925781,2.953125,0.323181,-0.306763,0.475098,0.758789,down
145398,-9.953125,6.824219,3.253906,1.482422,-0.912109,3.109375,0.323181,-0.306763,0.475098,0.758789,down
145403,-10.035156,7.09375,3.292969,1.566406,-0.919922,3.261719,0.323181,-0.306763,0.475098,0.758789,down
145408,-9.957031,7.054687,3.40625,1.566406,-0.919922,3.261719,0.311279,-0.285461,0.489197,0.763123,down
145414,-9.726563,6.902344,3.636719,1.644531,-1.068359,3.625,0.30249,-0.270386,0.498596,0.765991,down
145419,-9.148438,6.59375,3.484375,1.644531,-1.068359,3.625,0.30249,-0.270386,0.498596,0.765991,down
145424,-8.960938,6.363281,3.332031,1.671875,-1.076172,4.0625,0.291931,-0.253662,0.508667,0.769226,down
145429,-8.542969,6.058594,3.023438,1.773438,-1.072266,4.505859,0.291931,-0.253662,0.508667,0.769226,down
145434,-7.65625,5.636719,2.71875,1.773438,-1.072266,4.505859,0.2854,-0.244019,0.514343,0.770996,down
145440,-7.65625,5.636719,2.71875,2.03125,-1.009766,4.90625,0.272705,-0.22583,0.525269,0.773743,down
145445,-7.65625,5.636719,2.71875,2.03125,-1.009766,4.90625,0.272705,-0.22583,0.525269,0.773743,down
145450,-6.851562,5.484375,2.527344,2.199219,-0.984375,5.089844,0.272705,-0.22583,0.525269,0.773743,down
145455,-5.785156,5.597656,2.21875,2.410156,-0.960937,5.257812,0.257874,-0.205383,0.538086,0.775696,down
145460,-5.785156,5.597656,2.21875,2.667969,-0.939453,5.441406,0.250183,-0.194824,0.545044,0.776123,down
145465,-5.132812,5.753906,1.683594,2.914063,-0.837891,5.625,0.233093,-0.172363,0.560608,0.775696,down
145471,-4.671875,5.941406,0.726562,2.914063,-0.837891,5.625,0.223877,-0.161194,0.568848,0.77478,down
145476,-4.058594,5.871094,0.191406,2.914063,-0.837891,5.625,0.213989,-0.149963,0.577454,0.773499,down
145481,-3.675781,5.753906,0.191406,3.636719,-0.177734,6.373047,0.203186,-0.138123,0.58667,0.771606,down
145487,-3.292969,5.714844,0.152344,3.753906,-0.056641,6.509766,0.203186,-0.138123,0.58667,0.771606,down
145492,-2.527344,5.449219,0.265625,3.753906,-0.056641,6.509766,0.180908,-0.115173,0.60498,0.766785,down
145497,-2.179688,5.171875,0.265625,3.945313,0.253906,6.703125,0.180908,-0.115173,0.60498,0.766785,down
145502,-2.179688,5.171875,0.265625,4.001953,0.421875,6.748047,0.156433,-0.092102,0.62384,0.760193,down
145507,-1.875,4.949219,0.265625,4.041016,0.570312,6.792969,0.143372,-0.080566,0.633301,0.756226,down
145512,-1.875,4.949219,0.265625,4.041016,0.570312,6.792969,0.143372,-0.080566,0.633301,0.756226,down
145518,-1.070313,4.371094,0.304688,4.060547,0.705078,6.792969,0.11731,-0.05896,0.651184,0.747498,down
145523,-0.574219,3.945313,0.535156,4.09375,0.900391,6.716797,0.11731,-0.05896,0.651184,0.747498,down
145529,-0.34375,3.757813,0.609375,4.123047,1.029297,6.564453,0.11731,-0.05896,0.651184,0.747498,down
145534,0.117188,3.535156,0.6875,4.123047,1.029297,6.564453,0.076721,-0.02771,0.67688,0.731567,down
145539,0.195312,3.222656,0.648437,4.164062,1.175781,6.365234,0.076721,-0.02771,0.67688,0.731567,down
145544,0.195312,3.222656,0.648437,4.164062,1.175781,6.365234,0.049927,-0.00824,0.69281,0.71936,down
145549,0.578125,2.609375,0.648437,4.164062,1.175781,6.365234,0.049927,-0.00824,0.69281,0.71936,down
145554,0.578125,2.609375,0.648437,4.230469,1.257813,6.15625,0.023132,0.010254,0.708008,0.70575,down
145559,1.035156,1.925781,0.726562,4.230469,1.257813,6.15625,0.003235,-0.02771,-0.722534,-0.690796,down
145564,1.308594,1.117188,0.917969,4.230469,1.257813,6.15625,0.003235,-0.02771,-0.722534,-0.690796,down
145570,1.417969,1.0,0.878906,4.458984,1.517578,5.769531,0.016052,-0.035828,-0.72937,-0.682983,down
145575,1.492188,0.847656,0.6875,4.458984,1.517578,5.769531,0.043213,-0.052002,-0.74353,-0.665283,down
145580,1.574219,0.808594,0.574219,4.746094,1.689453,5.59375,0.05658,-0.059387,-0.750427,-0.655823,down
145585,1.613281,0.925781,0.417969,4.746094,1.689453,5.59375,0.05658,-0.059387,-0.750427,-0.655823,down
145590,1.613281,0.925781,0.417969,4.849609,1.740234,5.490234,0.068542,-0.065735,-0.756531,-0.647034,down
145595,1.652344,1.078125,0.417969,4.849609,1.740234,5.490234,0.081299,-0.072205,-0.763062,-0.637146,down
145600,1.691406,1.347656,0.34375,5.001953,1.861328,5.277344,0.081299,-0.072205,-0.763062,-0.637146,down
145605,1.691406,1.347656,0.417969,5.078125,1.994141,5.058594,0.081299,-0.072205,-0.763062,-0.637146,down
145610,1.691406,1.347656,0.457031,5.078125,1.994141,5.058594,0.133667,-0.095581,-0.788208,-0.593018,down
145615,1.691406,1.347656,0.382813,5.078125,1.994141,5.058594,0.133667,-0.095581,-0.788208,-0.593018,down
145620,1.648438,1.191406,0.382813,5.078125,1.994141,5.058594,0.158936,-0.104736,-0.799316,-0.570007,down
145626,1.652344,1.117188,0.535156,5.078125,1.994141,5.058594,0.170166,-0.108276,-0.804016,-0.559387,down
145631,1.570313,1.0,0.6875,5.162109,2.251953,4.339844,0.182129,-0.111755,-0.808838,-0.547791,down
145636,1.382813,0.734375,0.957031,5.162109,2.251953,4.339844,0.193787,-0.114929,-0.813538,-0.536133,down
145642,1.417969,0.734375,0.996094,5.072266,2.171875,3.945313,0.205383,-0.117798,-0.818115,-0.524048,down
145649,1.347656,0.734375,1.03125,5.0,2.125,3.748047,0.205383,-0.117798,-0.818115,-0.524048,down
145654,1.152344,0.734375,0.957031,4.90625,1.947266,3.330078,0.205383,-0.117798,-0.818115,-0.524048,down
145659,0.691406,0.734375,0.835937,4.90625,1.947266,3.330078,0.236755,-0.124207,-0.830261,-0.489014,down
145664,0.691406,0.734375,0.835937,4.896484,1.753906,3.099609,0.246643,-0.125793,-0.83429,-0.476746,down
145669,0.691406,0.734375,0.835937,4.902344,1.490234,2.845703,0.254333,-0.126953,-0.837769,-0.466125,down
145674,0.386719,0.773437,1.21875,4.902344,1.490234,2.845703,0.262085,-0.12793,-0.841797,-0.454224,down
145679,-0.074219,0.773437,1.574219,4.902344,1.490234,2.845703,0.268616,-0.128479,-0.845764,-0.442688,down
145685,-0.6875,0.886719,1.601563,4.837891,0.644531,1.958984,0.27887,-0.128845,-0.854248,-0.419373,down
145690,-1.414063,0.886719,1.570313,4.837891,0.644531,1.958984,0.281982,-0.128662,-0.858459,-0.40863,down
145695,-1.683594,1.117188,1.453125,4.837891,0.644531,1.958984,0.283936,-0.128296,-0.863159,-0.397278,down
145700,-1.917969,1.308594,1.261719,3.947266,-1.068359,0.539062,0.283936,-0.128296,-0.863159,-0.397278,down
145705,-2.300781,1.421875,1.070313,3.947266,-1.068359,0.539062,0.282837,-0.127197,-0.87146,-0.380005,down
145711,-3.175781,2.152344,0.457031,3.947266,-1.068359,0.539062,0.27948,-0.126221,-0.87616,-0.371826,down
145716,-3.253906,3.070313,0.265625,2.783203,-2.912109,-0.931641,0.274231,-0.125061,-0.880859,-0.36499,down
145721,-3.332031,3.835938,0.0,2.314453,-3.632813,-1.5,0.266785,-0.123657,-0.885681,-0.359253,down
145726,-3.523438,4.144531,-0.347656,2.314453,-3.632813,-1.5,0.256226,-0.121826,-0.891052,-0.35437,down
145731,-4.632812,5.445312,-1.304688,2.314453,-3.632813,-1.5,0.256226,-0.121826,-0.891052,-0.35437,down
145737,-5.207031,7.015625,-2.03125,0.59375,-6.214844,-3.539063,0.256226,-0.121826,-0.891052,-0.35437,down
145742,-5.207031,7.015625,-2.03125,-0.115234,-7.224609,-4.339844,0.209961,-0.113953,-0.906189,-0.348999,down
145747,-6.242187,9.5,-3.066406,-0.115234,-7.224609,-4.339844,0.209961,-0.113953,-0.906189,-0.348999,down
145752,-6.242187,9.5,-3.066406,-0.925781,-8.222656,-5.255859,0.162659,-0.105164,-0.915039,-0.353882,down
145757,-8.273438,12.648438,-7.050781,-0.925781,-8.222656,-5.255859,0.162659,-0.105164,-0.915039,-0.353882,down
145762,-8.347656,13.867188,-8.890625,-4.3125,-10.451172,-8.117188,0.162659,-0.105164,-0.915039,-0.353882,down
145767,-8.273438,15.328125,-11.914063,-4.3125,-10.451172,-8.117188,0.162659,-0.105164,-0.915039,-0.353882,down
145773,-8.234375,16.28125,-12.605469,-7.316406,-11.666016,-10.085938,0.162659,-0.105164,-0.915039,-0.353882,down
145778,-8.464844,17.285156,-13.140625,-8.767578,-12.179688,-11.113281,0.162659,-0.105164,-0.915039,-0.353882,down
145783,-8.347656,19.0,-14.519531,-8.767578,-12.179688,-11.113281,0.048767,0.046692,0.900818,0.428894,down
145788,-8.347656,19.0,-14.519531,-11.466797,-12.105469,-13.367188,0.089111,0.030457,0.888672,0.44873,down
145794,-8.273438,19.316406,-15.054688,-11.466797,-12.105469,-13.367188,0.13324,0.009705,0.871887,0.47113,down
145799,-8.273438,19.316406,-15.054688,-13.339844,-11.697266,-15.566406,0.176208,-0.013245,0.851929,0.49292,down
145804,-11.566406,20.886719,-14.289063,-13.339844,-11.697266,-15.566406,0.220764,-0.039612,0.827393,0.514893,down
145810,-12.640625,21.609375,-13.675781,-14.357422,-10.355469,-17.550781,0.220764,-0.039612,0.827393,0.514893,down
145815,-14.667969,23.523437,-12.335938,-14.357422,-10.355469,-17.550781,0.303955,-0.096375,0.770142,0.552429,down
145820,-15.4375,23.984375,-11.648438,-14.357422,-10.355469,-17.550781,0.382385,-0.158752,0.700073,0.581787,down
145825,-15.820313,23.988281,-10.996094,-14.482422,-9.111328,-17.482422,0.382385,-0.158752,0.700073,0.581787,down
145830,-15.703125,23.679687,-10.039063,-14.228516,-8.746094,-16.859375,0.421204,-0.192566,0.657898,0.593872,down
145836,-14.667969,21.726562,-7.355469,-14.228516,-8.746094,-16.859375,0.480957,-0.248169,0.579895,0.608948,down
145842,-13.367188,17.324219,-3.371094,-14.228516,-8.746094,-16.859375,0.506836,-0.273254,0.539612,0.614197,down
145848,-12.867188,14.75,-1.226563,-12.453125,-7.658203,-13.207031,0.506836,-0.273254,0.539612,0.614197,down
145854,-12.949219,6.710937,3.253906,-11.490234,-7.261719,-11.533203,0.506836,-0.273254,0.539612,0.614197,down
145859,-13.023438,2.1875,5.398437,-10.439453,-6.873047,-9.724609,0.506836,-0.273254,0.539612,0.614197,down
145865,-13.023438,-1.296875,7.160156,-8.013672,-5.554687,-5.898437,0.506836,-0.273254,0.539612,0.614197,down
145870,-12.488281,-7.3125,9.996094,-8.013672,-5.554687,-5.898437,0.584717,-0.353516,0.366638,0.631409,down
145875,-11.949219,-9.648438,11.070313,-4.939453,-4.052734,-2.591797,0.591187,-0.361084,0.341003,0.635437,down
145880,-10.953125,-11.296875,11.640625,-4.939453,-4.052734,-2.591797,0.595215,-0.365723,0.320862,0.639526,down
145885,-10.148438,-11.105469,11.605469,-4.939453,-4.052734,-2.591797,0.598694,-0.365906,0.301819,0.645386,down
145890,-9.34375,-8.191406,10.957031,-4.939453,-4.052734,-2.591797,0.598694,-0.365906,0.301819,0.645386,down
145895,-9.230469,-5.855469,9.804688,4.046875,1.195313,1.566406,0.599426,-0.362976,0.301514,0.646545,down
145901,-9.1875,-3.328125,7.160156,4.046875,1.195313,1.566406,0.599854,-0.352234,0.320435,0.643005,down
145906,-9.460938,2.570313,1.875,4.046875,1.195313,1.566406,0.599609,-0.344971,0.337891,0.638184,down
145912,-9.6875,6.632812,1.109375,4.046875,1.195313,1.566406,0.599182,-0.335205,0.361023,0.631165,down
145917,-9.425781,7.207031,1.992188,10.335938,4.666016,3.285156,0.599182,-0.335205,0.361023,0.631165,down
145923,-9.570313,7.898437,2.679688,10.697266,5.193359,3.544922,0.599182,-0.335205,0.361023,0.631165,down
145928,-11.300781,9.542969,1.570313,10.697266,5.193359,3.544922,0.593567,-0.300964,0.440125,0.602844,down
145933,-12.289063,10.882813,0.0,12.212891,6.03125,3.365234,0.593567,-0.300964,0.440125,0.602844,down
145939,-13.328125,11.917969,-1.226563,12.792969,5.548828,2.910156,0.593567,-0.300964,0.440125,0.602844,down
145945,-14.324219,12.492188,-0.539062,12.589844,4.388672,2.429688,0.593567,-0.300964,0.440125,0.602844,down
145950,-14.058594,12.492188,1.300781,9.769531,1.779297,1.808594,0.593567,-0.300964,0.440125,0.602844,down
145955,-13.480469,12.339844,2.988281,9.769531,1.779297,1.808594,0.585815,-0.228882,0.567627,0.53125,down
145960,-12.5625,10.921875,5.167969,7.78125,1.177734,1.652344,0.585815,-0.228882,0.567627,0.53125,down
145965,-12.5625,10.921875,5.167969,3.195313,0.951172,1.404297,0.586121,-0.204895,0.593323,0.512329,down
145970,-11.527344,9.085938,5.167969,3.195313,0.951172,1.404297,0.584961,-0.197449,0.601196,0.507324,down
145975,-11.183594,8.164063,4.710937,1.080078,0.880859,1.316406,0.580017,-0.192017,0.608215,0.506775,down
145980,-10.800781,7.207031,4.25,-2.197266,0.320313,1.166016,0.580017,-0.192017,0.608215,0.506775,down
145985,-9.996094,5.675781,3.753906,-3.212891,-0.048828,1.082031,0.577148,-0.192932,0.607666,0.510315,down
145990,-9.460938,5.292969,3.675781,-3.212891,-0.048828,1.082031,0.573975,-0.195435,0.604797,0.516296,down
145995,-8.617188,4.792969,3.828125,-3.212891,-0.048828,1.082031,0.571045,-0.198975,0.600098,0.523682,down
146000,-8.160156,4.371094,3.636719,-3.212891,-0.048828,1.082031,0.567993,-0.203674,0.593445,0.532654,down
146005,-7.894531,4.105469,2.988281,-6.128906,-0.824219,0.707031,0.567993,-0.203674,0.593445,0.532654,down
146010,-7.816406,3.644531,2.488281,-6.128906,-0.824219,0.707031,0.561523,-0.216003,0.57605,0.553345,down
146016,-7.429687,2.917969,1.261719,-6.128906,-0.824219,0.707031,0.556885,-0.227173,0.558228,0.571533,down
146022,-6.507812,2.417969,1.953125,-6.128906,-0.824219,0.707031,0.556091,-0.230713,0.55011,0.578674,down
146027,-6.011719,2.265625,2.488281,-3.234375,-1.878906,0.076172,0.556213,-0.233032,0.54248,0.584839,down
146032,-5.628906,2.074219,2.792969,-2.240234,-1.753906,0.039063,0.556946,-0.23407,0.536072,0.5896,down
146038,-5.476562,1.882813,2.566406,-2.240234,-1.753906,0.039063,0.557983,-0.234131,0.531189,0.593018,down
146044,-5.398437,1.84375,2.375,-0.580078,-1.183594,0.072266,0.557983,-0.234131,0.531189,0.593018,down
146049,-5.285156,1.765625,2.410156,-0.101563,-1.029297,0.132812,0.557983,-0.234131,0.531189,0.593018,down
146055,-5.058594,1.421875,2.527344,0.265625,-0.892578,0.21875,0.561951,-0.22821,0.52478,0.59729,down
146060,-5.015625,1.117188,2.527344,0.265625,-0.892578,0.21875,0.561951,-0.22821,0.52478,0.59729,down
146065,-4.976562,0.964844,2.488281,0.806641,-0.482422,0.394531,0.562866,-0.223511,0.526245,0.596863,down
146070,-4.9375,0.925781,2.566406,0.806641,-0.482422,0.394531,0.562866,-0.223511,0.526245,0.596863,down
146075,-5.019531,0.964844,2.601563,0.818359,-0.097656,0.537109,0.562317,-0.219482,0.529175,0.596313,down
146080,-5.097656,1.078125,2.601563,0.818359,-0.097656,0.537109,0.562317,-0.219482,0.529175,0.596313,down
146085,-5.242187,1.230469,2.566406,0.474609,0.341797,0.601562,0.56012,-0.217529,0.532288,0.596313,down
146090,-5.550781,1.539063,2.410156,0.474609,0.341797,0.601562,0.56012,-0.217529,0.532288,0.596313,down
146096,-5.667969,1.804688,2.335938,0.371094,0.904297,0.722656,0.558411,-0.217163,0.534119,0.596436,down
146101,-6.007812,1.996094,2.257813,0.371094,0.904297,0.722656,0.554199,-0.216797,0.538696,0.596375,down
146106,-6.167969,2.417969,1.796875,0.371094,0.904297,0.722656,0.551697,-0.216431,0.54187,0.595886,down
146112,-5.902344,2.457031,2.449219,0.371094,0.904297,0.722656,0.549561,-0.215759,0.545471,0.59491,down
146117,-6.394531,2.878906,2.527344,1.697266,1.400391,0.771484,0.549561,-0.215759,0.545471,0.59491,down
146122,-6.929687,3.183594,2.410156,1.730469,1.623047,0.816406,0.549561,-0.215759,0.545471,0.59491,down
146127,-7.660156,3.453125,1.722656,1.730469,1.623047,0.816406,0.542297,-0.212341,0.560486,0.588806,down
146132,-7.851562,3.566406,1.835938,1.603516,1.720703,0.820312,0.542297,-0.212341,0.560486,0.588806,down
146137,-8.421875,3.914063,1.914063,1.722656,1.664063,0.777344,0.542297,-0.212341,0.560486,0.588806,down
146142,-8.421875,3.914063,1.914063,2.03125,1.607422,0.683594,0.534241,-0.209351,0.576416,0.581787,down
146147,-9.230469,4.984375,2.066406,2.03125,1.607422,0.683594,0.531921,-0.207581,0.582764,0.578247,down
146153,-9.269531,5.328125,2.375,2.443359,1.269531,0.46875,0.531921,-0.207581,0.582764,0.578247,down
146158,-9.347656,5.714844,2.601563,2.357422,1.123047,0.419922,0.529175,-0.203491,0.593506,0.571228,down
146163,-9.609375,6.097656,2.792969,2.357422,1.123047,0.419922,0.528198,-0.201782,0.597717,0.568359,down
146169,-9.691406,6.171875,2.71875,1.515625,0.976562,0.398438,0.528198,-0.201782,0.597717,0.568359,down
146174,-9.847656,6.171875,2.601563,0.996094,0.921875,0.384766,0.528198,-0.201782,0.597717,0.568359,down
146179,-9.996094,6.132812,2.527344,0.996094,0.921875,0.384766,0.523987,-0.198914,0.607727,0.562622,down
146185,-10.035156,5.90625,2.410156,0.996094,0.921875,0.384766,0.521301,-0.198914,0.610657,0.56189,down
146190,-10.03125,5.675781,2.449219,0.996094,0.921875,0.384766,0.521301,-0.198914,0.610657,0.56189,down
146195,-9.917969,5.523437,2.527344,-0.166016,0.310547,0.25,0.519409,-0.199402,0.61145,0.562683,down
146200,-9.6875,5.214844,2.566406,-0.166016,0.310547,0.25,0.519409,-0.199402,0.61145,0.562683,down
146205,-9.570313,4.984375,2.527344,-0.166016,0.310547,0.25,0.518555,-0.200012,0.610962,0.563782,down
146211,-9.464844,4.792969,2.527344,-0.839844,-0.033203,0.103516,0.517456,-0.201721,0.608765,0.566467,down
146216,-9.269531,4.5625,2.449219,-0.839844,-0.033203,0.103516,0.51709,-0.202759,0.6073,0.568054,down
146221,-9.152344,4.449219,2.375,-0.839844,-0.033203,0.103516,0.516968,-0.203674,0.605652,0.56958,down
146226,-9.003906,4.335937,2.375,-0.839844,-0.033203,0.103516,0.516968,-0.203674,0.605652,0.56958,down
146231,-8.886719,4.257812,2.375,-0.90625,-0.302734,-0.09375,0.51709,-0.205444,0.602295,0.572388,down
146236,-8.65625,4.140625,2.335938,-0.90625,-0.302734,-0.09375,0.517395,-0.206177,0.600586,0.573669,down
146241,-8.460938,4.105469,2.335938,-0.90625,-0.302734,-0.09375,0.5177,-0.206604,0.599426,0.574402,down
146246,-8.421875,4.140625,2.296875,-0.480469,-0.316406,-0.138672,0.5177,-0.206604,0.599426,0.574402,down
146251,-8.273438,4.140625,2.183594,-0.480469,-0.316406,-0.138672,0.518127,-0.207031,0.598145,0.575256,down
146256,-8.199219,4.066406,2.183594,-0.355469,-0.269531,-0.134766,0.518555,-0.207397,0.597107,0.575867,down
146261,-8.160156,3.988281,2.183594,-0.355469,-0.269531,-0.134766,0.519226,-0.207886,0.595337,0.576843,down
146266,-8.082031,3.988281,2.183594,-0.355469,-0.269531,-0.134766,0.519531,-0.208191,0.594543,0.577271,down
146271,-8.039063,3.949219,2.144531,-0.355469,-0.269531,-0.134766,0.519714,-0.208496,0.593994,0.577576,down
146276,-7.960937,3.914063,2.144531,-0.355469,-0.269531,-0.134766,0.519775,-0.208801,0.593445,0.578003,down
146281,-7.925781,3.914063,2.144531,-0.355469,-0.269531,-0.134766,0.519775,-0.208801,0.593445,0.578003,down
146286,-7.894531,3.949219,2.144531,-0.248047,-0.023437,-0.037109,0.519653,-0.209473,0.592712,0.578613,down
146291,-7.8125,4.027344,2.105469,-0.248047,-0.023437,-0.037109,0.519409,-0.209778,0.592529,0.578918,down
146296,-7.816406,4.027344,2.144531,-0.138672,0.132812,0.041016,0.519409,-0.209778,0.592529,0.578918,down
146301,-7.855469,4.140625,2.105469,-0.138672,0.132812,0.041016,0.518677,-0.210388,0.59259,0.579285,down
146306,-7.855469,4.179687,2.105469,-0.138672,0.132812,0.041016,0.518188,-0.210632,0.592834,0.579407,down
146311,-7.894531,4.105469,1.992188,0.03125,0.263672,0.128906,0.518188,-0.210632,0.592834,0.579407,down
146316,-7.894531,4.066406,1.992188,0.03125,0.263672,0.128906,0.517578,-0.210876,0.593262,0.579468,down
146321,-7.894531,4.066406,2.027344,0.21875,0.314453,0.142578,0.517578,-0.210876,0.593262,0.579468,down
146326,-7.890625,4.066406,2.066406,0.21875,0.314453,0.142578,0.515808,-0.210876,0.595459,0.578735,down
146331,-7.890625,4.140625,2.066406,0.341797,0.380859,0.152344,0.515808,-0.210876,0.595459,0.578735,down
146336,-7.925781,4.21875,1.992188,0.341797,0.380859,0.152344,0.515137,-0.210754,0.596558,0.578186,down
146341,-7.925781,4.335937,2.027344,0.373047,0.390625,0.148437,0.513855,-0.210449,0.598877,0.577026,down
146347,-7.925781,4.488281,2.027344,0.373047,0.390625,0.148437,0.513184,-0.210266,0.600159,0.576416,down
146352,-7.925781,4.488281,2.027344,0.40625,0.416016,0.152344,0.513184,-0.210266,0.600159,0.576416,down
146357,-7.925781,4.527344,1.953125,0.371094,0.414062,0.164062,0.513184,-0.210266,0.600159,0.576416,down
146362,-7.925781,4.527344,1.953125,0.320313,0.414062,0.164062,0.511047,-0.209778,0.603882,0.574585,down
146368,-8.003906,4.5625,2.027344,0.320313,0.414062,0.164062,0.510254,-0.209717,0.605042,0.574097,down
146373,-8.039063,4.640625,1.992188,0.230469,0.402344,0.158203,0.509521,-0.209717,0.606018,0.57373,down
146379,-8.121094,4.71875,1.914063,0.189453,0.394531,0.15625,0.509521,-0.209717,0.606018,0.57373,down
146385,-8.082031,4.753906,1.914063,0.154297,0.388672,0.146484,0.509521,-0.209717,0.606018,0.57373,down
146390,-8.160156,4.792969,1.953125,0.130859,0.375,0.134766,0.509521,-0.209717,0.606018,0.57373,down
146395,-8.160156,4.792969,1.914063,0.099609,0.367188,0.123047,0.509521,-0.209717,0.606018,0.57373,down
146400,-8.195313,4.792969,1.914063,0.099609,0.367188,0.123047,0.505737,-0.210327,0.610229,0.572449,down
146405,-8.160156,4.753906,1.914063,0.054687,0.34375,0.113281,0.505737,-0.210327,0.610229,0.572449,down
146411,-8.195313,4.753906,1.875,0.048828,0.349609,0.113281,0.50354,-0.21106,0.612122,0.572021,down
146416,-8.199219,4.753906,1.796875,0.048828,0.349609,0.113281,0.502869,-0.211304,0.612732,0.571899,down
146421,-8.238281,4.792969,1.835938,0.048828,0.349609,0.113281,0.502197,-0.211548,0.613281,0.571777,down
146426,-8.199219,4.832031,1.796875,0.048828,0.349609,0.113281,0.502197,-0.211548,0.613281,0.571777,down
146431,-8.273438,4.792969,1.796875,0.011719,0.308594,0.097656,0.500854,-0.212036,0.61438,0.571655,down
146436,-8.34375,4.601562,1.761719,0.011719,0.308594,0.097656,0.500854,-0.212036,0.61438,0.571655,down
146441,-8.347656,4.640625,1.796875,0.011719,0.308594,0.097656,0.500122,-0.212341,0.614868,0.571594,down
146446,-8.382813,4.640625,1.835938,0.029297,0.238281,0.070312,0.499146,-0.212708,0.615723,0.571411,down
146451,-8.425781,4.640625,1.835938,0.029297,0.238281,0.070312,0.499146,-0.212708,0.615723,0.571411,down
146456,-8.464844,4.71875,1.835938,0.083984,0.193359,-0.021484,0.498779,-0.212891,0.61615,0.571228,down
146461,-8.460938,4.792969,1.796875,0.083984,0.193359,-0.021484,0.498474,-0.213074,0.616577,0.570984,down
146466,-8.542969,5.023437,1.761719,0.083984,0.193359,-0.021484,0.49823,-0.213257,0.616943,0.570679,down
146471,-8.539063,5.136719,1.722656,0.148437,0.134766,-0.072266,0.498047,-0.213379,0.617371,0.570312,down
146476,-8.582031,5.175781,1.722656,0.148437,0.134766,-0.072266,0.497986,-0.213501,0.617737,0.569946,down
146481,-8.578125,5.253906,1.761719,0.126953,0.080078,-0.080078,0.497925,-0.213562,0.618164,0.569519,down
146486,-8.617188,5.328125,1.644531,0.126953,0.080078,-0.080078,0.497925,-0.213623,0.618469,0.569153,down
146491,-8.617188,5.328125,1.644531,0.126953,0.080078,-0.080078,0.497986,-0.213806,0.618896,0.568604,down
146496,-8.582031,5.292969,1.644531,0.126953,0.080078,-0.080078,0.497986,-0.213806,0.618896,0.568604,down
146501,-8.578125,5.292969,1.605469,-0.044922,-0.005859,-0.068359,0.497986,-0.213806,0.618896,0.568604,down
146507,-8.539063,5.253906,1.570313,-0.103516,-0.027344,-0.056641,0.498047,-0.213989,0.618958,0.568359,down
146512,-8.5,5.214844,1.605469,-0.103516,-0.027344,-0.056641,0.498108,-0.214355,0.618591,0.568542,down
146517,-8.421875,5.175781,1.570313,-0.197266,-0.046875,-0.048828,0.498108,-0.214539,0.618286,0.568787,down
146523,-8.386719,5.136719,1.492188,-0.197266,-0.046875,-0.048828,0.498108,-0.214783,0.617981,0.569092,down
146528,-8.277344,5.101562,1.453125,-0.197266,-0.046875,-0.048828,0.498047,-0.215027,0.617615,0.569397,down
146534,-8.277344,5.0625,1.492188,-0.240234,-0.054687,-0.011719,0.498047,-0.215027,0.617615,0.569397,down
146539,-8.234375,5.023437,1.453125,-0.228516,-0.042969,0.0,0.498047,-0.215027,0.617615,0.569397,down
146545,-8.273438,4.910156,1.378906,-0.228516,-0.042969,0.0,0.497864,-0.215637,0.616577,0.570557,down
146550,-8.238281,4.910156,1.414063,-0.183594,-0.019531,0.017578,0.497864,-0.215637,0.616577,0.570557,down
146555,-8.238281,4.832031,1.414063,-0.150391,-0.009766,0.027344,0.497864,-0.215637,0.616577,0.570557,down
146561,-8.195313,4.753906,1.453125,-0.113281,0.001953,0.035156,0.497864,-0.215637,0.616577,0.570557,down
146567,-8.238281,4.792969,1.414063,-0.037109,0.023437,0.044922,0.497864,-0.215637,0.616577,0.570557,down
146572,-8.195313,4.792969,1.414063,-0.037109,0.023437,0.044922,0.497009,-0.216125,0.615906,0.571777,down
