timestamp,ax,ay,az,gx,gy,gz,qw,qx,qy,qz,label
525753,4.265625,8.175781,-2.925781,0.033203,0.033203,-0.142578,0.182007,-0.117249,-0.803467,-0.554565,down
525759,4.265625,8.253906,-2.851563,0.033203,0.033203,-0.142578,0.182007,-0.117249,-0.803467,-0.554565,down
525765,4.265625,8.253906,-2.851563,0.037109,0.009766,-0.095703,0.182007,-0.117249,-0.803467,-0.554565,down
525770,4.226562,8.289063,-2.851563,0.037109,0.009766,-0.095703,0.182739,-0.113464,-0.804138,-0.554199,down
525775,4.265625,8.253906,-2.8125,0.037109,0.003906,-0.085937,0.182739,-0.113464,-0.804138,-0.554199,down
525780,4.1875,8.25,-2.851563,0.033203,-0.013672,-0.066406,0.183044,-0.112183,-0.804382,-0.553955,down
525785,4.226562,8.253906,-2.890625,0.033203,-0.013672,-0.066406,0.183228,-0.111572,-0.804504,-0.553833,down
525790,4.226562,8.214844,-2.890625,0.025391,-0.03125,-0.056641,0.183228,-0.111572,-0.804504,-0.553833,down
525795,4.226562,8.214844,-2.890625,0.025391,-0.03125,-0.056641,0.183533,-0.110107,-0.804871,-0.553528,down
525800,4.226562,8.25,-2.964844,0.025391,-0.03125,-0.056641,0.183533,-0.110107,-0.804871,-0.553528,down
525805,4.226562,8.25,-2.964844,0.013672,-0.039063,-0.052734,0.183716,-0.109192,-0.805115,-0.553345,down
525810,4.1875,8.25,-3.003906,0.013672,-0.039063,-0.052734,0.183716,-0.109192,-0.805115,-0.553345,down
525815,4.265625,8.253906,-3.003906,0.001953,-0.035156,-0.060547,0.183838,-0.108704,-0.805176,-0.553223,down
525820,4.1875,8.25,-2.964844,0.001953,-0.035156,-0.060547,0.183899,-0.108276,-0.805298,-0.553162,down
525825,4.1875,8.214844,-2.925781,0.001953,-0.035156,-0.060547,0.18396,-0.107788,-0.805359,-0.553101,down
525831,4.148437,8.175781,-2.925781,-0.003906,-0.029297,-0.074219,0.184021,-0.106812,-0.805481,-0.55304,down
525836,4.1875,8.171875,-2.890625,-0.013672,-0.042969,-0.095703,0.184082,-0.106323,-0.805603,-0.55304,down
525841,4.1875,8.132813,-2.8125,-0.013672,-0.042969,-0.095703,0.184082,-0.105835,-0.805664,-0.55304,down
525846,4.148437,8.136719,-2.851563,-0.013672,-0.042969,-0.095703,0.18396,-0.105347,-0.805725,-0.55304,down
525851,4.1875,8.136719,-2.773438,-0.013672,-0.042969,-0.095703,0.183899,-0.104919,-0.805786,-0.55304,down
525856,4.148437,8.171875,-2.851563,-0.044922,-0.078125,-0.109375,0.183777,-0.104492,-0.805847,-0.553101,down
525862,4.148437,8.175781,-2.890625,-0.044922,-0.078125,-0.109375,0.183655,-0.104065,-0.805908,-0.553162,down
525867,4.1875,8.136719,-2.925781,-0.044922,-0.078125,-0.109375,0.183472,-0.103638,-0.805908,-0.553223,down
525873,4.1875,8.210938,-2.964844,-0.044922,-0.078125,-0.109375,0.18335,-0.103271,-0.805969,-0.553345,down
525879,4.226562,8.175781,-3.042969,-0.0625,-0.095703,-0.09375,0.18335,-0.103271,-0.805969,-0.553345,down
525885,4.1875,8.289063,-3.042969,-0.060547,-0.091797,-0.082031,0.18335,-0.103271,-0.805969,-0.553345,down
525890,4.226562,8.289063,-3.042969,-0.058594,-0.097656,-0.0625,0.18335,-0.103271,-0.805969,-0.553345,down
525895,4.1875,8.292969,-3.117188,-0.025391,-0.083984,-0.03125,0.18335,-0.103271,-0.805969,-0.553345,down
525900,4.1875,8.210938,-3.082031,-0.025391,-0.083984,-0.03125,0.182739,-0.101807,-0.806091,-0.55365,down
525905,4.226562,8.214844,-3.117188,-0.025391,-0.083984,-0.03125,0.182739,-0.101563,-0.806152,-0.553589,down
525910,4.226562,8.171875,-3.117188,-0.025391,-0.083984,-0.03125,0.182739,-0.101318,-0.806213,-0.553528,down
525916,4.226562,8.132813,-3.082031,0.042969,-0.064453,0.011719,0.182861,-0.100891,-0.806458,-0.553223,down
525921,4.226562,8.132813,-3.042969,0.09375,-0.041016,0.023437,0.182983,-0.100647,-0.80658,-0.552979,down
525926,4.1875,8.132813,-3.003906,0.099609,-0.042969,0.03125,0.182983,-0.100647,-0.80658,-0.552979,down
525931,4.226562,8.09375,-3.003906,0.099609,-0.042969,0.03125,0.183289,-0.10022,-0.806946,-0.552429,down
525936,4.148437,8.019531,-2.890625,0.099609,-0.042969,0.03125,0.183289,-0.10022,-0.806946,-0.552429,down
525941,4.148437,8.019531,-2.925781,0.099609,-0.042969,0.03125,0.183655,-0.099792,-0.807312,-0.55188,down
525946,4.148437,7.980469,-2.925781,0.099609,-0.033203,0.042969,0.183838,-0.099609,-0.807495,-0.551575,down
525951,4.1875,7.980469,-2.851563,0.099609,-0.033203,0.042969,0.18396,-0.099426,-0.807678,-0.55127,down
525956,4.1875,7.980469,-2.8125,0.099609,-0.033203,0.042969,0.184082,-0.099182,-0.807861,-0.551025,down
525961,4.1875,7.980469,-2.8125,0.099609,-0.033203,0.042969,0.184204,-0.098999,-0.807983,-0.550842,down
525966,4.1875,8.015625,-2.773438,0.044922,-0.064453,-0.001953,0.184265,-0.098755,-0.808167,-0.550659,down
525971,4.226562,7.9375,-2.773438,0.029297,-0.080078,-0.009766,0.184265,-0.098755,-0.808167,-0.550659,down
525976,4.226562,7.941406,-2.8125,0.029297,-0.080078,-0.009766,0.184204,-0.098389,-0.80835,-0.550415,down
525981,4.226562,7.941406,-2.8125,0.017578,-0.091797,-0.037109,0.184204,-0.098389,-0.80835,-0.550415,down
525986,4.265625,7.9375,-2.8125,0.011719,-0.095703,-0.044922,0.184143,-0.098145,-0.808472,-0.550293,down
525992,4.300781,8.015625,-2.851563,0.011719,-0.095703,-0.044922,0.183899,-0.097839,-0.808655,-0.550171,down
525997,4.300781,8.09375,-2.925781,0.011719,-0.095703,-0.044922,0.183716,-0.097656,-0.808716,-0.55011,down
526002,4.300781,8.09375,-2.925781,-0.001953,-0.126953,-0.054687,0.183472,-0.097534,-0.808838,-0.55011,down
526008,4.378906,8.097656,-3.117188,-0.001953,-0.126953,-0.054687,0.183472,-0.097534,-0.808838,-0.55011,down
526013,4.417969,8.058594,-3.082031,-0.017578,-0.107422,-0.058594,0.183472,-0.097534,-0.808838,-0.55011,down
526018,4.457031,8.09375,-3.082031,-0.009766,-0.095703,-0.058594,0.183472,-0.097534,-0.808838,-0.55011,down
526023,4.457031,8.09375,-3.082031,0.009766,-0.070312,-0.060547,0.182861,-0.09668,-0.809143,-0.549988,down
526029,4.417969,8.054688,-3.15625,0.021484,-0.052734,-0.0625,0.182861,-0.09668,-0.809143,-0.549988,down
526035,4.417969,8.136719,-3.117188,0.021484,-0.052734,-0.0625,0.182739,-0.095764,-0.809448,-0.549744,down
526040,4.378906,8.175781,-3.082031,0.021484,-0.052734,-0.0625,0.182739,-0.095764,-0.809448,-0.549744,down
526045,4.339844,8.175781,-3.042969,0.064453,-0.001953,-0.070312,0.182739,-0.095764,-0.809448,-0.549744,down
526050,4.300781,8.253906,-3.042969,0.064453,-0.001953,-0.070312,0.182739,-0.094971,-0.809692,-0.5495,down
526056,4.339844,8.25,-3.042969,0.080078,0.005859,-0.085937,0.182739,-0.094971,-0.809692,-0.5495,down
526061,4.300781,8.324219,-3.003906,0.080078,0.005859,-0.085937,0.182861,-0.09375,-0.81012,-0.549072,down
526066,4.300781,8.359375,-3.042969,0.080078,0.005859,-0.085937,0.1828,-0.093323,-0.810303,-0.54895,down
526071,4.265625,8.480469,-3.082031,0.080078,0.005859,-0.085937,0.1828,-0.093323,-0.810303,-0.54895,down
526076,4.265625,8.554688,-3.082031,0.044922,-0.033203,-0.125,0.182617,-0.092407,-0.810547,-0.548767,down
526081,4.265625,8.554688,-3.003906,-0.003906,-0.068359,-0.130859,0.182434,-0.092041,-0.810608,-0.548767,down
526086,4.265625,8.554688,-3.082031,-0.003906,-0.068359,-0.130859,0.18219,-0.091675,-0.810669,-0.548767,down
526091,4.265625,8.554688,-3.003906,-0.064453,-0.091797,-0.134766,0.18219,-0.091675,-0.810669,-0.548767,down
526096,4.226562,8.519531,-3.003906,-0.085937,-0.099609,-0.125,0.181885,-0.091309,-0.81073,-0.548889,down
526101,4.226562,8.476563,-3.003906,-0.085937,-0.099609,-0.125,0.181396,-0.090759,-0.810669,-0.549255,down
526106,4.226562,8.476563,-3.042969,-0.085937,-0.099609,-0.125,0.181091,-0.090515,-0.810608,-0.549438,down
526111,4.265625,8.4375,-3.117188,-0.085937,-0.099609,-0.125,0.181091,-0.090515,-0.810608,-0.549438,down
526116,4.226562,8.441406,-3.117188,-0.119141,-0.095703,-0.105469,0.180603,-0.090027,-0.810486,-0.549927,down
526121,4.1875,8.441406,-3.15625,-0.119141,-0.095703,-0.105469,0.18042,-0.089844,-0.810425,-0.55011,down
526126,4.1875,8.441406,-3.15625,-0.052734,-0.046875,-0.046875,0.18042,-0.089844,-0.810425,-0.55011,down
526131,4.1875,8.359375,-3.15625,-0.013672,-0.029297,-0.03125,0.180359,-0.089661,-0.810364,-0.550232,down
526137,4.109375,8.402344,-3.15625,-0.013672,-0.029297,-0.03125,0.180359,-0.089233,-0.810425,-0.550232,down
526143,4.109375,8.324219,-3.082031,-0.013672,-0.029297,-0.03125,0.18042,-0.088989,-0.810486,-0.550171,down
526150,4.074219,8.363281,-3.117188,0.070312,0.017578,0.001953,0.18042,-0.088989,-0.810486,-0.550171,down
526155,4.074219,8.292969,-3.003906,0.099609,0.037109,0.017578,0.18042,-0.088989,-0.810486,-0.550171,down
526160,4.035156,8.289063,-3.003906,0.117188,0.039063,0.03125,0.18042,-0.088989,-0.810486,-0.550171,down
526165,4.035156,8.292969,-2.890625,0.125,0.056641,0.029297,0.18042,-0.088989,-0.810486,-0.550171,down
526171,3.957031,8.289063,-2.8125,0.132812,0.058594,0.03125,0.18042,-0.088989,-0.810486,-0.550171,down
526176,3.957031,8.289063,-2.8125,0.132812,0.058594,0.03125,0.18219,-0.087341,-0.811462,-0.54834,down
526181,3.917969,8.253906,-2.773438,0.121094,0.041016,0.025391,0.18219,-0.087341,-0.811462,-0.54834,down
526186,3.917969,8.214844,-2.734375,0.121094,0.041016,0.025391,0.182434,-0.087097,-0.811646,-0.548096,down
526191,3.882813,8.175781,-2.660156,0.103516,0.029297,0.029297,0.182434,-0.087097,-0.811646,-0.548096,down
526196,3.882813,8.09375,-2.660156,0.103516,0.029297,0.029297,0.183044,-0.086426,-0.812012,-0.547363,down
526201,3.84375,8.097656,-2.699219,0.060547,-0.009766,-0.013672,0.183044,-0.086426,-0.812012,-0.547363,down
526206,3.882813,8.136719,-2.699219,0.060547,-0.009766,-0.013672,0.183105,-0.086243,-0.812134,-0.547241,down
526211,3.84375,8.171875,-2.699219,0.060547,-0.009766,-0.013672,0.183167,-0.085999,-0.812256,-0.547119,down
526216,3.84375,8.171875,-2.773438,0.013672,-0.044922,-0.037109,0.183167,-0.085815,-0.812317,-0.546997,down
526221,3.84375,8.136719,-2.773438,0.013672,-0.044922,-0.037109,0.183167,-0.085632,-0.812378,-0.546936,down
526226,3.84375,8.175781,-2.851563,0.013672,-0.044922,-0.037109,0.183105,-0.085388,-0.812439,-0.546936,down
526231,3.882813,8.175781,-2.851563,0.013672,-0.044922,-0.037109,0.182983,-0.085205,-0.812439,-0.546936,down
526236,3.882813,8.175781,-2.851563,-0.019531,-0.066406,-0.087891,0.182983,-0.085205,-0.812439,-0.546936,down
526241,3.917969,8.175781,-2.851563,-0.019531,-0.066406,-0.087891,0.182739,-0.084717,-0.8125,-0.547058,down
526246,3.84375,8.175781,-2.851563,-0.019531,-0.066406,-0.087891,0.182556,-0.084473,-0.812561,-0.547058,down
526251,3.882813,8.132813,-2.851563,-0.019531,-0.070312,-0.09375,0.182434,-0.08429,-0.812561,-0.547119,down
526256,3.882813,8.132813,-2.851563,-0.019531,-0.070312,-0.09375,0.18219,-0.083984,-0.812622,-0.54718,down
526261,3.917969,8.136719,-2.890625,-0.005859,-0.064453,-0.099609,0.182007,-0.08374,-0.812683,-0.54718,down
526266,3.917969,8.136719,-2.890625,-0.009766,-0.0625,-0.107422,0.181824,-0.083496,-0.812683,-0.547241,down
526271,3.882813,8.214844,-2.925781,-0.007813,-0.068359,-0.115234,0.181641,-0.083252,-0.812744,-0.547241,down
526276,3.917969,8.25,-2.964844,-0.007813,-0.068359,-0.115234,0.181396,-0.082947,-0.812805,-0.547302,down
526281,3.882813,8.25,-3.003906,-0.007813,-0.068359,-0.115234,0.18103,-0.082336,-0.812927,-0.547363,down
526286,3.917969,8.359375,-3.117188,-0.007813,-0.068359,-0.115234,0.18103,-0.082336,-0.812927,-0.547363,down
526291,3.917969,8.363281,-3.082031,-0.013672,-0.044922,-0.130859,0.180847,-0.082031,-0.812927,-0.547424,down
526296,3.957031,8.4375,-3.042969,-0.013672,-0.044922,-0.130859,0.180664,-0.081665,-0.812988,-0.547485,down
526301,3.917969,8.476563,-3.042969,-0.013672,-0.044922,-0.130859,0.180481,-0.08136,-0.813049,-0.547546,down
526307,3.957031,8.519531,-3.082031,-0.033203,-0.042969,-0.134766,0.180481,-0.08136,-0.813049,-0.547546,down
526312,3.917969,8.519531,-3.082031,-0.033203,-0.042969,-0.134766,0.179871,-0.080322,-0.813049,-0.547852,down
526317,3.957031,8.558594,-3.082031,-0.033203,-0.042969,-0.134766,0.179626,-0.080017,-0.813049,-0.547913,down
526322,3.996094,8.558594,-3.082031,-0.033203,-0.042969,-0.134766,0.179443,-0.079773,-0.813049,-0.548035,down
526327,3.996094,8.554688,-3.117188,-0.044922,-0.072266,-0.103516,0.179199,-0.079529,-0.813049,-0.548157,down
526332,3.957031,8.554688,-3.15625,-0.044922,-0.072266,-0.103516,0.179199,-0.079529,-0.813049,-0.548157,down
526337,3.957031,8.554688,-3.15625,-0.041016,-0.066406,-0.080078,0.178772,-0.079163,-0.813049,-0.54834,down
526342,3.957031,8.554688,-3.15625,-0.041016,-0.060547,-0.070312,0.178772,-0.079163,-0.813049,-0.54834,down
526347,3.996094,8.519531,-3.082031,-0.041016,-0.060547,-0.070312,0.178467,-0.078857,-0.813049,-0.548523,down
526352,3.996094,8.515625,-3.117188,-0.041016,-0.060547,-0.070312,0.178284,-0.078674,-0.813049,-0.548584,down
526357,3.957031,8.441406,-3.15625,-0.041016,-0.060547,-0.070312,0.178223,-0.078491,-0.813049,-0.548645,down
526363,3.957031,8.398438,-3.117188,-0.041016,-0.060547,-0.070312,0.17804,-0.078308,-0.813049,-0.548706,down
526368,3.917969,8.4375,-3.082031,-0.017578,-0.044922,-0.060547,0.177917,-0.078186,-0.81311,-0.548706,down
526373,3.917969,8.363281,-3.042969,-0.017578,-0.044922,-0.060547,0.177917,-0.078186,-0.81311,-0.548706,down
526378,3.917969,8.363281,-3.042969,-0.029297,-0.035156,-0.052734,0.177917,-0.078186,-0.81311,-0.548706,down
526383,3.882813,8.320313,-2.964844,-0.029297,-0.035156,-0.052734,0.177917,-0.078186,-0.81311,-0.548706,down
526389,3.882813,8.363281,-3.003906,-0.017578,-0.023437,-0.068359,0.177917,-0.078186,-0.81311,-0.548706,down
526394,3.84375,8.320313,-2.964844,-0.017578,-0.025391,-0.072266,0.177917,-0.078186,-0.81311,-0.548706,down
526400,3.882813,8.363281,-3.003906,-0.023437,-0.027344,-0.074219,0.177917,-0.078186,-0.81311,-0.548706,down
526405,3.84375,8.320313,-3.003906,-0.025391,-0.025391,-0.072266,0.177917,-0.078186,-0.81311,-0.548706,down
526411,3.84375,8.289063,-2.964844,-0.025391,-0.025391,-0.072266,0.177917,-0.078186,-0.81311,-0.548706,down
526416,3.882813,8.25,-2.964844,-0.037109,-0.035156,-0.080078,0.177917,-0.078186,-0.81311,-0.548706,down
526421,3.882813,8.292969,-2.925781,-0.037109,-0.035156,-0.080078,0.177063,-0.076111,-0.813049,-0.549377,down
526426,3.84375,8.25,-2.964844,-0.037109,-0.035156,-0.080078,0.17688,-0.075867,-0.813049,-0.549438,down
526431,3.882813,8.289063,-3.003906,-0.037109,-0.035156,-0.080078,0.176758,-0.075684,-0.813049,-0.549561,down
526437,3.84375,8.289063,-3.003906,-0.037109,-0.050781,-0.087891,0.176758,-0.075684,-0.813049,-0.549561,down
526442,3.84375,8.289063,-2.964844,-0.037109,-0.050781,-0.087891,0.17627,-0.075134,-0.812988,-0.549866,down
526447,3.84375,8.292969,-2.925781,-0.037109,-0.050781,-0.087891,0.176086,-0.074951,-0.812988,-0.549927,down
526452,3.84375,8.25,-2.964844,-0.037109,-0.056641,-0.068359,0.175903,-0.074829,-0.812988,-0.550049,down
526457,3.804688,8.210938,-2.925781,-0.037109,-0.056641,-0.068359,0.175781,-0.074707,-0.812927,-0.55011,down
526462,3.804688,8.175781,-2.925781,-0.035156,-0.060547,-0.066406,0.175598,-0.074585,-0.812927,-0.550171,down
526468,3.804688,8.214844,-2.964844,-0.035156,-0.060547,-0.066406,0.175476,-0.074463,-0.812927,-0.550293,down
526473,3.804688,8.171875,-3.003906,-0.017578,-0.054687,-0.066406,0.175476,-0.074463,-0.812927,-0.550293,down
526478,3.804688,8.214844,-3.003906,-0.001953,-0.052734,-0.070312,0.175476,-0.074463,-0.812927,-0.550293,down
526483,3.765625,8.214844,-2.964844,-0.001953,-0.052734,-0.070312,0.175049,-0.073975,-0.813049,-0.550354,down
526488,3.765625,8.253906,-2.964844,-0.001953,-0.052734,-0.070312,0.175049,-0.073975,-0.813049,-0.550354,down
526494,3.726563,8.253906,-2.925781,0.003906,-0.050781,-0.097656,0.174683,-0.073547,-0.81311,-0.550415,down
526499,3.765625,8.324219,-2.964844,0.001953,-0.052734,-0.111328,0.174683,-0.073547,-0.81311,-0.550415,down
526504,3.726563,8.289063,-2.964844,-0.013672,-0.056641,-0.119141,0.174683,-0.073547,-0.81311,-0.550415,down
526509,3.726563,8.25,-3.003906,-0.033203,-0.0625,-0.134766,0.174683,-0.073547,-0.81311,-0.550415,down
526515,3.726563,8.289063,-3.003906,-0.050781,-0.056641,-0.140625,0.174683,-0.073547,-0.81311,-0.550415,down
526521,3.726563,8.320313,-3.003906,-0.050781,-0.056641,-0.140625,0.174683,-0.073547,-0.81311,-0.550415,down
526527,3.691406,8.324219,-3.003906,-0.064453,-0.072266,-0.154297,0.174683,-0.073547,-0.81311,-0.550415,down
526532,3.652344,8.363281,-3.003906,-0.064453,-0.072266,-0.154297,0.172974,-0.071594,-0.813171,-0.551086,down
526538,3.613281,8.324219,-2.925781,-0.064453,-0.072266,-0.154297,0.172302,-0.071106,-0.81311,-0.551453,down
526544,3.613281,8.292969,-2.890625,-0.0625,-0.101563,-0.158203,0.171936,-0.070862,-0.81311,-0.551636,down
526549,3.574219,8.292969,-2.851563,-0.060547,-0.115234,-0.162109,0.17157,-0.070618,-0.81311,-0.551819,down
526554,3.535156,8.175781,-2.851563,-0.060547,-0.115234,-0.162109,0.17157,-0.070618,-0.81311,-0.551819,down
526560,3.496094,8.175781,-2.851563,-0.056641,-0.130859,-0.167969,0.17157,-0.070618,-0.81311,-0.551819,down
526565,3.460938,8.171875,-2.890625,-0.050781,-0.140625,-0.173828,0.17157,-0.070618,-0.81311,-0.551819,down
526570,3.460938,8.132813,-2.851563,-0.042969,-0.150391,-0.185547,0.17157,-0.070618,-0.81311,-0.551819,down
526575,3.421875,8.132813,-2.773438,-0.042969,-0.150391,-0.185547,0.17157,-0.070618,-0.81311,-0.551819,down
526581,3.34375,8.09375,-2.8125,-0.042969,-0.150391,-0.185547,0.168701,-0.069153,-0.813232,-0.552673,down
526587,3.34375,8.136719,-2.773438,-0.060547,-0.162109,-0.232422,0.16748,-0.068542,-0.813293,-0.55304,down
526592,3.269531,8.054688,-2.734375,-0.060547,-0.162109,-0.232422,0.16687,-0.068176,-0.813293,-0.553284,down
526597,3.230469,8.058594,-2.734375,-0.060547,-0.162109,-0.232422,0.166138,-0.06781,-0.813232,-0.553528,down
526602,3.230469,8.019531,-2.699219,-0.060547,-0.162109,-0.232422,0.166138,-0.06781,-0.813232,-0.553528,down
526607,3.113281,7.9375,-2.699219,-0.107422,-0.169922,-0.285156,0.166138,-0.06781,-0.813232,-0.553528,down
526612,3.113281,7.910156,-2.621094,-0.107422,-0.169922,-0.285156,0.16394,-0.066589,-0.813171,-0.554443,down
526617,3.039063,7.871094,-2.621094,-0.107422,-0.183594,-0.3125,0.16394,-0.066589,-0.813171,-0.554443,down
526622,3.0,7.871094,-2.582031,-0.107422,-0.183594,-0.3125,0.162415,-0.065735,-0.813171,-0.555054,down
526627,2.960938,7.871094,-2.542969,-0.107422,-0.183594,-0.3125,0.161621,-0.065308,-0.813171,-0.555298,down
526632,2.808594,7.828125,-2.429688,-0.068359,-0.242187,-0.333984,0.161621,-0.065308,-0.813171,-0.555298,down
526637,2.769531,7.789062,-2.390625,-0.068359,-0.242187,-0.333984,0.160645,-0.06488,-0.813232,-0.555542,down
526642,2.695313,7.75,-2.351563,-0.03125,-0.306641,-0.355469,0.160645,-0.06488,-0.813232,-0.555542,down
526648,2.539063,7.632812,-2.199219,-0.03125,-0.306641,-0.355469,0.157654,-0.063782,-0.813599,-0.55603,down
526653,2.308594,7.488281,-2.007813,-0.03125,-0.306641,-0.355469,0.156372,-0.063416,-0.813782,-0.556091,down
526658,2.308594,7.488281,-2.007813,0.013672,-0.435547,-0.402344,0.155151,-0.06311,-0.814026,-0.556152,down
526663,2.195313,7.367187,-1.96875,0.017578,-0.492187,-0.435547,0.153687,-0.062805,-0.81427,-0.556213,down
526668,2.042969,7.292969,-1.855469,0.017578,-0.544922,-0.470703,0.152039,-0.0625,-0.814575,-0.556274,down
526674,1.699219,6.984375,-1.546875,0.017578,-0.544922,-0.470703,0.150024,-0.062195,-0.814941,-0.556335,down
526679,1.621094,6.910156,-1.472656,0.017578,-0.544922,-0.470703,0.148132,-0.06189,-0.815308,-0.556396,down
526685,1.351563,6.679687,-1.28125,0.017578,-0.544922,-0.470703,0.146057,-0.061523,-0.815613,-0.556458,down
526691,1.160156,6.566406,-1.164063,-0.03125,-0.8125,-0.714844,0.146057,-0.061523,-0.815613,-0.556458,down
526697,0.738281,6.332031,-1.011719,-0.060547,-0.884766,-0.808594,0.146057,-0.061523,-0.815613,-0.556458,down
526702,0.585937,6.21875,-0.9375,-0.060547,-0.884766,-0.808594,0.137817,-0.060242,-0.81665,-0.55719,down
526707,0.394531,6.023437,-0.78125,-0.203125,-1.148438,-1.111328,0.137817,-0.060242,-0.81665,-0.55719,down
526712,0.242187,5.914062,-0.707031,-0.203125,-1.148438,-1.111328,0.130554,-0.05896,-0.817261,-0.558167,down
526717,-0.101563,5.605469,-0.550781,-0.203125,-1.148438,-1.111328,0.126343,-0.058228,-0.817505,-0.558899,down
526722,-0.257813,5.492187,-0.476562,-0.203125,-1.148438,-1.111328,0.117126,-0.05658,-0.81781,-0.560608,down
526727,-0.371094,5.375,-0.4375,-0.203125,-1.148438,-1.111328,0.117126,-0.05658,-0.81781,-0.560608,down
526732,-0.601562,5.070312,-0.324219,-0.46875,-1.576172,-1.589844,0.117126,-0.05658,-0.81781,-0.560608,down
526737,-0.601562,5.070312,-0.324219,-0.46875,-1.576172,-1.589844,0.099854,-0.053467,-0.817688,-0.564392,down
526742,-0.867187,4.957031,-0.285156,-0.71875,-1.923828,-2.003906,0.099854,-0.053467,-0.817688,-0.564392,down
526747,-0.867187,4.957031,-0.285156,-0.71875,-1.923828,-2.003906,0.093628,-0.052307,-0.817444,-0.565918,down
526752,-1.023438,4.917969,-0.285156,-0.800781,-2.037109,-2.15625,0.093628,-0.052307,-0.817444,-0.565918,down
526757,-1.023438,4.917969,-0.285156,-0.859375,-2.146484,-2.326172,0.079224,-0.0495,-0.81665,-0.569519,down
526762,-1.253906,4.917969,-0.550781,-0.859375,-2.146484,-2.326172,0.071289,-0.047852,-0.81604,-0.571533,down
526767,-1.40625,4.726562,-0.667969,-0.859375,-2.146484,-2.326172,0.053772,-0.044067,-0.814453,-0.576111,down
526772,-1.558594,4.574219,-0.742187,-0.859375,-2.146484,-2.326172,0.053772,-0.044067,-0.814453,-0.576111,down
526777,-1.710938,4.492187,-0.78125,-0.859375,-2.146484,-2.326172,0.042725,-0.041565,-0.813171,-0.578979,down
526783,-1.75,4.492187,-0.859375,-1.337891,-2.757813,-3.345703,0.042725,-0.041565,-0.813171,-0.578979,down
526788,-1.941406,4.53125,-0.9375,-1.337891,-2.757813,-3.345703,0.013306,-0.033997,-0.809204,-0.586365,down
526794,-2.285156,5.03125,-1.242188,-1.337891,-2.757813,-3.345703,0.001038,-0.030518,-0.807373,-0.589233,down
526799,-2.402344,5.261719,-1.320313,-1.445313,-3.001953,-3.935547,0.009644,0.027405,0.805664,0.591614,down
526804,-2.402344,5.261719,-1.320313,-1.492188,-3.091797,-4.150391,0.021667,0.023682,0.80365,0.594238,down
526809,-2.746094,5.601562,-1.664063,-1.492188,-3.091797,-4.150391,0.021667,0.023682,0.80365,0.594238,down
526814,-2.746094,5.601562,-1.664063,-1.558594,-3.173828,-4.369141,0.047729,0.015259,0.798828,0.599426,down
526819,-3.242188,5.875,-1.855469,-1.558594,-3.173828,-4.369141,0.06134,0.010681,0.796021,0.602051,down
526825,-3.703125,6.105469,-2.007813,-1.558594,-3.173828,-4.369141,0.06134,0.010681,0.796021,0.602051,down
526831,-3.894531,6.105469,-2.007813,-1.806641,-3.53125,-5.244141,0.06134,0.010681,0.796021,0.602051,down
526837,-4.277344,6.066406,-2.125,-1.773438,-3.716797,-5.609375,0.06134,0.010681,0.796021,0.602051,down
526842,-4.625,6.179687,-2.125,-1.773438,-3.716797,-5.609375,0.121216,-0.011047,0.78186,0.61145,down
526848,-5.425781,5.988281,-1.777344,-1.671875,-3.835938,-5.775391,0.153381,-0.022949,0.773621,0.61438,down
526853,-5.734375,5.757812,-1.738281,-1.585938,-4.009766,-6.154297,0.153381,-0.022949,0.773621,0.61438,down
526858,-5.773437,6.105469,-1.855469,-1.585938,-4.009766,-6.154297,0.18927,-0.036316,0.763916,0.615906,down
526863,-5.964844,6.640625,-1.96875,-1.585938,-4.009766,-6.154297,0.205139,-0.042297,0.75946,0.615906,down
526868,-5.964844,6.640625,-1.96875,-1.585938,-4.009766,-6.154297,0.205139,-0.042297,0.75946,0.615906,down
526873,-6.769531,6.601562,-1.894531,-1.267578,-4.275391,-6.521484,0.205139,-0.042297,0.75946,0.615906,down
526878,-6.769531,7.371094,-1.894531,-1.195313,-4.324219,-6.566406,0.241089,-0.055359,0.749084,0.614563,down
526883,-7.417969,8.402344,-1.664063,-1.050781,-4.521484,-6.578125,0.258911,-0.061646,0.743652,0.613281,down
526889,-8.453125,8.859375,-1.472656,-1.050781,-4.521484,-6.578125,0.295471,-0.073792,0.73175,0.609741,down
526895,-8.683594,8.9375,-1.585938,-1.390625,-4.476562,-6.599609,0.295471,-0.073792,0.73175,0.609741,down
526900,-9.027344,8.863281,-1.96875,-1.390625,-4.476562,-6.599609,0.330688,-0.086304,0.718018,0.606384,down
526905,-9.027344,8.863281,-1.96875,-1.390625,-4.476562,-6.599609,0.330688,-0.086304,0.718018,0.606384,down
526910,-9.027344,8.863281,-1.96875,-2.166016,-4.238281,-6.568359,0.365112,-0.10022,0.701538,0.60376,down
526915,-10.105469,8.707031,-2.390625,-2.367188,-4.285156,-6.517578,0.381592,-0.107239,0.692566,0.602722,down
526920,-10.105469,8.671875,-2.125,-2.367188,-4.285156,-6.517578,0.381592,-0.107239,0.692566,0.602722,down
526926,-9.867188,8.671875,-1.777344,-2.8125,-4.474609,-6.291016,0.41449,-0.121277,0.672241,0.601318,down
526931,-9.949219,8.515625,-1.433594,-3.033203,-4.46875,-6.130859,0.41449,-0.121277,0.672241,0.601318,down
526936,-10.023438,8.058594,-0.972656,-3.216797,-4.367187,-5.908203,0.41449,-0.121277,0.672241,0.601318,down
526941,-10.25,7.867187,-0.78125,-3.216797,-4.367187,-5.908203,0.460083,-0.141296,0.637817,0.601257,down
526947,-10.25,7.867187,-0.78125,-3.238281,-4.068359,-5.390625,0.473633,-0.147644,0.62616,0.601501,down
526952,-10.523438,7.558594,-0.550781,-3.039063,-4.005859,-5.130859,0.473633,-0.147644,0.62616,0.601501,down
526957,-10.523438,7.558594,-0.550781,-2.710938,-4.076172,-4.84375,0.499329,-0.158691,0.603149,0.60144,down
526962,-10.675781,6.984375,0.671875,-2.710938,-4.076172,-4.84375,0.511902,-0.16272,0.591919,0.600952,down
526968,-10.832031,6.410156,1.824219,-2.710938,-4.076172,-4.84375,0.535889,-0.166931,0.571289,0.598816,down
526973,-11.289063,6.371094,2.128906,-2.710938,-4.076172,-4.84375,0.548523,-0.167419,0.561035,0.596924,down
526978,-11.519531,6.601562,2.167969,-0.322266,-4.378906,-3.421875,0.548523,-0.167419,0.561035,0.596924,down
526983,-11.597656,6.871094,2.015625,-0.322266,-4.378906,-3.421875,0.569946,-0.164795,0.545349,0.592102,down
526988,-11.59375,7.367187,1.554688,-0.322266,-4.378906,-3.421875,0.5802,-0.161499,0.538574,0.589233,down
526993,-11.632813,7.40625,1.441406,1.060547,-4.978516,-2.410156,0.5802,-0.161499,0.538574,0.589233,down
526998,-11.78125,7.101562,1.554688,1.060547,-4.978516,-2.410156,0.591675,-0.156189,0.53125,0.585937,down
527003,-11.710938,7.136719,1.707031,1.455078,-5.546875,-1.755859,0.591675,-0.156189,0.53125,0.585937,down
527008,-11.359375,7.789062,2.089844,1.455078,-5.546875,-1.755859,0.612061,-0.142761,0.517822,0.580383,down
527013,-10.59375,7.675781,3.621094,1.5625,-5.90625,-1.46875,0.622192,-0.134338,0.510681,0.577942,down
527018,-10.59375,7.675781,3.621094,1.673828,-6.085937,-1.298828,0.632202,-0.125,0.503235,0.575684,down
527023,-8.070313,8.402344,6.917969,1.673828,-6.085937,-1.298828,0.641907,-0.115295,0.495789,0.573425,down
527028,-7.113281,8.519531,8.066406,1.673828,-6.085937,-1.298828,0.6604,-0.095825,0.481262,0.56842,down
527033,-6.804687,8.320313,7.796875,1.255859,-3.695313,-1.039063,0.6604,-0.095825,0.481262,0.56842,down
527038,-7.226562,7.632812,6.417969,1.003906,-3.230469,-0.947266,0.667175,-0.088867,0.476135,0.565979,down
527043,-7.609375,6.832031,5.117187,1.003906,-3.230469,-0.947266,0.677734,-0.078613,0.467712,0.561829,down
527048,-7.648437,6.753906,4.808594,1.003906,-3.230469,-0.947266,0.677734,-0.078613,0.467712,0.561829,down
527053,-7.382812,7.101562,5.347656,1.003906,-3.230469,-0.947266,0.688049,-0.068237,0.458496,0.558289,down
527058,-7.191406,7.253906,5.84375,1.003906,-3.230469,-0.947266,0.688049,-0.068237,0.458496,0.558289,down
527063,-7.417969,7.40625,5.578125,1.003906,-3.230469,-0.947266,0.692749,-0.063232,0.454468,0.556396,down
527068,-7.726562,7.867187,5.269531,1.078125,-2.714844,-0.802734,0.701111,-0.054077,0.447937,0.552124,down
527073,-7.765625,8.132813,5.117187,1.15625,-2.638672,-0.804687,0.701111,-0.054077,0.447937,0.552124,down
527078,-7.382812,8.324219,5.769531,1.246094,-2.632813,-0.837891,0.705811,-0.048767,0.444458,0.549438,down
527083,-7.152344,8.398438,6.152344,1.246094,-2.632813,-0.837891,0.709778,-0.044189,0.441528,0.547058,down
527088,-6.652344,8.554688,6.417969,1.246094,-2.632813,-0.837891,0.718201,-0.034241,0.435608,0.541504,down
527093,-6.730469,8.742188,6.304687,1.431641,-2.439453,-0.837891,0.718201,-0.034241,0.435608,0.541504,down
527098,-6.921875,8.707031,6.226562,1.431641,-2.439453,-0.837891,0.726074,-0.024231,0.430298,0.535767,down
527103,-6.5,8.632813,6.574219,1.109375,-2.621094,-0.625,0.726074,-0.024231,0.430298,0.535767,down
527108,-6.5,8.632813,6.574219,1.109375,-2.621094,-0.625,0.730103,-0.018921,0.427002,0.533142,down
527113,-6.039062,8.476563,6.992187,0.851562,-2.677734,-0.511719,0.730103,-0.018921,0.427002,0.533142,down
527118,-6.039062,8.476563,6.992187,0.548828,-2.630859,-0.404297,0.737061,-0.010071,0.419678,0.529602,down
527123,-4.929687,7.910156,7.300781,0.548828,-2.630859,-0.404297,0.740417,-0.006165,0.415222,0.528503,down
527129,-4.699219,7.714844,7.148437,-0.117188,-2.542969,-0.152344,0.746521,0.000183,0.404968,0.527954,down
527134,-5.042969,7.410156,6.34375,-0.117188,-2.542969,-0.152344,0.748962,0.002502,0.400085,0.528198,down
527140,-5.464844,6.789062,6.574219,-0.117188,-2.542969,-0.152344,0.751099,0.004578,0.395386,0.528687,down
527145,-5.464844,6.789062,6.574219,-0.533203,-2.408203,0.195312,0.753479,0.00708,0.389832,0.529358,down
527150,-5.390625,6.488281,6.800781,-0.533203,-2.408203,0.195312,0.755493,0.009521,0.384888,0.53009,down
527155,-5.121094,6.5625,6.917969,-0.533203,-2.408203,0.195312,0.755493,0.009521,0.384888,0.53009,down
527161,-4.929687,6.679687,7.113281,-0.273438,-2.542969,0.353516,0.755493,0.009521,0.384888,0.53009,down
527166,-4.890625,6.679687,7.222656,-0.130859,-2.556641,0.380859,0.755493,0.009521,0.384888,0.53009,down
527171,-4.738281,7.105469,6.992187,-0.130859,-2.556641,0.380859,0.755493,0.009521,0.384888,0.53009,down
527177,-4.546875,7.484375,6.839844,-0.130859,-2.556641,0.380859,0.765503,0.026733,0.359436,0.53302,down
527183,-4.394531,7.597656,6.839844,0.236328,-2.441406,0.4375,0.765503,0.026733,0.359436,0.53302,down
527188,-4.394531,7.597656,6.839844,0.236328,-2.441406,0.4375,0.769043,0.035095,0.350281,0.533508,down
527193,-4.125,7.714844,7.261719,0.236328,-2.441406,0.4375,0.769043,0.035095,0.350281,0.533508,down
527198,-3.820313,7.714844,7.300781,0.021484,-2.275391,0.460937,0.769043,0.035095,0.350281,0.533508,down
527204,-3.472656,7.289062,7.1875,-0.103516,-2.132813,0.476562,0.774597,0.049011,0.332764,0.535645,down
527210,-3.855469,6.371094,7.800781,-0.103516,-2.132813,0.476562,0.775635,0.051697,0.328491,0.53656,down
527215,-3.855469,6.179687,7.796875,-0.119141,-1.863281,0.662109,0.775635,0.051697,0.328491,0.53656,down
527220,-4.085937,6.105469,7.683594,-0.021484,-1.816406,0.744141,0.775635,0.051697,0.328491,0.53656,down
527225,-4.125,6.027344,7.957031,-0.021484,-1.816406,0.744141,0.775635,0.051697,0.328491,0.53656,down
527230,-4.125,6.027344,7.957031,0.423828,-1.880859,0.880859,0.775635,0.051697,0.328491,0.53656,down
527235,-3.894531,6.449219,8.066406,0.423828,-1.880859,0.880859,0.775635,0.051697,0.328491,0.53656,down
527240,-3.703125,6.71875,8.0625,0.423828,-1.880859,0.880859,0.775635,0.051697,0.328491,0.53656,down
527245,-3.703125,6.71875,8.0625,0.423828,-1.880859,0.880859,0.77887,0.078979,0.304993,0.542297,down
527251,-3.511719,6.410156,8.105469,0.423828,-1.880859,0.880859,0.77887,0.078979,0.304993,0.542297,down
527257,-3.550781,6.21875,7.761719,1.380859,-1.919922,0.943359,0.77887,0.078979,0.304993,0.542297,down
527262,-2.976563,7.023437,8.988281,1.380859,-1.919922,0.943359,0.779175,0.09668,0.298218,0.542786,down
527267,-3.703125,6.179687,6.914062,1.558594,-1.742188,1.007813,0.779175,0.09668,0.298218,0.542786,down
527272,-3.628906,6.832031,6.800781,1.296875,-1.833984,1.009766,0.779175,0.09668,0.298218,0.542786,down
527277,-3.742188,7.171875,6.917969,1.296875,-1.833984,1.009766,0.778564,0.114929,0.292236,0.543335,down
527282,-2.976563,6.257812,7.074219,1.296875,-1.833984,1.009766,0.778564,0.114929,0.292236,0.543335,down
527287,-2.976563,6.257812,7.074219,0.476562,-1.994141,1.107422,0.778381,0.125183,0.286133,0.544556,down
527292,-2.898438,6.066406,7.191406,0.357422,-2.009766,1.130859,0.77832,0.129578,0.282471,0.545532,down
527297,-2.898438,6.066406,7.191406,0.207031,-1.958984,1.144531,0.778259,0.13385,0.278442,0.546692,down
527302,-1.902344,5.914062,7.21875,0.207031,-1.958984,1.144531,0.778137,0.137512,0.274475,0.547974,down
527307,-1.445313,5.492187,7.070312,0.207031,-1.958984,1.144531,0.777893,0.140991,0.270386,0.549438,down
527312,-1.519531,5.300781,7.109375,-0.132812,-1.648438,1.210938,0.777893,0.140991,0.270386,0.549438,down
527317,-2.132813,4.6875,7.417969,-0.132812,-1.648438,1.210938,0.777893,0.140991,0.270386,0.549438,down
527323,-2.476563,4.378906,7.417969,-0.132812,-1.648438,1.210938,0.776733,0.149902,0.259033,0.554199,down
527328,-2.824219,4.304687,7.640625,0.199219,-1.447266,1.183594,0.775574,0.156372,0.252991,0.556763,down
527333,-3.015625,4.457031,8.140625,0.199219,-1.447266,1.183594,0.775574,0.156372,0.252991,0.556763,down
527338,-2.976563,4.609375,8.261719,0.199219,-1.447266,1.183594,0.774963,0.160278,0.250244,0.557739,down
527343,-2.859375,4.878906,8.40625,0.708984,-1.613281,1.125,0.774963,0.160278,0.250244,0.557739,down
527348,-2.554688,5.03125,8.375,0.798828,-1.685547,1.068359,0.773254,0.173767,0.24231,0.559631,down
527353,-1.863281,5.300781,7.875,0.798828,-1.685547,1.068359,0.773254,0.173767,0.24231,0.559631,down
527358,-1.597656,5.605469,7.71875,0.798828,-1.685547,1.068359,0.772705,0.178894,0.239502,0.559937,down
527364,-1.445313,5.757812,7.605469,0.720703,-1.464844,0.662109,0.772705,0.178894,0.239502,0.559937,down
527369,-1.097656,5.949219,7.574219,0.720703,-1.464844,0.662109,0.772095,0.190796,0.232727,0.559753,down
527374,-1.136719,5.949219,7.800781,0.720703,-1.464844,0.662109,0.772034,0.19458,0.230591,0.559387,down
527379,-1.058594,5.796875,7.984375,0.580078,-1.154297,0.384766,0.772034,0.19458,0.230591,0.559387,down
527384,-1.097656,5.796875,8.296875,0.580078,-1.154297,0.384766,0.772278,0.200623,0.227234,0.55835,down
527389,-1.289063,5.683594,9.140625,0.580078,-1.154297,0.384766,0.772278,0.200623,0.227234,0.55835,down
527394,-1.289063,5.683594,9.140625,0.65625,-1.080078,0.283203,0.772461,0.203613,0.225769,0.557617,down
527399,-1.40625,5.683594,9.105469,0.65625,-1.080078,0.283203,0.772644,0.206665,0.224365,0.556763,down
527404,-1.175781,5.988281,9.140625,0.761719,-1.117188,0.238281,0.772522,0.209717,0.223145,0.556213,down
527409,-1.058594,6.066406,9.214844,0.822266,-1.164063,0.224609,0.772949,0.216675,0.220459,0.554077,down
527414,-0.90625,6.027344,9.328125,0.939453,-1.25,0.171875,0.772949,0.216675,0.220459,0.554077,down
527419,-0.753906,5.949219,9.210938,0.990234,-1.273438,0.144531,0.773193,0.220642,0.218994,0.552734,down
527424,-0.5625,6.027344,8.832031,0.990234,-1.273438,0.144531,0.773682,0.22821,0.216431,0.549988,down
527429,-0.257813,6.066406,8.339844,0.990234,-1.273438,0.144531,0.773682,0.22821,0.216431,0.549988,down
527434,-0.140625,6.105469,8.335938,0.990234,-1.273438,0.144531,0.774048,0.236511,0.213989,0.546936,down
527439,0.050781,6.105469,7.988281,0.990234,-1.273438,0.144531,0.77417,0.240479,0.212952,0.54541,down
527444,-0.066406,6.179687,7.839844,0.990234,-1.273438,0.144531,0.774231,0.244141,0.212158,0.544006,down
527449,-0.101563,6.410156,7.761719,0.990234,-1.273438,0.144531,0.774231,0.244141,0.212158,0.544006,down
527454,-0.21875,6.601562,7.722656,1.208984,-1.107422,0.1875,0.773987,0.252197,0.210571,0.54126,down
527459,-0.410156,6.871094,7.535156,1.208984,-1.107422,0.1875,0.773804,0.256104,0.209656,0.5401,down
527464,-0.332031,6.832031,7.457031,1.208984,-1.107422,0.1875,0.773804,0.256104,0.209656,0.5401,down
527469,-0.21875,6.679687,7.300781,0.714844,-1.050781,0.306641,0.773804,0.256104,0.209656,0.5401,down
527474,-0.066406,6.488281,7.109375,0.556641,-1.035156,0.318359,0.77356,0.262939,0.207214,0.538086,down
527479,0.28125,6.140625,6.835937,0.556641,-1.035156,0.318359,0.773621,0.268372,0.204041,0.53656,down
527484,0.394531,6.027344,6.957031,0.337891,-0.978516,0.316406,0.773621,0.268372,0.204041,0.53656,down
527489,0.433594,5.988281,7.070312,0.337891,-0.978516,0.316406,0.773682,0.270935,0.202148,0.535889,down
527494,0.320313,5.644531,6.691406,0.263672,-0.943359,0.298828,0.773682,0.270935,0.202148,0.535889,down
527499,0.394531,5.492187,6.652344,0.263672,-0.943359,0.298828,0.774109,0.275024,0.198486,0.534485,down
527504,0.472656,5.339844,6.6875,0.263672,-0.943359,0.298828,0.774475,0.276855,0.196472,0.533813,down
527509,0.511719,5.261719,6.6875,0.052734,-0.851562,0.208984,0.77533,0.279785,0.192749,0.53241,down
527514,0.625,5.144531,6.839844,0.052734,-0.851562,0.208984,0.77533,0.279785,0.192749,0.53241,down
527519,0.703125,4.953125,6.652344,-0.046875,-0.777344,0.023437,0.775879,0.280945,0.190979,0.531616,down
527524,0.664062,4.800781,6.457031,-0.046875,-0.777344,0.023437,0.777222,0.283142,0.187439,0.529724,down
527529,0.664062,4.839844,6.453125,-0.046875,-0.777344,0.023437,0.778015,0.284058,0.185852,0.528625,down
527534,0.585937,5.070312,6.230469,-0.046875,-0.777344,0.023437,0.77887,0.284973,0.184448,0.527344,down
527539,0.355469,5.183594,5.886719,-0.046875,-0.777344,0.023437,0.77887,0.284973,0.184448,0.527344,down
527544,0.089844,5.375,5.648437,-0.042969,-0.552734,-0.328125,0.77887,0.284973,0.184448,0.527344,down
527549,0.128906,5.757812,5.691406,-0.042969,-0.552734,-0.328125,0.780762,0.286499,0.182129,0.524536,down
527554,0.28125,5.796875,5.730469,-0.240234,-0.488281,-0.501953,0.781921,0.286987,0.180969,0.522949,down
527559,0.433594,5.71875,5.652344,-0.240234,-0.488281,-0.501953,0.783264,0.287231,0.17981,0.521179,down
527564,0.472656,5.605469,5.613281,-0.240234,-0.488281,-0.501953,0.784668,0.28717,0.178772,0.51947,down
527569,0.394531,5.53125,5.5,-0.480469,-0.294922,-0.710937,0.784668,0.28717,0.178772,0.51947,down
527574,0.433594,5.757812,5.539062,-0.480469,-0.294922,-0.710937,0.787842,0.286194,0.176941,0.515869,down
527579,0.511719,5.878906,5.613281,-0.480469,-0.294922,-0.710937,0.791443,0.284302,0.175171,0.511963,down
527584,0.664062,5.945312,5.652344,-0.480469,-0.294922,-0.710937,0.791443,0.284302,0.175171,0.511963,down
527589,0.777344,5.984375,5.691406,-0.578125,-0.132812,-0.699219,0.791443,0.284302,0.175171,0.511963,down
527594,0.855469,6.449219,5.613281,-0.601562,-0.005859,-0.65625,0.794678,0.282043,0.173889,0.508545,down
527599,0.855469,6.449219,5.613281,-0.644531,0.119141,-0.574219,0.796143,0.280579,0.173523,0.507263,down
527604,0.816406,6.867187,5.613281,-0.644531,0.119141,-0.574219,0.79718,0.278809,0.173401,0.506653,down
527609,-0.484375,7.558594,6.726562,-0.6875,0.353516,-0.28125,0.799133,0.275208,0.173096,0.505676,down
527614,-0.792969,7.636719,7.222656,-0.6875,0.353516,-0.28125,0.799133,0.275208,0.173096,0.505676,down
527619,-1.023438,7.714844,7.148437,-0.605469,0.412109,0.171875,0.799805,0.272156,0.172607,0.506409,down
527624,-1.597656,7.753906,6.957031,-0.605469,0.412109,0.171875,0.799805,0.272156,0.172607,0.506409,down
527629,-1.671875,7.871094,6.957031,-0.443359,0.263672,0.9375,0.799805,0.272156,0.172607,0.506409,down
527634,-1.597656,8.132813,7.222656,-0.443359,0.263672,0.9375,0.79895,0.270081,0.171509,0.509277,down
527639,-0.90625,8.25,7.644531,-0.443359,0.263672,0.9375,0.798096,0.269409,0.170532,0.511292,down
527644,-0.410156,8.136719,7.644531,-0.443359,0.263672,0.9375,0.796143,0.268066,0.167419,0.515991,down
527649,0.128906,7.789062,7.570312,-0.443359,0.263672,0.9375,0.795288,0.26709,0.165466,0.518494,down
527654,0.511719,7.367187,7.457031,-0.443359,0.263672,0.9375,0.795288,0.26709,0.165466,0.518494,down
527659,0.738281,6.910156,7.378906,-1.119141,0.009766,1.189453,0.795288,0.26709,0.165466,0.518494,down
527664,1.542969,5.757812,7.570312,-1.119141,0.009766,1.189453,0.793823,0.264099,0.161011,0.523621,down
527669,1.542969,5.453125,7.839844,-1.119141,0.009766,1.189453,0.793152,0.262268,0.15863,0.526245,down
527674,1.277344,5.070312,7.988281,-1.113281,0.085937,1.005859,0.793152,0.262268,0.15863,0.526245,down
527679,1.199219,4.917969,8.300781,-1.113281,0.085937,1.005859,0.792419,0.258667,0.154419,0.530396,down
527684,1.121094,4.917969,8.523438,-0.943359,-0.025391,0.798828,0.792114,0.256897,0.152283,0.532349,down
527689,1.121094,4.917969,8.523438,-0.943359,-0.025391,0.798828,0.791931,0.255493,0.150452,0.533752,down
527694,0.625,5.261719,8.566406,-0.908203,0.0,0.744141,0.791016,0.252686,0.147156,0.537354,down
527699,0.28125,5.683594,8.71875,-0.908203,0.0,0.744141,0.790649,0.251099,0.145508,0.539185,down
527704,0.546875,5.644531,9.140625,-0.908203,0.0,0.744141,0.790649,0.251099,0.145508,0.539185,down
527709,0.355469,5.566406,9.597656,-1.001953,-0.238281,0.503906,0.790649,0.251099,0.145508,0.539185,down
527714,-0.140625,4.496094,9.597656,-1.001953,-0.238281,0.503906,0.790344,0.248291,0.142029,0.541809,down
527719,0.128906,4.34375,9.410156,-1.001953,-0.238281,0.503906,0.790405,0.24707,0.139771,0.542908,down
527724,0.546875,4.1875,9.101563,-0.757812,-0.527344,0.417969,0.790405,0.24707,0.139771,0.542908,down
527730,0.664062,4.34375,8.679688,-0.494141,-0.539062,0.388672,0.790405,0.24707,0.139771,0.542908,down
527735,0.664062,4.726562,8.566406,-0.494141,-0.539062,0.388672,0.790344,0.245728,0.131042,0.545715,down
527740,0.894531,4.761719,8.605469,-0.363281,-0.564453,0.390625,0.790344,0.245728,0.131042,0.545715,down
527745,1.007813,4.992187,8.5625,-0.363281,-0.564453,0.390625,0.790039,0.246216,0.127441,0.546814,down
527751,0.664062,5.566406,8.339844,-0.363281,-0.564453,0.390625,0.789856,0.246399,0.125793,0.547363,down
527756,0.585937,5.605469,8.339844,-0.404297,-0.46875,0.410156,0.789673,0.246521,0.124146,0.547974,down
527762,0.28125,5.53125,8.183594,-0.464844,-0.509766,0.408203,0.789673,0.246521,0.124146,0.547974,down
527767,0.394531,5.375,8.144531,-0.589844,-0.509766,0.408203,0.789368,0.246399,0.120361,0.549255,down
527772,0.203125,5.183594,8.300781,-0.757812,-0.455078,0.392578,0.789368,0.246399,0.120361,0.549255,down
527778,-0.179687,5.144531,8.339844,-0.882812,-0.441406,0.423828,0.789368,0.246399,0.120361,0.549255,down
527784,-0.066406,5.109375,8.605469,-0.902344,-0.509766,0.484375,0.789368,0.246399,0.120361,0.549255,down
527789,-0.066406,5.300781,8.761719,-0.912109,-0.505859,0.501953,0.789368,0.246399,0.120361,0.549255,down
527795,0.164062,5.03125,9.027344,-0.761719,-0.498047,0.523437,0.789368,0.246399,0.120361,0.549255,down
527800,0.128906,4.992187,9.289063,-0.761719,-0.498047,0.523437,0.789062,0.241394,0.103516,0.555359,down
527805,0.355469,4.570312,9.371094,-0.761719,-0.498047,0.523437,0.789062,0.241394,0.103516,0.555359,down
527810,0.355469,4.570312,9.371094,-0.482422,-0.539062,0.521484,0.788757,0.241211,0.101563,0.556152,down
527815,0.472656,4.648437,9.25,-0.482422,-0.539062,0.521484,0.788391,0.241455,0.09967,0.556946,down
527820,0.738281,4.378906,9.140625,-0.195312,-0.570312,0.501953,0.787964,0.241882,0.0979,0.557678,down
527825,1.199219,4.226562,9.753906,-0.195312,-0.570312,0.501953,0.787109,0.243347,0.094666,0.558777,down
527830,1.351563,4.34375,9.25,-0.011719,-0.486328,0.349609,0.787109,0.243347,0.094666,0.558777,down
527835,1.351563,4.535156,8.679688,-0.050781,-0.425781,0.322266,0.786682,0.244324,0.093201,0.559265,down
527840,1.390625,5.183594,8.867188,-0.050781,-0.425781,0.322266,0.786011,0.245544,0.091003,0.559998,down
527845,1.316406,5.070312,9.144531,-0.050781,-0.425781,0.322266,0.785706,0.245911,0.089844,0.560425,down
527850,1.390625,4.761719,9.144531,-0.314453,-0.267578,0.333984,0.785706,0.245911,0.089844,0.560425,down
527855,1.351563,4.265625,9.027344,-0.314453,-0.267578,0.333984,0.785461,0.245972,0.088562,0.561035,down
527861,1.007813,3.996094,8.984375,-0.314453,-0.267578,0.333984,0.785095,0.245361,0.086548,0.562134,down
527866,0.777344,4.148437,9.292969,-0.429687,-0.107422,0.294922,0.784912,0.244751,0.08551,0.562744,down
527871,0.242187,4.113281,9.675781,-0.367188,-0.140625,0.273438,0.784912,0.244751,0.08551,0.562744,down
527876,-0.140625,3.730469,9.867188,-0.367188,-0.140625,0.273438,0.784607,0.244019,0.083679,0.563782,down
527882,-0.332031,3.882813,9.484375,-0.367188,-0.140625,0.273438,0.784607,0.244019,0.083679,0.563782,down
527887,-0.523437,3.691406,9.25,-0.005859,-0.332031,0.242187,0.784607,0.244019,0.083679,0.563782,down
527893,0.011719,3.539063,8.5625,0.111328,-0.378906,0.230469,0.784607,0.244019,0.083679,0.563782,down
527899,0.203125,3.574219,8.375,0.275391,-0.425781,0.228516,0.784607,0.244019,0.083679,0.563782,down
527904,0.355469,3.730469,8.222656,0.392578,-0.423828,0.205078,0.784607,0.244019,0.083679,0.563782,down
527910,0.546875,4.417969,7.984375,0.486328,-0.384766,0.195312,0.784607,0.244019,0.083679,0.563782,down
527915,0.664062,4.609375,7.878906,0.486328,-0.384766,0.195312,0.782471,0.252625,0.079407,0.563538,down
527920,0.777344,5.109375,7.878906,0.574219,-0.173828,0.179687,0.782471,0.252625,0.079407,0.563538,down
527925,0.777344,5.183594,7.722656,0.574219,-0.173828,0.179687,0.781921,0.25415,0.079773,0.563599,down
527930,0.546875,5.414062,7.757812,0.419922,-0.097656,0.179687,0.781921,0.25415,0.079773,0.563599,down
527935,0.546875,5.414062,7.757812,0.419922,-0.097656,0.179687,0.780334,0.257629,0.08075,0.564087,down
527940,0.203125,5.949219,8.296875,0.419922,-0.097656,0.179687,0.780334,0.257629,0.08075,0.564087,down
527945,0.320313,6.105469,8.445313,0.216797,-0.208984,0.185547,0.779541,0.259277,0.080322,0.564453,down
527950,0.394531,5.875,8.335938,0.216797,-0.208984,0.185547,0.779297,0.259827,0.079651,0.564636,down
527955,0.394531,5.644531,7.984375,-0.115234,-0.337891,0.195312,0.779297,0.259827,0.079651,0.564636,down
527960,0.511719,5.375,7.914062,-0.193359,-0.361328,0.181641,0.779114,0.260254,0.078735,0.56488,down
527965,0.511719,5.339844,7.984375,-0.193359,-0.361328,0.181641,0.778931,0.260742,0.076599,0.565125,down
527970,0.738281,5.414062,7.917969,-0.193359,-0.361328,0.181641,0.778992,0.260864,0.075439,0.565186,down
527975,0.816406,5.222656,8.21875,-0.193359,-0.361328,0.181641,0.778992,0.260864,0.075439,0.565186,down
527980,0.929687,5.03125,8.179688,-0.390625,-0.347656,0.03125,0.778992,0.260864,0.075439,0.565186,down
527985,1.085938,4.878906,8.339844,-0.353516,-0.369141,-0.019531,0.779297,0.260681,0.072876,0.565186,down
527991,1.085938,4.570312,8.722656,-0.261719,-0.394531,-0.058594,0.779602,0.260498,0.071655,0.565002,down
527996,1.199219,4.226562,8.71875,-0.261719,-0.394531,-0.058594,0.780273,0.260681,0.069397,0.56427,down
528001,1.429688,4.34375,8.683594,-0.261719,-0.394531,-0.058594,0.78064,0.261108,0.068481,0.563721,down
528006,1.582031,4.839844,8.679688,-0.261719,-0.394531,-0.058594,0.780884,0.261841,0.067749,0.56311,down
528011,1.660156,5.070312,8.523438,0.085937,-0.503906,-0.171875,0.781128,0.262817,0.066895,0.562378,down
528017,1.8125,5.492187,8.101563,0.085937,-0.503906,-0.171875,0.781372,0.263733,0.066101,0.561707,down
528023,2.003906,5.300781,7.957031,0.085937,-0.503906,-0.171875,0.781555,0.264465,0.065491,0.561157,down
528028,2.082031,5.261719,8.179688,-0.019531,-0.425781,-0.041016,0.781738,0.265137,0.064758,0.56073,down
528033,2.273438,5.03125,8.339844,-0.044922,-0.414062,0.025391,0.781738,0.265137,0.064758,0.56073,down
528039,2.464844,4.878906,8.140625,-0.044922,-0.414062,0.025391,0.781799,0.266235,0.062988,0.560303,down
528045,2.539063,4.535156,8.5625,-0.044922,-0.414062,0.025391,0.781799,0.266235,0.062988,0.560303,down
528050,2.730469,4.496094,8.867188,0.021484,-0.332031,0.175781,0.781799,0.266235,0.062988,0.560303,down
528055,2.730469,4.761719,8.722656,0.021484,-0.332031,0.175781,0.781433,0.267517,0.060486,0.560486,down
528061,2.808594,5.109375,8.761719,0.021484,-0.332031,0.175781,0.780945,0.268921,0.059143,0.560669,down
528067,2.808594,5.605469,8.871094,0.087891,-0.429687,0.142578,0.780701,0.269775,0.058411,0.560669,down
528072,2.617188,5.566406,8.410156,0.087891,-0.429687,0.142578,0.780579,0.270447,0.057678,0.560608,down
528077,2.617188,5.183594,8.222656,0.087891,-0.429687,0.142578,0.780579,0.270935,0.056641,0.560364,down
528084,2.769531,4.378906,8.027344,0.087891,-0.429687,0.142578,0.780579,0.270935,0.056641,0.560364,down
528089,2.886719,4.1875,7.988281,-0.300781,-0.451172,-0.193359,0.780579,0.270935,0.056641,0.560364,down
528095,3.191406,3.921875,7.917969,-0.353516,-0.4375,-0.300781,0.780579,0.270935,0.056641,0.560364,down
528100,3.191406,4.035156,7.953125,-0.416016,-0.427734,-0.470703,0.782654,0.271301,0.052246,0.557739,down
528105,3.039063,4.457031,8.0625,-0.416016,-0.427734,-0.470703,0.783691,0.271057,0.051086,0.55658,down
528110,2.886719,4.648437,8.183594,-0.416016,-0.427734,-0.470703,0.784607,0.270874,0.05011,0.555481,down
528115,2.808594,4.839844,8.183594,-0.416016,-0.427734,-0.470703,0.785645,0.270813,0.049133,0.554077,down
528120,2.695313,4.992187,8.300781,-0.042969,-0.441406,-0.519531,0.786621,0.270996,0.04834,0.552673,down
528125,2.769531,4.917969,8.183594,-0.042969,-0.441406,-0.519531,0.787476,0.271362,0.047729,0.551331,down
528131,2.769531,4.839844,7.605469,-0.042969,-0.441406,-0.519531,0.788757,0.272583,0.046936,0.54895,down
528136,2.769531,4.839844,7.496094,0.138672,-0.355469,-0.375,0.789307,0.273438,0.046631,0.547791,down
528141,2.886719,4.917969,7.492187,0.179687,-0.326172,-0.316406,0.789673,0.27417,0.046448,0.546875,down
528147,2.960938,5.222656,7.640625,0.179687,-0.326172,-0.316406,0.789978,0.274963,0.046326,0.546082,down
528152,2.960938,5.566406,7.496094,0.179687,-0.326172,-0.316406,0.7901,0.275757,0.046265,0.545471,down
528157,3.039063,5.53125,7.453125,0.214844,-0.220703,-0.119141,0.7901,0.275757,0.046265,0.545471,down
528162,3.039063,5.644531,7.492187,0.195312,-0.169922,-0.064453,0.7901,0.275757,0.046265,0.545471,down
528168,2.769531,5.988281,7.644531,0.195312,-0.169922,-0.064453,0.7901,0.277893,0.046204,0.544373,down
528173,2.65625,5.949219,7.535156,0.148437,-0.15625,0.027344,0.7901,0.277893,0.046204,0.544373,down
528179,2.503906,5.605469,7.414062,0.058594,-0.140625,0.027344,0.7901,0.277893,0.046204,0.544373,down
528185,2.15625,5.222656,7.261719,-0.009766,-0.173828,0.009766,0.7901,0.277893,0.046204,0.544373,down
528191,2.042969,5.03125,7.261719,-0.095703,-0.234375,-0.050781,0.7901,0.277893,0.046204,0.544373,down
528196,2.042969,5.03125,7.457031,-0.095703,-0.234375,-0.050781,0.790222,0.279907,0.044189,0.543396,down
528201,2.234375,5.03125,7.914062,-0.095703,-0.234375,-0.050781,0.790222,0.279907,0.044189,0.543396,down
528206,2.308594,4.917969,7.722656,-0.095703,-0.234375,-0.050781,0.79071,0.280212,0.042786,0.542603,down
528211,2.386719,4.878906,7.71875,-0.171875,-0.314453,-0.107422,0.79071,0.280212,0.042786,0.542603,down
528216,2.65625,4.761719,7.984375,-0.171875,-0.314453,-0.107422,0.791321,0.280457,0.04126,0.541748,down
528221,2.808594,4.839844,8.21875,-0.171875,-0.314453,-0.107422,0.791443,0.280579,0.04071,0.541443,down
528226,2.503906,4.917969,8.523438,-0.017578,-0.197266,-0.005859,0.791565,0.280823,0.040161,0.54126,down
528232,2.503906,4.726562,8.605469,-0.017578,-0.197266,-0.005859,0.791565,0.281128,0.039856,0.541138,down
528237,2.578125,4.417969,8.601563,0.033203,-0.150391,0.050781,0.791565,0.281128,0.039856,0.541138,down
528243,2.425781,4.34375,8.410156,0.033203,-0.150391,0.050781,0.791565,0.281128,0.039856,0.541138,down
528249,2.386719,4.34375,8.339844,0.109375,-0.099609,0.037109,0.791565,0.281128,0.039856,0.541138,down
528254,2.386719,4.535156,8.261719,0.134766,-0.089844,0.025391,0.791565,0.281128,0.039856,0.541138,down
528259,2.308594,4.609375,8.222656,0.134766,-0.089844,0.025391,0.791077,0.282959,0.039307,0.540955,down
528264,2.273438,4.648437,8.179688,0.134766,-0.089844,0.025391,0.791077,0.282959,0.039307,0.540955,down
528269,2.273438,4.726562,8.183594,0.162109,-0.058594,-0.035156,0.791077,0.282959,0.039307,0.540955,down
528274,2.15625,4.878906,8.0625,0.183594,-0.048828,-0.052734,0.791077,0.282959,0.039307,0.540955,down
528279,2.15625,4.992187,8.023438,0.208984,-0.035156,-0.046875,0.791077,0.282959,0.039307,0.540955,down
528285,2.273438,5.070312,7.984375,0.208984,-0.035156,-0.052734,0.791077,0.282959,0.039307,0.540955,down
528291,2.082031,5.222656,7.988281,0.208984,-0.023437,-0.054687,0.791077,0.282959,0.039307,0.540955,down
528296,2.082031,5.183594,7.984375,0.208984,-0.023437,-0.054687,0.790405,0.286621,0.041077,0.539795,down
528301,2.117188,5.144531,8.023438,0.208984,-0.023437,-0.054687,0.790405,0.286621,0.041077,0.539795,down
528306,2.15625,5.109375,7.953125,0.080078,-0.035156,-0.001953,0.790405,0.286621,0.041077,0.539795,down
528311,2.273438,5.144531,7.835937,0.080078,-0.035156,-0.001953,0.790222,0.287476,0.041382,0.539612,down
528316,2.425781,5.070312,7.917969,0.080078,-0.035156,-0.001953,0.790222,0.287659,0.041321,0.539551,down
528321,2.578125,5.03125,7.875,0.080078,-0.035156,-0.001953,0.790222,0.287659,0.041321,0.539551,down
528326,2.65625,4.953125,7.835937,-0.080078,-0.046875,0.0,0.790222,0.287659,0.041321,0.539551,down
528331,2.425781,4.878906,7.957031,-0.080078,-0.046875,0.0,0.790283,0.287659,0.040833,0.539429,down
528336,2.425781,5.070312,8.027344,-0.066406,-0.058594,0.001953,0.790283,0.287659,0.040833,0.539429,down
528341,2.386719,5.144531,7.878906,-0.066406,-0.058594,0.001953,0.790344,0.287598,0.040649,0.539429,down
528346,2.347656,5.070312,7.835937,-0.095703,-0.058594,-0.021484,0.790344,0.287598,0.040649,0.539429,down
528351,2.386719,4.800781,7.878906,-0.095703,-0.058594,-0.021484,0.790588,0.287415,0.040039,0.539185,down
528356,2.425781,4.648437,8.105469,-0.105469,-0.121094,-0.095703,0.790588,0.287415,0.040039,0.539185,down
528361,2.464844,4.496094,8.179688,-0.083984,-0.132812,-0.134766,0.790833,0.287354,0.039734,0.53894,down
528366,2.464844,4.457031,8.222656,-0.083984,-0.132812,-0.134766,0.791321,0.287476,0.039185,0.538208,down
528371,2.539063,4.417969,8.21875,-0.083984,-0.132812,-0.134766,0.791626,0.287598,0.03894,0.53772,down
528376,2.730469,4.570312,8.222656,-0.083984,-0.132812,-0.134766,0.791626,0.287598,0.03894,0.53772,down
528381,2.769531,4.648437,8.105469,-0.037109,-0.175781,-0.214844,0.792236,0.287903,0.038452,0.536682,down
528386,2.65625,4.992187,8.105469,-0.037109,-0.175781,-0.214844,0.792236,0.287903,0.038452,0.536682,down
528391,2.65625,4.992187,8.105469,-0.025391,-0.138672,-0.171875,0.792542,0.288086,0.038269,0.536133,down
528396,2.730469,5.03125,7.917969,-0.025391,-0.138672,-0.171875,0.792786,0.288147,0.038147,0.535767,down
528401,2.695313,5.144531,7.957031,-0.029297,-0.060547,-0.099609,0.792969,0.288208,0.038086,0.535461,down
528406,2.386719,5.375,7.957031,0.001953,-0.03125,-0.054687,0.79303,0.288269,0.038025,0.535278,down
528412,2.082031,5.53125,7.917969,0.005859,0.035156,-0.009766,0.793091,0.288269,0.038208,0.535278,down
528417,2.117188,5.566406,7.917969,-0.042969,0.066406,0.060547,0.792969,0.288147,0.038269,0.5354,down
528423,2.082031,4.570312,8.179688,-0.042969,0.066406,0.060547,0.792969,0.288025,0.03833,0.535522,down
528428,2.082031,4.570312,8.179688,-0.044922,0.035156,0.029297,0.792969,0.287842,0.03833,0.535645,down
528433,2.273438,4.535156,8.21875,-0.044922,0.035156,0.029297,0.792969,0.287781,0.038391,0.535645,down
528438,2.273438,4.648437,8.179688,-0.044922,0.035156,0.029297,0.792969,0.287842,0.038391,0.535645,down
528443,2.386719,4.953125,8.21875,-0.044922,0.035156,0.029297,0.792969,0.287842,0.038391,0.535645,down
528448,2.347656,5.109375,8.027344,0.029297,-0.017578,-0.019531,0.792969,0.287842,0.038391,0.535645,down
528453,2.308594,5.109375,7.914062,0.023437,-0.005859,-0.005859,0.792969,0.287842,0.038391,0.535645,down
528458,2.386719,5.109375,7.722656,0.023437,-0.005859,-0.005859,0.792969,0.287842,0.038391,0.535645,down
528464,2.425781,5.183594,7.757812,0.013672,-0.017578,0.001953,0.792969,0.287842,0.038391,0.535645,down
528469,2.347656,5.261719,7.800781,0.011719,-0.023437,0.003906,0.792969,0.287842,0.038391,0.535645,down
528475,2.347656,5.339844,7.800781,0.011719,-0.023437,0.003906,0.792908,0.288452,0.038513,0.5354,down
528481,2.464844,5.144531,7.796875,0.011719,-0.023437,0.003906,0.792969,0.288269,0.038208,0.535461,down
528486,2.464844,5.109375,7.917969,0.011719,-0.023437,0.003906,0.792969,0.288269,0.038208,0.535461,down
528492,2.617188,4.761719,7.984375,-0.164062,-0.013672,0.033203,0.792969,0.288269,0.038208,0.535461,down
528498,2.617188,4.6875,8.027344,-0.164062,-0.013672,0.033203,0.793152,0.287415,0.037476,0.535583,down
528503,2.730469,4.6875,8.105469,-0.166016,0.009766,0.005859,0.793152,0.287415,0.037476,0.535583,down
528508,2.695313,4.761719,8.105469,-0.148437,0.029297,-0.009766,0.793152,0.287415,0.037476,0.535583,down
528514,2.539063,4.800781,8.023438,-0.148437,0.029297,-0.009766,0.793518,0.286438,0.037048,0.535645,down
528519,2.503906,4.800781,8.0625,-0.123047,0.076172,-0.03125,0.793518,0.286438,0.037048,0.535645,down
528524,2.464844,4.761719,8.179688,-0.105469,0.083984,-0.03125,0.793518,0.286438,0.037048,0.535645,down
528530,2.578125,4.839844,8.0625,-0.078125,0.097656,-0.042969,0.793518,0.286438,0.037048,0.535645,down
528535,1.851563,4.6875,7.914062,-0.078125,0.097656,-0.042969,0.793518,0.286438,0.037048,0.535645,down
528540,1.8125,4.6875,8.140625,-0.078125,0.097656,-0.042969,0.794006,0.285034,0.037476,0.535645,down
528546,2.464844,4.761719,8.40625,-0.013672,-0.015625,-0.023437,0.794006,0.285034,0.037476,0.535645,down
528552,2.195313,4.570312,7.835937,0.019531,-0.052734,-0.029297,0.794128,0.285095,0.037476,0.5354,down
528557,1.964844,4.535156,7.875,0.025391,-0.103516,-0.025391,0.794189,0.285278,0.037415,0.535278,down
528563,2.15625,4.878906,8.0625,0.025391,-0.103516,-0.025391,0.794189,0.285583,0.037231,0.535095,down
528569,2.042969,5.144531,7.878906,0.070312,-0.130859,-0.029297,0.794189,0.285583,0.037231,0.535095,down
528575,2.15625,5.109375,7.914062,0.087891,-0.146484,-0.017578,0.794189,0.285583,0.037231,0.535095,down
528580,2.273438,4.953125,7.800781,0.099609,-0.144531,-0.007813,0.794189,0.285583,0.037231,0.535095,down
528585,2.117188,4.761719,7.957031,0.099609,-0.144531,-0.007813,0.794189,0.285583,0.037231,0.535095,down
528591,2.15625,4.726562,8.0625,0.099609,-0.144531,-0.007813,0.794006,0.287476,0.03656,0.534424,down
528597,2.003906,4.535156,8.222656,0.101563,-0.177734,-0.005859,0.793884,0.28833,0.036133,0.534119,down
528602,2.730469,4.726562,8.339844,0.101563,-0.177734,-0.005859,0.793823,0.28894,0.03595,0.533936,down
528608,2.886719,4.648437,7.917969,0.101563,-0.177734,-0.005859,0.793762,0.28949,0.035828,0.533691,down
528613,2.386719,4.609375,8.101563,0.123047,-0.119141,-0.037109,0.793762,0.290039,0.035767,0.533447,down
528618,2.464844,4.6875,8.566406,0.123047,-0.119141,-0.037109,0.793701,0.290527,0.035767,0.533264,down
528623,2.695313,4.6875,8.484375,0.123047,-0.119141,-0.037109,0.793701,0.290527,0.035767,0.533264,down
528628,2.695313,4.6875,8.484375,0.259766,-0.144531,-0.021484,0.793701,0.290527,0.035767,0.533264,down
528633,2.539063,4.917969,8.0625,0.259766,-0.144531,-0.021484,0.793274,0.292603,0.035767,0.532715,down
528640,2.730469,5.375,7.535156,0.259766,-0.144531,-0.021484,0.793152,0.293335,0.035889,0.532593,down
528646,2.769531,5.492187,7.644531,0.222656,-0.152344,0.015625,0.793152,0.293335,0.035889,0.532593,down
528651,2.769531,5.492187,7.574219,0.083984,-0.082031,0.011719,0.793152,0.293335,0.035889,0.532593,down
528656,2.808594,5.453125,7.453125,0.083984,-0.082031,0.011719,0.792725,0.294983,0.035828,0.532288,down
528661,2.808594,5.566406,7.535156,0.083984,-0.082031,0.011719,0.792664,0.295227,0.035767,0.532227,down
528666,2.65625,5.566406,7.722656,0.083984,-0.082031,0.011719,0.792664,0.295349,0.035767,0.532227,down
528671,2.578125,5.414062,7.71875,-0.039063,0.011719,-0.009766,0.792725,0.295166,0.035706,0.532166,down
528676,2.539063,5.109375,7.875,-0.039063,0.011719,-0.009766,0.792725,0.295166,0.035706,0.532166,down
528681,2.539063,4.992187,7.988281,-0.039063,0.011719,-0.009766,0.792725,0.294983,0.035706,0.532227,down
528686,2.617188,4.917969,7.984375,-0.080078,0.052734,-0.001953,0.792725,0.294983,0.035706,0.532227,down
528691,2.695313,4.800781,7.984375,-0.080078,0.052734,-0.001953,0.792847,0.294556,0.035706,0.532288,down
528697,2.65625,4.6875,7.917969,-0.080078,0.052734,-0.001953,0.792969,0.294067,0.035889,0.532349,down
528702,2.617188,4.648437,7.953125,-0.058594,0.117188,-0.017578,0.79303,0.293823,0.036011,0.53241,down
528707,2.578125,4.726562,8.027344,-0.058594,0.117188,-0.017578,0.793091,0.293579,0.036194,0.532471,down
528712,2.464844,4.800781,8.027344,-0.058594,0.117188,-0.017578,0.793152,0.293335,0.036499,0.532471,down
528718,2.386719,4.839844,8.023438,-0.058594,0.117188,-0.017578,0.793152,0.293152,0.036743,0.532532,down
528723,2.386719,4.878906,8.066406,0.023437,0.123047,-0.029297,0.793152,0.293152,0.036743,0.532532,down
528728,2.308594,4.917969,8.0625,0.037109,0.109375,-0.027344,0.793213,0.292969,0.037354,0.532532,down
528734,2.347656,4.953125,8.144531,0.037109,0.109375,-0.027344,0.793152,0.292969,0.037659,0.532593,down
528740,2.503906,4.878906,8.066406,0.0625,0.078125,0.0,0.793152,0.292969,0.037659,0.532593,down
528746,2.578125,4.800781,7.914062,0.054687,0.072266,0.011719,0.793152,0.292969,0.037659,0.532593,down
528751,2.539063,4.953125,7.953125,0.041016,0.095703,0.017578,0.793152,0.292969,0.037659,0.532593,down
528756,2.539063,4.953125,7.988281,0.041016,0.095703,0.017578,0.792969,0.29303,0.038635,0.532776,down
528762,2.503906,4.953125,7.957031,0.03125,0.109375,0.029297,0.792786,0.292908,0.039124,0.53302,down
528767,2.464844,4.992187,7.917969,0.015625,0.121094,0.039063,0.792786,0.292908,0.039124,0.53302,down
528773,2.539063,5.03125,7.875,0.015625,0.121094,0.039063,0.792664,0.292725,0.039673,0.533386,down
528778,2.539063,5.03125,7.800781,-0.001953,0.134766,0.023437,0.792664,0.292725,0.039673,0.533386,down
528783,2.539063,5.109375,7.800781,-0.001953,0.134766,0.023437,0.792542,0.292358,0.040161,0.53363,down
528788,2.578125,5.144531,7.800781,-0.001953,0.134766,0.023437,0.792542,0.292175,0.040405,0.533752,down
528794,2.578125,5.144531,7.914062,-0.001953,0.134766,0.023437,0.792542,0.291931,0.040588,0.533875,down
528800,2.503906,5.070312,7.953125,-0.078125,0.150391,-0.025391,0.792542,0.291931,0.040588,0.533875,down
528807,2.464844,4.992187,8.027344,-0.078125,0.150391,-0.025391,0.792542,0.291931,0.040588,0.533875,down
528812,2.503906,5.03125,8.0625,-0.066406,0.136719,-0.044922,0.792542,0.291931,0.040588,0.533875,down
528817,2.386719,5.070312,8.296875,-0.066406,0.136719,-0.044922,0.792847,0.290649,0.041565,0.533997,down
528823,2.386719,5.070312,8.296875,-0.046875,0.142578,-0.044922,0.79303,0.2901,0.042053,0.533997,down
528828,2.347656,5.144531,8.144531,-0.054687,0.148437,-0.025391,0.793091,0.289795,0.042297,0.534058,down
528833,2.464844,4.953125,8.144531,-0.054687,0.148437,-0.025391,0.793152,0.289551,0.042542,0.534119,down
528838,2.503906,4.917969,8.066406,-0.054687,0.148437,-0.025391,0.793091,0.289307,0.042786,0.534241,down
528844,2.308594,4.917969,7.957031,-0.054687,0.148437,-0.025391,0.79303,0.289185,0.043091,0.534363,down
528849,2.386719,4.953125,7.984375,0.068359,0.140625,0.050781,0.792908,0.289185,0.043457,0.534546,down
528855,2.503906,4.917969,7.914062,0.076172,0.148437,0.068359,0.792908,0.289185,0.043457,0.534546,down
528861,2.464844,4.953125,7.917969,0.082031,0.160156,0.078125,0.792908,0.289185,0.043457,0.534546,down
528866,2.539063,4.878906,7.917969,0.101563,0.169922,0.111328,0.792908,0.289185,0.043457,0.534546,down
528872,2.578125,4.839844,7.796875,0.142578,0.222656,0.15625,0.792908,0.289185,0.043457,0.534546,down
528877,2.617188,4.917969,7.761719,0.142578,0.222656,0.15625,0.791809,0.289124,0.045532,0.536072,down
528882,2.65625,5.183594,7.800781,0.179687,0.259766,0.224609,0.791382,0.289185,0.046143,0.53656,down
528887,2.886719,5.222656,7.835937,0.179687,0.259766,0.224609,0.790955,0.289246,0.046753,0.53717,down
528892,2.921875,5.453125,7.839844,0.179687,0.259766,0.224609,0.789978,0.289246,0.048035,0.538513,down
528897,3.039063,5.605469,7.839844,0.203125,0.394531,0.349609,0.789978,0.289246,0.048035,0.538513,down
528902,2.960938,5.949219,8.183594,0.203125,0.394531,0.349609,0.789307,0.289185,0.048889,0.539429,down
528907,3.039063,5.875,8.179688,0.238281,0.513672,0.425781,0.789307,0.289185,0.048889,0.539429,down
528913,2.960938,5.914062,7.988281,0.238281,0.513672,0.425781,0.786987,0.288818,0.051697,0.542725,down
528918,2.886719,5.796875,7.875,0.242187,0.615234,0.517578,0.786011,0.288574,0.052917,0.544189,down
528923,2.578125,5.988281,7.835937,0.226562,0.652344,0.5625,0.784973,0.288269,0.054077,0.545715,down
528928,2.464844,5.914062,7.878906,0.226562,0.652344,0.5625,0.783997,0.287903,0.055176,0.54718,down
528934,2.273438,5.757812,7.683594,0.226562,0.652344,0.5625,0.782898,0.287476,0.056396,0.548828,down
528939,2.15625,5.644531,7.53125,0.167969,0.763672,0.705078,0.782898,0.287476,0.056396,0.548828,down
528945,2.042969,5.53125,7.417969,0.136719,0.802734,0.736328,0.782898,0.287476,0.056396,0.548828,down
528951,1.8125,5.300781,7.535156,0.136719,0.802734,0.736328,0.779175,0.285461,0.06012,0.554749,down
528956,1.699219,5.144531,7.601562,0.091797,0.832031,0.798828,0.779175,0.285461,0.06012,0.554749,down
528962,1.621094,5.070312,7.644531,0.091797,0.839844,0.822266,0.775208,0.282959,0.06366,0.561218,down
528967,1.582031,4.648437,7.535156,0.091797,0.839844,0.822266,0.773804,0.282166,0.064819,0.563416,down
528972,1.46875,4.6875,7.453125,0.091797,0.839844,0.822266,0.773804,0.282166,0.064819,0.563416,down
528977,1.351563,4.726562,7.601562,0.101563,0.808594,0.886719,0.770813,0.28064,0.067017,0.567932,down
528982,1.351563,4.535156,7.757812,0.101563,0.808594,0.886719,0.769348,0.280029,0.067993,0.57019,down
528987,1.316406,4.535156,7.761719,0.101563,0.808594,0.886719,0.769348,0.280029,0.067993,0.57019,down
528992,1.390625,4.378906,7.839844,0.169922,0.683594,0.90625,0.769348,0.280029,0.067993,0.57019,down
528997,1.429688,4.457031,7.878906,0.181641,0.650391,0.888672,0.764771,0.278687,0.070801,0.576599,down
529002,1.46875,4.570312,7.914062,0.181641,0.650391,0.888672,0.763245,0.278442,0.071594,0.578613,down
529007,1.46875,4.726562,7.988281,0.181641,0.650391,0.888672,0.76178,0.278198,0.072388,0.580566,down
529012,1.582031,4.800781,8.144531,0.181641,0.650391,0.888672,0.76178,0.278198,0.072388,0.580566,down
529017,1.582031,4.878906,8.339844,0.189453,0.476562,0.787109,0.76178,0.278198,0.072388,0.580566,down
529022,1.621094,4.726562,8.523438,0.189453,0.476562,0.787109,0.759033,0.277832,0.073669,0.584167,down
529027,1.660156,4.570312,8.566406,0.189453,0.476562,0.787109,0.75769,0.277649,0.074158,0.585937,down
529032,1.621094,4.417969,8.449219,0.080078,0.322266,0.623047,0.755737,0.277283,0.074707,0.588501,down
565070,-3.667969,7.605469,1.476563,0.363281,0.460937,0.427734,0.372803,0.02063,0.63269,0.678467,down
565076,-3.589844,7.21875,1.398438,0.388672,0.533203,0.492187,0.372803,0.02063,0.63269,0.678467,down
565081,-3.550781,6.945312,1.207031,0.425781,0.611328,0.546875,0.372803,0.02063,0.63269,0.678467,down
565087,-3.515625,6.640625,1.015625,0.466797,0.730469,0.59375,0.372803,0.02063,0.63269,0.678467,down
565092,-3.359375,6.300781,0.902344,0.564453,0.822266,0.65625,0.372803,0.02063,0.63269,0.678467,down
565097,-3.320313,6.296875,0.902344,0.564453,0.822266,0.65625,0.356384,0.022156,0.644226,0.676392,down
565102,-3.246094,6.296875,0.902344,0.564453,0.822266,0.65625,0.356384,0.022156,0.644226,0.676392,down
565107,-3.246094,6.296875,0.785156,1.488281,1.230469,0.861328,0.356384,0.022156,0.644226,0.676392,down
565113,-3.320313,6.566406,0.710937,1.488281,1.230469,0.861328,0.346252,0.023743,0.65387,0.672302,down
565119,-3.285156,6.867187,0.746094,1.488281,1.230469,0.861328,0.342285,0.024719,0.658447,0.669861,down
565126,-3.320313,7.066406,0.785156,2.310547,1.341797,0.861328,0.342285,0.024719,0.658447,0.669861,down
565131,-3.320313,7.066406,0.785156,2.570313,1.382813,0.828125,0.334839,0.026855,0.66803,0.664001,down
565136,-3.515625,7.671875,0.632812,2.570313,1.382813,0.828125,0.334839,0.026855,0.66803,0.664001,down
565141,-3.515625,7.671875,0.632812,2.966797,1.363281,0.703125,0.327332,0.029419,0.679321,0.656189,down
565146,-3.742188,8.289063,0.632812,2.966797,1.363281,0.703125,0.323608,0.030823,0.685364,0.651611,down
565151,-3.820313,8.941406,0.785156,3.029297,1.224609,0.552734,0.320251,0.032227,0.691223,0.647034,down
565156,-3.933594,9.441406,0.554687,3.029297,1.224609,0.552734,0.320251,0.032227,0.691223,0.647034,down
565162,-3.972656,9.59375,0.480469,2.822266,1.103516,0.359375,0.311584,0.035583,0.707581,0.63324,down
565167,-3.820313,9.554688,0.363281,2.822266,1.103516,0.359375,0.311584,0.035583,0.707581,0.63324,down
565172,-3.707031,9.441406,0.289063,1.90625,0.775391,0.054687,0.311584,0.035583,0.707581,0.63324,down
565177,-3.589844,9.242188,0.328125,1.523438,0.740234,-0.085937,0.307434,0.036865,0.716064,0.62561,down
565182,-3.398438,8.820313,0.058594,1.523438,0.740234,-0.085937,0.305847,0.036926,0.719604,0.622314,down
565187,-3.359375,8.558594,-0.132812,1.523438,0.740234,-0.085937,0.304565,0.036499,0.722229,0.619873,down
565192,-3.320313,8.292969,-0.285156,1.523438,0.740234,-0.085937,0.303589,0.035522,0.724365,0.617981,down
565198,-3.207031,8.097656,-0.363281,0.609375,0.800781,-0.519531,0.302124,0.032043,0.727661,0.615051,down
565203,-3.167969,8.136719,-0.363281,0.609375,0.800781,-0.519531,0.301758,0.029785,0.72876,0.613953,down
565208,-3.246094,8.175781,-0.441406,0.609375,0.800781,-0.519531,0.301697,0.027222,0.729797,0.612915,down
565213,-3.320313,8.253906,-0.476562,0.205078,0.855469,-1.074219,0.301697,0.027222,0.729797,0.612915,down
565218,-3.667969,8.210938,-0.859375,0.205078,0.855469,-1.074219,0.301697,0.024109,0.730896,0.611755,down
565223,-3.859375,8.332031,-1.050781,0.205078,0.855469,-1.074219,0.302002,0.016785,0.733154,0.609131,down
565228,-3.933594,8.476563,-1.207031,0.205078,0.855469,-1.074219,0.302368,0.013245,0.734192,0.607788,down
565233,-4.089844,8.597656,-1.207031,0.236328,0.882812,-1.777344,0.303284,0.008606,0.735352,0.605957,down
565238,-4.203125,8.632813,-0.976562,0.236328,0.882812,-1.777344,0.304504,0.004028,0.736389,0.604187,down
565243,-4.28125,9.054688,-0.898437,0.236328,0.882812,-1.777344,0.30603,-0.000549,0.737122,0.602478,down
565248,-4.507812,9.625,-0.859375,0.003906,0.757812,-2.369141,0.30603,-0.000549,0.737122,0.602478,down
565253,-4.507812,9.625,-0.859375,0.003906,0.757812,-2.369141,0.308105,-0.006226,0.737854,0.600525,down
565258,-5.121094,10.363281,-0.707031,-0.140625,0.708984,-2.517578,0.308105,-0.006226,0.737854,0.600525,down
565263,-5.121094,10.363281,-0.707031,-0.378906,0.671875,-2.652344,0.312805,-0.017639,0.738281,0.59729,down
565268,-5.8125,10.546875,-0.785156,-0.6875,0.623047,-2.777344,0.312805,-0.017639,0.738281,0.59729,down
565273,-5.8125,10.546875,-0.785156,-1.037109,0.525391,-2.878906,0.322144,-0.037903,0.735168,0.595276,down
565279,-6.691406,10.667969,-0.363281,-1.037109,0.525391,-2.878906,0.32605,-0.045593,0.732666,0.595642,down
565284,-7.0,10.667969,-0.441406,-2.087891,0.222656,-3.367188,0.32605,-0.045593,0.732666,0.595642,down
565289,-7.0,10.667969,-0.441406,-2.376953,0.173828,-3.550781,0.334778,-0.062134,0.725891,0.597656,down
565295,-7.652344,11.195313,-0.976562,-2.376953,0.173828,-3.550781,0.339355,-0.071045,0.72168,0.599121,down
565301,-7.878906,11.734375,-1.28125,-2.925781,0.167969,-3.875,0.339355,-0.071045,0.72168,0.599121,down
565307,-8.109375,12.316406,-1.550781,-3.121094,0.222656,-3.984375,0.339355,-0.071045,0.72168,0.599121,down
565312,-8.457031,12.886719,-1.894531,-3.416016,0.244141,-4.160156,0.339355,-0.071045,0.72168,0.599121,down
565317,-9.414063,12.769531,-1.933594,-3.416016,0.244141,-4.160156,0.358826,-0.11145,0.700256,0.607056,down
565323,-9.910156,12.238281,-1.589844,-3.644531,0.171875,-4.253906,0.36908,-0.133972,0.686523,0.611938,down
565328,-10.292969,12.117188,-1.242188,-4.255859,0.222656,-4.550781,0.374268,-0.145996,0.678711,0.614807,down
565333,-10.523438,11.96875,-1.015625,-4.255859,0.222656,-4.550781,0.374268,-0.145996,0.678711,0.614807,down
565338,-10.523438,11.96875,-1.015625,-4.603516,0.267578,-4.775391,0.379089,-0.157837,0.670715,0.617615,down
565343,-10.523438,11.96875,-1.015625,-4.998047,0.484375,-5.001953,0.383972,-0.171021,0.661743,0.620789,down
565348,-11.214844,9.402344,0.554687,-4.998047,0.484375,-5.001953,0.389282,-0.185364,0.651489,0.624207,down
565353,-11.214844,9.402344,0.554687,-5.519531,0.326172,-5.533203,0.394592,-0.199768,0.640808,0.627502,down
565359,-11.253906,10.589844,0.480469,-5.519531,0.326172,-5.533203,0.405762,-0.231995,0.615662,0.634399,down
565365,-11.558594,10.703125,1.015625,-5.519531,0.326172,-5.533203,0.410034,-0.245422,0.604431,0.637451,down
565370,-11.828125,11.199219,1.285156,-5.519531,0.326172,-5.533203,0.414673,-0.260742,0.590698,0.641174,down
565375,-11.828125,11.199219,1.285156,-6.611328,-0.136719,-5.058594,0.41864,-0.274902,0.576904,0.645264,down
565380,-12.210938,11.546875,1.628906,-6.611328,-0.136719,-5.058594,0.41864,-0.274902,0.576904,0.645264,down
565385,-13.320313,10.011719,2.511719,-6.912109,-0.34375,-4.695312,0.422058,-0.288452,0.562439,0.649902,down
565390,-13.320313,10.011719,2.511719,-7.181641,-0.857422,-3.871094,0.422058,-0.288452,0.562439,0.649902,down
565396,-13.625,7.714844,4.042969,-7.181641,-0.857422,-3.871094,0.42865,-0.32428,0.515625,0.667236,down
565402,-14.277344,6.414062,4.195312,-6.244141,-1.330078,-2.746094,0.42865,-0.32428,0.515625,0.667236,down
565407,-14.617188,5.914062,4.15625,-6.244141,-1.330078,-2.746094,0.430969,-0.342468,0.484985,0.679504,down
565412,-14.617188,5.914062,4.15625,-5.71875,-1.503906,-2.392578,0.431824,-0.349548,0.47113,0.68512,down
565417,-14.734375,5.492187,4.273437,-5.107422,-1.705078,-2.019531,0.431824,-0.349548,0.47113,0.68512,down
565422,-14.734375,5.492187,4.273437,-4.490234,-1.826172,-1.628906,0.431824,-0.349548,0.47113,0.68512,down
565427,-14.617188,4.535156,4.847656,-4.490234,-1.826172,-1.628906,0.433533,-0.359558,0.446045,0.695557,down
565432,-14.617188,4.535156,4.847656,-3.890625,-1.830078,-1.210938,0.434631,-0.36438,0.426208,0.704773,down
565438,-14.390625,3.847656,4.425781,-2.6875,-1.699219,-0.330078,0.434387,-0.364868,0.412292,0.712891,down
565443,-13.972656,3.578125,4.003906,-2.6875,-1.699219,-0.330078,0.433655,-0.363342,0.407227,0.71698,down
565448,-13.742188,3.460938,3.925781,-0.896484,-1.494141,1.091797,0.433655,-0.363342,0.407227,0.71698,down
565453,-13.285156,3.347656,3.734375,-0.896484,-1.494141,1.091797,0.432739,-0.361267,0.404541,0.720093,down
565458,-12.9375,3.269531,3.542969,-0.896484,-1.494141,1.091797,0.428589,-0.353455,0.402954,0.727356,down
565463,-12.707031,3.269531,3.507813,-0.896484,-1.494141,1.091797,0.428589,-0.353455,0.402954,0.727356,down
565468,-12.59375,3.425781,3.507813,0.878906,-0.925781,3.130859,0.428589,-0.353455,0.402954,0.727356,down
565474,-12.480469,4.0,3.316406,0.878906,-0.925781,3.130859,0.417969,-0.338013,0.410461,0.736572,down
565480,-11.980469,4.265625,3.46875,0.878906,-0.925781,3.130859,0.411926,-0.3302,0.416016,0.740417,down
565485,-11.753906,4.304687,3.46875,1.681641,-0.714844,4.710937,0.406433,-0.323486,0.421082,0.74353,down
565490,-11.753906,4.304687,3.46875,1.931641,-0.621094,5.253906,0.399353,-0.315308,0.427673,0.747131,down
565495,-11.410156,4.0,3.316406,1.931641,-0.621094,5.253906,0.399353,-0.315308,0.427673,0.747131,down
565500,-11.410156,4.0,3.316406,2.511719,-0.439453,6.326172,0.381958,-0.296326,0.443909,0.754517,down
565505,-11.027344,3.921875,3.007813,2.511719,-0.439453,6.326172,0.372009,-0.285767,0.453247,0.757996,down
565510,-11.027344,3.921875,3.007813,3.238281,-0.376953,7.326172,0.36084,-0.273804,0.463867,0.761353,down
565515,-9.949219,4.191406,2.511719,3.238281,-0.376953,7.326172,0.349243,-0.261414,0.475037,0.764221,down
565520,-9.640625,4.230469,2.320313,3.994141,-0.238281,8.193359,0.349243,-0.261414,0.475037,0.764221,down
565526,-9.144531,4.382812,1.972656,4.339844,-0.171875,8.560547,0.349243,-0.261414,0.475037,0.764221,down
565531,-8.683594,4.6875,1.707031,4.339844,-0.171875,8.560547,0.309265,-0.219116,0.513428,0.769897,down
565536,-8.683594,4.6875,1.707031,5.03125,-0.119141,9.25,0.294617,-0.203552,0.527283,0.770508,down
565542,-7.878906,5.109375,1.359375,5.03125,-0.119141,9.25,0.278687,-0.186768,0.542175,0.770386,down
565547,-7.878906,5.109375,1.359375,5.492187,0.126953,9.816406,0.262512,-0.170166,0.556763,0.76947,down
565552,-6.925781,5.148437,0.941406,5.492187,0.126953,9.816406,0.262512,-0.170166,0.556763,0.76947,down
565557,-6.082031,4.648437,0.632812,5.607422,0.236328,10.025391,0.262512,-0.170166,0.556763,0.76947,down
565562,-5.15625,3.808594,0.402344,5.607422,0.236328,10.025391,0.209045,-0.118347,0.600525,0.762634,down
565567,-4.667969,3.308594,0.328125,5.607422,0.236328,10.025391,0.189209,-0.100647,0.614807,0.758972,down
565573,-4.246094,2.925781,0.210937,5.486328,1.003906,10.400391,0.189209,-0.100647,0.614807,0.758972,down
565578,-3.742188,2.503906,0.210937,5.410156,1.238281,10.378906,0.128845,-0.051697,0.652466,0.744995,down
565583,-2.78125,1.546875,0.171875,5.410156,1.238281,10.378906,0.128845,-0.051697,0.652466,0.744995,down
565588,-2.253906,1.355469,0.136719,5.410156,1.238281,10.378906,0.107117,-0.035645,0.664307,0.738892,down
565593,-2.253906,1.355469,0.136719,5.236328,1.732422,10.130859,0.086182,-0.02063,0.674988,0.732483,down
565598,-1.828125,1.242188,0.171875,5.244141,1.882813,10.003906,0.086182,-0.02063,0.674988,0.732483,down
565603,-1.828125,1.242188,0.171875,5.355469,2.058594,9.84375,0.043213,0.008545,0.69519,0.717468,down
565609,-0.871094,0.703125,0.058594,5.355469,2.058594,9.84375,0.022034,0.022095,0.70459,0.708923,down
565615,-0.449219,0.4375,0.210937,5.660156,2.349609,9.464844,0.020691,-0.047791,-0.7229,-0.689026,down
565620,-0.027344,0.128906,0.941406,5.660156,2.349609,9.464844,0.041626,-0.059387,-0.731506,-0.677979,down
565626,0.046875,-0.175781,1.207031,6.1875,2.757813,8.798828,0.041626,-0.059387,-0.731506,-0.677979,down
565631,0.046875,-0.175781,1.207031,6.306641,2.923828,8.515625,0.08374,-0.080811,-0.74823,-0.653137,down
565636,0.085937,-0.558594,1.441406,6.404297,3.089844,8.240234,0.08374,-0.080811,-0.74823,-0.653137,down
565641,0.125,-1.058594,1.703125,6.404297,3.089844,8.240234,0.08374,-0.080811,-0.74823,-0.653137,down
565646,0.125,-1.058594,1.703125,6.408203,3.318359,7.746094,0.144836,-0.106628,-0.770203,-0.611938,down
565652,-0.296875,-1.402344,3.011719,6.365234,3.34375,7.482422,0.144836,-0.106628,-0.770203,-0.611938,down
565658,-0.296875,-2.089844,4.34375,6.181641,3.378906,6.873047,0.144836,-0.106628,-0.770203,-0.611938,down
565663,-0.410156,-2.476563,4.730469,6.181641,3.378906,6.873047,0.202576,-0.12616,-0.787476,-0.568298,down
565668,-0.5625,-2.742188,5.039062,5.853516,3.246094,6.25,0.202576,-0.12616,-0.787476,-0.568298,down
565673,-0.792969,-3.433594,5.84375,5.853516,3.246094,6.25,0.238098,-0.13623,-0.796204,-0.539246,down
565678,-0.832031,-3.394531,6.339844,5.853516,3.246094,6.25,0.254944,-0.140564,-0.800049,-0.524597,down
565684,-0.984375,-3.394531,6.757812,5.730469,2.542969,5.138672,0.254944,-0.140564,-0.800049,-0.524597,down
565689,-1.175781,-3.316406,7.222656,5.730469,2.542969,5.138672,0.298462,-0.150635,-0.810608,-0.480774,down
565694,-1.675781,-3.125,7.835937,5.730469,2.542969,5.138672,0.298462,-0.150635,-0.810608,-0.480774,down
565699,-1.675781,-3.125,7.835937,5.689453,1.806641,4.314453,0.309265,-0.153809,-0.815002,-0.465271,down
565704,-2.019531,-3.125,7.875,5.689453,1.806641,4.314453,0.319275,-0.155945,-0.818604,-0.451294,down
565709,-3.285156,-2.703125,7.875,5.40625,0.972656,3.462891,0.327881,-0.157715,-0.822205,-0.437683,down
565715,-3.285156,-2.703125,7.875,5.175781,0.523437,3.021484,0.335205,-0.159241,-0.826172,-0.42395,down
565721,-4.394531,-2.246094,7.71875,5.175781,0.523437,3.021484,0.344543,-0.161621,-0.834167,-0.399231,down
565727,-4.625,-2.246094,7.601562,4.128906,-0.998047,1.615234,0.344543,-0.161621,-0.834167,-0.399231,down
565732,-4.777344,-2.167969,6.953125,4.128906,-0.998047,1.615234,0.346802,-0.163208,-0.842529,-0.378479,down
565737,-5.582031,-1.976563,6.953125,4.128906,-0.998047,1.615234,0.345154,-0.163818,-0.847046,-0.369507,down
565742,-6.386719,-1.632813,6.71875,2.669922,-2.626953,0.085937,0.345154,-0.163818,-0.847046,-0.369507,down
565747,-6.464844,-1.480469,6.226562,2.669922,-2.626953,0.085937,0.336365,-0.16449,-0.856323,-0.355652,down
565753,-6.691406,-2.015625,5.84375,2.669922,-2.626953,0.085937,0.336365,-0.16449,-0.856323,-0.355652,down
565758,-6.84375,-2.089844,5.34375,0.935547,-5.398437,-2.292969,0.336365,-0.16449,-0.856323,-0.355652,down
565763,-7.113281,-1.058594,4.960937,0.935547,-5.398437,-2.292969,0.306641,-0.163696,-0.872131,-0.344299,down
565768,-7.308594,-0.636719,4.886719,0.935547,-5.398437,-2.292969,0.291565,-0.162354,-0.878357,-0.342163,down
565773,-7.308594,-0.636719,4.886719,-0.041016,-7.080078,-3.699219,0.274292,-0.160583,-0.884583,-0.341248,down
565778,-7.648437,-0.445312,4.234375,-0.765625,-7.814453,-4.513672,0.274292,-0.160583,-0.884583,-0.341248,down
565783,-7.648437,-0.445312,4.234375,-1.552734,-8.611328,-5.455078,0.231506,-0.154785,-0.896667,-0.344177,down
565788,-9.378906,2.851563,0.902344,-1.552734,-8.611328,-5.455078,0.231506,-0.154785,-0.896667,-0.344177,down
565793,-10.066406,4.765625,-0.363281,-3.103516,-10.771484,-7.777344,0.174438,-0.144226,-0.90741,-0.354126,down
565799,-11.714844,8.210938,-3.351563,-3.972656,-11.972656,-9.142578,0.100342,-0.126587,-0.914551,-0.370728,down
565804,-14.355469,13.039063,-7.566406,-3.972656,-11.972656,-9.142578,0.055237,-0.113464,-0.915161,-0.382813,down
565809,-15.316406,15.261719,-9.941406,-3.972656,-11.972656,-9.142578,0.055237,-0.113464,-0.915161,-0.382813,down
565814,-15.316406,15.261719,-9.941406,-8.027344,-13.9375,-13.525391,0.01178,-0.098938,-0.912842,-0.395996,down
565819,-15.351563,17.0625,-12.46875,-9.878906,-14.09375,-14.873047,0.01178,-0.098938,-0.912842,-0.395996,down
565825,-13.28125,26.222656,-21.46875,-11.505859,-13.806641,-16.125,0.084961,0.059204,0.896118,0.431641,down
565830,-13.28125,26.222656,-21.46875,-13.099609,-13.763672,-17.212891,0.136658,0.033386,0.880249,0.453186,down
565836,-12.859375,22.304687,-20.550781,-13.099609,-13.763672,-17.212891,0.187134,0.00531,0.859375,0.475891,down
565841,-13.972656,18.515625,-18.558594,-19.253906,-10.791016,-20.123047,0.187134,0.00531,0.859375,0.475891,down
565847,-17.230469,15.183594,-15.53125,-20.119141,-9.158203,-20.505859,0.187134,0.00531,0.859375,0.475891,down
565852,-21.710937,13.652344,-12.007813,-20.074219,-7.621094,-20.527344,0.187134,0.00531,0.859375,0.475891,down
565858,-28.910156,17.328125,-5.34375,-20.074219,-7.621094,-20.527344,0.187134,0.00531,0.859375,0.475891,down
565864,-30.980469,21.660156,-1.894531,-13.498047,-5.699219,-17.673828,0.187134,0.00531,0.859375,0.475891,down
565869,-31.707031,26.0625,1.398438,-13.498047,-5.699219,-17.673828,0.480591,-0.300537,0.552246,0.611328,down
565874,-29.449219,27.863281,4.117187,-13.498047,-5.699219,-17.673828,0.501221,-0.323303,0.519165,0.612122,down
565879,-26.386719,24.378906,8.640625,-13.498047,-5.699219,-17.673828,0.501221,-0.323303,0.519165,0.612122,down
565884,-24.3125,17.253906,9.710938,-5.921875,-3.53125,-6.988281,0.501221,-0.323303,0.519165,0.612122,down
565889,-23.125,11.851563,10.824219,-5.921875,-3.53125,-6.988281,0.537659,-0.363525,0.449402,0.613831,down
565894,-23.390625,6.71875,11.359375,-5.921875,-3.53125,-6.988281,0.543335,-0.366821,0.440125,0.613586,down
565899,-21.742187,-0.292969,10.59375,-5.921875,-3.53125,-6.988281,0.543335,-0.366821,0.440125,0.613586,down
565904,-19.984375,-1.898438,8.5625,1.941406,-0.875,-0.759766,0.551331,-0.36145,0.441162,0.608887,down
565909,-18.109375,-1.976563,5.957031,5.705078,0.580078,1.382813,0.551331,-0.36145,0.441162,0.608887,down
565914,-13.929688,3.617188,2.894531,5.705078,0.580078,1.382813,0.556091,-0.343811,0.463562,0.598022,down
565919,-12.667969,7.21875,1.707031,5.705078,0.580078,1.382813,0.556091,-0.343811,0.463562,0.598022,down
565924,-12.558594,10.128906,0.289063,7.957031,2.376953,2.613281,0.555969,-0.323853,0.495789,0.583313,down
565929,-13.703125,14.375,-0.667969,7.957031,2.376953,2.613281,0.553955,-0.313293,0.515137,0.574097,down
565934,-13.703125,14.648438,-0.210937,7.957031,2.376953,2.613281,0.553955,-0.313293,0.515137,0.574097,down
565939,-12.9375,14.070313,0.25,8.097656,3.894531,3.269531,0.546692,-0.292786,0.554443,0.554993,down
565944,-12.09375,13.160156,1.015625,7.576172,3.753906,3.248047,0.546692,-0.292786,0.554443,0.554993,down
565949,-12.4375,12.460938,1.476563,7.576172,3.753906,3.248047,0.542175,-0.282532,0.573547,0.545227,down
565954,-12.742188,11.621094,2.011719,6.460937,2.917969,2.71875,0.538147,-0.273804,0.588989,0.537048,down
565959,-12.703125,11.125,2.011719,6.460937,2.917969,2.71875,0.533752,-0.263733,0.605835,0.527771,down
565964,-11.828125,10.28125,2.433594,6.460937,2.917969,2.71875,0.527954,-0.248108,0.628418,0.514587,down
565969,-11.292969,9.9375,2.894531,3.076172,0.882812,2.099609,0.527954,-0.248108,0.628418,0.514587,down
565974,-10.710938,9.324219,3.542969,3.076172,0.882812,2.099609,0.525574,-0.24115,0.636353,0.510559,down
565979,-10.0625,8.367188,3.8125,0.03125,0.421875,1.908203,0.525574,-0.24115,0.636353,0.510559,down
565984,-8.957031,6.144531,3.046875,0.03125,0.421875,1.908203,0.520386,-0.232056,0.644531,0.509827,down
565989,-8.722656,4.957031,2.585938,0.03125,0.421875,1.908203,0.513428,-0.230347,0.644287,0.517944,down
565994,-8.265625,4.265625,2.242188,0.03125,0.421875,1.908203,0.513428,-0.230347,0.644287,0.517944,down
565999,-7.917969,3.691406,2.164063,-3.628906,-0.5,1.357422,0.513428,-0.230347,0.644287,0.517944,down
566004,-7.226562,2.8125,2.585938,-3.628906,-0.5,1.357422,0.506714,-0.232605,0.637817,0.531372,down
566009,-7.078125,2.503906,2.433594,-3.628906,-0.5,1.357422,0.503418,-0.234924,0.632446,0.539795,down
566014,-7.113281,2.3125,1.859375,-3.974609,-0.582031,0.892578,0.49823,-0.240479,0.621216,0.554993,down
566019,-6.925781,2.238281,1.324219,-3.974609,-0.582031,0.892578,0.496277,-0.243164,0.615417,0.562012,down
566024,-6.425781,2.160156,1.054688,-3.974609,-0.582031,0.892578,0.496277,-0.243164,0.615417,0.562012,down
566029,-6.15625,2.160156,1.015625,-2.769531,-1.039063,0.388672,0.496277,-0.243164,0.615417,0.562012,down
566034,-5.855469,2.199219,1.207031,-2.769531,-1.039063,0.388672,0.493713,-0.247498,0.604065,0.574524,down
566039,-5.816406,2.238281,1.359375,-2.769531,-1.039063,0.388672,0.493164,-0.248596,0.59906,0.579712,down
566045,-5.851562,2.390625,1.398438,-0.759766,-0.716797,0.402344,0.493164,-0.248596,0.59906,0.579712,down
566050,-6.042969,2.542969,1.285156,-0.759766,-0.716797,0.402344,0.49292,-0.24762,0.592041,0.587524,down
566056,-6.34375,2.886719,1.015625,-0.759766,-0.716797,0.402344,0.49292,-0.246521,0.591614,0.58844,down
566062,-6.382812,2.964844,0.941406,0.318359,-0.347656,0.558594,0.49292,-0.246521,0.591614,0.58844,down
566068,-6.5,3.042969,1.054688,0.558594,-0.236328,0.636719,0.49292,-0.246521,0.591614,0.58844,down
566073,-6.617187,3.386719,1.015625,0.755859,-0.150391,0.720703,0.49292,-0.246521,0.591614,0.58844,down
566078,-6.726562,3.460938,0.863281,0.808594,-0.029297,0.810547,0.49292,-0.246521,0.591614,0.58844,down
566083,-6.882812,3.539063,0.632812,0.863281,0.140625,0.898437,0.49292,-0.246521,0.591614,0.58844,down
566088,-7.042969,3.578125,0.441406,0.914062,0.287109,0.962891,0.49292,-0.246521,0.591614,0.58844,down
566094,-7.191406,3.730469,0.25,0.914062,0.287109,0.962891,0.486816,-0.230469,0.604004,0.587463,down
566099,-7.230469,3.847656,0.328125,0.914062,0.287109,0.962891,0.486816,-0.230469,0.604004,0.587463,down
566104,-7.347656,3.921875,0.25,1.074219,0.521484,1.125,0.486816,-0.230469,0.604004,0.587463,down
566109,-7.492187,4.191406,0.328125,1.074219,0.521484,1.125,0.483337,-0.226074,0.609558,0.586243,down
566114,-7.609375,4.265625,0.289063,1.074219,0.521484,1.125,0.481445,-0.223816,0.612549,0.585632,down
566120,-7.765625,4.421875,0.328125,0.974609,0.587891,1.152344,0.477173,-0.219543,0.618408,0.584534,down
566125,-8.109375,4.613281,0.25,0.974609,0.587891,1.152344,0.475098,-0.217529,0.621277,0.583923,down
566130,-8.230469,4.6875,0.289063,0.974609,0.587891,1.152344,0.473389,-0.215637,0.62384,0.583252,down
566135,-8.375,4.878906,0.25,1.28125,0.458984,1.025391,0.473389,-0.215637,0.62384,0.583252,down
566140,-8.417969,5.109375,0.402344,1.28125,0.458984,1.025391,0.470215,-0.210693,0.630005,0.581055,down
566145,-8.492188,5.261719,0.59375,1.28125,0.458984,1.025391,0.469116,-0.208313,0.632874,0.579712,down
566151,-8.535156,5.492187,0.902344,1.28125,0.458984,1.025391,0.468018,-0.205505,0.636169,0.577942,down
566156,-8.613281,5.644531,0.863281,1.570313,0.316406,0.785156,0.467041,-0.20282,0.639404,0.576111,down
566161,-8.652344,5.914062,0.902344,1.570313,0.316406,0.785156,0.466187,-0.200073,0.642517,0.574341,down
566167,-8.613281,5.953125,0.976562,1.570313,0.316406,0.785156,0.465454,-0.197937,0.644775,0.573059,down
566172,-8.683594,5.953125,0.941406,0.986328,0.183594,0.751953,0.464539,-0.195557,0.647217,0.571899,down
566178,-8.761719,6.03125,0.863281,0.734375,0.171875,0.730469,0.464539,-0.195557,0.647217,0.571899,down
566184,-8.757813,6.066406,0.863281,0.480469,0.132812,0.71875,0.464539,-0.195557,0.647217,0.571899,down
566189,-8.71875,6.066406,0.863281,0.480469,0.132812,0.71875,0.461609,-0.190796,0.651367,0.571167,down
566195,-8.722656,5.992187,0.863281,0.035156,0.041016,0.667969,0.459595,-0.18866,0.652283,0.572449,down
566200,-8.648438,5.761719,0.863281,0.035156,0.041016,0.667969,0.458557,-0.187988,0.652283,0.573486,down
566205,-8.609375,5.570312,0.785156,-0.4375,0.0,0.546875,0.458557,-0.187988,0.652283,0.573486,down
566210,-8.492188,5.378906,0.746094,-0.4375,0.0,0.546875,0.456604,-0.187256,0.651672,0.575989,down
566215,-8.300781,5.070312,0.785156,-0.621094,-0.013672,0.455078,0.456604,-0.187256,0.651672,0.575989,down
566221,-8.109375,4.878906,0.863281,-0.621094,-0.013672,0.455078,0.454712,-0.187195,0.650391,0.578979,down
566226,-7.992187,4.765625,0.785156,-0.599609,-0.003906,0.371094,0.454712,-0.187195,0.650391,0.578979,down
566232,-7.878906,4.726562,0.746094,-0.511719,0.007813,0.330078,0.454712,-0.187195,0.650391,0.578979,down
566237,-7.691406,4.6875,0.824219,-0.511719,0.007813,0.330078,0.452393,-0.187439,0.648621,0.582703,down
566243,-7.609375,4.726562,0.824219,-0.253906,0.025391,0.291016,0.452393,-0.187439,0.648621,0.582703,down
566248,-7.570312,4.6875,0.785156,-0.121094,0.064453,0.287109,0.452393,-0.187439,0.648621,0.582703,down
566253,-7.496094,4.6875,0.710937,0.005859,0.091797,0.287109,0.452393,-0.187439,0.648621,0.582703,down
566259,-7.574219,4.765625,0.746094,0.005859,0.091797,0.287109,0.452393,-0.187439,0.648621,0.582703,down
566264,-7.53125,4.765625,0.746094,0.238281,0.146484,0.304688,0.452393,-0.187439,0.648621,0.582703,down
566269,-7.492187,4.765625,0.785156,0.238281,0.146484,0.304688,0.448853,-0.185669,0.649963,0.584473,down
566275,-7.496094,4.878906,0.902344,0.238281,0.146484,0.304688,0.447632,-0.184509,0.651489,0.584045,down
566280,-7.492187,4.878906,0.941406,0.238281,0.146484,0.304688,0.447632,-0.184509,0.651489,0.584045,down
566285,-7.492187,4.957031,0.941406,0.279297,0.15625,0.369141,0.447632,-0.184509,0.651489,0.584045,down
566290,-7.570312,5.035156,0.902344,0.279297,0.15625,0.369141,0.44635,-0.183167,0.653076,0.583679,down
566296,-7.535156,5.148437,0.941406,0.279297,0.15625,0.369141,0.445007,-0.181824,0.654602,0.583435,down
566301,-7.492187,5.148437,0.902344,0.236328,0.154297,0.40625,0.445007,-0.181824,0.654602,0.583435,down
566306,-7.570312,5.1875,0.902344,0.222656,0.15625,0.410156,0.445007,-0.181824,0.654602,0.583435,down
566327,-7.464844,5.300781,0.746094,0.255859,0.185547,0.392578,0.441895,-0.179138,0.657532,0.583374,down
566333,-7.425781,5.339844,0.785156,0.308594,0.199219,0.361328,0.441895,-0.179138,0.657532,0.583374,down
566338,-7.425781,5.417969,0.746094,0.349609,0.214844,0.339844,0.441895,-0.179138,0.657532,0.583374,down
566344,-7.382812,5.417969,0.746094,0.349609,0.214844,0.339844,0.438232,-0.176025,0.661743,0.582336,down
566350,-7.34375,5.417969,0.710937,0.349609,0.214844,0.339844,0.438232,-0.176025,0.661743,0.582336,down
566355,-7.308594,5.453125,0.671875,0.353516,0.244141,0.255859,0.438232,-0.176025,0.661743,0.582336,down
566360,-7.382812,5.53125,0.554687,0.353516,0.244141,0.255859,0.436218,-0.174377,0.664551,0.581055,down
566365,-7.382812,5.570312,0.519531,0.353516,0.244141,0.255859,0.434998,-0.173584,0.666382,0.5802,down
566370,-7.382812,5.609375,0.554687,0.353516,0.244141,0.255859,0.434998,-0.173584,0.666382,0.5802,down
566375,-7.386719,5.644531,0.519531,0.271484,0.246094,0.201172,0.433838,-0.173096,0.667908,0.579468,down
566380,-7.34375,5.683594,0.554687,0.271484,0.246094,0.201172,0.433838,-0.173096,0.667908,0.579468,down
566385,-7.421875,5.683594,0.519531,0.15625,0.244141,0.167969,0.433289,-0.172913,0.668579,0.579163,down
566390,-7.421875,5.800781,0.519531,0.15625,0.244141,0.167969,0.432678,-0.172791,0.669189,0.578918,down
566395,-7.535156,5.953125,0.441406,0.142578,0.236328,0.160156,0.432678,-0.172791,0.669189,0.578918,down
566400,-7.535156,5.953125,0.441406,0.142578,0.236328,0.160156,0.431091,-0.172546,0.670715,0.578369,down
566405,-7.574219,6.066406,0.554687,0.142578,0.236328,0.160156,0.431091,-0.172546,0.670715,0.578369,down
566410,-7.535156,6.066406,0.519531,0.128906,0.15625,0.119141,0.431091,-0.172546,0.670715,0.578369,down
566415,-7.613281,6.183594,0.480469,0.123047,0.130859,0.107422,0.431091,-0.172546,0.670715,0.578369,down
566421,-7.613281,6.222656,0.402344,0.123047,0.130859,0.107422,0.429749,-0.172119,0.672241,0.577698,down
566426,-7.613281,6.222656,0.402344,0.074219,0.048828,0.058594,0.429565,-0.171997,0.672485,0.577576,down
566431,-7.609375,6.222656,0.441406,0.0625,0.005859,0.058594,0.429443,-0.171875,0.672668,0.577515,down
566437,-7.492187,6.257812,0.363281,0.0625,0.005859,0.058594,0.429443,-0.171753,0.672791,0.577454,down
566443,-7.496094,6.296875,0.328125,0.003906,-0.021484,0.041016,0.429443,-0.171753,0.672791,0.577454,down
566448,-7.492187,6.183594,0.328125,-0.041016,-0.046875,0.041016,0.429382,-0.17157,0.672791,0.577515,down
566453,-7.460937,6.222656,0.328125,-0.072266,-0.074219,0.041016,0.429382,-0.17157,0.672791,0.577515,down
566458,-7.421875,6.183594,0.289063,-0.115234,-0.074219,0.029297,0.429382,-0.17157,0.672791,0.577515,down
566464,-7.464844,6.183594,0.25,-0.115234,-0.074219,0.029297,0.429443,-0.171448,0.672302,0.578125,down
566470,-7.460937,6.144531,0.136719,-0.154297,-0.070312,0.023437,0.429443,-0.171448,0.672302,0.578125,down
566476,-7.496094,6.144531,0.171875,-0.144531,-0.085937,0.013672,0.429443,-0.171448,0.672302,0.578125,down
566481,-7.570312,6.105469,0.25,-0.144531,-0.085937,0.013672,0.429565,-0.17157,0.671204,0.579224,down
566486,-7.53125,6.144531,0.363281,-0.144531,-0.085937,0.013672,0.429626,-0.17157,0.671021,0.579407,down
566492,-7.535156,6.222656,0.402344,-0.144531,-0.085937,0.013672,0.42981,-0.171448,0.670898,0.579468,down
566497,-7.496094,6.449219,0.402344,0.039063,-0.097656,0.001953,0.429993,-0.171326,0.670837,0.579407,down
