timestamp,ax,ay,az,gx,gy,gz,qw,qx,qy,qz,label
190801,5.394531,7.660156,-3.589844,0.166016,-0.117188,-0.080078,0.169983,-0.245911,-0.781921,-0.546997,down
190806,5.355469,7.578125,-3.472656,-0.119141,-0.207031,-0.091797,0.169373,-0.246033,-0.781982,-0.547058,down
190812,5.394531,7.5,-3.433594,-0.138672,-0.220703,-0.109375,0.169373,-0.246033,-0.781982,-0.547058,down
190818,5.355469,7.382812,-3.472656,-0.138672,-0.220703,-0.109375,0.168091,-0.246277,-0.781921,-0.547424,down
190823,5.355469,7.382812,-3.472656,-0.140625,-0.216797,-0.113281,0.168091,-0.246277,-0.781921,-0.547424,down
190828,5.316406,7.34375,-3.472656,-0.128906,-0.210937,-0.119141,0.168091,-0.246277,-0.781921,-0.547424,down
190833,5.355469,7.316406,-3.511719,-0.128906,-0.210937,-0.119141,0.166077,-0.246643,-0.78186,-0.547974,down
190839,5.316406,7.316406,-3.511719,-0.128906,-0.210937,-0.119141,0.166077,-0.246643,-0.78186,-0.547974,down
190844,5.316406,7.273437,-3.472656,-0.021484,-0.181641,-0.138672,0.166077,-0.246643,-0.78186,-0.547974,down
190849,5.316406,7.34375,-3.589844,-0.021484,-0.181641,-0.138672,0.164124,-0.246887,-0.782104,-0.548096,down
190854,5.277344,7.382812,-3.550781,-0.021484,-0.181641,-0.138672,0.163574,-0.246826,-0.782288,-0.548096,down
190859,5.277344,7.386719,-3.589844,-0.021484,-0.181641,-0.138672,0.163086,-0.246765,-0.78241,-0.548035,down
190864,5.277344,7.425781,-3.625,0.019531,-0.119141,-0.154297,0.162231,-0.24646,-0.782776,-0.547913,down
190869,5.277344,7.539062,-3.625,0.019531,-0.119141,-0.154297,0.162231,-0.24646,-0.782776,-0.547913,down
190874,5.238281,7.539062,-3.664063,0.013672,-0.087891,-0.166016,0.161865,-0.246277,-0.782898,-0.547913,down
190879,5.203125,7.578125,-3.625,0.013672,-0.087891,-0.166016,0.161438,-0.246033,-0.783081,-0.547913,down
190884,5.203125,7.542969,-3.589844,0.013672,-0.087891,-0.166016,0.161072,-0.24585,-0.783203,-0.547913,down
190889,5.164062,7.578125,-3.625,0.013672,-0.087891,-0.166016,0.160583,-0.245605,-0.783325,-0.547974,down
190894,5.203125,7.617187,-3.625,-0.101563,-0.070312,-0.177734,0.160156,-0.245422,-0.783386,-0.548096,down
190899,5.164062,7.65625,-3.664063,-0.101563,-0.070312,-0.177734,0.159729,-0.245178,-0.783386,-0.548279,down
190904,5.125,7.734375,-3.664063,-0.101563,-0.070312,-0.177734,0.159302,-0.244995,-0.783386,-0.548523,down
190910,5.125,7.808594,-3.664063,-0.130859,-0.085937,-0.171875,0.158264,-0.244629,-0.783325,-0.549072,down
190915,5.164062,7.808594,-3.664063,-0.167969,-0.085937,-0.166016,0.157776,-0.244446,-0.783264,-0.549438,down
190920,5.125,7.808594,-3.742188,-0.175781,-0.085937,-0.164062,0.157288,-0.244324,-0.783142,-0.549805,down
190925,5.125,7.734375,-3.625,-0.175781,-0.085937,-0.164062,0.156799,-0.244202,-0.78302,-0.55011,down
190931,5.125,7.578125,-3.625,-0.175781,-0.085937,-0.164062,0.15625,-0.244141,-0.782959,-0.550415,down
190936,5.164062,7.5,-3.625,-0.123047,-0.083984,-0.121094,0.15625,-0.244141,-0.782959,-0.550415,down
190941,5.125,7.539062,-3.664063,-0.123047,-0.083984,-0.121094,0.155518,-0.243958,-0.782837,-0.550842,down
190947,5.125,7.503906,-3.589844,-0.123047,-0.083984,-0.121094,0.155151,-0.243958,-0.782837,-0.550964,down
190953,5.085937,7.503906,-3.511719,0.001953,-0.087891,-0.076172,0.155151,-0.243958,-0.782837,-0.550964,down
190959,5.125,7.464844,-3.511719,0.074219,-0.058594,-0.068359,0.155151,-0.243958,-0.782837,-0.550964,down
190965,5.085937,7.542969,-3.589844,0.105469,-0.048828,-0.050781,0.154358,-0.243774,-0.783142,-0.550842,down
190970,5.085937,7.582031,-3.589844,0.105469,-0.048828,-0.050781,0.154114,-0.243652,-0.783569,-0.550354,down
190975,5.085937,7.617187,-3.550781,0.105469,-0.048828,-0.050781,0.154114,-0.243652,-0.783569,-0.550354,down
190980,5.125,7.621094,-3.472656,0.105469,-0.048828,-0.050781,0.153931,-0.243469,-0.784058,-0.549805,down
190985,5.125,7.621094,-3.472656,0.138672,-0.048828,-0.056641,0.153931,-0.243469,-0.784058,-0.549805,down
190990,5.046875,7.65625,-3.472656,0.138672,-0.048828,-0.056641,0.153748,-0.243286,-0.784546,-0.549255,down
190995,5.046875,7.621094,-3.550781,0.138672,-0.048828,-0.056641,0.153748,-0.243286,-0.784546,-0.549255,down
191000,5.007812,7.617187,-3.550781,0.138672,-0.048828,-0.056641,0.153503,-0.242981,-0.784912,-0.54895,down
191005,5.046875,7.621094,-3.550781,0.011719,-0.054687,-0.080078,0.153503,-0.242981,-0.784912,-0.54895,down
191010,5.046875,7.578125,-3.511719,-0.023437,-0.058594,-0.083984,0.15332,-0.24292,-0.785034,-0.548828,down
191016,5.046875,7.578125,-3.511719,-0.058594,-0.064453,-0.089844,0.152832,-0.242737,-0.785095,-0.54895,down
191021,5.046875,7.578125,-3.589844,-0.080078,-0.072266,-0.078125,0.152527,-0.242676,-0.785095,-0.549072,down
191026,5.046875,7.621094,-3.550781,-0.080078,-0.072266,-0.078125,0.152283,-0.242676,-0.785034,-0.549194,down
191032,5.046875,7.539062,-3.472656,-0.091797,-0.074219,-0.058594,0.152283,-0.242676,-0.785034,-0.549194,down
191037,5.046875,7.539062,-3.511719,-0.078125,-0.072266,-0.050781,0.152283,-0.242676,-0.785034,-0.549194,down
191043,5.046875,7.582031,-3.625,-0.056641,-0.070312,-0.044922,0.152283,-0.242676,-0.785034,-0.549194,down
191048,5.007812,7.539062,-3.550781,-0.03125,-0.083984,-0.048828,0.152283,-0.242676,-0.785034,-0.549194,down
191053,4.972656,7.578125,-3.511719,0.015625,-0.103516,-0.041016,0.152283,-0.242676,-0.785034,-0.549194,down
191058,5.007812,7.539062,-3.550781,0.015625,-0.103516,-0.041016,0.150696,-0.242859,-0.785034,-0.5495,down
191063,5.007812,7.5,-3.550781,0.074219,-0.095703,-0.037109,0.150696,-0.242859,-0.785034,-0.5495,down
191068,4.972656,7.539062,-3.589844,0.074219,-0.095703,-0.037109,0.15033,-0.24292,-0.7854,-0.549133,down
191073,5.046875,7.503906,-3.664063,0.074219,-0.095703,-0.037109,0.15033,-0.24292,-0.7854,-0.549133,down
191078,5.046875,7.5,-3.589844,0.074219,-0.095703,-0.037109,0.150146,-0.24292,-0.785828,-0.548584,down
191084,5.085937,7.5,-3.625,0.148437,-0.050781,0.0,0.150146,-0.24292,-0.785828,-0.548584,down
191089,5.007812,7.460937,-3.625,0.15625,-0.037109,-0.005859,0.150146,-0.24292,-0.786499,-0.547607,down
191094,5.007812,7.539062,-3.625,0.15625,-0.037109,-0.005859,0.150146,-0.24292,-0.786499,-0.547607,down
191100,5.046875,7.578125,-3.589844,0.146484,-0.035156,-0.017578,0.150146,-0.24292,-0.786499,-0.547607,down
191105,5.007812,7.65625,-3.625,0.146484,-0.035156,-0.017578,0.150085,-0.242859,-0.78717,-0.546692,down
191110,5.046875,7.660156,-3.625,0.146484,-0.035156,-0.017578,0.150085,-0.242798,-0.787354,-0.546387,down
191115,5.007812,7.734375,-3.664063,0.119141,-0.025391,-0.041016,0.150085,-0.242798,-0.787354,-0.546387,down
191120,5.046875,7.765625,-3.625,0.119141,-0.025391,-0.041016,0.149963,-0.242615,-0.787781,-0.545959,down
191125,5.046875,7.738281,-3.664063,0.119141,-0.025391,-0.041016,0.149902,-0.242493,-0.787903,-0.545776,down
191130,5.046875,7.695312,-3.625,0.056641,-0.048828,-0.089844,0.149902,-0.242493,-0.787903,-0.545776,down
191135,4.972656,7.695312,-3.625,0.039063,-0.054687,-0.111328,0.149719,-0.242371,-0.788086,-0.545654,down
191140,5.007812,7.699219,-3.550781,0.039063,-0.054687,-0.111328,0.149231,-0.242065,-0.788391,-0.545532,down
191145,5.007812,7.65625,-3.550781,0.039063,-0.054687,-0.111328,0.148926,-0.241882,-0.788513,-0.545532,down
191150,5.007812,7.578125,-3.550781,0.039063,-0.054687,-0.111328,0.148926,-0.241882,-0.788513,-0.545532,down
191155,5.046875,7.542969,-3.550781,-0.074219,-0.087891,-0.191406,0.14801,-0.241394,-0.788574,-0.545898,down
191160,4.972656,7.582031,-3.550781,-0.074219,-0.087891,-0.191406,0.14801,-0.241394,-0.788574,-0.545898,down
191165,4.933594,7.578125,-3.550781,-0.193359,-0.082031,-0.242187,0.14801,-0.241394,-0.788574,-0.545898,down
191170,5.007812,7.542969,-3.511719,-0.193359,-0.082031,-0.242187,0.14679,-0.240845,-0.788452,-0.546631,down
191176,5.007812,7.464844,-3.511719,-0.193359,-0.082031,-0.242187,0.145508,-0.240234,-0.788208,-0.547546,down
191181,5.007812,7.464844,-3.511719,-0.193359,-0.082031,-0.242187,0.144897,-0.239868,-0.788086,-0.548035,down
191186,5.007812,7.421875,-3.511719,-0.261719,-0.074219,-0.277344,0.144226,-0.239502,-0.787903,-0.548706,down
191191,4.972656,7.34375,-3.472656,-0.261719,-0.074219,-0.277344,0.143494,-0.239136,-0.78772,-0.549255,down
191197,4.972656,7.316406,-3.511719,-0.261719,-0.074219,-0.277344,0.142883,-0.238831,-0.787659,-0.549683,down
191203,5.007812,7.277344,-3.511719,-0.179687,-0.097656,-0.273438,0.142883,-0.238831,-0.787659,-0.549683,down
191208,5.046875,7.238281,-3.550781,-0.144531,-0.089844,-0.267578,0.142883,-0.238831,-0.787659,-0.549683,down
191214,5.125,7.34375,-3.625,-0.085937,-0.089844,-0.228516,0.142883,-0.238831,-0.787659,-0.549683,down
191219,5.203125,7.425781,-3.703125,-0.033203,-0.074219,-0.21875,0.142883,-0.238831,-0.787659,-0.549683,down
191225,5.164062,7.460937,-3.703125,0.105469,-0.050781,-0.191406,0.142883,-0.238831,-0.787659,-0.549683,down
191230,5.164062,7.699219,-3.78125,0.105469,-0.050781,-0.191406,0.139709,-0.236877,-0.788025,-0.550781,down
191235,5.164062,7.765625,-3.855469,0.224609,-0.060547,-0.199219,0.139404,-0.236511,-0.788391,-0.550537,down
191240,5.164062,7.882812,-3.894531,0.224609,-0.060547,-0.199219,0.139099,-0.236145,-0.788818,-0.55011,down
191245,5.085937,7.960937,-3.894531,0.298828,-0.085937,-0.222656,0.138855,-0.235779,-0.789307,-0.549683,down
191251,5.085937,7.960937,-3.894531,0.314453,-0.101563,-0.242187,0.138245,-0.234924,-0.790405,-0.548584,down
191257,4.972656,8.117188,-3.894531,0.314453,-0.101563,-0.242187,0.137817,-0.234436,-0.791077,-0.547913,down
191262,4.933594,8.078125,-3.855469,0.283203,-0.125,-0.273438,0.137451,-0.234009,-0.791626,-0.547424,down
191268,4.894531,7.925781,-3.742188,0.246094,-0.138672,-0.294922,0.137451,-0.234009,-0.791626,-0.547424,down
191273,4.894531,7.84375,-3.664063,0.207031,-0.148437,-0.3125,0.137451,-0.234009,-0.791626,-0.547424,down
191278,4.894531,7.738281,-3.589844,0.146484,-0.144531,-0.347656,0.137451,-0.234009,-0.791626,-0.547424,down
191283,4.855469,7.65625,-3.511719,0.074219,-0.142578,-0.375,0.137451,-0.234009,-0.791626,-0.547424,down
191288,4.816406,7.464844,-3.394531,0.074219,-0.142578,-0.375,0.137451,-0.234009,-0.791626,-0.547424,down
191294,4.78125,7.425781,-3.28125,0.074219,-0.142578,-0.375,0.133301,-0.230835,-0.79425,-0.545959,down
191300,4.78125,7.382812,-3.203125,-0.097656,-0.259766,-0.554687,0.133301,-0.230835,-0.79425,-0.545959,down
191306,4.703125,7.3125,-3.011719,-0.097656,-0.259766,-0.554687,0.129517,-0.22876,-0.795044,-0.54657,down
191311,4.664062,7.316406,-2.898438,-0.103516,-0.332031,-0.669922,0.127869,-0.227905,-0.79541,-0.546814,down
191317,4.511719,7.273437,-2.785156,-0.103516,-0.332031,-0.669922,0.126099,-0.227051,-0.795776,-0.547058,down
191322,4.472656,7.34375,-2.746094,-0.089844,-0.439453,-0.8125,0.126099,-0.227051,-0.795776,-0.547058,down
191327,4.242187,7.503906,-2.667969,-0.089844,-0.439453,-0.8125,0.122192,-0.225159,-0.796692,-0.547363,down
191332,4.167969,7.539062,-2.667969,-0.099609,-0.568359,-0.980469,0.122192,-0.225159,-0.796692,-0.547363,down
191337,4.050781,7.542969,-2.628906,-0.136719,-0.646484,-1.068359,0.122192,-0.225159,-0.796692,-0.547363,down
191343,3.9375,7.617187,-2.628906,-0.136719,-0.646484,-1.068359,0.114197,-0.22168,-0.798462,-0.548035,down
191348,3.820313,7.578125,-2.59375,-0.279297,-0.796875,-1.244141,0.110962,-0.220398,-0.799011,-0.548401,down
191353,3.820313,7.578125,-2.59375,-0.380859,-0.878906,-1.332031,0.110962,-0.220398,-0.799011,-0.548401,down
191359,3.59375,7.84375,-2.628906,-0.380859,-0.878906,-1.332031,0.107239,-0.218994,-0.7995,-0.54895,down
191364,3.59375,7.84375,-2.628906,-0.626953,-1.033203,-1.521484,0.098877,-0.216187,-0.800171,-0.550659,down
191370,3.132813,8.347656,-2.9375,-0.626953,-1.033203,-1.521484,0.089294,-0.213135,-0.800293,-0.553345,down
191375,2.902344,8.386719,-3.128906,-0.626953,-1.033203,-1.521484,0.089294,-0.213135,-0.800293,-0.553345,down
191380,2.789063,8.460938,-3.203125,-0.626953,-1.033203,-1.521484,0.07782,-0.210022,-0.7995,-0.557312,down
191385,2.632813,8.460938,-3.203125,-0.626953,-1.033203,-1.521484,0.07782,-0.210022,-0.7995,-0.557312,down
191390,2.519531,8.609375,-3.320313,-1.472656,-1.431641,-1.955078,0.065247,-0.206726,-0.797974,-0.562317,down
191395,2.328125,8.726563,-3.433594,-1.472656,-1.431641,-1.955078,0.065247,-0.206726,-0.797974,-0.562317,down
191400,2.214844,8.808594,-3.511719,-1.472656,-1.431641,-1.955078,0.058289,-0.204956,-0.796936,-0.565308,down
191406,2.136719,8.84375,-3.511719,-2.005859,-1.638672,-2.298828,0.058289,-0.204956,-0.796936,-0.565308,down
191411,1.832031,8.921875,-3.625,-2.005859,-1.638672,-2.298828,0.0354,-0.198914,-0.79248,-0.5755,down
191416,1.714844,8.953125,-3.625,-2.005859,-1.638672,-2.298828,0.028259,-0.196899,-0.790955,-0.578674,down
191421,1.675781,9.035156,-3.664063,-2.203125,-1.722656,-2.478516,0.019775,-0.19458,-0.789001,-0.582458,down
191426,1.675781,9.035156,-3.664063,-2.203125,-1.722656,-2.478516,0.019775,-0.19458,-0.789001,-0.582458,down
191431,1.5625,8.957031,-3.589844,-2.236328,-1.724609,-2.53125,0.012329,-0.192444,-0.78717,-0.585754,down
191437,1.5625,8.957031,-3.589844,-2.216797,-1.705078,-2.564453,0.003967,-0.189941,-0.785156,-0.589478,down
191442,1.5625,8.84375,-3.472656,-2.216797,-1.705078,-2.564453,0.00415,0.187378,0.783142,0.592957,down
191447,1.5625,8.613281,-3.320313,-2.054688,-1.621094,-2.580078,0.020325,0.182007,0.779053,0.599609,down
191453,1.445313,8.464844,-2.859375,-2.054688,-1.621094,-2.580078,0.028137,0.179321,0.7771,0.6026,down
191458,1.445313,8.425781,-2.785156,-1.927734,-1.501953,-2.523438,0.028137,0.179321,0.7771,0.6026,down
191463,1.332031,8.382813,-2.707031,-1.884766,-1.412109,-2.484375,0.028137,0.179321,0.7771,0.6026,down
191468,1.0625,8.5,-2.628906,-1.884766,-1.412109,-2.484375,0.028137,0.179321,0.7771,0.6026,down
191474,0.910156,8.503906,-2.515625,-1.826172,-1.257813,-2.384766,0.028137,0.179321,0.7771,0.6026,down
191479,0.835937,8.570313,-2.476563,-1.826172,-1.212891,-2.328125,0.028137,0.179321,0.7771,0.6026,down
191485,0.835937,8.570313,-2.476563,-1.841797,-1.171875,-2.25,0.071045,0.162109,0.765137,0.61908,down
191490,0.757812,8.652344,-2.207031,-1.841797,-1.171875,-2.25,0.071045,0.162109,0.765137,0.61908,down
191495,0.679687,8.691406,-2.132813,-1.953125,-1.044922,-2.056641,0.071045,0.162109,0.765137,0.61908,down
191500,0.679687,8.691406,-2.132813,-2.037109,-0.976562,-1.957031,0.089355,0.153931,0.757996,0.627563,down
191505,0.796875,8.121094,-1.75,-2.037109,-0.976562,-1.957031,0.094849,0.151306,0.755249,0.630615,down
191510,0.796875,7.964844,-1.671875,-2.037109,-0.976562,-1.957031,0.100098,0.148743,0.752319,0.633911,down
191516,0.835937,7.765625,-1.558594,-2.267578,-0.724609,-1.691406,0.110229,0.143372,0.745789,0.641174,down
191521,0.910156,7.503906,-1.519531,-2.369141,-0.597656,-1.546875,0.114685,0.140808,0.742432,0.644836,down
191526,1.0625,7.082031,-1.25,-2.369141,-0.597656,-1.546875,0.119446,0.138,0.738586,0.648987,down
191531,1.140625,6.851562,-1.136719,-2.335938,-0.462891,-1.445313,0.119446,0.138,0.738586,0.648987,down
191536,1.027344,6.695312,-0.90625,-2.251953,-0.382813,-1.404297,0.123474,0.135376,0.735168,0.652649,down
191541,0.988281,6.582031,-0.867187,-2.126953,-0.320313,-1.373047,0.127258,0.132812,0.731873,0.656189,down
191546,0.988281,6.582031,-0.867187,-2.126953,-0.320313,-1.373047,0.133972,0.127747,0.72583,0.662476,down
191551,0.835937,6.617187,-0.636719,-1.787109,-0.205078,-1.308594,0.133972,0.127747,0.72583,0.662476,down
191556,0.644531,6.777344,-0.523437,-1.787109,-0.205078,-1.308594,0.137512,0.124878,0.722778,0.665649,down
191561,0.527344,6.960937,-0.371094,-1.787109,-0.205078,-1.308594,0.143066,0.119934,0.718445,0.670105,down
191566,0.414062,7.15625,-0.253906,-1.181641,-0.125,-1.238281,0.143066,0.119934,0.718445,0.670105,down
191571,0.257813,7.382812,-0.253906,-0.992187,-0.095703,-1.216797,0.146118,0.117188,0.716431,0.672058,down
191576,-0.199219,8.039063,-0.332031,-0.992187,-0.095703,-1.216797,0.151001,0.112549,0.713745,0.674622,down
191581,-0.390625,8.308594,-0.371094,-0.759766,-0.125,-1.195313,0.151001,0.112549,0.713745,0.674622,down
191586,-0.390625,8.308594,-0.371094,-0.759766,-0.125,-1.195313,0.153564,0.110168,0.712646,0.675598,down
191591,-0.738281,8.847656,-0.332031,-0.732422,-0.171875,-1.207031,0.155884,0.108215,0.711731,0.676331,down
191596,-1.042969,9.230469,-0.253906,-0.732422,-0.171875,-1.207031,0.158447,0.10614,0.710693,0.677124,down
191601,-1.042969,9.230469,-0.253906,-0.732422,-0.171875,-1.207031,0.158447,0.10614,0.710693,0.677124,down
191606,-1.15625,9.414063,-0.179687,-1.189453,-0.335938,-1.269531,0.158447,0.10614,0.710693,0.677124,down
191611,-1.386719,9.496094,-0.140625,-1.392578,-0.355469,-1.304688,0.166992,0.099792,0.706482,0.68042,down
191616,-1.386719,9.265625,-0.027344,-1.392578,-0.355469,-1.304688,0.170288,0.097473,0.704407,0.68219,down
191621,-1.425781,9.148438,0.128906,-1.919922,-0.359375,-1.361328,0.173706,0.094971,0.701782,0.684326,down
191626,-1.539063,8.730469,0.089844,-1.919922,-0.359375,-1.361328,0.176819,0.092651,0.699158,0.686584,down
191631,-1.539063,8.730469,0.089844,-1.919922,-0.359375,-1.361328,0.183716,0.087219,0.692505,0.692139,down
191636,-1.539063,8.421875,0.089844,-2.333984,-0.439453,-1.482422,0.183716,0.087219,0.692505,0.692139,down
191641,-1.539063,8.34375,0.394531,-2.333984,-0.439453,-1.482422,0.187805,0.084045,0.688354,0.695557,down
191646,-1.539063,8.078125,0.703125,-2.597656,-0.494141,-1.501953,0.187805,0.084045,0.688354,0.695557,down
191651,-1.539063,8.078125,0.703125,-2.597656,-0.494141,-1.501953,0.199341,0.075317,0.675171,0.706238,down
191656,-1.695313,7.925781,0.664062,-2.597656,-0.494141,-1.501953,0.199341,0.075317,0.675171,0.706238,down
191661,-1.695313,7.84375,0.742187,-2.753906,-0.533203,-1.5625,0.199341,0.075317,0.675171,0.706238,down
191666,-1.847656,7.84375,0.96875,-2.753906,-0.533203,-1.5625,0.207581,0.069092,0.665222,0.713867,down
191671,-1.886719,7.84375,1.007813,-2.496094,-0.527344,-1.609375,0.211975,0.065796,0.660095,0.717651,down
191676,-1.925781,7.925781,1.046875,-2.496094,-0.527344,-1.609375,0.21637,0.062622,0.655151,0.72113,down
191681,-2.039063,7.921875,1.125,-2.240234,-0.539062,-1.646484,0.220459,0.059631,0.650757,0.724121,down
191688,-2.039063,8.042969,1.199219,-2.240234,-0.539062,-1.646484,0.228516,0.054016,0.642822,0.729187,down
191693,-2.078125,8.003906,1.199219,-2.119141,-0.537109,-1.662109,0.232605,0.051147,0.638855,0.731567,down
191700,-2.078125,7.964844,1.277344,-2.115234,-0.53125,-1.667969,0.232605,0.051147,0.638855,0.731567,down
191705,-2.152344,7.84375,1.355469,-2.115234,-0.53125,-1.667969,0.232605,0.051147,0.638855,0.731567,down
191710,-2.152344,7.84375,1.355469,-2.158203,-0.507812,-1.673828,0.244995,0.042175,0.626648,0.738586,down
191715,-2.152344,7.84375,1.355469,-2.298828,-0.462891,-1.681641,0.249023,0.039063,0.622375,0.740967,down
191720,-2.152344,7.273437,1.773438,-2.298828,-0.462891,-1.681641,0.253174,0.035767,0.617859,0.743591,down
191725,-2.078125,6.734375,1.929688,-2.298828,-0.462891,-1.681641,0.25708,0.032471,0.613403,0.746094,down
191730,-2.152344,6.351562,2.003906,-2.298828,-0.462891,-1.681641,0.25708,0.032471,0.613403,0.746094,down
191736,-2.152344,6.3125,2.195313,-1.978516,-0.291016,-1.755859,0.25708,0.032471,0.613403,0.746094,down
191741,-2.152344,6.277344,2.503906,-1.978516,-0.291016,-1.755859,0.272522,0.018677,0.597046,0.754272,down
191746,-2.230469,6.238281,2.578125,-1.525391,-0.1875,-1.814453,0.272522,0.018677,0.597046,0.754272,down
191751,-2.308594,6.273437,2.578125,-1.201172,-0.095703,-1.841797,0.276245,0.01532,0.593933,0.755432,down
191756,-2.652344,6.621094,2.542969,-1.201172,-0.095703,-1.841797,0.280273,0.011719,0.591125,0.756226,down
191761,-2.882813,7.0,2.578125,-0.525391,-0.007813,-1.884766,0.283691,0.008545,0.589294,0.756409,down
191766,-3.035156,7.316406,2.578125,-0.525391,-0.007813,-1.884766,0.290771,0.002319,0.58728,0.755371,down
191771,-3.304688,7.882812,2.695313,-0.525391,-0.007813,-1.884766,0.290771,0.002319,0.58728,0.755371,down
191776,-3.457031,8.078125,2.695313,-0.525391,-0.007813,-1.884766,0.294678,-0.000732,0.586975,0.754089,down
191781,-3.609375,8.226563,2.65625,0.0625,0.037109,-1.896484,0.297913,-0.003357,0.586914,0.752808,down
191786,-3.800781,8.421875,2.695313,0.0625,0.037109,-1.896484,0.305054,-0.009033,0.587158,0.749756,down
191791,-4.222656,8.882813,2.695313,0.0625,0.037109,-1.896484,0.305054,-0.009033,0.587158,0.749756,down
191796,-4.492187,9.152344,2.734375,0.0625,0.037109,-1.896484,0.312073,-0.015198,0.586792,0.747009,down
191801,-4.757812,9.269531,2.808594,0.0625,0.037109,-1.896484,0.312073,-0.015198,0.586792,0.747009,down
191806,-4.757812,9.269531,2.808594,-0.474609,0.119141,-1.910156,0.315552,-0.018555,0.586121,0.746033,down
191811,-5.179687,9.148438,2.960938,-0.726562,0.166016,-1.916016,0.318604,-0.02179,0.585144,0.745422,down
191816,-5.179687,9.148438,2.960938,-0.941406,0.216797,-1.910156,0.321777,-0.025574,0.583618,0.745117,down
191822,-5.257812,8.957031,2.960938,-0.941406,0.216797,-1.910156,0.324951,-0.029724,0.581787,0.745056,down
191827,-5.257812,8.957031,2.960938,-1.183594,0.285156,-1.878906,0.330872,-0.038025,0.577637,0.745239,down
191833,-5.332031,7.660156,3.308594,-1.183594,0.285156,-1.878906,0.333862,-0.042358,0.5755,0.745361,down
191838,-5.371094,7.503906,3.34375,-1.066406,0.345703,-1.871094,0.333862,-0.042358,0.5755,0.745361,down
191843,-5.410156,7.273437,3.421875,-0.953125,0.392578,-1.894531,0.333862,-0.042358,0.5755,0.745361,down
191849,-5.601562,7.277344,3.269531,-0.953125,0.392578,-1.894531,0.342468,-0.055054,0.570129,0.744751,down
191854,-5.792969,7.273437,3.230469,-0.623047,0.425781,-1.914063,0.342468,-0.055054,0.570129,0.744751,down
191859,-5.871094,7.421875,3.308594,-0.425781,0.410156,-1.929688,0.342468,-0.055054,0.570129,0.744751,down
191864,-6.214844,7.765625,3.308594,-0.203125,0.394531,-1.9375,0.342468,-0.055054,0.570129,0.744751,down
191870,-6.40625,8.121094,3.269531,-0.203125,0.394531,-1.9375,0.354187,-0.070496,0.567322,0.740112,down
191876,-6.558594,8.34375,3.191406,0.154297,0.386719,-1.939453,0.354187,-0.070496,0.567322,0.740112,down
191881,-6.75,8.652344,3.191406,0.251953,0.335938,-1.933594,0.354187,-0.070496,0.567322,0.740112,down
191886,-6.828125,8.730469,3.269531,0.273438,0.285156,-1.910156,0.354187,-0.070496,0.567322,0.740112,down
191892,-6.902344,8.804688,3.269531,0.138672,0.230469,-1.859375,0.354187,-0.070496,0.567322,0.740112,down
191897,-6.980469,8.769531,3.269531,0.138672,0.230469,-1.859375,0.372986,-0.089233,0.568665,0.727722,down
191902,-7.019531,8.765625,3.308594,-0.210937,0.208984,-1.785156,0.372986,-0.089233,0.568665,0.727722,down
191907,-7.09375,8.464844,3.382813,-0.210937,0.208984,-1.785156,0.378845,-0.095581,0.567444,0.724854,down
191912,-7.019531,8.265625,3.34375,-0.666016,0.234375,-1.738281,0.381531,-0.098938,0.566223,0.723877,down
191917,-6.980469,7.617187,3.421875,-0.666016,0.234375,-1.738281,0.381531,-0.098938,0.566223,0.723877,down
191922,-6.980469,7.3125,3.34375,-0.666016,0.234375,-1.738281,0.384155,-0.102661,0.564636,0.723267,down
191927,-6.980469,7.3125,3.34375,-0.970703,0.283203,-1.734375,0.386475,-0.10614,0.562927,0.722839,down
191932,-6.902344,7.078125,3.460938,-0.970703,0.283203,-1.734375,0.388916,-0.110046,0.560974,0.722473,down
191937,-6.980469,6.738281,3.652344,-1.037109,0.316406,-1.755859,0.391418,-0.114136,0.558899,0.722107,down
191942,-6.980469,6.738281,3.652344,-1.037109,0.316406,-1.755859,0.391418,-0.114136,0.558899,0.722107,down
191947,-6.980469,6.738281,3.652344,-0.783203,0.408203,-1.796875,0.396179,-0.122192,0.555054,0.72113,down
191952,-7.136719,6.851562,3.652344,-0.783203,0.408203,-1.796875,0.401245,-0.130554,0.551758,0.719421,down
191957,-7.210937,6.929687,3.882813,-0.783203,0.408203,-1.796875,0.403442,-0.133972,0.55072,0.718323,down
191962,-7.25,6.929687,3.84375,-0.394531,0.449219,-1.751953,0.403442,-0.133972,0.55072,0.718323,down
191967,-7.359375,6.964844,3.882813,-0.394531,0.449219,-1.751953,0.408264,-0.141235,0.548889,0.715576,down
191972,-7.480469,7.003906,3.84375,-0.308594,0.433594,-1.65625,0.408264,-0.141235,0.548889,0.715576,down
191978,-7.742187,7.195312,3.882813,-0.308594,0.433594,-1.65625,0.41272,-0.14801,0.547485,0.712708,down
191984,-7.859375,7.234375,3.921875,-0.353516,0.408203,-1.523438,0.414856,-0.151306,0.546753,0.711365,down
191990,-7.980469,7.195312,3.957031,-0.412109,0.400391,-1.451172,0.414856,-0.151306,0.546753,0.711365,down
191996,-8.058594,7.121094,3.996094,-0.412109,0.400391,-1.451172,0.414856,-0.151306,0.546753,0.711365,down
192001,-8.058594,7.042969,4.035156,-0.544922,0.386719,-1.298828,0.414856,-0.151306,0.546753,0.711365,down
192007,-8.058594,6.851562,4.113281,-0.570312,0.373047,-1.226563,0.414856,-0.151306,0.546753,0.711365,down
192012,-8.085938,6.851562,4.148437,-0.570312,0.373047,-1.226563,0.424561,-0.169556,0.540588,0.706238,down
192017,-8.125,6.851562,4.148437,-0.464844,0.335938,-0.996094,0.424561,-0.169556,0.540588,0.706238,down
192023,-8.089844,6.890625,4.074219,-0.464844,0.335938,-0.996094,0.426697,-0.174255,0.538879,0.705139,down
192028,-8.125,6.890625,4.113281,-0.464844,0.335938,-0.996094,0.426697,-0.174255,0.538879,0.705139,down
192033,-8.164063,6.929687,4.113281,-0.296875,0.298828,-0.851562,0.427612,-0.176147,0.538269,0.704529,down
192038,-8.164063,6.929687,4.113281,-0.083984,0.291016,-0.728516,0.429443,-0.179749,0.537537,0.703064,down
192043,-8.285156,6.964844,4.035156,-0.083984,0.291016,-0.728516,0.429443,-0.179749,0.537537,0.703064,down
192048,-8.363281,7.195312,3.957031,0.013672,0.277344,-0.662109,0.430298,-0.181213,0.537476,0.702271,down
192053,-8.402344,7.3125,3.996094,0.087891,0.248047,-0.607422,0.431824,-0.183594,0.537781,0.700439,down
192058,-8.402344,7.347656,3.996094,0.087891,0.248047,-0.607422,0.432556,-0.184631,0.538025,0.699524,down
192063,-8.402344,7.503906,3.882813,0.087891,0.248047,-0.607422,0.433289,-0.185547,0.538269,0.698669,down
192069,-8.441406,7.617187,3.84375,0.087891,0.248047,-0.607422,0.433899,-0.186401,0.538513,0.697815,down
192074,-8.402344,7.65625,3.804688,0.058594,0.208984,-0.458984,0.433899,-0.186401,0.538513,0.697815,down
192080,-8.363281,7.578125,3.804688,-0.013672,0.214844,-0.445312,0.433899,-0.186401,0.538513,0.697815,down
192085,-8.242188,7.425781,3.84375,-0.013672,0.214844,-0.445312,0.435425,-0.18927,0.538696,0.695984,down
192090,-8.207031,7.347656,3.84375,-0.185547,0.214844,-0.402344,0.435425,-0.18927,0.538696,0.695984,down
192095,-8.167969,7.195312,3.882813,-0.261719,0.222656,-0.388672,0.435425,-0.18927,0.538696,0.695984,down
192101,-8.058594,7.121094,3.84375,-0.261719,0.222656,-0.388672,0.436279,-0.19281,0.53772,0.69519,down
192107,-7.902344,6.890625,3.84375,-0.261719,0.222656,-0.388672,0.436646,-0.195374,0.536743,0.695068,down
192112,-7.859375,6.851562,3.882813,-0.261719,0.222656,-0.388672,0.436646,-0.195374,0.536743,0.695068,down
192117,-7.824219,6.851562,3.882813,-0.289063,0.230469,-0.355469,0.436646,-0.195374,0.536743,0.695068,down
192122,-7.820312,6.890625,3.84375,-0.289063,0.230469,-0.355469,0.437195,-0.198914,0.535583,0.69458,down
192127,-7.820312,6.929687,3.84375,-0.289063,0.230469,-0.355469,0.437195,-0.198914,0.535583,0.69458,down
192132,-7.863281,7.003906,3.804688,-0.140625,0.207031,-0.328125,0.437622,-0.200806,0.535217,0.694031,down
192138,-7.941406,7.195312,3.84375,-0.140625,0.207031,-0.328125,0.437866,-0.20166,0.535156,0.693665,down
192143,-7.898437,7.347656,3.84375,-0.140625,0.207031,-0.328125,0.43811,-0.202393,0.535156,0.693359,down
192149,-7.902344,7.347656,3.804688,-0.042969,0.148437,-0.267578,0.438416,-0.203064,0.535095,0.692993,down
192154,-7.859375,7.347656,3.84375,-0.076172,0.136719,-0.232422,0.438599,-0.203735,0.535034,0.692688,down
192159,-7.902344,7.273437,3.882813,-0.076172,0.136719,-0.232422,0.438721,-0.204346,0.534912,0.692566,down
192164,-7.902344,7.234375,3.84375,-0.228516,0.134766,-0.164062,0.438782,-0.205078,0.534668,0.692505,down
192171,-7.742187,7.042969,3.84375,-0.332031,0.125,-0.136719,0.438782,-0.205078,0.534668,0.692505,down
192176,-7.746094,6.890625,3.882813,-0.332031,0.125,-0.136719,0.438782,-0.205078,0.534668,0.692505,down
192182,-7.59375,6.660156,3.921875,-0.4375,0.121094,-0.091797,0.438782,-0.205078,0.534668,0.692505,down
192188,-7.597656,6.582031,3.84375,-0.451172,0.117188,-0.058594,0.438782,-0.205078,0.534668,0.692505,down
192194,-7.476562,6.546875,3.882813,-0.451172,0.117188,-0.058594,0.437561,-0.209656,0.531067,0.694641,down
192200,-7.402344,6.429687,3.882813,-0.349609,0.099609,-0.019531,0.437561,-0.209656,0.531067,0.694641,down
192206,-7.402344,6.390625,3.84375,-0.283203,0.103516,0.0,0.437561,-0.209656,0.531067,0.694641,down
192211,-7.398437,6.390625,3.804688,-0.230469,0.105469,0.021484,0.437561,-0.209656,0.531067,0.694641,down
192217,-7.324219,6.316406,3.730469,-0.121094,0.087891,0.064453,0.437561,-0.209656,0.531067,0.694641,down
192222,-7.25,6.277344,3.730469,-0.121094,0.087891,0.064453,0.436096,-0.211853,0.529419,0.696167,down
192227,-7.210937,6.238281,3.691406,-0.066406,0.082031,0.089844,0.436096,-0.211853,0.529419,0.696167,down
192232,-7.210937,6.238281,3.691406,-0.066406,0.082031,0.089844,0.435486,-0.212097,0.52948,0.696472,down
192238,-7.210937,6.277344,3.691406,-0.011719,0.068359,0.148437,0.43512,-0.212097,0.529602,0.696594,down
192243,-7.253906,6.316406,3.691406,-0.011719,0.068359,0.148437,0.434387,-0.212036,0.529846,0.696838,down
192249,-7.25,6.316406,3.613281,-0.011719,0.068359,0.148437,0.434021,-0.211975,0.529907,0.697083,down
192254,-7.28125,6.316406,3.691406,-0.011719,0.068359,0.148437,0.433594,-0.211853,0.529968,0.697327,down
192259,-7.28125,6.351562,3.652344,-0.117188,0.046875,0.205078,0.433594,-0.211853,0.529968,0.697327,down
192266,-7.28125,6.351562,3.652344,-0.117188,0.046875,0.205078,0.432556,-0.211792,0.529907,0.698059,down
192271,-7.363281,6.351562,3.691406,-0.117188,0.046875,0.205078,0.432556,-0.211792,0.529907,0.698059,down
192277,-7.324219,6.316406,3.765625,-0.265625,0.048828,0.234375,0.432556,-0.211792,0.529907,0.698059,down
192282,-7.402344,6.277344,3.730469,-0.265625,0.048828,0.234375,0.430847,-0.211853,0.529297,0.699524,down
192287,-7.363281,6.160156,3.765625,-0.285156,0.048828,0.232422,0.429565,-0.212036,0.528687,0.700684,down
192292,-7.402344,6.160156,3.804688,-0.285156,0.048828,0.232422,0.429565,-0.212036,0.528687,0.700684,down
192297,-7.359375,6.046875,3.804688,-0.316406,0.048828,0.240234,0.428284,-0.212219,0.527954,0.702026,down
192302,-7.320312,5.96875,3.804688,-0.316406,0.048828,0.240234,0.428284,-0.212219,0.527954,0.702026,down
192308,-7.320312,5.855469,3.84375,-0.357422,0.001953,0.255859,0.428284,-0.212219,0.527954,0.702026,down
192313,-7.359375,5.855469,3.804688,-0.357422,0.001953,0.255859,0.42627,-0.212402,0.52655,0.704224,down
192318,-7.320312,5.855469,3.84375,-0.357422,0.001953,0.255859,0.425659,-0.212402,0.526123,0.704895,down
192323,-7.320312,5.816406,3.84375,-0.330078,-0.033203,0.255859,0.425049,-0.212402,0.525635,0.705688,down
192329,-7.324219,5.816406,3.765625,-0.330078,-0.033203,0.255859,0.4245,-0.212341,0.525208,0.706299,down
192334,-7.324219,5.816406,3.804688,-0.306641,-0.0625,0.25,0.42395,-0.212219,0.524719,0.707031,down
192339,-7.324219,5.816406,3.804688,-0.306641,-0.0625,0.25,0.42395,-0.212219,0.524719,0.707031,down
192344,-7.359375,5.894531,3.84375,-0.292969,-0.054687,0.244141,0.42395,-0.212219,0.524719,0.707031,down
192350,-7.398437,5.894531,3.84375,-0.287109,-0.064453,0.253906,0.42395,-0.212219,0.524719,0.707031,down
192355,-7.480469,5.96875,3.84375,-0.283203,-0.0625,0.259766,0.421875,-0.211731,0.522949,0.709717,down
192360,-7.59375,6.046875,3.882813,-0.275391,-0.052734,0.275391,0.421875,-0.211731,0.522949,0.709717,down
192366,-7.59375,6.085937,3.921875,-0.302734,-0.044922,0.287109,0.421875,-0.211731,0.522949,0.709717,down
192371,-7.636719,6.125,3.996094,-0.289063,-0.027344,0.308594,0.421875,-0.211731,0.522949,0.709717,down
192377,-7.742187,6.160156,4.035156,-0.289063,-0.027344,0.308594,0.41864,-0.210937,0.521118,0.713257,down
192382,-7.78125,6.160156,4.113281,-0.289063,-0.027344,0.308594,0.41864,-0.210937,0.521118,0.713257,down
192388,-7.785156,6.125,4.148437,-0.25,0.013672,0.378906,0.416931,-0.21051,0.52063,0.714722,down
192393,-7.742187,6.007812,4.1875,-0.25,0.013672,0.378906,0.415955,-0.210144,0.520447,0.715515,down
192398,-7.703125,5.96875,4.1875,-0.181641,0.03125,0.476562,0.415955,-0.210144,0.520447,0.715515,down
192403,-7.675781,5.96875,4.265625,-0.181641,0.03125,0.476562,0.414001,-0.209412,0.520447,0.716858,down
192408,-7.636719,6.007812,4.226562,-0.181641,0.03125,0.476562,0.413086,-0.208984,0.520569,0.717468,down
192413,-7.597656,6.007812,4.113281,-0.003906,0.041016,0.541016,0.411926,-0.208313,0.520813,0.718079,down
192418,-7.554687,6.007812,4.113281,-0.003906,0.041016,0.541016,0.410889,-0.207642,0.521179,0.718567,down
192423,-7.476562,6.046875,4.113281,0.123047,0.042969,0.587891,0.410889,-0.207642,0.521179,0.718567,down
192428,-7.480469,6.125,3.996094,0.123047,0.042969,0.587891,0.408875,-0.206116,0.522339,0.719421,down
192433,-7.476562,6.199219,3.957031,0.242187,0.068359,0.632812,0.407654,-0.205078,0.523193,0.719727,down
192438,-7.480469,6.277344,3.996094,0.306641,0.087891,0.654297,0.407654,-0.205078,0.523193,0.719727,down
192443,-7.554687,6.429687,3.921875,0.306641,0.087891,0.654297,0.405457,-0.203125,0.525085,0.720154,down
192448,-7.671875,6.582031,3.882813,0.306641,0.087891,0.654297,0.404236,-0.202148,0.526184,0.720337,down
192453,-7.632812,6.738281,3.804688,0.306641,0.087891,0.654297,0.404236,-0.202148,0.526184,0.720337,down
192458,-7.671875,6.8125,3.84375,0.460937,0.212891,0.757812,0.404236,-0.202148,0.526184,0.720337,down
192463,-7.703125,6.929687,3.765625,0.460937,0.212891,0.757812,0.400024,-0.198853,0.530396,0.72052,down
192469,-7.863281,7.195312,3.730469,0.460937,0.212891,0.757812,0.398254,-0.197632,0.532104,0.720581,down
192474,-7.941406,7.347656,3.84375,0.460937,0.212891,0.757812,0.39679,-0.196655,0.533569,0.720581,down
192479,-7.902344,7.386719,3.804688,0.460937,0.212891,0.757812,0.394836,-0.195435,0.535339,0.720581,down
192484,-7.820312,7.347656,3.730469,0.460937,0.212891,0.757812,0.393066,-0.194336,0.537048,0.720642,down
192489,-7.707031,7.347656,3.765625,0.548828,0.369141,1.015625,0.390747,-0.192932,0.539124,0.720703,down
192495,-7.554687,7.234375,3.691406,0.548828,0.369141,1.015625,0.388977,-0.191895,0.54071,0.720764,down
192501,-7.480469,7.15625,3.691406,0.548828,0.369141,1.015625,0.386597,-0.19043,0.542725,0.720886,down
192506,-7.359375,7.195312,3.613281,0.576172,0.380859,1.152344,0.38446,-0.189087,0.544556,0.721008,down
192511,-7.359375,7.15625,3.574219,0.583984,0.380859,1.183594,0.38446,-0.189087,0.544556,0.721008,down
192517,-7.359375,7.195312,3.460938,0.583984,0.380859,1.183594,0.379578,-0.186035,0.548645,0.721313,down
192523,-7.28125,7.15625,3.421875,0.574219,0.369141,1.203125,0.374817,-0.183044,0.55249,0.72168,down
192528,-7.285156,7.15625,3.382813,0.574219,0.369141,1.203125,0.374817,-0.183044,0.55249,0.72168,down
192533,-7.253906,7.195312,3.269531,0.585937,0.330078,1.201172,0.369995,-0.17981,0.556335,0.721985,down
192539,-7.359375,7.273437,3.191406,0.585937,0.330078,1.201172,0.367493,-0.17804,0.558289,0.722168,down
192544,-7.285156,7.234375,3.078125,0.585937,0.330078,1.201172,0.365479,-0.176697,0.559814,0.722351,down
192549,-7.25,7.234375,3.117188,0.466797,0.253906,1.113281,0.363281,-0.17511,0.561401,0.722595,down
192555,-7.171875,7.347656,3.039063,0.466797,0.253906,1.113281,0.361145,-0.173584,0.562927,0.7229,down
192560,-7.171875,7.3125,3.0,0.367188,0.212891,1.046875,0.361145,-0.173584,0.562927,0.7229,down
192566,-7.171875,7.238281,2.925781,0.310547,0.210937,1.011719,0.361145,-0.173584,0.562927,0.7229,down
192571,-7.132812,7.273437,2.808594,0.261719,0.212891,0.970703,0.361145,-0.173584,0.562927,0.7229,down
192577,-7.132812,7.273437,2.769531,0.230469,0.222656,0.939453,0.361145,-0.173584,0.562927,0.7229,down
192582,-7.058594,7.316406,2.65625,0.228516,0.236328,0.910156,0.361145,-0.173584,0.562927,0.7229,down
192587,-7.058594,7.316406,2.65625,0.261719,0.253906,0.878906,0.349304,-0.166077,0.569824,0.725037,down
192592,-7.019531,7.34375,2.65625,0.291016,0.271484,0.833984,0.349304,-0.166077,0.569824,0.725037,down
192597,-7.019531,7.34375,2.65625,0.300781,0.294922,0.8125,0.345703,-0.164124,0.572083,0.725464,down
192602,-6.941406,7.617187,2.695313,0.300781,0.294922,0.8125,0.343933,-0.163269,0.573242,0.725586,down
192607,-6.941406,7.617187,2.695313,0.34375,0.316406,0.765625,0.342224,-0.162476,0.574402,0.725647,down
192613,-6.710937,7.539062,2.617188,0.34375,0.316406,0.765625,0.342224,-0.162476,0.574402,0.725647,down
192618,-6.636719,7.542969,2.617188,0.273438,0.347656,0.699219,0.342224,-0.162476,0.574402,0.725647,down
192623,-6.597656,7.582031,2.578125,0.273438,0.347656,0.699219,0.337036,-0.160217,0.578003,0.725708,down
192628,-6.597656,7.542969,2.578125,0.109375,0.308594,0.683594,0.337036,-0.160217,0.578003,0.725708,down
192633,-6.519531,7.425781,2.578125,0.109375,0.308594,0.683594,0.333801,-0.159058,0.579834,0.726013,down
192638,-6.519531,7.460937,2.578125,-0.111328,0.283203,0.662109,0.33197,-0.158569,0.580505,0.726379,down
192643,-6.597656,7.582031,2.578125,-0.111328,0.283203,0.662109,0.330322,-0.158142,0.580933,0.726929,down
192648,-6.636719,7.464844,2.578125,-0.111328,0.283203,0.662109,0.328735,-0.157837,0.581055,0.7276,down
192653,-6.597656,7.347656,2.578125,-0.111328,0.283203,0.662109,0.326965,-0.157593,0.580933,0.728516,down
192658,-6.519531,7.273437,2.617188,-0.535156,0.142578,0.611328,0.323975,-0.157227,0.579834,0.730835,down
192663,-6.445312,7.199219,2.695313,-0.707031,0.019531,0.611328,0.323975,-0.157227,0.579834,0.730835,down
192668,-6.328125,7.160156,2.695313,-0.707031,0.019531,0.611328,0.322632,-0.156982,0.578918,0.732178,down
192674,-6.289062,7.078125,2.734375,-0.753906,-0.03125,0.625,0.319702,-0.156189,0.576599,0.735474,down
192679,-6.136719,7.003906,2.808594,-0.753906,-0.03125,0.625,0.31842,-0.155579,0.575378,0.737122,down
192685,-6.023437,6.8125,2.886719,-0.753906,-0.03125,0.625,0.317261,-0.154785,0.574341,0.738586,down
192690,-6.023437,6.773437,2.925781,-0.625,-0.275391,0.773437,0.315918,-0.153748,0.573181,0.740295,down
192696,-6.023437,6.773437,2.925781,-0.556641,-0.3125,0.820312,0.315918,-0.153748,0.573181,0.740295,down
192701,-5.984375,6.773437,2.808594,-0.556641,-0.3125,0.820312,0.313354,-0.151184,0.571289,0.743347,down
192706,-5.945312,6.738281,2.808594,-0.365234,-0.369141,0.904297,0.312012,-0.149536,0.570557,0.744812,down
192711,-5.945312,6.695312,2.808594,-0.263672,-0.402344,0.931641,0.312012,-0.149536,0.570557,0.744812,down
192716,-5.832031,6.8125,2.769531,-0.1875,-0.414062,0.960937,0.312012,-0.149536,0.570557,0.744812,down
192722,-5.792969,6.851562,2.65625,-0.101563,-0.417969,0.974609,0.312012,-0.149536,0.570557,0.744812,down
192727,-5.679687,6.773437,2.65625,-0.054687,-0.417969,0.980469,0.312012,-0.149536,0.570557,0.744812,down
192733,-5.488281,6.8125,2.65625,-0.050781,-0.427734,0.998047,0.312012,-0.149536,0.570557,0.744812,down
192738,-5.488281,6.894531,2.617188,-0.050781,-0.427734,0.998047,0.304321,-0.137268,0.569153,0.751404,down
192743,-5.371094,6.894531,2.578125,-0.050781,-0.427734,0.998047,0.302856,-0.134949,0.569031,0.752502,down
192748,-5.296875,6.890625,2.578125,-0.130859,-0.365234,1.041016,0.299927,-0.130859,0.568665,0.7547,down
192753,-5.140625,6.960937,2.578125,-0.130859,-0.365234,1.041016,0.299927,-0.130859,0.568665,0.7547,down
192758,-5.140625,6.960937,2.578125,-0.130859,-0.365234,1.041016,0.298401,-0.128906,0.568481,0.755798,down
192763,-5.140625,7.042969,2.542969,-0.130859,-0.365234,1.041016,0.296509,-0.126709,0.568176,0.75708,down
192769,-5.101562,7.078125,2.542969,-0.208984,-0.263672,1.128906,0.296509,-0.126709,0.568176,0.75708,down
192774,-5.027344,7.121094,2.617188,-0.208984,-0.263672,1.128906,0.290833,-0.120667,0.567505,0.760742,down
192779,-4.988281,7.121094,2.734375,-0.162109,-0.246094,1.222656,0.290833,-0.120667,0.567505,0.760742,down
192784,-4.910156,7.082031,2.734375,-0.162109,-0.246094,1.222656,0.286865,-0.116577,0.567322,0.763062,down
192789,-4.875,6.933594,2.734375,-0.162109,-0.246094,1.222656,0.286865,-0.116577,0.567322,0.763062,down
192794,-4.835937,6.8125,2.769531,-0.0625,-0.210937,1.287109,0.284912,-0.114563,0.567383,0.764038,down
192799,-4.835937,6.8125,2.769531,-0.0625,-0.210937,1.287109,0.284912,-0.114563,0.567383,0.764038,down
192804,-4.71875,6.8125,2.734375,0.044922,-0.212891,1.345703,0.284912,-0.114563,0.567383,0.764038,down
192809,-4.71875,6.8125,2.734375,0.103516,-0.207031,1.375,0.278137,-0.107666,0.568115,0.766968,down
192814,-4.335937,6.695312,2.734375,0.103516,-0.207031,1.375,0.273376,-0.102661,0.569214,0.768555,down
192819,-4.300781,6.660156,2.734375,0.103516,-0.207031,1.375,0.270935,-0.100098,0.569946,0.769226,down
192825,-4.183594,6.777344,2.65625,0.103516,-0.207031,1.375,0.268494,-0.097595,0.57074,0.769836,down
192831,-4.105469,6.855469,2.578125,0.103516,-0.207031,1.375,0.265991,-0.095154,0.571655,0.770386,down
192836,-4.070312,6.855469,2.578125,0.380859,-0.060547,1.451172,0.265991,-0.095154,0.571655,0.770386,down
192842,-3.953125,6.894531,2.578125,0.425781,-0.029297,1.441406,0.265991,-0.095154,0.571655,0.770386,down
192847,-3.878906,6.890625,2.578125,0.488281,0.009766,1.453125,0.265991,-0.095154,0.571655,0.770386,down
192852,-3.878906,7.003906,2.542969,0.556641,0.068359,1.466797,0.265991,-0.095154,0.571655,0.770386,down
192857,-3.878906,7.160156,2.503906,0.634766,0.130859,1.46875,0.265991,-0.095154,0.571655,0.770386,down
192862,-3.914063,7.34375,2.464844,0.634766,0.130859,1.46875,0.249451,-0.080933,0.579529,0.771606,down
192867,-3.914063,7.765625,2.425781,0.634766,0.130859,1.46875,0.246399,-0.078674,0.581421,0.771362,down
192872,-3.878906,7.847656,2.464844,0.810547,0.269531,1.451172,0.246399,-0.078674,0.581421,0.771362,down
192877,-3.800781,8.082031,2.503906,0.828125,0.304688,1.439453,0.246399,-0.078674,0.581421,0.771362,down
192882,-3.761719,8.226563,2.386719,0.828125,0.304688,1.439453,0.246399,-0.078674,0.581421,0.771362,down
192887,-3.761719,8.304688,2.425781,0.832031,0.384766,1.4375,0.246399,-0.078674,0.581421,0.771362,down
192892,-3.6875,8.382813,2.386719,0.818359,0.390625,1.445313,0.246399,-0.078674,0.581421,0.771362,down
192897,-3.570313,8.425781,2.542969,0.818359,0.390625,1.445313,0.2276,-0.066895,0.593689,0.768921,down
192902,-3.496094,8.425781,2.542969,0.740234,0.388672,1.488281,0.2276,-0.066895,0.593689,0.768921,down
192907,-3.417969,8.308594,2.542969,0.693359,0.375,1.501953,0.2276,-0.066895,0.593689,0.768921,down
192912,-3.304688,8.226563,2.578125,0.634766,0.355469,1.527344,0.2276,-0.066895,0.593689,0.768921,down
192917,-3.226563,8.082031,2.578125,0.634766,0.355469,1.527344,0.214233,-0.059204,0.600769,0.767883,down
192922,-3.148438,8.0,2.578125,0.546875,0.310547,1.560547,0.214233,-0.059204,0.600769,0.767883,down
192928,-3.148438,8.0,2.578125,0.523437,0.275391,1.572266,0.207397,-0.055054,0.603699,0.767761,down
192933,-3.074219,8.0,2.578125,0.527344,0.234375,1.568359,0.207397,-0.055054,0.603699,0.767761,down
192938,-3.074219,8.0,2.578125,0.539062,0.214844,1.552734,0.200867,-0.05072,0.606384,0.7677,down
192943,-3.035156,8.121094,2.578125,0.539062,0.214844,1.552734,0.200867,-0.05072,0.606384,0.7677,down
192948,-3.035156,8.121094,2.578125,0.558594,0.195312,1.533203,0.194458,-0.046265,0.609131,0.767456,down
192954,-2.84375,8.230469,2.425781,0.582031,0.148437,1.480469,0.188416,-0.041748,0.611877,0.76709,down
192959,-2.726563,8.269531,2.347656,0.582031,0.148437,1.480469,0.188416,-0.041748,0.611877,0.76709,down
192964,-2.691406,8.265625,2.3125,0.654297,0.128906,1.431641,0.188416,-0.041748,0.611877,0.76709,down
192969,-2.5,8.304688,2.234375,0.654297,0.128906,1.431641,0.182556,-0.03717,0.614746,0.766418,down
192974,-2.460938,8.265625,2.234375,0.664062,0.140625,1.433594,0.179443,-0.03479,0.616272,0.765991,down
192979,-2.382813,8.230469,2.273438,0.664062,0.140625,1.433594,0.176392,-0.03241,0.617859,0.765564,down
192984,-2.269531,8.1875,2.195313,0.664062,0.140625,1.433594,0.173462,-0.030212,0.619324,0.765137,down
192989,-2.152344,8.152344,2.121094,0.681641,0.1875,1.486328,0.170532,-0.028076,0.620728,0.764771,down
192994,-2.039063,8.117188,2.082031,0.757812,0.226562,1.582031,0.167664,-0.026001,0.622131,0.764343,down
192999,-2.0,8.1875,2.121094,0.757812,0.226562,1.582031,0.160706,-0.021057,0.625549,0.763123,down
193004,-1.960938,8.226563,2.082031,0.951172,0.248047,1.710938,0.160706,-0.021057,0.625549,0.763123,down
193009,-1.925781,8.382813,2.082031,0.951172,0.248047,1.710938,0.153748,-0.016052,0.629456,0.761475,down
193014,-1.960938,8.535156,2.042969,1.201172,0.253906,1.830078,0.153748,-0.016052,0.629456,0.761475,down
193019,-2.0,8.726563,2.042969,1.3125,0.234375,1.875,0.149719,-0.013062,0.631958,0.760315,down
193024,-1.960938,8.808594,2.042969,1.3125,0.234375,1.875,0.142151,-0.007263,0.637024,0.757568,down
193029,-1.886719,8.847656,1.964844,1.3125,0.234375,1.875,0.138245,-0.004089,0.639832,0.755981,down
193034,-1.808594,8.953125,1.890625,1.3125,0.234375,1.875,0.138245,-0.004089,0.639832,0.755981,down
193039,-1.730469,8.882813,1.773438,1.541016,0.193359,1.980469,0.130127,0.002563,0.645813,0.752319,down
193044,-1.539063,8.84375,1.738281,1.541016,0.193359,1.980469,0.130127,0.002563,0.645813,0.752319,down
193049,-1.539063,8.84375,1.738281,1.542969,0.167969,2.019531,0.126099,0.005981,0.648743,0.750488,down
193055,-1.425781,8.765625,1.699219,1.53125,0.148437,2.019531,0.126099,0.005981,0.648743,0.750488,down
193060,-1.195313,8.609375,1.582031,1.476563,0.140625,2.039063,0.113647,0.016602,0.657227,0.744934,down
193065,-1.195313,8.609375,1.582031,1.476563,0.140625,2.039063,0.113647,0.016602,0.657227,0.744934,down
193070,-1.003906,8.765625,1.507813,1.398438,0.115234,2.095703,0.105469,0.023743,0.662231,0.741455,down
193075,-0.964844,8.84375,1.429688,1.398438,0.115234,2.095703,0.101135,0.027588,0.664734,0.739685,down
193080,-0.890625,9.1875,1.277344,1.398438,0.115234,2.095703,0.096497,0.031738,0.667358,0.737793,down
193085,-0.8125,9.265625,1.125,1.410156,0.058594,2.341797,0.096497,0.031738,0.667358,0.737793,down
193090,-0.738281,9.230469,1.007813,1.410156,0.058594,2.341797,0.087158,0.040283,0.672302,0.734009,down
193095,-0.429687,9.308594,0.625,1.410156,0.058594,2.341797,0.082153,0.044739,0.674866,0.731995,down
193100,-0.277344,9.304688,0.394531,1.410156,0.058594,2.341797,0.077759,0.048462,0.677002,0.730225,down
193105,-0.125,9.375,0.242187,1.658203,0.244141,2.773438,0.071716,0.053467,0.679932,0.727783,down
193111,0.105469,9.265625,0.167969,1.658203,0.244141,2.773438,0.066345,0.057678,0.682434,0.725647,down
193117,0.335938,8.804688,0.28125,1.658203,0.244141,2.773438,0.060181,0.062439,0.685364,0.723022,down
193122,0.488281,8.535156,0.320313,1.875,0.404297,2.941406,0.060181,0.062439,0.685364,0.723022,down
193127,0.488281,8.535156,0.320313,1.931641,0.472656,2.931641,0.047729,0.071472,0.691162,0.71759,down
193132,0.488281,8.535156,0.320313,1.988281,0.527344,2.916016,0.041077,0.075928,0.694275,0.714478,down
193137,0.71875,8.382813,0.167969,1.988281,0.527344,2.916016,0.041077,0.075928,0.694275,0.714478,down
193142,0.835937,8.265625,0.28125,2.060547,0.529297,2.892578,0.041077,0.075928,0.694275,0.714478,down
193147,0.835937,8.265625,0.28125,2.197266,0.511719,2.796875,0.02179,0.088684,0.703796,0.704468,down
193153,1.179688,8.53125,0.167969,2.197266,0.511719,2.796875,0.02179,0.088684,0.703796,0.704468,down
193159,1.253906,8.648438,0.050781,2.275391,0.5625,2.720703,0.02179,0.088684,0.703796,0.704468,down
193164,1.332031,8.847656,-0.101563,2.275391,0.5625,2.720703,0.002869,0.100647,0.713684,0.693176,down
193169,1.601563,9.074219,-0.332031,2.300781,0.546875,2.748047,0.002869,0.100647,0.713684,0.693176,down
193174,1.675781,9.191406,-0.523437,2.300781,0.546875,2.748047,0.009705,-0.108521,-0.720093,-0.685242,down
193179,1.753906,9.148438,-0.753906,2.230469,0.621094,2.931641,0.009705,-0.108521,-0.720093,-0.685242,down
193184,1.867188,9.109375,-0.867187,2.230469,0.621094,2.931641,0.023254,-0.117004,-0.72644,-0.676758,down
193189,1.984375,8.957031,-0.945312,2.230469,0.621094,2.931641,0.030029,-0.121155,-0.729248,-0.672791,down
193194,2.328125,8.386719,-1.058594,2.037109,0.720703,3.105469,0.036743,-0.125244,-0.731628,-0.669128,down
193199,2.328125,8.386719,-1.058594,1.935547,0.804687,3.160156,0.036743,-0.125244,-0.731628,-0.669128,down
193205,2.480469,8.082031,-1.136719,1.935547,0.804687,3.160156,0.044189,-0.129639,-0.733887,-0.665283,down
193210,2.480469,8.082031,-1.136719,1.777344,0.9375,3.15625,0.05896,-0.137817,-0.73761,-0.658386,down
193215,2.902344,6.777344,-0.945312,1.777344,0.9375,3.15625,0.074707,-0.145752,-0.741211,-0.651001,down
193220,3.054688,6.773437,-0.753906,1.777344,0.9375,3.15625,0.082031,-0.149109,-0.74292,-0.6474,down
193225,3.054688,6.890625,-0.601562,1.939453,0.990234,2.607422,0.088074,-0.151733,-0.744568,-0.644104,down
193230,3.054688,7.316406,-0.714844,1.939453,0.990234,2.607422,0.095642,-0.154785,-0.746887,-0.639587,down
193235,3.132813,7.65625,-0.867187,2.248047,0.814453,2.341797,0.095642,-0.154785,-0.746887,-0.639587,down
193240,3.019531,8.34375,-0.753906,2.400391,0.638672,2.251953,0.101868,-0.157349,-0.749146,-0.635315,down
193245,3.132813,8.535156,-0.753906,2.482422,0.505859,2.1875,0.107544,-0.159729,-0.751648,-0.630859,down
193251,3.285156,8.730469,-0.828125,2.482422,0.505859,2.1875,0.117981,-0.164856,-0.757141,-0.620972,down
193256,3.285156,8.765625,-0.984375,2.484375,0.375,2.113281,0.117981,-0.164856,-0.757141,-0.620972,down
193261,3.324219,8.613281,-1.25,2.484375,0.375,2.113281,0.12793,-0.170105,-0.762695,-0.610718,down
193266,3.515625,8.1875,-1.710938,2.484375,0.375,2.113281,0.132935,-0.172791,-0.76532,-0.605652,down
193271,3.667969,7.84375,-1.710938,2.017578,0.298828,2.046875,0.132935,-0.172791,-0.76532,-0.605652,down
193276,3.859375,7.542969,-1.75,1.710938,0.214844,2.017578,0.132935,-0.172791,-0.76532,-0.605652,down
193282,4.089844,7.039062,-1.710938,1.710938,0.214844,2.017578,0.145996,-0.181335,-0.770691,-0.59314,down
193287,4.089844,7.039062,-1.710938,1.082031,0.148437,1.892578,0.145996,-0.181335,-0.770691,-0.59314,down
193293,4.128906,6.777344,-1.824219,1.082031,0.148437,1.892578,0.149658,-0.184326,-0.771606,-0.590149,down
193299,4.28125,6.546875,-1.824219,0.625,0.125,1.738281,0.156372,-0.190369,-0.772278,-0.585571,down
193304,4.28125,6.546875,-1.824219,0.513672,0.095703,1.671875,0.159363,-0.193237,-0.772217,-0.583862,down
193309,4.28125,6.546875,-1.824219,0.59375,0.056641,1.511719,0.162231,-0.196106,-0.772156,-0.582214,down
193314,4.207031,6.550781,-1.441406,0.59375,0.056641,1.511719,0.162231,-0.196106,-0.772156,-0.582214,down
193319,4.167969,6.550781,-1.480469,0.59375,0.056641,1.511719,0.167419,-0.201294,-0.7724,-0.578674,down
193325,4.207031,6.550781,-1.480469,0.878906,0.029297,1.326172,0.167419,-0.201294,-0.7724,-0.578674,down
193330,4.207031,6.621094,-1.480469,1.076172,-0.025391,1.226563,0.1745,-0.20752,-0.774658,-0.571289,down
193335,4.207031,6.65625,-1.632813,1.076172,-0.025391,1.226563,0.176636,-0.209412,-0.776245,-0.56781,down
193340,4.242187,6.738281,-1.632813,1.498047,-0.287109,0.964844,0.176636,-0.209412,-0.776245,-0.56781,down
193345,4.359375,6.773437,-1.671875,1.498047,-0.287109,0.964844,0.179749,-0.212646,-0.779602,-0.560974,down
193350,4.359375,6.777344,-1.789063,1.498047,-0.287109,0.964844,0.180847,-0.214111,-0.781372,-0.557617,down
193355,4.433594,6.8125,-1.902344,1.519531,-0.570312,0.833984,0.180847,-0.214111,-0.781372,-0.557617,down
193360,4.433594,6.816406,-2.015625,1.519531,-0.570312,0.833984,0.181885,-0.216003,-0.783447,-0.553528,down
193365,4.472656,6.699219,-2.132813,1.373047,-0.707031,0.84375,0.181885,-0.216003,-0.783447,-0.553528,down
193370,4.550781,6.507812,-2.285156,1.373047,-0.707031,0.84375,0.183655,-0.221619,-0.788635,-0.543335,down
193375,4.589844,6.472656,-2.4375,1.373047,-0.707031,0.84375,0.18396,-0.224121,-0.790283,-0.539795,down
193380,4.625,6.273437,-2.515625,1.373047,-0.707031,0.84375,0.18396,-0.224121,-0.790283,-0.539795,down
193385,4.664062,6.046875,-2.554688,0.986328,-0.867187,0.958984,0.18396,-0.224121,-0.790283,-0.539795,down
193390,4.742187,5.667969,-2.898438,0.986328,-0.867187,0.958984,0.184387,-0.231506,-0.793823,-0.53125,down
193395,4.78125,5.546875,-3.050781,0.994141,-0.90625,1.03125,0.184387,-0.231506,-0.793823,-0.53125,down
193400,4.855469,5.359375,-3.050781,1.107422,-0.941406,1.056641,0.184509,-0.234497,-0.795105,-0.528015,down
193405,4.894531,5.207031,-3.050781,1.107422,-0.941406,1.056641,0.184875,-0.239929,-0.797546,-0.521667,down
193410,4.972656,5.128906,-3.089844,1.107422,-0.941406,1.056641,0.185242,-0.242676,-0.799133,-0.517883,down
193415,4.933594,5.28125,-3.167969,1.107422,-0.941406,1.056641,0.185242,-0.242676,-0.799133,-0.517883,down
193420,4.816406,5.390625,-3.167969,1.771484,-0.917969,1.076172,0.186462,-0.247681,-0.803223,-0.508667,down
193425,4.703125,5.625,-3.167969,1.771484,-0.917969,1.076172,0.186462,-0.247681,-0.803223,-0.508667,down
193430,4.703125,5.625,-3.167969,2.287109,-0.960937,1.017578,0.187195,-0.249939,-0.805725,-0.503296,down
193436,4.589844,5.777344,-3.28125,2.458984,-0.943359,0.960937,0.187195,-0.249939,-0.805725,-0.503296,down
193441,4.28125,6.46875,-4.199219,2.539063,-0.894531,0.894531,0.188904,-0.253845,-0.811462,-0.491272,down
193446,4.28125,6.46875,-4.199219,2.505859,-0.894531,0.833984,0.189758,-0.255493,-0.814392,-0.485229,down
193451,4.28125,6.46875,-4.199219,2.505859,-0.894531,0.833984,0.190613,-0.258789,-0.820068,-0.47345,down
193456,4.511719,7.0,-4.546875,2.505859,-0.894531,0.833984,0.190613,-0.258789,-0.820068,-0.47345,down
193461,4.625,7.078125,-4.660156,2.505859,-0.894531,0.833984,0.190613,-0.258789,-0.820068,-0.47345,down
193466,4.625,7.078125,-4.660156,2.505859,-0.894531,0.833984,0.189209,-0.263977,-0.827087,-0.458801,down
193472,4.855469,6.582031,-5.195312,2.505859,-0.894531,0.833984,0.18811,-0.265747,-0.828735,-0.455139,down
193477,4.855469,6.355469,-5.234375,2.505859,-0.894531,0.833984,0.186462,-0.267944,-0.830322,-0.451721,down
193482,5.007812,6.011719,-5.195312,2.505859,-0.894531,0.833984,0.186462,-0.267944,-0.830322,-0.451721,down
193487,4.972656,5.8125,-5.121094,0.181641,-1.320313,0.302734,0.186462,-0.267944,-0.830322,-0.451721,down
193493,5.046875,5.742187,-5.121094,-0.025391,-1.316406,0.224609,0.186462,-0.267944,-0.830322,-0.451721,down
193498,4.894531,5.546875,-5.121094,-0.025391,-1.316406,0.224609,0.186462,-0.267944,-0.830322,-0.451721,down
193503,4.816406,5.550781,-5.042969,-0.246094,-1.314453,0.066406,0.186462,-0.267944,-0.830322,-0.451721,down
193508,4.742187,5.589844,-5.042969,-0.244141,-1.333984,-0.023437,0.186462,-0.267944,-0.830322,-0.451721,down
193514,4.703125,5.628906,-5.003906,-0.244141,-1.333984,-0.023437,0.169006,-0.280457,-0.83374,-0.444519,down
193520,4.472656,5.746094,-4.929687,-0.244141,-1.333984,-0.023437,0.162903,-0.282715,-0.835083,-0.442932,down
193525,4.398437,5.855469,-5.003906,-0.244141,-1.333984,-0.023437,0.162903,-0.282715,-0.835083,-0.442932,down
193530,4.359375,5.972656,-5.121094,0.238281,-1.462891,-0.359375,0.15625,-0.284302,-0.83728,-0.440186,down
193535,4.167969,6.238281,-5.386719,0.238281,-1.462891,-0.359375,0.15625,-0.284302,-0.83728,-0.440186,down
193540,4.089844,6.355469,-5.617187,0.273438,-1.5625,-0.525391,0.152588,-0.284912,-0.838562,-0.438538,down
193545,4.128906,6.472656,-5.808594,0.273438,-1.5625,-0.525391,0.148865,-0.285461,-0.839905,-0.436951,down
193550,4.207031,6.355469,-6.078125,0.273438,-1.5625,-0.525391,0.145203,-0.28595,-0.841064,-0.435547,down
193555,4.320312,6.238281,-6.230469,0.060547,-1.597656,-0.570312,0.141663,-0.286438,-0.842102,-0.434509,down
193560,4.320312,6.238281,-6.230469,0.060547,-1.597656,-0.570312,0.141663,-0.286438,-0.842102,-0.434509,down
193565,4.359375,6.277344,-6.382812,-0.236328,-1.566406,-0.548828,0.141663,-0.286438,-0.842102,-0.434509,down
193570,4.359375,6.277344,-6.382812,-0.376953,-1.525391,-0.533203,0.129517,-0.288208,-0.84436,-0.432617,down
193575,4.625,6.085937,-6.613281,-0.376953,-1.525391,-0.533203,0.121399,-0.28949,-0.844971,-0.432983,down
193580,4.589844,6.007812,-6.542969,-0.376953,-1.525391,-0.533203,0.121399,-0.28949,-0.844971,-0.432983,down
193585,4.511719,5.855469,-6.652344,-0.634766,-1.263672,-0.542969,0.121399,-0.28949,-0.844971,-0.432983,down
193591,4.398437,5.933594,-6.570312,-0.556641,-1.160156,-0.585937,0.110474,-0.290344,-0.845398,-0.434509,down
193596,4.28125,6.046875,-6.421875,-0.332031,-1.048828,-0.671875,0.106995,-0.290222,-0.845764,-0.434753,down
193602,4.015625,6.277344,-6.078125,-0.332031,-1.048828,-0.671875,0.103821,-0.289917,-0.846252,-0.434753,down
193608,3.667969,6.507812,-5.886719,-0.332031,-1.048828,-0.671875,0.101135,-0.289429,-0.846924,-0.434448,down
193613,3.554688,6.578125,-5.847656,0.087891,-0.935547,-0.84375,0.101135,-0.289429,-0.846924,-0.434448,down
193618,3.402344,6.617187,-5.773437,0.158203,-0.945312,-0.884766,0.101135,-0.289429,-0.846924,-0.434448,down
193623,3.285156,6.695312,-5.695312,0.195312,-0.970703,-0.935547,0.101135,-0.289429,-0.846924,-0.434448,down
193629,3.132813,6.734375,-5.773437,0.195312,-0.970703,-0.935547,0.0896,-0.285889,-0.850891,-0.431519,down
193634,3.054688,6.8125,-5.808594,0.103516,-1.044922,-1.03125,0.0896,-0.285889,-0.850891,-0.431519,down
193639,3.054688,6.964844,-5.925781,0.103516,-1.044922,-1.03125,0.082764,-0.28363,-0.853027,-0.430115,down
193644,3.09375,7.039062,-6.0,0.103516,-1.044922,-1.03125,0.079224,-0.282532,-0.853882,-0.429932,down
193649,3.019531,7.15625,-6.078125,0.103516,-1.044922,-1.03125,0.075073,-0.281311,-0.854492,-0.430176,down
193654,3.019531,7.199219,-6.117187,-0.742187,-1.185547,-1.269531,0.075073,-0.281311,-0.854492,-0.430176,down
193659,3.054688,7.316406,-6.230469,-0.742187,-1.185547,-1.269531,0.066345,-0.278687,-0.855103,-0.432129,down
193664,3.019531,7.34375,-6.382812,-1.132813,-1.189453,-1.394531,0.066345,-0.278687,-0.855103,-0.432129,down
193669,2.980469,7.316406,-6.421875,-1.269531,-1.167969,-1.457031,0.066345,-0.278687,-0.855103,-0.432129,down
193674,3.019531,7.039062,-6.613281,-1.269531,-1.167969,-1.457031,0.051697,-0.273926,-0.854675,-0.437988,down
193679,3.019531,6.929687,-6.613281,-1.269531,-1.167969,-1.457031,0.046753,-0.272034,-0.854309,-0.440369,down
193684,3.019531,6.699219,-6.539062,-1.269531,-1.167969,-1.457031,0.041931,-0.27002,-0.853943,-0.442871,down
193690,3.019531,6.699219,-6.539062,-1.392578,-0.90625,-1.597656,0.03717,-0.267822,-0.853516,-0.445435,down
193695,3.019531,6.546875,-6.5,-1.300781,-0.8125,-1.607422,0.03717,-0.267822,-0.853516,-0.445435,down
193700,3.019531,6.546875,-6.5,-1.183594,-0.714844,-1.623047,0.02832,-0.262939,-0.852905,-0.450195,down
193705,2.789063,6.351562,-6.230469,-1.183594,-0.714844,-1.623047,0.02832,-0.262939,-0.852905,-0.450195,down
193710,2.789063,6.351562,-6.230469,-1.007813,-0.648437,-1.625,0.020508,-0.257568,-0.852783,-0.453857,down
193715,2.40625,6.621094,-5.386719,-1.007813,-0.648437,-1.625,0.013672,-0.251892,-0.853394,-0.456116,down
193720,1.90625,6.933594,-5.003906,-1.007813,-0.648437,-1.625,0.013672,-0.251892,-0.853394,-0.456116,down
193725,1.714844,7.078125,-4.777344,-0.191406,-0.556641,-1.632813,0.013672,-0.251892,-0.853394,-0.456116,down
193730,1.5625,7.273437,-4.621094,-0.191406,-0.556641,-1.632813,0.007324,-0.246094,-0.854736,-0.45697,down
193735,1.179688,7.238281,-4.46875,-0.191406,-0.556641,-1.632813,0.000732,-0.24054,-0.856445,-0.456787,down
193740,0.988281,7.15625,-4.585937,-0.191406,-0.556641,-1.632813,0.000732,-0.24054,-0.856445,-0.456787,down
193745,0.910156,7.117187,-4.660156,-0.119141,-0.787109,-1.597656,0.006348,0.235474,0.858032,0.456421,down
193750,0.835937,7.160156,-4.929687,-0.404297,-0.955078,-1.603516,0.006348,0.235474,0.858032,0.456421,down
193756,0.910156,7.316406,-5.386719,-0.404297,-0.955078,-1.603516,0.010315,0.233093,0.858521,0.456543,down
193761,1.0625,7.539062,-5.464844,-0.554687,-1.052734,-1.634766,0.019409,0.228271,0.859131,0.457642,down
193766,1.179688,7.738281,-5.542969,-0.851562,-1.142578,-1.728516,0.024231,0.225891,0.859131,0.458557,down
193771,1.292969,8.0,-5.65625,-0.851562,-1.142578,-1.728516,0.028992,0.22345,0.859009,0.459717,down
193776,1.332031,8.6875,-5.65625,-1.070313,-1.099609,-1.890625,0.028992,0.22345,0.859009,0.459717,down
193781,1.292969,8.957031,-5.578125,-1.144531,-1.048828,-1.980469,0.034546,0.220459,0.858704,0.461304,down
193786,1.140625,9.230469,-5.65625,-1.144531,-1.048828,-1.980469,0.044739,0.214294,0.858032,0.4646,down
193791,1.0625,9.308594,-5.734375,-1.144531,-1.048828,-1.980469,0.049744,0.210999,0.857605,0.46637,down
193796,0.757812,8.957031,-5.65625,-1.400391,-0.96875,-2.103516,0.049744,0.210999,0.857605,0.46637,down
193801,0.527344,8.382813,-5.578125,-1.400391,-0.96875,-2.103516,0.055542,0.207153,0.856934,0.468628,down
193807,0.527344,8.382813,-5.578125,-1.671875,-0.945312,-2.015625,0.065491,0.200378,0.855286,0.473328,down
193812,0.527344,8.382813,-5.578125,-1.792969,-0.984375,-1.945313,0.065491,0.200378,0.855286,0.473328,down
193817,0.257813,7.84375,-5.503906,-1.792969,-0.984375,-1.945313,0.070923,0.19696,0.854004,0.476318,down
193822,-0.007813,7.578125,-5.386719,-1.863281,-1.009766,-1.859375,0.076172,0.193787,0.8526,0.47937,down
193827,-0.007813,7.578125,-5.386719,-1.863281,-1.009766,-1.859375,0.076172,0.193787,0.8526,0.47937,down
193833,-0.125,7.921875,-5.273437,-1.814453,-1.015625,-1.630859,0.09137,0.185486,0.847717,0.488464,down
193839,-0.125,8.304688,-5.042969,-1.490234,-1.046875,-1.453125,0.09137,0.185486,0.847717,0.488464,down
193844,-0.199219,8.5,-5.003906,-1.203125,-1.0,-1.408203,0.100769,0.181091,0.84491,0.493103,down
193850,-0.238281,8.691406,-4.96875,-0.826172,-0.941406,-1.40625,0.100769,0.181091,0.84491,0.493103,down
193855,-0.351563,8.957031,-4.890625,-0.117188,-0.882812,-1.5,0.100769,0.181091,0.84491,0.493103,down
193861,-0.542969,9.492188,-4.777344,-0.117188,-0.882812,-1.5,0.116577,0.172852,0.844116,0.493958,down
193866,-0.582031,9.574219,-4.738281,0.134766,-0.839844,-1.65625,0.120422,0.170471,0.844666,0.492859,down
193871,-0.699219,9.613281,-4.738281,0.107422,-0.833984,-1.738281,0.120422,0.170471,0.844666,0.492859,down
193877,-0.8125,9.453125,-4.738281,0.107422,-0.833984,-1.738281,0.128235,0.165161,0.845825,0.490723,down
193882,-0.890625,9.269531,-4.660156,0.107422,-0.833984,-1.738281,0.132874,0.162048,0.846069,0.490112,down
193887,-0.890625,9.269531,-4.660156,-0.679687,-0.980469,-1.884766,0.136841,0.159424,0.845947,0.490173,down
193892,-1.003906,8.953125,-4.46875,-0.679687,-0.980469,-1.884766,0.141968,0.156128,0.845215,0.491028,down
193898,-1.121094,8.691406,-4.46875,-0.679687,-0.980469,-1.884766,0.146362,0.153259,0.844116,0.492493,down
193903,-1.273438,8.5,-4.585937,-1.607422,-0.921875,-1.720703,0.146362,0.153259,0.844116,0.492493,down
193908,-1.273438,8.5,-4.585937,-1.685547,-0.916016,-1.626953,0.155823,0.147095,0.84082,0.497131,down
193913,-1.464844,8.347656,-4.621094,-1.685547,-0.916016,-1.626953,0.155823,0.147095,0.84082,0.497131,down
193918,-1.464844,8.347656,-4.621094,-1.679688,-0.935547,-1.558594,0.160339,0.144226,0.838928,0.499695,down
193923,-1.464844,8.382813,-4.546875,-1.679688,-0.935547,-1.558594,0.164917,0.141541,0.836975,0.502197,down
193928,-1.539063,8.648438,-4.390625,-1.261719,-0.964844,-1.388672,0.173462,0.13678,0.833557,0.506348,down
193933,-1.769531,9.113281,-4.238281,-1.261719,-0.964844,-1.388672,0.177734,0.134583,0.832092,0.507812,down
193939,-1.808594,9.269531,-4.164062,-0.724609,-0.964844,-1.394531,0.177734,0.134583,0.832092,0.507812,down
193944,-1.886719,9.339844,-4.046875,-0.447266,-0.951172,-1.435547,0.177734,0.134583,0.832092,0.507812,down
193949,-1.847656,9.378906,-3.972656,-0.255859,-0.951172,-1.5,0.189819,0.12854,0.829895,0.508667,down
193956,-1.960938,9.414063,-3.972656,-0.255859,-0.951172,-1.5,0.189819,0.12854,0.829895,0.508667,down
193961,-2.039063,9.414063,-3.855469,-0.263672,-1.0,-1.769531,0.189819,0.12854,0.829895,0.508667,down
193966,-2.078125,9.339844,-3.78125,-0.263672,-1.0,-1.769531,0.202209,0.121765,0.829285,0.506531,down
193971,-2.269531,9.417969,-3.742188,-0.529297,-1.029297,-1.849609,0.211487,0.116089,0.827942,0.506287,down
193976,-2.382813,9.226563,-3.703125,-0.529297,-1.029297,-1.849609,0.211487,0.116089,0.827942,0.506287,down
193981,-2.460938,8.996094,-3.664063,-1.626953,-1.064453,-1.933594,0.211487,0.116089,0.827942,0.506287,down
193986,-2.535156,8.613281,-3.625,-1.626953,-1.064453,-1.933594,0.221436,0.109558,0.824707,0.508728,down
193991,-2.613281,8.425781,-3.703125,-1.626953,-1.064453,-1.933594,0.226685,0.105835,0.822327,0.511047,down
193996,-2.726563,8.308594,-3.703125,-2.029297,-1.025391,-1.732422,0.232178,0.101868,0.819458,0.513977,down
194001,-2.882813,8.347656,-3.589844,-2.029297,-1.025391,-1.732422,0.237,0.098389,0.816772,0.516785,down
194006,-2.917969,8.460938,-3.550781,-2.029297,-1.025391,-1.732422,0.241699,0.095093,0.813965,0.519592,down
194011,-2.996094,8.570313,-3.550781,-1.603516,-0.929687,-1.408203,0.246216,0.092102,0.811279,0.522217,down
194016,-3.074219,8.6875,-3.589844,-1.603516,-0.929687,-1.408203,0.250549,0.089294,0.808716,0.524597,down
194022,-3.226563,8.957031,-3.550781,-1.603516,-0.929687,-1.408203,0.258057,0.084656,0.804749,0.527832,down
194027,-3.265625,9.109375,-3.433594,-1.603516,-0.929687,-1.408203,0.258057,0.084656,0.804749,0.527832,down
194032,-3.265625,9.109375,-3.433594,-0.726562,-0.865234,-1.320313,0.261719,0.082581,0.803284,0.528564,down
194037,-3.378906,9.269531,-3.242188,-0.726562,-0.865234,-1.320313,0.265259,0.080688,0.802246,0.528687,down
194042,-3.6875,9.652344,-3.203125,-0.240234,-0.867187,-1.408203,0.265259,0.080688,0.802246,0.528687,down
194047,-3.6875,9.652344,-3.203125,-0.142578,-0.900391,-1.478516,0.272644,0.076904,0.800903,0.527527,down
194052,-3.914063,9.992188,-3.050781,-0.152344,-0.949219,-1.572266,0.280762,0.072876,0.799683,0.525757,down
194057,-3.914063,9.570313,-2.746094,-0.152344,-0.949219,-1.572266,0.285706,0.07019,0.798523,0.525208,down
194062,-3.878906,9.191406,-2.59375,-0.152344,-0.949219,-1.572266,0.289795,0.067871,0.79718,0.525269,down
194067,-3.839844,8.886719,-2.476563,-1.359375,-1.058594,-1.814453,0.289795,0.067871,0.79718,0.525269,down
194072,-3.839844,8.886719,-2.476563,-1.679688,-1.029297,-1.828125,0.299072,0.061584,0.792786,0.527466,down
194078,-3.953125,7.84375,-2.554688,-1.679688,-1.029297,-1.828125,0.303894,0.057861,0.789856,0.529541,down
194083,-4.03125,7.808594,-2.515625,-1.998047,-0.996094,-1.748047,0.303894,0.057861,0.789856,0.529541,down
194088,-4.144531,7.886719,-2.4375,-2.001953,-0.982422,-1.650391,0.312927,0.05072,0.78363,0.534302,down
194094,-4.375,8.121094,-2.324219,-1.908203,-0.970703,-1.539063,0.312927,0.05072,0.78363,0.534302,down
194100,-4.566406,8.304688,-2.285156,-1.734375,-0.939453,-1.423828,0.312927,0.05072,0.78363,0.534302,down
194105,-4.683594,8.425781,-2.363281,-1.515625,-0.908203,-1.314453,0.312927,0.05072,0.78363,0.534302,down
194111,-4.757812,8.503906,-2.324219,-1.246094,-0.873047,-1.230469,0.312927,0.05072,0.78363,0.534302,down
194116,-4.757812,8.570313,-2.132813,-1.246094,-0.873047,-1.230469,0.332214,0.037109,0.769958,0.543518,down
194122,-4.757812,8.726563,-1.902344,-0.269531,-0.853516,-1.150391,0.335876,0.035217,0.768127,0.543945,down
194127,-4.796875,8.886719,-1.863281,-0.269531,-0.853516,-1.150391,0.342224,0.032654,0.766113,0.54303,down
194132,-4.988281,9.265625,-1.941406,-0.269531,-0.853516,-1.150391,0.342224,0.032654,0.766113,0.54303,down
194137,-5.027344,9.265625,-1.941406,-0.041016,-0.824219,-1.199219,0.345276,0.031494,0.765442,0.542114,down
194142,-5.027344,9.265625,-1.941406,-0.066406,-0.830078,-1.246094,0.351807,0.028809,0.763916,0.540222,down
194147,-4.988281,9.152344,-1.902344,-0.066406,-0.830078,-1.246094,0.355286,0.027161,0.762756,0.539612,down
194153,-4.949219,8.886719,-1.710938,-0.816406,-0.84375,-1.298828,0.35907,0.025024,0.761047,0.539673,down
194158,-5.140625,8.304688,-1.40625,-0.816406,-0.84375,-1.298828,0.362,0.023071,0.759338,0.540222,down
194163,-5.257812,8.191406,-1.480469,-1.460938,-0.759766,-1.291016,0.362,0.023071,0.759338,0.540222,down
194168,-5.332031,7.886719,-1.328125,-1.460938,-0.759766,-1.291016,0.362,0.023071,0.759338,0.540222,down
194173,-5.332031,7.886719,-1.328125,-1.796875,-0.742187,-1.25,0.362,0.023071,0.759338,0.540222,down
194178,-5.488281,7.738281,-1.25,-1.796875,-0.742187,-1.25,0.375305,0.01123,0.74762,0.547791,down
194184,-5.714844,7.921875,-1.289063,-1.785156,-0.701172,-1.160156,0.375305,0.01123,0.74762,0.547791,down
194190,-5.832031,8.082031,-1.214844,-1.652344,-0.705078,-1.111328,0.375305,0.01123,0.74762,0.547791,down
194195,-5.984375,8.269531,-1.097656,-1.441406,-0.724609,-1.083984,0.375305,0.01123,0.74762,0.547791,down
194201,-6.097656,8.535156,-0.867187,-1.210938,-0.740234,-1.074219,0.375305,0.01123,0.74762,0.547791,down
194206,-6.136719,8.808594,-0.828125,-0.822266,-0.818359,-1.082031,0.389587,-0.001038,0.734192,0.556091,down
194211,-6.253906,9.035156,-0.828125,-0.822266,-0.818359,-1.082031,0.392517,-0.002747,0.732178,0.556702,down
194217,-6.289062,9.148438,-0.828125,-0.736328,-0.880859,-1.095703,0.398865,-0.00592,0.72821,0.557312,down
194222,-6.214844,9.074219,-0.792969,-0.736328,-0.880859,-1.095703,0.401978,-0.007324,0.726257,0.557556,down
194227,-6.136719,8.648438,-0.753906,-0.736328,-0.880859,-1.095703,0.405334,-0.009033,0.723938,0.558167,down
194232,-6.023437,8.042969,-0.523437,-1.322266,-0.917969,-1.107422,0.405334,-0.009033,0.723938,0.558167,down
194237,-5.945312,7.34375,-0.332031,-1.322266,-0.917969,-1.107422,0.408875,-0.011169,0.721069,0.559265,down
194242,-6.023437,6.933594,-0.371094,-1.322266,-0.917969,-1.107422,0.415039,-0.015869,0.714722,0.562744,down
194247,-6.136719,6.734375,-0.410156,-1.322266,-0.917969,-1.107422,0.415039,-0.015869,0.714722,0.562744,down
194252,-6.136719,6.734375,-0.410156,-1.769531,-0.769531,-1.007813,0.417786,-0.018372,0.711426,0.564819,down
194257,-6.289062,6.660156,-0.101563,-1.728516,-0.744141,-1.001953,0.417786,-0.018372,0.711426,0.564819,down
194262,-6.367187,6.777344,0.050781,-1.644531,-0.71875,-0.996094,0.425354,-0.025574,0.702209,0.570374,down
194267,-6.445312,6.894531,0.128906,-1.644531,-0.71875,-0.996094,0.427856,-0.027832,0.699524,0.571716,down
194272,-6.636719,7.347656,0.128906,-0.878906,-0.634766,-1.060547,0.427856,-0.027832,0.699524,0.571716,down
194278,-6.941406,7.882812,0.359375,-0.878906,-0.634766,-1.060547,0.432983,-0.031616,0.695435,0.572571,down
194283,-6.941406,7.882812,0.359375,-0.099609,-0.65625,-1.136719,0.435791,-0.032959,0.694214,0.571899,down
194288,-7.09375,8.382813,0.433594,-0.099609,-0.65625,-1.136719,0.438599,-0.033997,0.69342,0.570679,down
194293,-7.210937,8.570313,0.433594,-0.099609,-0.65625,-1.136719,0.441528,-0.03479,0.69281,0.569092,down
194299,-7.363281,8.921875,0.511719,-0.099609,-0.65625,-1.136719,0.444763,-0.035461,0.6922,0.567261,down
194304,-7.441406,9.035156,0.511719,0.128906,-0.931641,-1.324219,0.444763,-0.035461,0.6922,0.567261,down
194310,-7.476562,9.070313,0.664062,-0.162109,-1.048828,-1.375,0.444763,-0.035461,0.6922,0.567261,down
194316,-7.402344,9.035156,0.777344,-0.162109,-1.048828,-1.375,0.444763,-0.035461,0.6922,0.567261,down
194321,-7.402344,8.886719,0.816406,-1.105469,-1.210938,-1.466797,0.444763,-0.035461,0.6922,0.567261,down
194327,-7.363281,8.769531,0.894531,-1.646484,-1.248047,-1.5,0.467651,-0.045654,0.677795,0.565552,down
194332,-7.363281,8.226563,0.777344,-1.646484,-1.248047,-1.5,0.471619,-0.049011,0.672913,0.567749,down
194337,-7.441406,7.808594,0.703125,-1.646484,-1.248047,-1.5,0.471619,-0.049011,0.672913,0.567749,down
194342,-7.363281,7.425781,0.816406,-2.716797,-1.304688,-1.435547,0.471619,-0.049011,0.672913,0.567749,down
194347,-7.363281,7.121094,0.933594,-2.716797,-1.304688,-1.435547,0.483459,-0.060364,0.656128,0.576355,down
194352,-7.320312,6.8125,1.007813,-2.716797,-1.304688,-1.435547,0.487061,-0.063965,0.650635,0.579102,down
194357,-7.402344,6.277344,1.085938,-2.716797,-1.304688,-1.435547,0.487061,-0.063965,0.650635,0.579102,down
194362,-7.363281,6.046875,1.199219,-2.306641,-1.240234,-1.380859,0.494385,-0.070496,0.640381,0.583557,down
194367,-7.398437,5.894531,1.390625,-1.566406,-1.208984,-1.402344,0.497986,-0.073059,0.636108,0.584839,down
194372,-7.480469,5.933594,1.546875,-1.566406,-1.208984,-1.402344,0.497986,-0.073059,0.636108,0.584839,down
194377,-7.398437,5.933594,1.773438,-0.841797,-1.203125,-1.509766,0.502136,-0.0755,0.631958,0.58551,down
194382,-7.476562,6.238281,1.964844,-0.841797,-1.203125,-1.509766,0.505859,-0.077271,0.628784,0.585449,down
194387,-7.515625,6.390625,1.964844,-0.841797,-1.203125,-1.509766,0.514038,-0.0802,0.623352,0.583801,down
194392,-7.554687,6.582031,1.929688,-0.841797,-1.203125,-1.509766,0.514038,-0.0802,0.623352,0.583801,down
194397,-7.59375,6.738281,1.964844,-0.242187,-1.195313,-1.59375,0.522034,-0.082336,0.618958,0.581055,down
194402,-7.632812,6.851562,2.121094,-0.242187,-1.195313,-1.59375,0.522034,-0.082336,0.618958,0.581055,down
194407,-7.671875,6.964844,2.234375,-0.242187,-1.195313,-1.59375,0.530151,-0.084229,0.61438,0.578247,down
194412,-7.671875,6.964844,2.234375,-0.242187,-1.195313,-1.59375,0.530151,-0.084229,0.61438,0.578247,down
194417,-7.707031,7.042969,2.3125,-0.544922,-1.251953,-1.458984,0.530151,-0.084229,0.61438,0.578247,down
194422,-7.707031,7.042969,2.3125,-0.804687,-1.253906,-1.388672,0.537842,-0.086548,0.608826,0.57666,down
194428,-7.636719,6.964844,2.425781,-0.804687,-1.253906,-1.388672,0.541626,-0.088135,0.605408,0.576477,down
194433,-7.476562,6.699219,2.425781,-1.347656,-1.199219,-1.25,0.548401,-0.092224,0.597534,0.577698,down
194438,-7.324219,6.316406,2.464844,-1.347656,-1.199219,-1.25,0.551453,-0.094543,0.593323,0.578796,down
194443,-7.214844,6.199219,2.503906,-1.347656,-1.199219,-1.25,0.553955,-0.09668,0.589478,0.579956,down
194448,-7.171875,6.046875,2.464844,-1.707031,-0.974609,-0.972656,0.556641,-0.099243,0.585083,0.581421,down
194454,-7.09375,5.664062,2.464844,-1.707031,-0.974609,-0.972656,0.558838,-0.101501,0.581238,0.582703,down
194459,-7.019531,5.394531,2.464844,-1.707031,-0.974609,-0.972656,0.560913,-0.10376,0.577515,0.584045,down
194465,-7.058594,5.242187,2.503906,-1.455078,-0.736328,-0.802734,0.560913,-0.10376,0.577515,0.584045,down
194470,-6.980469,5.050781,2.578125,-1.314453,-0.667969,-0.740234,0.564636,-0.107971,0.570679,0.586365,down
194476,-6.976562,4.9375,2.578125,-1.162109,-0.574219,-0.6875,0.564636,-0.107971,0.570679,0.586365,down
194481,-7.019531,4.9375,2.578125,-0.998047,-0.480469,-0.623047,0.564636,-0.107971,0.570679,0.586365,down
194487,-7.097656,4.898437,2.65625,-0.685547,-0.318359,-0.470703,0.564636,-0.107971,0.570679,0.586365,down
194492,-7.175781,4.820312,2.734375,-0.685547,-0.318359,-0.470703,0.569946,-0.114319,0.56134,0.58905,down
194497,-7.210937,4.820312,2.734375,-0.685547,-0.318359,-0.470703,0.570801,-0.115479,0.559875,0.589355,down
194502,-7.28125,4.859375,2.734375,-0.300781,-0.033203,-0.244141,0.570801,-0.115479,0.559875,0.589355,down
194507,-7.359375,4.859375,2.808594,-0.300781,-0.033203,-0.244141,0.571838,-0.117371,0.558044,0.589722,down
194513,-7.554687,4.898437,3.039063,-0.300781,-0.033203,-0.244141,0.572205,-0.118347,0.557495,0.589722,down
194518,-7.632812,4.820312,3.0,0.015625,0.132812,-0.041016,0.572144,-0.118652,0.557617,0.5896,down
194523,-7.785156,4.667969,3.039063,0.123047,0.138672,-0.009766,0.572021,-0.118774,0.557922,0.589417,down
194528,-7.9375,4.589844,3.382813,0.123047,0.138672,-0.009766,0.571899,-0.118774,0.55835,0.589111,down
194533,-8.058594,4.515625,3.5,0.123047,0.138672,-0.009766,0.571838,-0.118591,0.559021,0.588623,down
194538,-8.207031,4.589844,3.574219,0.484375,0.121094,-0.099609,0.571899,-0.118225,0.559875,0.587769,down
194544,-8.4375,4.667969,3.574219,0.484375,0.121094,-0.099609,0.572083,-0.117798,0.560791,0.586792,down
194549,-8.511719,4.820312,3.574219,0.484375,0.121094,-0.099609,0.572571,-0.11731,0.561646,0.585632,down
194554,-8.511719,5.128906,3.765625,0.484375,0.121094,-0.099609,0.573425,-0.116577,0.562683,0.583923,down
194559,-8.507813,5.28125,3.691406,0.796875,-0.191406,-0.472656,0.574341,-0.115906,0.563416,0.582458,down
194565,-8.402344,5.777344,3.539063,0.773437,-0.277344,-0.542969,0.574341,-0.115906,0.563416,0.582458,down
194571,-8.363281,5.933594,3.460938,0.720703,-0.34375,-0.591797,0.574341,-0.115906,0.563416,0.582458,down
194577,-8.28125,6.125,3.421875,0.494141,-0.443359,-0.621094,0.574341,-0.115906,0.563416,0.582458,down
194582,-8.167969,6.351562,3.34375,0.494141,-0.443359,-0.621094,0.580383,-0.113281,0.564819,0.575623,down
194587,-8.125,6.390625,3.308594,0.494141,-0.443359,-0.621094,0.582092,-0.112854,0.564575,0.574158,down
194592,-8.054688,6.316406,3.34375,0.494141,-0.443359,-0.621094,0.583557,-0.112671,0.564087,0.573181,down
194598,-7.9375,6.238281,3.230469,-0.076172,-0.466797,-0.527344,0.586426,-0.113037,0.562195,0.572021,down
194604,-7.820312,5.894531,3.191406,-0.076172,-0.466797,-0.527344,0.587585,-0.113586,0.560974,0.57196,down
194609,-7.824219,5.742187,3.269531,-0.548828,-0.40625,-0.408203,0.588623,-0.114319,0.55957,0.572144,down
194614,-7.898437,5.625,3.269531,-0.611328,-0.378906,-0.376953,0.589539,-0.115112,0.558044,0.57251,down
194620,-7.859375,5.394531,3.34375,-0.640625,-0.355469,-0.355469,0.589539,-0.115112,0.558044,0.57251,down
194626,-7.898437,5.359375,3.308594,-0.625,-0.322266,-0.326172,0.589539,-0.115112,0.558044,0.57251,down
194631,-7.941406,5.203125,3.460938,-0.578125,-0.302734,-0.298828,0.589539,-0.115112,0.558044,0.57251,down
194637,-7.941406,5.128906,3.421875,-0.478516,-0.279297,-0.269531,0.589539,-0.115112,0.558044,0.57251,down
194643,-8.019531,5.050781,3.460938,-0.378906,-0.253906,-0.230469,0.59375,-0.11969,0.550293,0.574768,down
194648,-8.085938,5.011719,3.5,-0.121094,-0.226562,-0.183594,0.59375,-0.11969,0.550293,0.574768,down
194653,-8.058594,5.050781,3.652344,-0.121094,-0.226562,-0.183594,0.594238,-0.119934,0.549622,0.574768,down
194659,-8.054688,5.050781,3.574219,-0.121094,-0.226562,-0.183594,0.595337,-0.119812,0.548828,0.574402,down
194664,-8.015625,5.089844,3.613281,0.181641,-0.191406,-0.167969,0.595886,-0.119568,0.548706,0.574036,down
194670,-8.015625,5.089844,3.613281,0.242187,-0.181641,-0.173828,0.596497,-0.119202,0.548706,0.573547,down
194675,-7.941406,5.128906,3.574219,0.242187,-0.181641,-0.173828,0.596497,-0.119202,0.548706,0.573547,down
194680,-7.824219,5.164062,3.613281,0.277344,-0.169922,-0.179687,0.597046,-0.118774,0.548767,0.572937,down
194686,-7.742187,5.28125,3.5,0.277344,-0.169922,-0.179687,0.597595,-0.118347,0.548889,0.572327,down
194691,-7.707031,5.320312,3.5,0.326172,-0.128906,-0.148437,0.597595,-0.118347,0.548889,0.572327,down
194696,-7.671875,5.359375,3.460938,0.322266,-0.099609,-0.138672,0.597595,-0.118347,0.548889,0.572327,down
194701,-7.636719,5.394531,3.460938,0.322266,-0.099609,-0.138672,0.599548,-0.116577,0.549805,0.569824,down
194706,-7.636719,5.394531,3.460938,0.267578,-0.050781,-0.087891,0.599548,-0.116577,0.549805,0.569824,down
194712,-7.558594,5.320312,3.460938,0.236328,-0.035156,-0.056641,0.60022,-0.115601,0.550659,0.568481,down
194717,-7.515625,5.320312,3.421875,0.236328,-0.035156,-0.056641,0.60022,-0.115601,0.550659,0.568481,down
194723,-7.558594,5.320312,3.382813,0.195312,0.013672,0.0,0.600342,-0.115051,0.55127,0.567871,down
194728,-7.480469,5.320312,3.421875,0.199219,0.044922,0.058594,0.600281,-0.114746,0.551636,0.567627,down
194734,-7.597656,5.242187,3.5,0.199219,0.044922,0.058594,0.600159,-0.11438,0.552002,0.567444,down
194739,-7.636719,5.164062,3.5,0.207031,0.058594,0.101563,0.600159,-0.11438,0.552002,0.567444,down
194744,-7.636719,5.164062,3.5,0.205078,0.056641,0.125,0.600159,-0.11438,0.552002,0.567444,down
194749,-7.636719,5.164062,3.5,0.205078,0.056641,0.125,0.599609,-0.113281,0.553284,0.567017,down
194754,-7.632812,5.089844,3.539063,0.203125,0.037109,0.140625,0.599426,-0.112793,0.553711,0.566956,down
194759,-7.59375,5.011719,3.460938,0.203125,0.037109,0.140625,0.599243,-0.112427,0.554016,0.566833,down
194764,-7.632812,5.011719,3.460938,0.203125,0.037109,0.140625,0.59906,-0.111938,0.554382,0.566772,down
194769,-7.632812,5.050781,3.421875,0.203125,0.037109,0.140625,0.598938,-0.111511,0.554749,0.56665,down
194775,-7.59375,5.089844,3.539063,0.203125,0.037109,0.140625,0.598877,-0.111023,0.555054,0.566467,down
194781,-7.59375,5.089844,3.5,0.181641,-0.011719,0.064453,0.598877,-0.111023,0.555054,0.566467,down
194787,-7.558594,5.128906,3.460938,0.181641,-0.011719,0.064453,0.598877,-0.111023,0.555054,0.566467,down
194792,-7.558594,5.128906,3.382813,0.142578,-0.021484,0.048828,0.598877,-0.111023,0.555054,0.566467,down
194798,-7.558594,5.164062,3.421875,0.087891,-0.029297,0.064453,0.598877,-0.111023,0.555054,0.566467,down
194803,-7.515625,5.203125,3.382813,0.087891,-0.029297,0.064453,0.598755,-0.109131,0.556213,0.565857,down
194808,-7.480469,5.164062,3.382813,0.087891,-0.029297,0.064453,0.598694,-0.108887,0.556274,0.565918,down
194813,-7.476562,5.128906,3.34375,0.087891,-0.029297,0.064453,0.598694,-0.108887,0.556274,0.565918,down
194818,-7.480469,5.050781,3.382813,0.017578,-0.013672,0.087891,0.598694,-0.108887,0.556274,0.565918,down
194823,-7.476562,5.011719,3.382813,0.017578,-0.013672,0.087891,0.598267,-0.108521,0.556396,0.566284,down
194828,-7.480469,4.972656,3.421875,-0.007813,0.021484,0.099609,0.598267,-0.108521,0.556396,0.566284,down
194833,-7.519531,4.972656,3.382813,-0.007813,0.021484,0.099609,0.598145,-0.108398,0.556458,0.566406,down
194838,-7.558594,4.9375,3.382813,0.005859,0.037109,0.101563,0.598145,-0.108398,0.556458,0.566406,down
194843,-7.597656,4.972656,3.421875,0.041016,0.048828,0.105469,0.597717,-0.108215,0.556641,0.566711,down
194848,-7.59375,4.972656,3.382813,0.041016,0.048828,0.105469,0.59729,-0.10791,0.557007,0.566895,down
194853,-7.554687,5.050781,3.34375,0.041016,0.048828,0.105469,0.59729,-0.10791,0.557007,0.566895,down
194858,-7.554687,5.050781,3.382813,0.041016,0.048828,0.105469,0.596802,-0.107544,0.557495,0.566956,down
194863,-7.558594,5.050781,3.421875,0.041016,0.048828,0.105469,0.596802,-0.107544,0.557495,0.566956,down
194868,-7.558594,5.089844,3.34375,0.128906,0.111328,0.144531,0.596802,-0.107544,0.557495,0.566956,down
194873,-7.519531,5.089844,3.269531,0.128906,0.111328,0.144531,0.595886,-0.106812,0.558594,0.567017,down
194878,-7.59375,5.089844,3.34375,0.144531,0.140625,0.167969,0.595886,-0.106812,0.558594,0.567017,down
194883,-7.675781,5.089844,3.382813,0.144531,0.140625,0.167969,0.595459,-0.106567,0.559082,0.567017,down
194888,-7.703125,5.089844,3.421875,0.134766,0.138672,0.175781,0.595459,-0.106567,0.559082,0.567017,down
194894,-7.742187,5.050781,3.460938,0.134766,0.138672,0.175781,0.594238,-0.105835,0.560425,0.567078,down
194899,-7.742187,5.011719,3.421875,0.117188,0.089844,0.154297,0.593872,-0.10553,0.560852,0.567139,down
194904,-7.785156,4.972656,3.5,0.097656,0.070312,0.146484,0.593567,-0.105286,0.561157,0.5672,down
