timestamp,ax,ay,az,gx,gy,gz,qw,qx,qy,qz,label
35205,1.566406,9.28125,-2.128906,0.005859,-0.025391,-0.035156,0.068115,0.216125,0.752747,0.618042,down
35210,1.601563,9.363281,-2.128906,0.005859,-0.025391,-0.035156,0.068237,0.216125,0.752808,0.617981,down
35215,1.601563,9.359375,-2.164063,0.005859,-0.025391,-0.035156,0.068237,0.216125,0.752808,0.617981,down
35220,1.601563,9.433594,-2.164063,0.035156,-0.013672,-0.019531,0.068237,0.216125,0.752808,0.617981,down
35225,1.601563,9.46875,-2.242188,0.035156,-0.013672,-0.019531,0.06842,0.216064,0.753052,0.617737,down
35230,1.601563,9.433594,-2.203125,0.023437,-0.011719,-0.019531,0.06842,0.216064,0.753052,0.617737,down
35235,1.601563,9.46875,-2.242188,0.011719,-0.007813,-0.017578,0.068542,0.216003,0.753052,0.617676,down
35240,1.601563,9.546875,-2.320313,0.011719,-0.007813,-0.017578,0.068665,0.215942,0.753174,0.617554,down
35245,1.601563,9.511719,-2.320313,0.011719,-0.007813,-0.017578,0.068787,0.215881,0.753174,0.617554,down
35250,1.640625,9.507813,-2.320313,0.011719,-0.007813,-0.017578,0.068787,0.215881,0.753174,0.617554,down
35255,1.640625,9.394531,-2.320313,-0.001953,-0.013672,-0.042969,0.069031,0.215759,0.753235,0.617493,down
35260,1.640625,9.320313,-2.242188,-0.001953,-0.013672,-0.042969,0.069031,0.215759,0.753235,0.617493,down
35265,1.640625,9.320313,-2.242188,-0.017578,-0.003906,-0.064453,0.069031,0.215759,0.753235,0.617493,down
35270,1.601563,9.28125,-2.242188,-0.017578,-0.003906,-0.064453,0.069336,0.215515,0.753235,0.617554,down
35276,1.601563,9.28125,-2.203125,-0.017578,-0.003906,-0.064453,0.069641,0.21521,0.753296,0.617554,down
35281,1.601563,9.324219,-2.203125,-0.017578,-0.003906,-0.064453,0.069763,0.215027,0.753357,0.617554,down
35286,1.601563,9.324219,-2.203125,-0.015625,-0.003906,-0.099609,0.070007,0.214844,0.753418,0.617554,down
35291,1.601563,9.324219,-2.242188,-0.015625,-0.003906,-0.099609,0.070251,0.2146,0.753418,0.617554,down
35296,1.566406,9.363281,-2.242188,-0.015625,-0.003906,-0.099609,0.070435,0.214417,0.753418,0.617554,down
35301,1.566406,9.363281,-2.203125,-0.054687,-0.015625,-0.123047,0.070679,0.214172,0.753418,0.617615,down
35307,1.566406,9.429688,-2.28125,-0.054687,-0.015625,-0.123047,0.070923,0.213928,0.753418,0.617676,down
35313,1.566406,9.46875,-2.320313,-0.066406,-0.009766,-0.126953,0.070923,0.213928,0.753418,0.617676,down
35318,1.566406,9.46875,-2.320313,-0.068359,-0.019531,-0.126953,0.070923,0.213928,0.753418,0.617676,down
35323,1.566406,9.46875,-2.355469,-0.064453,-0.019531,-0.111328,0.070923,0.213928,0.753418,0.617676,down
35328,1.566406,9.472656,-2.394531,-0.070312,-0.009766,-0.09375,0.070923,0.213928,0.753418,0.617676,down
35333,1.566406,9.394531,-2.355469,-0.070312,-0.009766,-0.09375,0.070923,0.213928,0.753418,0.617676,down
35339,1.566406,9.394531,-2.320313,-0.070312,-0.009766,-0.09375,0.072388,0.212646,0.753235,0.618225,down
35345,1.527344,9.320313,-2.320313,-0.035156,0.015625,-0.078125,0.072632,0.212219,0.753235,0.618347,down
35350,1.527344,9.242188,-2.28125,-0.035156,0.015625,-0.078125,0.072693,0.212036,0.753235,0.618347,down
35355,1.566406,9.167969,-2.242188,0.009766,0.046875,-0.052734,0.072693,0.212036,0.753235,0.618347,down
35360,1.566406,9.167969,-2.203125,0.009766,0.046875,-0.052734,0.072693,0.211853,0.753296,0.618347,down
35365,1.566406,9.167969,-2.164063,0.035156,0.068359,-0.041016,0.072693,0.211853,0.753296,0.618347,down
35370,1.566406,9.125,-2.128906,0.035156,0.068359,-0.041016,0.072632,0.211487,0.753479,0.618286,down
35375,1.566406,9.128906,-2.164063,0.078125,0.074219,-0.003906,0.07251,0.211304,0.753601,0.618164,down
35380,1.566406,9.167969,-2.164063,0.078125,0.074219,-0.003906,0.072388,0.211182,0.753723,0.618042,down
35386,1.566406,9.207031,-2.164063,0.078125,0.074219,-0.003906,0.072083,0.21106,0.754028,0.617798,down
35392,1.566406,9.320313,-2.28125,0.078125,0.074219,-0.003906,0.071899,0.210999,0.754211,0.617615,down
35398,1.527344,9.359375,-2.242188,0.117188,0.046875,0.025391,0.071899,0.210999,0.754211,0.617615,down
35403,1.566406,9.363281,-2.28125,0.113281,0.037109,0.023437,0.071899,0.210999,0.754211,0.617615,down
35409,1.566406,9.363281,-2.203125,0.119141,0.027344,0.025391,0.071899,0.210999,0.754211,0.617615,down
35415,1.566406,9.472656,-2.28125,0.119141,0.023437,0.019531,0.071899,0.210999,0.754211,0.617615,down
35420,1.566406,9.46875,-2.320313,0.119141,0.023437,0.019531,0.071228,0.210937,0.755127,0.616577,down
35425,1.601563,9.429688,-2.320313,0.121094,0.009766,0.005859,0.071106,0.210937,0.755493,0.61615,down
35430,1.566406,9.433594,-2.320313,0.121094,0.009766,0.005859,0.071106,0.210937,0.755493,0.61615,down
35435,1.566406,9.433594,-2.320313,0.074219,0.0,-0.035156,0.071106,0.210937,0.755493,0.61615,down
35440,1.601563,9.394531,-2.28125,0.074219,0.0,-0.035156,0.071045,0.210876,0.755798,0.615784,down
35446,1.566406,9.359375,-2.320313,0.046875,0.001953,-0.041016,0.071167,0.210693,0.756042,0.615601,down
35451,1.566406,9.363281,-2.28125,0.017578,0.009766,-0.050781,0.071228,0.210571,0.756104,0.61554,down
35456,1.566406,9.320313,-2.203125,0.017578,0.009766,-0.050781,0.07135,0.210449,0.756165,0.615479,down
35461,1.566406,9.285156,-2.203125,0.017578,0.009766,-0.050781,0.071411,0.210266,0.756226,0.615479,down
35466,1.566406,9.28125,-2.128906,0.015625,0.033203,-0.066406,0.071472,0.210083,0.756287,0.615417,down
35471,1.566406,9.320313,-2.164063,0.017578,0.041016,-0.064453,0.071472,0.210083,0.756287,0.615417,down
35476,1.566406,9.320313,-2.164063,0.017578,0.041016,-0.064453,0.071533,0.209717,0.75647,0.615356,down
35481,1.566406,9.363281,-2.164063,0.058594,0.019531,-0.039063,0.071533,0.209717,0.75647,0.615356,down
35486,1.527344,9.359375,-2.164063,0.058594,0.019531,-0.039063,0.071533,0.209473,0.756714,0.615173,down
35491,1.566406,9.390625,-2.164063,0.09375,0.027344,-0.021484,0.071472,0.209351,0.756897,0.61499,down
35497,1.527344,9.585938,-2.242188,0.09375,0.027344,-0.021484,0.071411,0.209351,0.757019,0.614807,down
35502,1.527344,9.585938,-2.242188,0.119141,0.003906,0.007813,0.071411,0.209351,0.757019,0.614807,down
35507,1.527344,9.585938,-2.242188,0.123047,0.0,0.013672,0.071289,0.209351,0.757385,0.61438,down
35513,1.527344,9.625,-2.28125,0.123047,0.0,0.013672,0.071228,0.209412,0.757568,0.614136,down
35518,1.527344,9.585938,-2.28125,0.113281,-0.007813,0.015625,0.071228,0.209412,0.757568,0.614136,down
35523,1.527344,9.625,-2.28125,0.097656,-0.011719,0.013672,0.071228,0.209412,0.757568,0.614136,down
35528,1.488281,9.628906,-2.320313,0.097656,-0.011719,0.013672,0.071106,0.209534,0.758057,0.613464,down
35533,1.527344,9.585938,-2.28125,0.097656,-0.011719,0.013672,0.071106,0.209534,0.758179,0.613342,down
35539,1.488281,9.550781,-2.28125,0.050781,-0.007813,-0.019531,0.071106,0.209534,0.758179,0.613342,down
35545,1.449219,9.546875,-2.242188,0.041016,-0.015625,-0.027344,0.071106,0.209534,0.758179,0.613342,down
35550,1.449219,9.472656,-2.203125,0.015625,-0.013672,-0.03125,0.071289,0.209412,0.758423,0.613037,down
35555,1.488281,9.46875,-2.203125,0.015625,-0.013672,-0.03125,0.07135,0.209351,0.758484,0.613037,down
35560,1.449219,9.472656,-2.203125,-0.007813,-0.009766,-0.021484,0.07135,0.209351,0.758484,0.613037,down
35565,1.449219,9.472656,-2.203125,-0.007813,-0.009766,-0.021484,0.071472,0.20929,0.758423,0.613037,down
35571,1.488281,9.390625,-2.128906,-0.007813,-0.009766,-0.021484,0.071594,0.209229,0.758484,0.613037,down
35576,1.488281,9.429688,-2.089844,0.035156,-0.013672,-0.003906,0.071594,0.209229,0.758484,0.613037,down
35581,1.449219,9.472656,-2.164063,0.035156,-0.013672,-0.003906,0.071655,0.209229,0.758606,0.612854,down
35586,1.410156,9.46875,-2.164063,0.035156,-0.013672,-0.003906,0.071716,0.209229,0.758667,0.612793,down
35591,1.410156,9.507813,-2.242188,0.076172,-0.025391,0.001953,0.071716,0.209229,0.758667,0.612793,down
35596,1.410156,9.550781,-2.242188,0.089844,-0.033203,-0.003906,0.071716,0.20929,0.758789,0.61261,down
35601,1.410156,9.550781,-2.242188,0.089844,-0.033203,-0.003906,0.071777,0.209351,0.759033,0.612244,down
35606,1.410156,9.585938,-2.203125,0.089844,-0.033203,-0.003906,0.071899,0.209412,0.759155,0.612122,down
35611,1.410156,9.664063,-2.28125,0.03125,-0.0625,-0.033203,0.071899,0.209412,0.759155,0.612122,down
35616,1.410156,9.703125,-2.28125,-0.001953,-0.066406,-0.039063,0.072083,0.209473,0.759216,0.612,down
35621,1.410156,9.707031,-2.320313,-0.001953,-0.066406,-0.039063,0.072449,0.209473,0.759216,0.611877,down
35626,1.410156,9.703125,-2.394531,-0.001953,-0.066406,-0.039063,0.072693,0.209412,0.759155,0.611938,down
35631,1.449219,9.664063,-2.355469,-0.103516,-0.070312,-0.068359,0.072693,0.209412,0.759155,0.611938,down
35636,1.410156,9.546875,-2.320313,-0.103516,-0.070312,-0.068359,0.072998,0.209351,0.759033,0.612122,down
35641,1.449219,9.546875,-2.28125,-0.103516,-0.070312,-0.068359,0.073608,0.209229,0.758728,0.612488,down
35646,1.410156,9.472656,-2.320313,-0.103516,-0.070312,-0.068359,0.073975,0.209167,0.758545,0.612671,down
35651,1.449219,9.46875,-2.355469,-0.103516,-0.070312,-0.068359,0.073975,0.209167,0.758545,0.612671,down
35656,1.449219,9.429688,-2.28125,-0.138672,-0.058594,-0.0625,0.073975,0.209167,0.758545,0.612671,down
35661,1.449219,9.472656,-2.28125,-0.138672,-0.058594,-0.0625,0.074829,0.208984,0.758057,0.613281,down
35666,1.410156,9.511719,-2.320313,-0.068359,-0.050781,-0.037109,0.074829,0.208984,0.758057,0.613281,down
35671,1.410156,9.511719,-2.320313,-0.037109,-0.052734,-0.023437,0.075073,0.208984,0.757935,0.613403,down
35677,1.410156,9.546875,-2.355469,-0.037109,-0.052734,-0.023437,0.075378,0.209045,0.757812,0.613464,down
35682,1.449219,9.585938,-2.355469,-0.037109,-0.052734,-0.023437,0.0755,0.209106,0.757812,0.613403,down
35688,1.449219,9.625,-2.355469,0.025391,-0.066406,0.009766,0.075623,0.209167,0.757812,0.613342,down
35693,1.449219,9.585938,-2.355469,0.033203,-0.064453,0.015625,0.075623,0.209167,0.757812,0.613342,down
35698,1.449219,9.585938,-2.355469,0.037109,-0.064453,0.021484,0.075623,0.209167,0.757812,0.613342,down
35703,1.449219,9.546875,-2.433594,0.025391,-0.060547,0.03125,0.075867,0.209595,0.757935,0.613098,down
35709,1.449219,9.550781,-2.472656,0.005859,-0.050781,0.035156,0.075867,0.209595,0.757935,0.613098,down
35714,1.488281,9.550781,-2.433594,-0.009766,-0.041016,0.035156,0.075867,0.209595,0.757935,0.613098,down
35719,1.488281,9.550781,-2.394531,-0.009766,-0.041016,0.035156,0.07605,0.209961,0.757874,0.613037,down
35724,1.488281,9.507813,-2.394531,-0.019531,-0.017578,0.039063,0.07605,0.209961,0.757874,0.613037,down
35730,1.488281,9.46875,-2.394531,-0.019531,-0.017578,0.039063,0.07605,0.210144,0.757751,0.613098,down
35736,1.449219,9.429688,-2.394531,-0.019531,-0.017578,0.039063,0.075989,0.210205,0.757629,0.61322,down
35741,1.488281,9.390625,-2.320313,-0.019531,-0.017578,0.039063,0.075989,0.210205,0.757629,0.61322,down
35746,1.449219,9.390625,-2.28125,-0.027344,0.003906,0.017578,0.075989,0.210205,0.757629,0.61322,down
35751,1.410156,9.363281,-2.320313,-0.027344,0.003906,0.017578,0.07605,0.210266,0.757507,0.613403,down
35756,1.410156,9.359375,-2.28125,-0.027344,0.003906,0.017578,0.07605,0.210266,0.757507,0.613403,down
35761,1.449219,9.363281,-2.28125,-0.001953,-0.023437,0.005859,0.07605,0.210266,0.757507,0.613403,down
35767,1.449219,9.394531,-2.320313,-0.001953,-0.023437,0.005859,0.076172,0.210327,0.757446,0.613403,down
35772,1.449219,9.394531,-2.320313,-0.001953,-0.023437,0.005859,0.076233,0.210388,0.757446,0.613342,down
35777,1.488281,9.429688,-2.320313,0.0,-0.025391,-0.015625,0.076294,0.210388,0.757446,0.613342,down
35783,1.488281,9.390625,-2.320313,0.0,-0.025391,-0.015625,0.076355,0.210388,0.757446,0.613342,down
35788,1.449219,9.359375,-2.320313,0.0,-0.025391,-0.015625,0.076477,0.210449,0.757446,0.613342,down
35793,1.488281,9.394531,-2.28125,0.0,-0.039063,-0.015625,0.076477,0.210449,0.757446,0.613342,down
35798,1.488281,9.390625,-2.320313,0.001953,-0.033203,-0.023437,0.076477,0.210449,0.757446,0.613342,down
35803,1.449219,9.394531,-2.355469,-0.001953,-0.03125,-0.027344,0.076477,0.210449,0.757446,0.613342,down
35809,1.488281,9.46875,-2.394531,-0.001953,-0.03125,-0.027344,0.076477,0.210449,0.757446,0.613342,down
35814,1.488281,9.46875,-2.394531,-0.013672,-0.015625,-0.029297,0.076477,0.210449,0.757446,0.613342,down
35819,1.488281,9.472656,-2.355469,-0.023437,-0.013672,-0.041016,0.076477,0.210449,0.757446,0.613342,down
35824,1.449219,9.429688,-2.433594,-0.023437,-0.013672,-0.041016,0.077209,0.210266,0.757446,0.613281,down
35830,1.449219,9.472656,-2.394531,-0.046875,0.0,-0.050781,0.077209,0.210266,0.757446,0.613281,down
35836,1.488281,9.429688,-2.355469,-0.044922,-0.005859,-0.050781,0.077209,0.210266,0.757446,0.613281,down
35841,1.449219,9.433594,-2.355469,-0.044922,-0.005859,-0.050781,0.077576,0.209961,0.757324,0.613525,down
35847,1.449219,9.394531,-2.320313,-0.0625,-0.001953,-0.058594,0.077576,0.209961,0.757324,0.613525,down
35852,1.449219,9.390625,-2.28125,-0.0625,-0.001953,-0.058594,0.077942,0.209595,0.75708,0.613831,down
35857,1.449219,9.390625,-2.28125,-0.0625,-0.001953,-0.058594,0.078064,0.209473,0.75708,0.613892,down
35863,1.410156,9.359375,-2.28125,-0.0625,-0.001953,-0.058594,0.078247,0.209412,0.756958,0.614014,down
35868,1.410156,9.324219,-2.28125,-0.0625,-0.001953,-0.058594,0.078369,0.20929,0.756958,0.614075,down
35875,1.410156,9.324219,-2.242188,-0.046875,-0.011719,-0.042969,0.078369,0.20929,0.756958,0.614075,down
35880,1.375,9.359375,-2.28125,-0.035156,-0.011719,-0.037109,0.078613,0.209167,0.756836,0.614258,down
35885,1.410156,9.324219,-2.28125,-0.023437,-0.009766,-0.03125,0.078613,0.209167,0.756836,0.614258,down
35891,1.375,9.324219,-2.242188,-0.021484,-0.011719,-0.023437,0.078613,0.209167,0.756836,0.614258,down
35896,1.410156,9.363281,-2.320313,-0.021484,-0.011719,-0.023437,0.078979,0.208923,0.756714,0.61438,down
35901,1.410156,9.324219,-2.28125,-0.003906,-0.005859,-0.015625,0.078979,0.208923,0.756714,0.61438,down
35906,1.410156,9.324219,-2.28125,-0.003906,-0.005859,-0.015625,0.079041,0.208862,0.756714,0.61438,down
35911,1.410156,9.28125,-2.242188,-0.005859,0.0,-0.025391,0.079041,0.208862,0.756714,0.61438,down
35916,1.410156,9.28125,-2.242188,-0.005859,0.0,-0.025391,0.079102,0.208801,0.756714,0.61438,down
35921,1.410156,9.242188,-2.242188,-0.005859,0.0,-0.025391,0.079163,0.20874,0.756775,0.61438,down
35927,1.410156,9.242188,-2.164063,0.033203,-0.009766,-0.035156,0.079163,0.20874,0.756775,0.61438,down
35932,1.410156,9.203125,-2.164063,0.033203,-0.009766,-0.035156,0.079407,0.208557,0.756958,0.614136,down
35937,1.375,9.203125,-2.203125,0.033203,-0.009766,-0.035156,0.079468,0.208496,0.757019,0.614075,down
35942,1.375,9.203125,-2.164063,0.037109,-0.044922,-0.070312,0.079468,0.208496,0.757019,0.614075,down
35947,1.375,9.246094,-2.128906,0.037109,-0.044922,-0.070312,0.079834,0.208374,0.757202,0.613892,down
35953,1.410156,9.246094,-2.128906,0.037109,-0.044922,-0.070312,0.080078,0.208313,0.757324,0.61377,down
35959,1.375,9.394531,-2.164063,0.042969,-0.074219,-0.091797,0.080322,0.208252,0.757385,0.613586,down
35964,1.375,9.394531,-2.203125,0.035156,-0.080078,-0.103516,0.080627,0.208191,0.757507,0.613464,down
35969,1.335938,9.429688,-2.320313,0.035156,-0.080078,-0.103516,0.080627,0.208191,0.757507,0.613464,down
35976,1.375,9.390625,-2.320313,0.015625,-0.101563,-0.105469,0.080627,0.208191,0.757507,0.613464,down
35981,1.410156,9.390625,-2.320313,-0.013672,-0.099609,-0.125,0.080627,0.208191,0.757507,0.613464,down
35986,1.410156,9.429688,-2.355469,-0.013672,-0.099609,-0.125,0.082031,0.207947,0.757751,0.613098,down
35991,1.375,9.363281,-2.320313,-0.013672,-0.099609,-0.125,0.082397,0.207825,0.757751,0.613037,down
35997,1.410156,9.394531,-2.28125,-0.025391,-0.105469,-0.140625,0.083313,0.207642,0.757812,0.612976,down
36002,1.375,9.390625,-2.320313,-0.033203,-0.117188,-0.164062,0.08374,0.20752,0.757812,0.612915,down
36008,1.375,9.363281,-2.355469,-0.033203,-0.117188,-0.164062,0.084229,0.207336,0.757812,0.612915,down
36013,1.335938,9.390625,-2.320313,-0.056641,-0.115234,-0.197266,0.084229,0.207336,0.757812,0.612915,down
36018,1.335938,9.394531,-2.28125,-0.0625,-0.123047,-0.207031,0.084229,0.207336,0.757812,0.612915,down
36024,1.296875,9.429688,-2.28125,-0.0625,-0.123047,-0.207031,0.085999,0.206726,0.757751,0.612915,down
36031,1.296875,9.429688,-2.242188,-0.066406,-0.158203,-0.240234,0.085999,0.206726,0.757751,0.612915,down
36036,1.257813,9.433594,-2.242188,-0.09375,-0.181641,-0.265625,0.085999,0.206726,0.757751,0.612915,down
36042,1.21875,9.46875,-2.203125,-0.103516,-0.193359,-0.273438,0.088196,0.205994,0.75769,0.612915,down
36047,1.183594,9.433594,-2.242188,-0.103516,-0.193359,-0.273438,0.08905,0.20575,0.75769,0.612915,down
36052,1.144531,9.46875,-2.28125,-0.123047,-0.191406,-0.277344,0.090881,0.2052,0.757507,0.613098,down
36057,1.183594,9.46875,-2.203125,-0.123047,-0.191406,-0.277344,0.091736,0.204956,0.757385,0.613159,down
36062,1.144531,9.507813,-2.242188,-0.123047,-0.191406,-0.277344,0.092651,0.204651,0.757263,0.613281,down
36067,1.144531,9.46875,-2.203125,-0.123047,-0.191406,-0.277344,0.092651,0.204651,0.757263,0.613281,down
36072,1.144531,9.507813,-2.242188,-0.167969,-0.224609,-0.310547,0.094666,0.204102,0.756958,0.613525,down
36078,1.105469,9.511719,-2.28125,-0.167969,-0.224609,-0.310547,0.095642,0.203796,0.756775,0.613647,down
36083,1.105469,9.511719,-2.28125,-0.181641,-0.228516,-0.310547,0.096619,0.203552,0.756592,0.613831,down
36088,1.144531,9.507813,-2.28125,-0.181641,-0.228516,-0.310547,0.097595,0.203247,0.75647,0.613953,down
36093,1.105469,9.550781,-2.320313,-0.181641,-0.228516,-0.310547,0.098694,0.202942,0.756287,0.614136,down
36098,1.066406,9.546875,-2.28125,-0.181641,-0.228516,-0.310547,0.098694,0.202942,0.756287,0.614136,down
36103,1.066406,9.546875,-2.28125,-0.164062,-0.220703,-0.3125,0.100647,0.202332,0.755981,0.61438,down
36108,1.066406,9.511719,-2.242188,-0.164062,-0.220703,-0.3125,0.101685,0.202026,0.755798,0.614502,down
36114,1.066406,9.390625,-2.203125,-0.164062,-0.220703,-0.3125,0.102539,0.201721,0.755676,0.614624,down
36119,1.027344,9.394531,-2.164063,-0.177734,-0.199219,-0.316406,0.102539,0.201721,0.755676,0.614624,down
36124,0.992187,9.433594,-2.164063,-0.181641,-0.205078,-0.314453,0.102539,0.201721,0.755676,0.614624,down
36129,1.027344,9.472656,-2.089844,-0.185547,-0.193359,-0.324219,0.102539,0.201721,0.755676,0.614624,down
36134,0.953125,9.511719,-2.089844,-0.179687,-0.197266,-0.324219,0.102539,0.201721,0.755676,0.614624,down
36140,0.953125,9.511719,-2.089844,-0.175781,-0.201172,-0.324219,0.102539,0.201721,0.755676,0.614624,down
36145,0.914062,9.511719,-2.089844,-0.173828,-0.205078,-0.326172,0.102539,0.201721,0.755676,0.614624,down
36150,0.875,9.550781,-2.050781,-0.173828,-0.205078,-0.326172,0.109375,0.19928,0.754456,0.615723,down
36155,0.835937,9.550781,-2.050781,-0.191406,-0.203125,-0.316406,0.109375,0.19928,0.754456,0.615723,down
36161,0.875,9.511719,-2.128906,-0.199219,-0.207031,-0.304688,0.109375,0.19928,0.754456,0.615723,down
36166,0.796875,9.550781,-2.089844,-0.203125,-0.195312,-0.298828,0.109375,0.19928,0.754456,0.615723,down
36172,0.796875,9.546875,-2.050781,-0.191406,-0.212891,-0.304688,0.109375,0.19928,0.754456,0.615723,down
36177,0.796875,9.546875,-2.050781,-0.191406,-0.212891,-0.304688,0.114136,0.197693,0.753418,0.616638,down
36182,0.835937,9.628906,-2.089844,-0.197266,-0.207031,-0.3125,0.116089,0.197083,0.752991,0.617004,down
36187,0.761719,9.585938,-2.089844,-0.197266,-0.207031,-0.3125,0.117065,0.196655,0.752747,0.617249,down
36192,0.761719,9.585938,-2.089844,-0.197266,-0.207031,-0.3125,0.117065,0.196655,0.752747,0.617249,down
36197,0.722656,9.625,-2.089844,-0.242187,-0.191406,-0.357422,0.119202,0.19574,0.752197,0.617737,down
36202,0.722656,9.585938,-2.011719,-0.277344,-0.199219,-0.410156,0.120239,0.195251,0.751953,0.618042,down
36207,0.683594,9.546875,-2.011719,-0.277344,-0.199219,-0.410156,0.120239,0.195251,0.751953,0.618042,down
36212,0.644531,9.511719,-1.972656,-0.291016,-0.208984,-0.435547,0.122803,0.194031,0.751343,0.618713,down
36217,0.605469,9.429688,-1.898438,-0.291016,-0.208984,-0.435547,0.122803,0.194031,0.751343,0.618713,down
36222,0.605469,9.46875,-1.9375,-0.291016,-0.208984,-0.435547,0.124084,0.193359,0.750977,0.61908,down
36227,0.683594,9.546875,-1.9375,-0.398438,-0.216797,-0.556641,0.124084,0.193359,0.750977,0.61908,down
36232,0.605469,9.46875,-1.9375,-0.398438,-0.216797,-0.556641,0.126953,0.191833,0.750183,0.619934,down
36238,0.53125,9.46875,-1.859375,-0.451172,-0.21875,-0.599609,0.128418,0.190979,0.749756,0.620422,down
36243,0.492187,9.46875,-1.859375,-0.451172,-0.21875,-0.599609,0.131409,0.189209,0.748779,0.62146,down
36248,0.492187,9.433594,-1.78125,-0.494141,-0.234375,-0.623047,0.133179,0.188171,0.74823,0.622131,down
36253,0.378906,9.390625,-1.742188,-0.494141,-0.234375,-0.623047,0.134827,0.187134,0.74762,0.622742,down
36258,0.300781,9.394531,-1.742188,-0.494141,-0.234375,-0.623047,0.136292,0.186218,0.747131,0.623352,down
36263,0.339844,9.390625,-1.742188,-0.5,-0.21875,-0.636719,0.138123,0.185059,0.746521,0.624023,down
36269,0.261719,9.359375,-1.628906,-0.5,-0.21875,-0.636719,0.139587,0.184143,0.746033,0.624573,down
36274,0.222656,9.359375,-1.667969,-0.5,-0.21875,-0.636719,0.141235,0.183044,0.745483,0.625122,down
36280,0.1875,9.324219,-1.628906,-0.5,-0.21875,-0.636719,0.141235,0.183044,0.745483,0.625122,down
36286,0.148437,9.359375,-1.515625,-0.4375,-0.195312,-0.667969,0.144409,0.180969,0.744507,0.626221,down
36291,0.070312,9.242188,-1.4375,-0.414062,-0.201172,-0.662109,0.144409,0.180969,0.744507,0.626221,down
36296,-0.003906,9.242188,-1.398438,-0.390625,-0.210937,-0.675781,0.144409,0.180969,0.744507,0.626221,down
36301,-0.003906,9.242188,-1.324219,-0.390625,-0.210937,-0.675781,0.149292,0.177734,0.743286,0.627441,down
36307,-0.003906,9.164063,-1.324219,-0.361328,-0.236328,-0.71875,0.152771,0.175476,0.742615,0.628052,down
36312,-0.160156,9.167969,-1.285156,-0.361328,-0.236328,-0.71875,0.152771,0.175476,0.742615,0.628052,down
36317,-0.121094,9.128906,-1.285156,-0.365234,-0.275391,-0.798828,0.154541,0.174377,0.74231,0.628296,down
36322,-0.160156,9.128906,-1.246094,-0.365234,-0.275391,-0.798828,0.156616,0.173035,0.741943,0.62854,down
36327,-0.160156,9.128906,-1.246094,-0.365234,-0.275391,-0.798828,0.158447,0.171936,0.741577,0.628784,down
36332,-0.234375,9.007813,-1.132813,-0.365234,-0.275391,-0.798828,0.158447,0.171936,0.741577,0.628784,down
36337,-0.273438,9.050781,-1.09375,-0.412109,-0.310547,-0.876953,0.158447,0.171936,0.741577,0.628784,down
36342,-0.390625,8.96875,-1.132813,-0.470703,-0.34375,-0.974609,0.16748,0.166382,0.739807,0.630005,down
36347,-0.425781,8.898438,-1.09375,-0.470703,-0.34375,-0.974609,0.16748,0.166382,0.739807,0.630005,down
36352,-0.464844,8.859375,-1.015625,-0.470703,-0.34375,-0.974609,0.170044,0.164795,0.739258,0.630432,down
36357,-0.464844,8.785156,-0.976562,-0.634766,-0.421875,-1.197266,0.170044,0.164795,0.739258,0.630432,down
36362,-0.503906,8.703125,-0.941406,-0.634766,-0.421875,-1.197266,0.17572,0.161255,0.737915,0.631348,down
36367,-0.582031,8.589844,-0.863281,-0.634766,-0.421875,-1.197266,0.178711,0.159424,0.737183,0.631836,down
36372,-0.582031,8.558594,-0.785156,-0.634766,-0.421875,-1.197266,0.18219,0.157227,0.736328,0.632385,down
36377,-0.617187,8.441406,-0.746094,-0.634766,-0.421875,-1.197266,0.185425,0.155273,0.735474,0.632935,down
36383,-0.65625,8.359375,-0.710937,-0.634766,-0.421875,-1.197266,0.192444,0.151001,0.733582,0.634033,down
36389,-0.808594,8.097656,-0.59375,-0.634766,-0.421875,-1.197266,0.196289,0.148682,0.732544,0.634583,down
36394,-0.847656,7.980469,-0.519531,-0.925781,-0.632812,-1.699219,0.200317,0.146179,0.731445,0.635193,down
36399,-0.847656,7.863281,-0.441406,-0.960937,-0.664062,-1.783203,0.20459,0.143555,0.730286,0.635803,down
36405,-0.964844,7.714844,-0.402344,-0.960937,-0.664062,-1.783203,0.209167,0.140747,0.729004,0.636414,down
36410,-1.039063,7.59375,-0.363281,-1.048828,-0.722656,-1.958984,0.209167,0.140747,0.729004,0.636414,down
36416,-1.078125,7.558594,-0.25,-1.078125,-0.746094,-2.050781,0.209167,0.140747,0.729004,0.636414,down
36422,-1.230469,7.515625,-0.210937,-1.078125,-0.746094,-2.050781,0.229065,0.128296,0.723267,0.638733,down
36427,-1.269531,7.398437,-0.171875,-1.078125,-0.746094,-2.050781,0.229065,0.128296,0.723267,0.638733,down
36432,-1.347656,7.402344,-0.171875,-1.220703,-0.828125,-2.324219,0.240295,0.121094,0.719788,0.639893,down
36437,-1.539063,7.4375,-0.058594,-1.220703,-0.828125,-2.324219,0.240295,0.121094,0.719788,0.639893,down
36442,-1.539063,7.367187,-0.058594,-1.220703,-0.828125,-2.324219,0.252258,0.113159,0.715942,0.641113,down
36447,-1.539063,7.367187,-0.058594,-1.220703,-0.828125,-2.324219,0.252258,0.113159,0.715942,0.641113,down
36452,-1.652344,7.289062,-0.058594,-1.423828,-0.853516,-2.673828,0.252258,0.113159,0.715942,0.641113,down
36457,-1.652344,7.289062,-0.058594,-1.455078,-0.835937,-2.753906,0.252258,0.113159,0.715942,0.641113,down
36463,-1.652344,7.289062,-0.058594,-1.455078,-0.835937,-2.753906,0.270996,0.099915,0.709534,0.642761,down
36468,-2.113281,7.019531,0.09375,-1.542969,-0.828125,-2.902344,0.284546,0.089722,0.70459,0.64386,down
36473,-2.378906,7.019531,0.132812,-1.542969,-0.828125,-2.902344,0.284546,0.089722,0.70459,0.64386,down
36478,-2.496094,6.988281,0.171875,-1.542969,-0.828125,-2.902344,0.298035,0.079407,0.699524,0.644653,down
36483,-2.609375,6.949219,0.171875,-1.542969,-0.828125,-2.902344,0.298035,0.079407,0.699524,0.644653,down
36488,-2.765625,7.015625,0.246094,-1.605469,-0.810547,-3.167969,0.310974,0.069031,0.694519,0.645081,down
36493,-3.070313,7.058594,0.363281,-1.605469,-0.810547,-3.167969,0.318054,0.063354,0.691772,0.645203,down
36498,-3.261719,7.09375,0.402344,-1.621094,-0.785156,-3.310547,0.325439,0.057312,0.688843,0.645264,down
36504,-3.605469,7.054687,0.441406,-1.621094,-0.785156,-3.310547,0.331787,0.051941,0.686279,0.645203,down
36509,-3.722656,7.09375,0.476562,-1.640625,-0.738281,-3.40625,0.331787,0.051941,0.686279,0.645203,down
36515,-4.066406,7.25,0.59375,-1.640625,-0.738281,-3.40625,0.331787,0.051941,0.686279,0.645203,down
36521,-4.179687,7.367187,0.632812,-1.617188,-0.730469,-3.488281,0.331787,0.051941,0.686279,0.645203,down
36527,-4.179687,7.367187,0.632812,-1.613281,-0.707031,-3.529297,0.359802,0.027466,0.6745,0.644043,down
36532,-4.601562,7.636719,0.746094,-1.613281,-0.707031,-3.529297,0.359802,0.027466,0.6745,0.644043,down
36537,-4.949219,7.597656,0.859375,-1.605469,-0.691406,-3.556641,0.37384,0.014648,0.668396,0.642883,down
36543,-5.101562,7.714844,0.9375,-1.697266,-0.630859,-3.626953,0.37384,0.014648,0.668396,0.642883,down
36548,-5.40625,7.75,0.9375,-1.697266,-0.630859,-3.626953,0.395569,-0.006042,0.65802,0.640747,down
36553,-5.523437,7.710937,0.9375,-1.697266,-0.630859,-3.626953,0.401245,-0.011719,0.65509,0.640076,down
36558,-5.714844,7.59375,1.015625,-1.697266,-0.630859,-3.626953,0.401245,-0.011719,0.65509,0.640076,down
36563,-5.941406,7.371094,1.089844,-1.78125,-0.574219,-3.634766,0.401245,-0.011719,0.65509,0.640076,down
36568,-6.019531,7.371094,1.242188,-1.773438,-0.537109,-3.642578,0.421265,-0.03241,0.644165,0.637573,down
36573,-6.019531,7.171875,1.398438,-1.832031,-0.519531,-3.626953,0.421265,-0.03241,0.644165,0.637573,down
36578,-6.363281,7.09375,1.511719,-2.046875,-0.714844,-3.552734,0.428162,-0.039734,0.640137,0.636658,down
36583,-6.097656,7.671875,0.402344,-2.046875,-0.714844,-3.552734,0.440796,-0.053711,0.630554,0.636597,down
36588,-5.867187,7.253906,2.585938,-2.046875,-0.714844,-3.552734,0.446289,-0.06134,0.625,0.637573,down
36593,-7.09375,6.140625,1.855469,-2.046875,-0.714844,-3.552734,0.446289,-0.06134,0.625,0.637573,down
36598,-6.785156,6.949219,0.59375,-1.384766,-0.261719,-3.503906,0.457642,-0.075256,0.61792,0.634827,down
36603,-7.476562,6.753906,1.894531,-1.384766,-0.261719,-3.503906,0.457642,-0.075256,0.61792,0.634827,down
36608,-7.476562,6.753906,1.894531,-0.958984,-0.398438,-3.396484,0.463379,-0.081116,0.615234,0.632629,down
36613,-7.703125,6.90625,2.125,-0.958984,-0.398438,-3.396484,0.46936,-0.086914,0.612427,0.630127,down
36618,-7.359375,6.90625,2.660156,-1.257813,-0.476562,-3.369141,0.46936,-0.086914,0.612427,0.630127,down
36623,-7.363281,6.636719,2.777344,-1.755859,-0.396484,-3.28125,0.485779,-0.105469,0.601624,0.625305,down
36628,-7.667969,6.40625,2.546875,-1.755859,-0.396484,-3.28125,0.490356,-0.112122,0.5979,0.624084,down
36633,-7.929687,6.371094,2.277344,-1.755859,-0.396484,-3.28125,0.490356,-0.112122,0.5979,0.624084,down
36638,-8.085938,6.371094,2.46875,-1.546875,-0.044922,-3.0625,0.490356,-0.112122,0.5979,0.624084,down
36643,-8.164063,6.371094,2.585938,-1.546875,-0.044922,-3.0625,0.503601,-0.131592,0.587219,0.619873,down
36648,-8.125,6.332031,2.660156,-1.546875,-0.044922,-3.0625,0.503601,-0.131592,0.587219,0.619873,down
36653,-8.207031,5.949219,2.777344,-1.75,-0.023437,-2.820313,0.511047,-0.14386,0.580017,0.617859,down
36658,-8.390625,5.871094,2.816406,-1.75,-0.023437,-2.820313,0.511047,-0.14386,0.580017,0.617859,down
36663,-8.507813,5.640625,2.816406,-1.75,-0.023437,-2.820313,0.514709,-0.150757,0.575928,0.616943,down
36668,-8.507813,5.640625,2.816406,-1.748047,0.128906,-2.554688,0.517639,-0.156433,0.572632,0.616211,down
36673,-8.738281,5.410156,2.851563,-1.527344,0.169922,-2.476563,0.52063,-0.162354,0.569336,0.615234,down
36678,-8.738281,5.410156,2.851563,-1.246094,0.166016,-2.398438,0.523499,-0.167786,0.566406,0.613953,down
36684,-8.777344,5.375,2.851563,-1.246094,0.166016,-2.398438,0.529297,-0.177551,0.56189,0.610413,down
36690,-9.050781,5.335937,2.96875,-1.246094,0.166016,-2.398438,0.531982,-0.181824,0.560181,0.608398,down
36696,-9.3125,5.375,3.042969,-1.246094,0.166016,-2.398438,0.534668,-0.185974,0.558655,0.606201,down
36701,-9.46875,5.375,3.082031,-0.519531,0.3125,-1.996094,0.534668,-0.185974,0.558655,0.606201,down
36706,-9.542969,5.375,3.082031,-0.558594,0.371094,-1.908203,0.534668,-0.185974,0.558655,0.606201,down
36711,-9.695313,5.144531,3.121094,-0.558594,0.371094,-1.908203,0.54126,-0.197937,0.554749,0.600098,down
36716,-9.699219,5.105469,3.082031,-0.654297,0.476562,-1.728516,0.54126,-0.197937,0.554749,0.600098,down
36721,-9.660156,5.105469,3.273438,-0.775391,0.501953,-1.611328,0.54126,-0.197937,0.554749,0.600098,down
36726,-9.734375,4.835937,3.199219,-0.744141,0.595703,-1.525391,0.54126,-0.197937,0.554749,0.600098,down
36733,-9.695313,4.914062,3.121094,-0.744141,0.595703,-1.525391,0.54126,-0.197937,0.554749,0.600098,down
36738,-9.660156,4.722656,3.273438,-0.550781,0.638672,-1.214844,0.54126,-0.197937,0.554749,0.600098,down
36743,-9.617188,4.644531,3.273438,-0.550781,0.638672,-1.214844,0.548279,-0.220947,0.548523,0.59137,down
36748,-9.734375,4.570312,3.042969,-0.457031,0.671875,-1.121094,0.549255,-0.227173,0.547791,0.588806,down
36753,-9.816406,4.570312,3.082031,-0.457031,0.671875,-1.121094,0.549255,-0.227173,0.547791,0.588806,down
36758,-9.855469,4.570312,3.160156,-0.1875,0.691406,-0.933594,0.549927,-0.232239,0.548035,0.585937,down
36763,-9.855469,4.570312,3.160156,-0.1875,0.691406,-0.933594,0.549927,-0.232239,0.548035,0.585937,down
36768,-9.925781,4.609375,3.199219,0.238281,0.646484,-0.71875,0.549927,-0.232239,0.548035,0.585937,down
36773,-9.925781,4.644531,3.199219,0.238281,0.646484,-0.71875,0.550537,-0.236023,0.549316,0.582642,down
36778,-10.003906,4.609375,3.121094,0.302734,0.638672,-0.654297,0.551025,-0.239014,0.551147,0.579163,down
36783,-10.003906,4.644531,3.121094,0.365234,0.619141,-0.542969,0.551025,-0.239014,0.551147,0.579163,down
36789,-10.160156,4.683594,3.042969,0.365234,0.605469,-0.492187,0.551208,-0.240112,0.552124,0.577637,down
36794,-10.199219,4.722656,3.042969,0.365234,0.605469,-0.492187,0.551392,-0.24231,0.554321,0.574402,down
36799,-10.273438,4.761719,3.042969,0.365234,0.605469,-0.492187,0.551453,-0.243225,0.555481,0.572876,down
36804,-10.234375,4.761719,3.042969,0.365234,0.605469,-0.492187,0.551453,-0.243958,0.556519,0.571594,down
36809,-10.234375,4.761719,3.042969,0.365234,0.605469,-0.492187,0.551453,-0.243958,0.556519,0.571594,down
36814,-10.199219,4.722656,3.007813,0.410156,0.564453,-0.332031,0.551453,-0.243958,0.556519,0.571594,down
36819,-10.003906,4.644531,2.851563,0.390625,0.5625,-0.298828,0.551331,-0.245422,0.558838,0.568848,down
36824,-10.003906,4.644531,2.851563,0.416016,0.544922,-0.269531,0.551208,-0.246033,0.559937,0.567566,down
36829,-9.890625,4.644531,2.816406,0.416016,0.544922,-0.269531,0.550903,-0.24707,0.5625,0.56488,down
36834,-9.8125,4.644531,2.777344,0.416016,0.544922,-0.269531,0.55072,-0.247437,0.563843,0.563599,down
36839,-9.777344,4.609375,2.777344,0.416016,0.544922,-0.269531,0.550537,-0.247681,0.565063,0.562439,down
36844,-9.699219,4.609375,2.699219,0.621094,0.513672,-0.101563,0.550354,-0.247803,0.566528,0.561096,down
36850,-9.695313,4.644531,2.660156,0.621094,0.513672,-0.101563,0.55011,-0.247742,0.567932,0.559814,down
36855,-9.621094,4.570312,2.699219,0.621094,0.513672,-0.101563,0.549927,-0.247742,0.569458,0.558533,down
36860,-9.582031,4.609375,2.585938,0.621094,0.513672,-0.101563,0.549622,-0.24762,0.570923,0.557312,down
36866,-9.582031,4.53125,2.585938,0.574219,0.492187,-0.005859,0.549316,-0.247498,0.572449,0.556152,down
36871,-9.503906,4.53125,2.585938,0.507812,0.484375,0.007813,0.549316,-0.247498,0.572449,0.556152,down
36876,-9.539063,4.570312,2.585938,0.494141,0.476562,0.033203,0.549316,-0.247498,0.572449,0.556152,down
36882,-9.503906,4.53125,2.585938,0.441406,0.472656,0.058594,0.549316,-0.247498,0.572449,0.556152,down
36887,-9.503906,4.453125,2.585938,0.402344,0.46875,0.066406,0.549316,-0.247498,0.572449,0.556152,down
36893,-9.5,4.453125,2.546875,0.378906,0.472656,0.074219,0.549316,-0.247498,0.572449,0.556152,down
36899,-9.5,4.453125,2.546875,0.353516,0.462891,0.078125,0.549316,-0.247498,0.572449,0.556152,down
36904,-9.5,4.492187,2.546875,0.353516,0.462891,0.078125,0.545349,-0.247437,0.582642,0.549438,down
36909,-9.582031,4.570312,2.546875,0.353516,0.462891,0.078125,0.544739,-0.247498,0.583801,0.548767,down
36914,-9.578125,4.609375,2.546875,0.310547,0.441406,0.064453,0.544128,-0.247559,0.585022,0.548096,down
36919,-9.578125,4.609375,2.546875,0.310547,0.441406,0.064453,0.544128,-0.247559,0.585022,0.548096,down
36924,-9.617188,4.609375,2.546875,0.255859,0.439453,0.03125,0.544128,-0.247559,0.585022,0.548096,down
36929,-9.65625,4.683594,2.546875,0.255859,0.439453,0.03125,0.542603,-0.248108,0.587891,0.546265,down
36934,-9.65625,4.644531,2.546875,0.255859,0.439453,0.03125,0.542053,-0.248413,0.588806,0.545654,down
36939,-9.65625,4.644531,2.546875,0.255859,0.439453,0.03125,0.541565,-0.248779,0.5896,0.545105,down
36944,-9.660156,4.644531,2.46875,0.087891,0.414062,-0.023437,0.541077,-0.249207,0.590271,0.544739,down
36949,-9.65625,4.570312,2.46875,0.087891,0.414062,-0.023437,0.541077,-0.249207,0.590271,0.544739,down
36954,-9.660156,4.53125,2.507813,0.087891,0.414062,-0.023437,0.539978,-0.250366,0.591431,0.544006,down
36959,-9.660156,4.53125,2.46875,-0.09375,0.390625,-0.064453,0.539429,-0.251099,0.591858,0.543762,down
36964,-9.65625,4.453125,2.429688,-0.146484,0.365234,-0.064453,0.539429,-0.251099,0.591858,0.543762,down
36969,-9.621094,4.339844,2.429688,-0.191406,0.351563,-0.070312,0.538879,-0.251831,0.592163,0.543579,down
36974,-9.617188,4.378906,2.507813,-0.191406,0.351563,-0.070312,0.53833,-0.252686,0.592346,0.543518,down
36979,-9.578125,4.300781,2.429688,-0.191406,0.351563,-0.070312,0.537292,-0.254456,0.592529,0.54364,down
36984,-9.542969,4.222656,2.429688,-0.191406,0.351563,-0.070312,0.536804,-0.25531,0.592468,0.543701,down
36989,-9.5,4.261719,2.394531,-0.191406,0.351563,-0.070312,0.536804,-0.25531,0.592468,0.543701,down
36994,-9.539063,4.261719,2.394531,-0.322266,0.273438,-0.09375,0.535828,-0.257202,0.592224,0.544067,down
36999,-9.5,4.261719,2.394531,-0.322266,0.273438,-0.09375,0.5354,-0.25824,0.59198,0.54425,down
37004,-9.503906,4.300781,2.394531,-0.337891,0.210937,-0.140625,0.5354,-0.25824,0.59198,0.54425,down
37009,-9.429688,4.261719,2.394531,-0.337891,0.210937,-0.140625,0.535034,-0.259155,0.591736,0.544434,down
37014,-9.472656,4.261719,2.394531,-0.345703,0.189453,-0.152344,0.534424,-0.261108,0.591064,0.5448,down
37019,-9.433594,4.300781,2.394531,-0.345703,0.189453,-0.152344,0.53418,-0.262085,0.590698,0.545044,down
37024,-9.277344,4.222656,2.429688,-0.457031,0.134766,-0.207031,0.53418,-0.262085,0.590698,0.545044,down
37029,-9.195313,4.1875,2.429688,-0.457031,0.134766,-0.207031,0.533936,-0.263184,0.590088,0.545349,down
37034,-9.007813,4.070312,2.355469,-0.492187,0.128906,-0.208984,0.533936,-0.263184,0.590088,0.545349,down
37039,-9.007813,4.070312,2.355469,-0.492187,0.128906,-0.208984,0.533264,-0.266602,0.588135,0.546509,down
37044,-8.777344,3.996094,2.429688,-0.492187,0.128906,-0.208984,0.533264,-0.266602,0.588135,0.546509,down
37049,-8.667969,3.917969,2.394531,-0.5625,0.09375,-0.197266,0.532776,-0.268982,0.586487,0.547546,down
37054,-8.429688,3.726563,2.394531,-0.5625,0.09375,-0.197266,0.532776,-0.268982,0.586487,0.547546,down
37059,-8.316406,3.648438,2.355469,-0.542969,0.050781,-0.134766,0.532532,-0.270081,0.585693,0.548096,down
37064,-8.167969,3.613281,2.394531,-0.542969,0.050781,-0.134766,0.532288,-0.271118,0.5849,0.548706,down
37070,-8.011719,3.421875,2.355469,-0.542969,0.050781,-0.134766,0.531677,-0.272888,0.583435,0.549927,down
37076,-7.902344,3.304688,2.394531,-0.542969,0.050781,-0.134766,0.531433,-0.27356,0.582825,0.550537,down
37083,-7.859375,3.265625,2.316406,-0.443359,0.015625,0.019531,0.531433,-0.27356,0.582825,0.550537,down
37088,-7.703125,3.191406,2.316406,-0.400391,0.0,0.064453,0.531433,-0.27356,0.582825,0.550537,down
37093,-7.667969,3.113281,2.316406,-0.28125,-0.019531,0.160156,0.531433,-0.27356,0.582825,0.550537,down
37098,-7.585937,3.113281,2.277344,-0.28125,-0.019531,0.160156,0.529968,-0.275269,0.580811,0.553223,down
37104,-7.589844,3.074219,2.238281,-0.175781,-0.041016,0.246094,0.529968,-0.275269,0.580811,0.553223,down
37109,-7.546875,3.074219,2.203125,-0.175781,-0.041016,0.246094,0.528748,-0.274841,0.580261,0.555115,down
37114,-7.519531,3.074219,2.238281,-0.175781,-0.041016,0.246094,0.52832,-0.274414,0.580261,0.555725,down
37119,-7.519531,3.074219,2.164063,-0.175781,-0.041016,0.246094,0.52832,-0.274414,0.580261,0.555725,down
37124,-7.480469,3.113281,2.164063,0.025391,-0.089844,0.414062,0.52832,-0.274414,0.580261,0.555725,down
37129,-7.585937,3.113281,2.125,0.025391,-0.089844,0.414062,0.5271,-0.272339,0.58075,0.557434,down
37134,-7.546875,3.152344,2.046875,0.025391,-0.089844,0.414062,0.5271,-0.272339,0.58075,0.557434,down
37139,-7.585937,3.152344,2.085938,0.169922,-0.132812,0.509766,0.5271,-0.272339,0.58075,0.557434,down
37144,-7.667969,3.191406,2.085938,0.169922,-0.132812,0.509766,0.525818,-0.269043,0.581909,0.559021,down
37149,-7.664062,3.265625,2.011719,0.169922,-0.132812,0.509766,0.525452,-0.2677,0.582397,0.559448,down
37154,-7.785156,3.34375,1.972656,0.169922,-0.132812,0.509766,0.525452,-0.2677,0.582397,0.559448,down
37159,-7.859375,3.421875,2.011719,0.3125,-0.177734,0.570312,0.525452,-0.2677,0.582397,0.559448,down
37164,-7.972656,3.574219,1.933594,0.3125,-0.177734,0.570312,0.52478,-0.264832,0.583557,0.560303,down
37170,-8.089844,3.613281,1.933594,0.324219,-0.175781,0.558594,0.52417,-0.261841,0.584717,0.561096,down
37175,-8.167969,3.6875,1.933594,0.359375,-0.185547,0.539062,0.523865,-0.260193,0.585388,0.561462,down
37180,-8.316406,3.839844,1.894531,0.359375,-0.185547,0.539062,0.523621,-0.258667,0.585999,0.561768,down
37185,-8.390625,3.957031,1.933594,0.359375,-0.185547,0.539062,0.523437,-0.257324,0.586487,0.561951,down
37190,-8.46875,4.03125,1.894531,0.335938,-0.197266,0.457031,0.523315,-0.255737,0.587097,0.562195,down
37195,-8.507813,4.109375,1.933594,0.306641,-0.195312,0.431641,0.523132,-0.254395,0.587585,0.562439,down
37201,-8.777344,4.300781,1.894531,0.306641,-0.195312,0.431641,0.523071,-0.253235,0.587952,0.562683,down
37206,-8.8125,4.339844,1.820313,0.224609,-0.191406,0.363281,0.523071,-0.253235,0.587952,0.562683,down
37212,-8.851563,4.414062,1.933594,0.175781,-0.193359,0.328125,0.523071,-0.253235,0.587952,0.562683,down
37218,-8.96875,4.453125,1.894531,0.134766,-0.195312,0.289063,0.523071,-0.253235,0.587952,0.562683,down
37223,-8.972656,4.453125,1.855469,0.087891,-0.208984,0.255859,0.523071,-0.253235,0.587952,0.562683,down
37228,-8.972656,4.53125,1.855469,0.042969,-0.208984,0.228516,0.523071,-0.253235,0.587952,0.562683,down
37233,-9.007813,4.570312,1.855469,0.011719,-0.214844,0.191406,0.523071,-0.253235,0.587952,0.562683,down
37239,-9.011719,4.609375,1.855469,0.011719,-0.214844,0.191406,0.522888,-0.247192,0.588379,0.565002,down
37244,-8.96875,4.609375,1.894531,0.011719,-0.214844,0.191406,0.52301,-0.246704,0.588196,0.565369,down
37250,-8.933594,4.609375,1.894531,-0.025391,-0.228516,0.119141,0.523315,-0.245667,0.587646,0.566101,down
37256,-8.8125,4.609375,1.894531,-0.025391,-0.228516,0.119141,0.523499,-0.245239,0.587402,0.566345,down
37261,-8.816406,4.644531,1.855469,0.009766,-0.244141,0.087891,0.523499,-0.245239,0.587402,0.566345,down
37266,-8.855469,4.683594,1.855469,0.023437,-0.242187,0.080078,0.523499,-0.245239,0.587402,0.566345,down
37271,-8.851563,4.722656,1.855469,0.039063,-0.246094,0.085937,0.523499,-0.245239,0.587402,0.566345,down
37276,-8.8125,4.761719,1.855469,0.039063,-0.246094,0.085937,0.523499,-0.245239,0.587402,0.566345,down
37282,-8.773438,4.800781,1.855469,0.070312,-0.251953,0.101563,0.523499,-0.245239,0.587402,0.566345,down
37288,-8.773438,4.800781,1.820313,0.074219,-0.244141,0.103516,0.523499,-0.245239,0.587402,0.566345,down
37294,-8.773438,4.835937,1.855469,0.074219,-0.244141,0.103516,0.523499,-0.245239,0.587402,0.566345,down
37299,-8.773438,4.875,1.855469,0.0625,-0.238281,0.142578,0.523499,-0.245239,0.587402,0.566345,down
37304,-8.734375,4.875,1.855469,0.0625,-0.238281,0.142578,0.525635,-0.240051,0.585632,0.56842,down
37309,-8.773438,4.875,1.820313,0.060547,-0.230469,0.162109,0.525635,-0.240051,0.585632,0.56842,down
37314,-8.773438,4.875,1.820313,0.060547,-0.230469,0.162109,0.52594,-0.23877,0.585388,0.56897,down
37320,-8.8125,4.835937,1.894531,0.078125,-0.203125,0.214844,0.52594,-0.23877,0.585388,0.56897,down
37325,-8.777344,4.835937,1.933594,0.078125,-0.203125,0.214844,0.526062,-0.236572,0.585205,0.569885,down
37331,-8.777344,4.835937,1.894531,0.078125,-0.203125,0.214844,0.526062,-0.23584,0.585266,0.57019,down
37336,-8.773438,4.800781,1.972656,0.119141,-0.181641,0.279297,0.526062,-0.235046,0.585327,0.570496,down
37342,-8.734375,4.800781,1.972656,0.142578,-0.175781,0.306641,0.526062,-0.235046,0.585327,0.570496,down
37347,-8.734375,4.875,1.972656,0.142578,-0.175781,0.306641,0.525818,-0.233215,0.585571,0.571106,down
37352,-8.707031,4.875,1.972656,0.193359,-0.177734,0.353516,0.525818,-0.233215,0.585571,0.571106,down
37358,-8.707031,4.875,2.011719,0.216797,-0.181641,0.375,0.525574,-0.231079,0.58606,0.571716,down
37363,-8.628906,4.875,2.046875,0.240234,-0.191406,0.400391,0.525574,-0.231079,0.58606,0.571716,down
37368,-8.589844,4.914062,2.011719,0.251953,-0.1875,0.431641,0.525574,-0.231079,0.58606,0.571716,down
37374,-8.546875,4.914062,2.011719,0.261719,-0.197266,0.455078,0.525574,-0.231079,0.58606,0.571716,down
37379,-8.546875,4.914062,2.046875,0.271484,-0.201172,0.482422,0.525574,-0.231079,0.58606,0.571716,down
37384,-8.511719,4.914062,1.972656,0.271484,-0.201172,0.482422,0.524536,-0.224731,0.58783,0.573364,down
37389,-8.429688,4.914062,1.972656,0.271484,-0.201172,0.482422,0.524292,-0.223267,0.588257,0.573792,down
37395,-8.433594,4.914062,1.933594,0.285156,-0.205078,0.537109,0.523621,-0.220215,0.589172,0.574646,down
37400,-8.390625,4.875,1.972656,0.285156,-0.205078,0.537109,0.523254,-0.21875,0.5896,0.575073,down
37405,-8.394531,4.835937,1.894531,0.285156,-0.205078,0.537109,0.523254,-0.21875,0.5896,0.575073,down
37410,-8.394531,4.835937,1.894531,0.287109,-0.189453,0.585937,0.522888,-0.217224,0.590088,0.5755,down
37415,-8.394531,4.875,1.894531,0.294922,-0.191406,0.601562,0.522888,-0.217224,0.590088,0.5755,down
37420,-8.351563,4.914062,1.933594,0.296875,-0.179687,0.613281,0.522888,-0.217224,0.590088,0.5755,down
37425,-8.351563,4.953125,1.933594,0.310547,-0.169922,0.621094,0.522888,-0.217224,0.590088,0.5755,down
37430,-8.351563,4.953125,1.933594,0.306641,-0.166016,0.623047,0.520508,-0.20929,0.592773,0.577881,down
37435,-8.351563,4.914062,1.933594,0.306641,-0.166016,0.623047,0.519958,-0.207764,0.593323,0.578308,down
37440,-8.351563,4.953125,1.933594,0.306641,-0.166016,0.623047,0.519409,-0.20636,0.593872,0.578796,down
37445,-8.355469,4.914062,1.972656,0.306641,-0.166016,0.623047,0.519409,-0.20636,0.593872,0.578796,down
37450,-8.394531,4.914062,1.933594,0.261719,-0.095703,0.619141,0.518127,-0.20343,0.595032,0.579773,down
37455,-8.3125,4.914062,1.933594,0.261719,-0.095703,0.619141,0.517456,-0.202087,0.595581,0.580261,down
37460,-8.355469,4.914062,1.972656,0.205078,-0.046875,0.597656,0.517456,-0.202087,0.595581,0.580261,down
37465,-8.3125,4.914062,1.933594,0.205078,-0.046875,0.597656,0.516113,-0.199646,0.596619,0.581238,down
37470,-8.3125,4.875,1.933594,0.205078,-0.046875,0.597656,0.516113,-0.199646,0.596619,0.581238,down
37475,-8.355469,4.914062,1.972656,0.160156,-0.029297,0.574219,0.514648,-0.197327,0.597595,0.582336,down
37480,-8.3125,4.875,2.085938,0.117188,0.0,0.552734,0.514648,-0.197327,0.597595,0.582336,down
37485,-8.316406,4.875,2.046875,0.117188,0.0,0.552734,0.513123,-0.195312,0.59845,0.583435,down
37491,-8.316406,4.875,2.011719,0.082031,0.015625,0.527344,0.51239,-0.194397,0.598877,0.583984,down
37496,-8.316406,4.800781,2.011719,0.0625,0.021484,0.507812,0.511536,-0.19342,0.599304,0.584595,down
37501,-8.28125,4.835937,2.085938,0.033203,0.033203,0.492187,0.510742,-0.192627,0.599609,0.585205,down
37507,-8.355469,4.800781,2.046875,0.033203,0.033203,0.492187,0.510132,-0.191956,0.599915,0.585693,down
37512,-8.355469,4.761719,2.125,0.033203,0.033203,0.492187,0.509338,-0.191284,0.60022,0.586304,down
37517,-8.355469,4.761719,2.164063,-0.017578,0.041016,0.445312,0.509338,-0.191284,0.60022,0.586304,down
37522,-8.355469,4.761719,2.125,-0.033203,0.056641,0.435547,0.509338,-0.191284,0.60022,0.586304,down
37527,-8.355469,4.722656,2.164063,-0.033203,0.056641,0.435547,0.507141,-0.189514,0.600891,0.588074,down
37532,-8.28125,4.683594,2.164063,-0.056641,0.058594,0.398438,0.507141,-0.189514,0.600891,0.588074,down
37538,-8.316406,4.722656,2.203125,-0.082031,0.050781,0.380859,0.507141,-0.189514,0.600891,0.588074,down
37543,-8.351563,4.683594,2.203125,-0.099609,0.064453,0.363281,0.507141,-0.189514,0.600891,0.588074,down
37548,-8.28125,4.644531,2.164063,-0.099609,0.064453,0.363281,0.504333,-0.187866,0.60144,0.590393,down
37553,-8.3125,4.644531,2.238281,-0.123047,0.066406,0.335938,0.504333,-0.187866,0.60144,0.590393,down
37558,-8.28125,4.644531,2.277344,-0.119141,0.068359,0.328125,0.504333,-0.187866,0.60144,0.590393,down
37563,-8.28125,4.609375,2.238281,-0.126953,0.068359,0.3125,0.504333,-0.187866,0.60144,0.590393,down
37568,-8.28125,4.570312,2.316406,-0.126953,0.068359,0.3125,0.504333,-0.187866,0.60144,0.590393,down
37574,-8.28125,4.53125,2.277344,-0.126953,0.068359,0.3125,0.50116,-0.186646,0.601685,0.593323,down
37580,-8.242188,4.53125,2.238281,-0.130859,0.066406,0.285156,0.50116,-0.186646,0.601685,0.593323,down
37585,-8.285156,4.53125,2.316406,-0.130859,0.066406,0.285156,0.499939,-0.186218,0.601685,0.594421,down
37590,-8.285156,4.492187,2.316406,-0.126953,0.048828,0.263672,0.499939,-0.186218,0.601685,0.594421,down
37595,-8.3125,4.570312,2.316406,-0.126953,0.048828,0.263672,0.49884,-0.185852,0.601685,0.59552,down
37600,-8.316406,4.53125,2.355469,-0.126953,0.048828,0.263672,0.498291,-0.185669,0.601685,0.596008,down
37605,-8.28125,4.570312,2.355469,-0.126953,0.048828,0.263672,0.497864,-0.185547,0.601624,0.596436,down
37610,-8.3125,4.570312,2.355469,-0.111328,0.037109,0.220703,0.497864,-0.185547,0.601624,0.596436,down
37615,-8.3125,4.570312,2.355469,-0.111328,0.037109,0.220703,0.496887,-0.185181,0.601562,0.597412,down
37621,-8.316406,4.53125,2.316406,-0.111328,0.037109,0.220703,0.496033,-0.184875,0.601562,0.598267,down
37626,-8.285156,4.53125,2.355469,-0.109375,0.027344,0.191406,0.496033,-0.184875,0.601562,0.598267,down
37631,-8.316406,4.53125,2.355469,-0.109375,0.027344,0.191406,0.4953,-0.184631,0.60144,0.598999,down
37637,-8.285156,4.570312,2.394531,-0.109375,0.027344,0.191406,0.494995,-0.184509,0.601379,0.599365,down
37642,-8.285156,4.570312,2.394531,-0.105469,0.011719,0.162109,0.494995,-0.184509,0.601379,0.599365,down
37647,-8.246094,4.53125,2.355469,-0.105469,0.009766,0.150391,0.494324,-0.184265,0.601257,0.600159,down
37653,-8.28125,4.53125,2.394531,-0.101563,0.007813,0.144531,0.494324,-0.184265,0.601257,0.600159,down
37659,-8.203125,4.570312,2.355469,-0.101563,0.007813,0.144531,0.494324,-0.184265,0.601257,0.600159,down
37665,-8.207031,4.570312,2.394531,-0.072266,-0.001953,0.126953,0.494324,-0.184265,0.601257,0.600159,down
37670,-8.207031,4.609375,2.355469,-0.058594,-0.007813,0.126953,0.494324,-0.184265,0.601257,0.600159,down
37676,-8.203125,4.644531,2.394531,-0.021484,-0.019531,0.115234,0.493103,-0.183655,0.600952,0.601624,down
37681,-8.207031,4.722656,2.394531,-0.021484,-0.019531,0.115234,0.492737,-0.183228,0.600891,0.602051,down
37687,-8.203125,4.722656,2.355469,-0.005859,-0.023437,0.099609,0.492615,-0.183044,0.600891,0.602234,down
37692,-8.207031,4.835937,2.355469,-0.005859,-0.023437,0.099609,0.492554,-0.182861,0.600952,0.602356,down
37697,-8.203125,4.835937,2.394531,0.011719,-0.041016,0.089844,0.492554,-0.182861,0.600952,0.602356,down
37702,-8.242188,4.835937,2.394531,0.0,-0.044922,0.085937,0.492554,-0.182861,0.600952,0.602356,down
37708,-8.246094,4.914062,2.316406,-0.007813,-0.044922,0.082031,0.49231,-0.18219,0.600891,0.602783,down
37714,-8.207031,4.953125,2.355469,0.0,-0.041016,0.074219,0.49231,-0.18219,0.600891,0.602783,down
37720,-8.207031,4.953125,2.355469,0.011719,-0.048828,0.066406,0.49231,-0.18219,0.600891,0.602783,down
37725,-8.242188,5.105469,2.316406,0.019531,-0.058594,0.066406,0.49231,-0.18219,0.600891,0.602783,down
37731,-8.203125,5.066406,2.316406,0.021484,-0.070312,0.0625,0.49231,-0.18219,0.600891,0.602783,down
37736,-8.246094,5.144531,2.316406,0.021484,-0.070312,0.0625,0.492249,-0.180847,0.600769,0.603394,down
37741,-8.246094,5.21875,2.355469,0.021484,-0.070312,0.0625,0.492249,-0.180603,0.600708,0.603455,down
37746,-8.3125,5.375,2.394531,0.021484,-0.070312,0.0625,0.49231,-0.180298,0.600708,0.603577,down
37751,-8.351563,5.488281,2.394531,0.035156,-0.121094,0.076172,0.49231,-0.180298,0.600708,0.603577,down
37756,-8.355469,5.566406,2.507813,0.035156,-0.121094,0.076172,0.492493,-0.179504,0.600586,0.60376,down
37761,-8.394531,5.679687,2.546875,0.035156,-0.121094,0.076172,0.492493,-0.179504,0.600586,0.60376,down
37766,-8.390625,5.71875,2.546875,0.035156,-0.121094,0.076172,0.492737,-0.178345,0.600403,0.604126,down
37771,-8.390625,5.71875,2.546875,0.0625,-0.253906,0.203125,0.492737,-0.178345,0.600403,0.604126,down
37776,-8.433594,5.679687,2.546875,0.0625,-0.253906,0.203125,0.49292,-0.176697,0.600098,0.604736,down
37781,-8.433594,5.640625,2.546875,0.0625,-0.253906,0.203125,0.492981,-0.175842,0.599976,0.605042,down
37787,-8.351563,5.640625,2.546875,0.0625,-0.253906,0.203125,0.492981,-0.174805,0.599792,0.605469,down
37792,-8.351563,5.601562,2.507813,0.085937,-0.324219,0.335938,0.493042,-0.173645,0.59967,0.605957,down
37797,-8.355469,5.679687,2.46875,0.085937,-0.324219,0.335938,0.493042,-0.172668,0.599548,0.606323,down
37803,-8.390625,5.796875,2.394531,0.085937,-0.324219,0.335938,0.492981,-0.171387,0.599548,0.60675,down
37808,-8.351563,5.871094,2.394531,0.226562,-0.316406,0.408203,0.492981,-0.170044,0.599609,0.607117,down
37814,-8.429688,5.949219,2.394531,0.285156,-0.300781,0.433594,0.492981,-0.170044,0.599609,0.607117,down
37820,-8.433594,6.179687,2.355469,0.285156,-0.300781,0.433594,0.492981,-0.170044,0.599609,0.607117,down
37825,-8.46875,6.214844,2.394531,0.398438,-0.248047,0.482422,0.492981,-0.170044,0.599609,0.607117,down
37830,-8.429688,6.371094,2.429688,0.464844,-0.216797,0.519531,0.492065,-0.16217,0.601746,0.607849,down
37835,-8.390625,6.523437,2.394531,0.464844,-0.216797,0.519531,0.492065,-0.16217,0.601746,0.607849,down
37840,-8.433594,6.675781,2.429688,0.464844,-0.216797,0.519531,0.491699,-0.160339,0.6026,0.607788,down
37845,-8.390625,6.789062,2.46875,0.464844,-0.216797,0.519531,0.491211,-0.158325,0.603577,0.607788,down
37851,-8.355469,6.90625,2.507813,0.640625,-0.144531,0.697266,0.490051,-0.154297,0.605591,0.607727,down
37856,-8.285156,6.984375,2.585938,0.640625,-0.144531,0.697266,0.489319,-0.151794,0.606812,0.607727,down
37861,-8.285156,6.984375,2.585938,0.640625,-0.144531,0.697266,0.489319,-0.151794,0.606812,0.607727,down
37866,-8.246094,6.984375,2.585938,0.699219,-0.199219,0.9375,0.489319,-0.151794,0.606812,0.607727,down
37871,-8.089844,6.90625,2.585938,0.699219,-0.199219,0.9375,0.486877,-0.144348,0.610168,0.608093,down
37876,-8.085938,6.867187,2.546875,0.699219,-0.199219,0.9375,0.48584,-0.141357,0.61145,0.608398,down
37881,-7.96875,6.789062,2.507813,0.730469,-0.257813,1.103516,0.48584,-0.141357,0.61145,0.608398,down
37886,-7.898437,6.828125,2.507813,0.730469,-0.257813,1.103516,0.483826,-0.13562,0.613708,0.609009,down
37891,-7.742187,6.828125,2.394531,0.730469,-0.257813,1.103516,0.483826,-0.13562,0.613708,0.609009,down
37896,-7.742187,6.828125,2.394531,0.810547,-0.294922,1.185547,0.482788,-0.132446,0.614929,0.609314,down
37901,-7.664062,6.828125,2.394531,0.810547,-0.294922,1.185547,0.481689,-0.12915,0.616211,0.609558,down
37906,-7.589844,7.097656,2.277344,0.925781,-0.330078,1.244141,0.480591,-0.125732,0.617554,0.609802,down
37911,-7.550781,7.175781,2.277344,0.974609,-0.335938,1.269531,0.478394,-0.118408,0.620483,0.610046,down
37916,-7.515625,7.289062,2.238281,1.041016,-0.324219,1.292969,0.478394,-0.118408,0.620483,0.610046,down
37921,-7.519531,7.441406,2.125,1.042969,-0.300781,1.304688,0.477112,-0.114258,0.622192,0.610107,down
37926,-7.550781,7.554687,2.046875,1.042969,-0.300781,1.304688,0.474731,-0.106995,0.625244,0.610168,down
37931,-7.550781,7.671875,1.972656,1.042969,-0.300781,1.304688,0.47345,-0.103271,0.62677,0.610168,down
37936,-7.476562,7.9375,1.972656,1.042969,-0.300781,1.304688,0.47345,-0.103271,0.62677,0.610168,down
37941,-7.4375,7.980469,1.933594,0.964844,-0.261719,1.328125,0.470703,-0.096008,0.6297,0.610474,down
37946,-7.324219,8.054688,1.78125,0.964844,-0.261719,1.328125,0.470703,-0.096008,0.6297,0.610474,down
37951,-7.285156,8.058594,1.78125,0.816406,-0.191406,1.380859,0.470703,-0.096008,0.6297,0.610474,down
37956,-7.246094,8.09375,1.742188,0.816406,-0.191406,1.380859,0.467529,-0.088745,0.632568,0.611084,down
37961,-7.09375,8.058594,1.703125,0.816406,-0.191406,1.380859,0.464172,-0.08197,0.635132,0.611877,down
37966,-7.054687,8.097656,1.703125,0.816406,-0.191406,1.380859,0.462524,-0.078613,0.636475,0.612244,down
37971,-7.015625,8.203125,1.703125,0.816406,-0.191406,1.380859,0.462524,-0.078613,0.636475,0.612244,down
37976,-6.902344,8.132813,1.78125,0.832031,-0.144531,1.474609,0.45874,-0.071533,0.639221,0.613037,down
37981,-6.863281,8.246094,1.664063,0.832031,-0.144531,1.474609,0.456787,-0.067932,0.640625,0.613464,down
37986,-6.824219,8.402344,1.628906,0.832031,-0.144531,1.474609,0.454773,-0.064209,0.641968,0.613953,down
37991,-6.863281,8.402344,1.703125,0.832031,-0.144531,1.474609,0.454773,-0.064209,0.641968,0.613953,down
37996,-6.863281,8.515625,1.511719,0.822266,-0.125,1.5625,0.454773,-0.064209,0.641968,0.613953,down
38002,-6.9375,8.625,1.472656,0.822266,-0.125,1.5625,0.448364,-0.052795,0.646301,0.615173,down
38007,-6.976562,8.707031,1.398438,0.822266,-0.125,1.5625,0.448364,-0.052795,0.646301,0.615173,down
38012,-6.976562,8.707031,1.398438,0.958984,-0.140625,1.578125,0.446411,-0.049316,0.647766,0.615417,down
38017,-6.9375,9.046875,1.398438,0.958984,-0.140625,1.578125,0.446411,-0.049316,0.647766,0.615417,down
38022,-6.902344,9.167969,1.359375,0.904297,-0.132812,1.5625,0.440125,-0.037964,0.652039,0.616211,down
38027,-6.863281,9.011719,1.433594,0.904297,-0.132812,1.5625,0.437988,-0.034363,0.653198,0.616699,down
38032,-6.59375,9.089844,1.550781,0.904297,-0.132812,1.5625,0.435608,-0.030579,0.654297,0.617371,down
38037,-6.59375,8.902344,1.433594,0.904297,-0.132812,1.5625,0.433533,-0.027466,0.655212,0.618042,down
38042,-6.441406,8.941406,1.050781,0.744141,-0.050781,1.535156,0.43103,-0.023804,0.656433,0.618591,down
38048,-6.210937,8.859375,1.128906,0.744141,-0.050781,1.535156,0.429016,-0.02063,0.657471,0.61908,down
38054,-6.058594,8.820313,1.398438,0.744141,-0.050781,1.535156,0.426819,-0.017273,0.658386,0.61969,down
38059,-6.058594,9.007813,1.128906,0.591797,-0.037109,1.566406,0.426819,-0.017273,0.658386,0.61969,down
38064,-6.019531,9.125,1.320313,0.478516,-0.050781,1.599609,0.426819,-0.017273,0.658386,0.61969,down
38069,-5.828125,8.859375,1.167969,0.439453,-0.054687,1.597656,0.426819,-0.017273,0.658386,0.61969,down
38076,-5.636719,9.011719,1.128906,0.476562,-0.080078,1.599609,0.426819,-0.017273,0.658386,0.61969,down
38081,-5.675781,8.941406,1.628906,0.279297,-0.128906,1.625,0.426819,-0.017273,0.658386,0.61969,down
38086,-5.675781,8.667969,1.550781,0.279297,-0.128906,1.625,0.412659,0.002441,0.662292,0.625366,down
38091,-5.523437,8.558594,1.050781,0.417969,-0.111328,1.605469,0.408081,0.009033,0.663147,0.62738,down
38096,-5.40625,8.480469,1.167969,0.417969,-0.111328,1.605469,0.408081,0.009033,0.663147,0.62738,down
38101,-5.292969,8.402344,1.320313,0.357422,-0.214844,1.625,0.408081,0.009033,0.663147,0.62738,down
38106,-5.214844,8.402344,1.320313,0.302734,-0.203125,1.599609,0.403564,0.015869,0.66394,0.629333,down
38112,-5.101562,8.324219,1.28125,0.277344,-0.208984,1.585938,0.401306,0.019287,0.664185,0.630432,down
38117,-5.023437,8.363281,1.242188,0.277344,-0.208984,1.585938,0.39679,0.026062,0.66449,0.632751,down
38122,-4.984375,8.78125,1.167969,0.277344,-0.208984,1.585938,0.39679,0.026062,0.66449,0.632751,down
38127,-5.023437,8.96875,1.167969,0.277344,-0.208984,1.585938,0.394592,0.029419,0.664673,0.633789,down
38132,-5.023437,8.96875,1.167969,0.363281,-0.28125,1.523438,0.392822,0.032288,0.664795,0.634583,down
38137,-5.023437,9.046875,1.242188,0.363281,-0.28125,1.523438,0.39093,0.035645,0.664917,0.635437,down
38142,-4.910156,9.046875,1.089844,0.427734,-0.369141,1.496094,0.389038,0.039246,0.6651,0.636169,down
38147,-4.792969,9.007813,1.050781,0.447266,-0.392578,1.505859,0.387268,0.042725,0.665283,0.636902,down
38152,-4.753906,9.046875,0.976562,0.460937,-0.400391,1.511719,0.383606,0.049988,0.665588,0.638245,down
38157,-4.71875,9.085938,0.859375,0.460937,-0.400391,1.511719,0.381775,0.053528,0.665771,0.638916,down
38162,-4.5625,9.128906,0.746094,0.460937,-0.400391,1.511719,0.379822,0.057251,0.665833,0.639587,down
38168,-4.449219,9.167969,0.824219,0.460937,-0.400391,1.511719,0.37793,0.060852,0.665894,0.640381,down
38173,-4.335937,9.085938,0.859375,0.337891,-0.388672,1.621094,0.37793,0.060852,0.665894,0.640381,down
38178,-4.371094,9.125,0.859375,0.294922,-0.332031,1.652344,0.37793,0.060852,0.665894,0.640381,down
38184,-4.296875,9.085938,0.707031,0.294922,-0.332031,1.652344,0.371643,0.071716,0.665588,0.64325,down
38189,-4.179687,9.046875,0.824219,0.3125,-0.28125,1.736328,0.369324,0.075256,0.665466,0.644287,down
38195,-4.066406,9.011719,0.824219,0.386719,-0.294922,1.792969,0.369324,0.075256,0.665466,0.644287,down
38201,-3.835938,8.859375,1.015625,0.386719,-0.294922,1.792969,0.369324,0.075256,0.665466,0.644287,down
38206,-3.875,9.011719,0.976562,0.628906,-0.275391,1.947266,0.369324,0.075256,0.665466,0.644287,down
38211,-3.914063,9.363281,0.976562,0.806641,-0.259766,2.048828,0.355347,0.096436,0.666931,0.647766,down
38216,-3.875,9.933594,0.898437,0.806641,-0.259766,2.048828,0.355347,0.096436,0.666931,0.647766,down
38221,-3.875,10.046875,0.9375,1.398438,-0.417969,2.375,0.352051,0.101563,0.667908,0.647766,down
38226,-3.796875,9.96875,0.976562,1.398438,-0.417969,2.375,0.34845,0.107422,0.669128,0.647522,down
38231,-3.722656,9.746094,0.898437,1.398438,-0.417969,2.375,0.345032,0.113159,0.670349,0.647095,down
38236,-3.683594,9.707031,0.785156,1.398438,-0.417969,2.375,0.337402,0.12616,0.672913,0.646118,down
38241,-3.605469,9.742188,0.632812,1.398438,-0.417969,2.375,0.337402,0.12616,0.672913,0.646118,down
38246,-3.566406,9.742188,0.402344,1.628906,-0.507812,2.736328,0.337402,0.12616,0.672913,0.646118,down
38251,-3.566406,9.742188,0.402344,1.628906,-0.507812,2.736328,0.329346,0.139526,0.675415,0.644897,down
38256,-3.261719,9.550781,0.132812,1.628906,-0.507812,2.736328,0.329346,0.139526,0.675415,0.644897,down
38261,-3.070313,9.429688,0.054687,1.525391,-0.541016,2.732422,0.321106,0.153137,0.677612,0.643616,down
38266,-2.878906,9.472656,-0.171875,1.458984,-0.5,2.722656,0.312805,0.166443,0.679382,0.642578,down
38271,-2.496094,9.472656,-0.171875,1.458984,-0.5,2.722656,0.312805,0.166443,0.679382,0.642578,down
38277,-2.34375,9.707031,-0.171875,1.472656,-0.421875,2.669922,0.312805,0.166443,0.679382,0.642578,down
38282,-2.304688,9.816406,-0.289063,1.472656,-0.421875,2.669922,0.299805,0.186218,0.681946,0.640625,down
38287,-2.035156,9.929688,-0.554687,1.472656,-0.421875,2.669922,0.299805,0.186218,0.681946,0.640625,down
38292,-1.960938,10.046875,-0.554687,1.509766,-0.296875,2.681641,0.291138,0.198059,0.683655,0.639221,down
38297,-1.921875,10.128906,-0.632812,1.722656,-0.265625,2.748047,0.28595,0.205017,0.684814,0.638123,down
38302,-1.691406,10.15625,-0.785156,1.722656,-0.265625,2.748047,0.281128,0.211304,0.686035,0.636902,down
38307,-1.421875,10.046875,-1.207031,1.722656,-0.265625,2.748047,0.281128,0.211304,0.686035,0.636902,down
38312,-1.230469,10.007813,-1.324219,1.998047,-0.175781,2.792969,0.281128,0.211304,0.686035,0.636902,down
38317,-1.15625,9.972656,-1.324219,1.998047,-0.175781,2.792969,0.26532,0.230896,0.69043,0.632141,down
38322,-0.886719,10.085938,-1.515625,1.998047,-0.175781,2.792969,0.26532,0.230896,0.69043,0.632141,down
38327,-0.808594,10.125,-1.667969,1.998047,-0.175781,2.792969,0.259766,0.237305,0.691956,0.630432,down
38332,-0.808594,10.125,-1.667969,1.955078,0.041016,2.736328,0.254883,0.242615,0.693237,0.628967,down
38337,-0.65625,10.15625,-1.742188,1.955078,0.041016,2.736328,0.24939,0.248352,0.69458,0.627441,down
38342,-0.351563,10.050781,-1.742188,1.732422,0.169922,2.617188,0.24939,0.248352,0.69458,0.627441,down
38347,-0.195312,9.933594,-1.78125,1.611328,0.253906,2.552734,0.232849,0.263916,0.697876,0.623779,down
38352,-0.082031,9.894531,-1.859375,1.611328,0.253906,2.552734,0.232849,0.263916,0.697876,0.623779,down
38357,-0.003906,9.625,-1.78125,1.425781,0.439453,2.451172,0.221741,0.272827,0.699524,0.622131,down
38362,0.261719,9.394531,-1.820313,1.425781,0.439453,2.451172,0.216187,0.276855,0.700134,0.621582,down
38367,0.339844,9.433594,-1.820313,1.425781,0.439453,2.451172,0.216187,0.276855,0.700134,0.621582,down
38372,0.339844,9.433594,-1.820313,1.248047,0.664062,2.470703,0.216187,0.276855,0.700134,0.621582,down
38377,0.53125,9.320313,-1.820313,1.248047,0.664062,2.470703,0.204529,0.284851,0.701233,0.620667,down
38383,0.53125,9.320313,-1.820313,1.216797,0.685547,2.527344,0.192688,0.292786,0.702148,0.619812,down
38388,0.722656,9.320313,-1.859375,1.212891,0.699219,2.550781,0.186035,0.297119,0.702515,0.619385,down
38394,0.875,9.089844,-1.9375,1.212891,0.699219,2.550781,0.18042,0.30072,0.702759,0.618958,down
38399,1.183594,8.746094,-1.9375,1.212891,0.699219,2.550781,0.174316,0.304626,0.703064,0.618469,down
38405,1.375,8.628906,-1.9375,1.259766,0.75,2.556641,0.174316,0.304626,0.703064,0.618469,down
38410,1.375,8.628906,-1.9375,1.296875,0.787109,2.539063,0.161743,0.312439,0.703674,0.61731,down
38416,1.566406,8.207031,-1.859375,1.3125,0.835937,2.507813,0.155212,0.316223,0.704041,0.616638,down
38421,1.566406,8.207031,-1.859375,1.330078,0.884766,2.458984,0.148865,0.319763,0.704407,0.615967,down
38427,1.910156,7.59375,-1.550781,1.330078,0.884766,2.458984,0.135925,0.326355,0.705383,0.614319,down
38433,2.0625,7.289062,-1.359375,1.451172,1.033203,2.287109,0.135925,0.326355,0.705383,0.614319,down
38438,2.140625,7.332031,-1.398438,1.451172,1.033203,2.287109,0.122986,0.332153,0.706726,0.612427,down
38443,2.179688,7.476562,-1.476563,1.503906,1.128906,2.183594,0.122986,0.332153,0.706726,0.612427,down
38449,2.101563,7.515625,-1.476563,1.480469,1.128906,2.134766,0.109741,0.337402,0.708313,0.610291,down
38455,2.214844,7.4375,-1.324219,1.480469,1.128906,2.134766,0.103149,0.339844,0.709045,0.609192,down
38461,2.292969,7.371094,-1.246094,1.318359,1.103516,2.054688,0.103149,0.339844,0.709045,0.609192,down
38466,2.292969,7.332031,-1.285156,1.228516,1.101563,2.007813,0.103149,0.339844,0.709045,0.609192,down
38471,2.371094,7.214844,-1.4375,1.142578,1.089844,1.957031,0.103149,0.339844,0.709045,0.609192,down
38477,2.445313,7.175781,-1.359375,0.976562,1.003906,1.826172,0.103149,0.339844,0.709045,0.609192,down
38482,2.523438,7.253906,-1.324219,0.894531,0.958984,1.734375,0.073486,0.350464,0.710754,0.605469,down
38487,2.597656,7.328125,-1.398438,0.894531,0.958984,1.734375,0.067749,0.352478,0.710754,0.60498,down
38492,2.597656,7.328125,-1.398438,0.8125,0.910156,1.646484,0.063232,0.354065,0.710693,0.604614,down
38498,2.675781,7.328125,-1.4375,0.8125,0.910156,1.646484,0.058411,0.355713,0.710571,0.604248,down
38503,2.789063,7.210937,-1.4375,0.617187,0.791016,1.423828,0.050293,0.358521,0.710144,0.603821,down
38508,2.828125,7.132812,-1.4375,0.617187,0.791016,1.423828,0.046509,0.359802,0.709839,0.60376,down
38513,2.90625,7.09375,-1.4375,0.40625,0.669922,1.128906,0.042908,0.360962,0.709473,0.60376,down
38518,2.980469,7.136719,-1.4375,0.353516,0.613281,1.044922,0.039734,0.362,0.709106,0.60376,down
41218,3.902344,9.007813,-2.320313,-0.074219,0.046875,-0.023437,0.030273,0.341492,0.700989,0.625366,down
41223,3.902344,8.9375,-2.28125,-0.074219,0.046875,-0.023437,0.030273,0.341309,0.700806,0.625671,down
41228,3.941406,8.941406,-2.28125,-0.074219,0.046875,-0.023437,0.030273,0.341187,0.700745,0.625854,down
41233,3.941406,8.972656,-2.320313,-0.074219,0.046875,-0.023437,0.030273,0.341064,0.700623,0.626038,down
41238,3.941406,8.96875,-2.28125,-0.074219,0.089844,-0.001953,0.030273,0.341064,0.700623,0.626038,down
41243,3.941406,9.007813,-2.28125,-0.074219,0.089844,-0.001953,0.030151,0.340759,0.700378,0.626404,down
41248,3.976563,9.046875,-2.242188,-0.074219,0.089844,-0.001953,0.030029,0.340637,0.700256,0.626648,down
41253,3.941406,9.125,-2.28125,-0.074219,0.089844,-0.001953,0.029907,0.340454,0.700195,0.626831,down
41259,3.941406,9.203125,-2.28125,-0.060547,0.121094,0.003906,0.029907,0.340454,0.700195,0.626831,down
41265,3.941406,9.203125,-2.28125,-0.0625,0.121094,0.011719,0.029419,0.339966,0.699951,0.627441,down
41270,3.941406,9.320313,-2.320313,-0.0625,0.121094,0.011719,0.029236,0.339783,0.699829,0.627625,down
41275,3.976563,9.359375,-2.320313,-0.080078,0.119141,0.003906,0.029053,0.3396,0.699707,0.627869,down
41281,3.941406,9.429688,-2.320313,-0.103516,0.123047,0.0,0.029053,0.3396,0.699707,0.627869,down
41286,3.941406,9.433594,-2.28125,-0.128906,0.128906,0.0,0.029053,0.3396,0.699707,0.627869,down
41291,3.941406,9.511719,-2.355469,-0.166016,0.132812,-0.007813,0.029053,0.3396,0.699707,0.627869,down
41296,3.976563,9.550781,-2.320313,-0.195312,0.136719,-0.009766,0.029053,0.3396,0.699707,0.627869,down
41301,3.941406,9.589844,-2.320313,-0.195312,0.136719,-0.009766,0.029053,0.3396,0.699707,0.627869,down
41307,3.941406,9.546875,-2.320313,-0.261719,0.144531,-0.009766,0.029053,0.3396,0.699707,0.627869,down
41312,3.941406,9.589844,-2.320313,-0.292969,0.154297,-0.023437,0.029053,0.3396,0.699707,0.627869,down
41317,3.941406,9.703125,-2.28125,-0.328125,0.15625,-0.015625,0.029053,0.3396,0.699707,0.627869,down
41322,3.941406,9.585938,-2.242188,-0.328125,0.15625,-0.015625,0.029053,0.3396,0.699707,0.627869,down
41327,3.902344,9.546875,-2.203125,-0.328125,0.15625,-0.015625,0.028687,0.337036,0.69635,0.632996,down
41332,3.902344,9.507813,-2.128906,-0.412109,0.164062,-0.013672,0.028687,0.337036,0.69635,0.632996,down
41337,3.902344,9.472656,-2.164063,-0.412109,0.164062,-0.013672,0.028687,0.337036,0.69635,0.632996,down
41343,3.902344,9.472656,-2.164063,-0.423828,0.175781,0.001953,0.02887,0.336121,0.694458,0.635559,down
41348,3.902344,9.472656,-2.164063,-0.416016,0.185547,0.019531,0.02887,0.335876,0.693787,0.636414,down
41353,3.941406,9.429688,-2.089844,-0.412109,0.199219,0.03125,0.02887,0.335571,0.693115,0.637329,down
41358,3.941406,9.394531,-2.050781,-0.412109,0.199219,0.03125,0.02887,0.335266,0.692444,0.638184,down
41363,3.976563,9.28125,-1.972656,-0.412109,0.199219,0.03125,0.028809,0.335022,0.691772,0.639038,down
41369,3.976563,9.28125,-1.972656,-0.390625,0.222656,0.056641,0.028809,0.335022,0.691772,0.639038,down
41374,4.015625,9.285156,-1.9375,-0.390625,0.222656,0.056641,0.028259,0.334229,0.689819,0.641602,down
41379,4.015625,9.363281,-2.011719,-0.390625,0.222656,0.056641,0.028259,0.334229,0.689819,0.641602,down
41384,4.015625,9.390625,-1.9375,-0.328125,0.244141,0.123047,0.027527,0.333801,0.688599,0.643188,down
41389,4.054687,9.433594,-1.898438,-0.328125,0.244141,0.123047,0.0271,0.333618,0.688049,0.64386,down
41394,4.015625,9.433594,-1.859375,-0.328125,0.244141,0.123047,0.026672,0.333496,0.6875,0.644531,down
41399,4.054687,9.429688,-1.820313,-0.285156,0.257813,0.189453,0.026672,0.333496,0.6875,0.644531,down
41404,4.054687,9.46875,-1.859375,-0.285156,0.257813,0.189453,0.026184,0.333374,0.686829,0.645325,down
41409,4.054687,9.46875,-1.859375,-0.296875,0.263672,0.212891,0.025146,0.333191,0.685669,0.646667,down
41414,4.09375,9.472656,-1.898438,-0.296875,0.263672,0.212891,0.025146,0.333191,0.685669,0.646667,down
41419,4.09375,9.546875,-1.859375,-0.322266,0.257813,0.208984,0.025146,0.333191,0.685669,0.646667,down
41425,4.132812,9.589844,-1.859375,-0.322266,0.257813,0.208984,0.023499,0.333008,0.683594,0.649048,down
41430,4.167969,9.585938,-1.820313,-0.322266,0.257813,0.208984,0.023071,0.332947,0.682922,0.64978,down
41435,4.167969,9.585938,-1.820313,-0.419922,0.255859,0.210937,0.022583,0.332886,0.682068,0.650757,down
41441,4.132812,9.546875,-1.859375,-0.419922,0.255859,0.210937,0.022156,0.332764,0.681274,0.651672,down
41446,4.167969,9.507813,-1.820313,-0.419922,0.255859,0.210937,0.021729,0.332703,0.680359,0.652649,down
41451,4.167969,9.472656,-1.78125,-0.482422,0.271484,0.232422,0.021729,0.332703,0.680359,0.652649,down
41457,4.167969,9.390625,-1.742188,-0.503906,0.287109,0.242187,0.021729,0.332703,0.680359,0.652649,down
41462,4.207031,9.429688,-1.742188,-0.503906,0.287109,0.242187,0.020325,0.332458,0.677368,0.655945,down
41467,4.207031,9.390625,-1.742188,-0.503906,0.287109,0.242187,0.020325,0.332458,0.677368,0.655945,down
41472,4.207031,9.324219,-1.707031,-0.503906,0.287109,0.242187,0.019165,0.332336,0.675232,0.658264,down
41478,4.167969,9.242188,-1.667969,-0.552734,0.373047,0.347656,0.019165,0.332336,0.675232,0.658264,down
41483,4.246094,9.242188,-1.628906,-0.552734,0.373047,0.347656,0.0177,0.332214,0.672913,0.660706,down
41488,4.207031,9.242188,-1.628906,-0.552734,0.373047,0.347656,0.016846,0.332153,0.671692,0.661987,down
41494,4.207031,9.203125,-1.628906,-0.492187,0.457031,0.435547,0.016846,0.332153,0.671692,0.661987,down
41499,4.246094,9.128906,-1.515625,-0.492187,0.457031,0.435547,0.013672,0.332031,0.668213,0.665649,down
41504,4.246094,9.128906,-1.515625,-0.447266,0.544922,0.457031,0.013672,0.332031,0.668213,0.665649,down
41509,4.207031,9.085938,-1.476563,-0.447266,0.544922,0.457031,0.012329,0.331909,0.666992,0.666931,down
41514,4.246094,9.050781,-1.476563,-0.402344,0.601562,0.458984,0.012329,0.331909,0.666992,0.666931,down
41519,4.246094,8.9375,-1.324219,-0.402344,0.601562,0.458984,0.00824,0.331238,0.66394,0.67041,down
41524,4.246094,8.898438,-1.207031,-0.402344,0.601562,0.458984,0.00824,0.331238,0.66394,0.67041,down
41529,4.285156,8.824219,-1.207031,-0.380859,0.730469,0.466797,0.00824,0.331238,0.66394,0.67041,down
41534,4.285156,8.742188,-1.132813,-0.380859,0.730469,0.466797,0.003357,0.329956,0.660889,0.674072,down
41539,4.285156,8.664063,-1.132813,-0.380859,0.730469,0.466797,0.001465,0.329407,0.659851,0.675293,down
41544,4.285156,8.476563,-1.054688,-0.353516,0.90625,0.521484,0.001465,0.329407,0.659851,0.675293,down
41549,4.324219,8.515625,-0.941406,-0.353516,0.90625,0.521484,0.000732,-0.328735,-0.658752,-0.676758,down
41554,4.324219,8.515625,-0.941406,-0.353516,0.90625,0.521484,0.004944,-0.327271,-0.656799,-0.679321,down
41559,4.324219,8.558594,-0.902344,-0.332031,1.113281,0.552734,0.004944,-0.327271,-0.656799,-0.679321,down
41564,4.285156,8.628906,-0.941406,-0.345703,1.160156,0.550781,0.007751,-0.326172,-0.65564,-0.680969,down
41570,4.285156,8.824219,-0.863281,-0.345703,1.160156,0.550781,0.012756,-0.324097,-0.653564,-0.683838,down
41576,4.207031,9.050781,-0.902344,-0.345703,1.160156,0.550781,0.015198,-0.323059,-0.652527,-0.685303,down
41581,4.246094,9.089844,-0.941406,-0.394531,1.28125,0.576172,0.015198,-0.323059,-0.652527,-0.685303,down
41586,4.207031,9.125,-0.902344,-0.400391,1.291016,0.591797,0.015198,-0.323059,-0.652527,-0.685303,down
41591,4.246094,9.085938,-0.785156,-0.400391,1.291016,0.591797,0.015198,-0.323059,-0.652527,-0.685303,down
41596,4.246094,9.085938,-0.785156,-0.400391,1.291016,0.591797,0.015198,-0.323059,-0.652527,-0.685303,down
41602,4.246094,9.085938,-0.785156,-0.373047,1.314453,0.634766,0.029419,-0.316895,-0.646484,-0.693359,down
41607,4.246094,9.085938,-0.785156,-0.291016,1.314453,0.681641,0.03241,-0.315735,-0.645264,-0.694885,down
41612,4.324219,8.863281,-0.328125,-0.291016,1.314453,0.681641,0.035583,-0.314575,-0.644165,-0.696289,down
41617,4.363281,8.667969,-0.171875,-0.291016,1.314453,0.681641,0.038818,-0.313477,-0.643066,-0.697632,down
41622,4.398437,8.558594,-0.019531,-0.175781,1.292969,0.779297,0.038818,-0.313477,-0.643066,-0.697632,down
41627,4.4375,8.203125,0.363281,-0.175781,1.292969,0.779297,0.038818,-0.313477,-0.643066,-0.697632,down
41632,4.398437,8.132813,0.476562,-0.085937,1.220703,0.861328,0.038818,-0.313477,-0.643066,-0.697632,down
41637,4.363281,8.019531,0.554687,-0.011719,1.1875,0.898437,0.038818,-0.313477,-0.643066,-0.697632,down
41643,4.398437,7.78125,0.707031,-0.011719,1.1875,0.898437,0.055725,-0.309448,-0.638245,-0.702698,down
41648,4.4375,7.632812,0.976562,0.105469,1.078125,0.972656,0.055725,-0.309448,-0.638245,-0.702698,down
41654,4.4375,7.558594,0.976562,0.242187,0.976562,1.015625,0.055725,-0.309448,-0.638245,-0.702698,down
41659,4.4375,7.4375,0.976562,0.242187,0.976562,1.015625,0.069763,-0.308472,-0.635803,-0.704102,down
41664,4.398437,7.328125,1.015625,0.242187,0.976562,1.015625,0.069763,-0.308472,-0.635803,-0.704102,down
41669,4.4375,7.292969,1.050781,0.320313,0.794922,1.060547,0.073608,-0.308472,-0.635376,-0.704102,down
41674,4.476562,7.402344,1.128906,0.320313,0.794922,1.060547,0.077026,-0.308655,-0.634949,-0.704041,down
41679,4.589844,7.054687,1.050781,0.320313,0.794922,1.060547,0.080261,-0.308899,-0.634583,-0.703857,down
41685,4.515625,7.210937,0.859375,0.267578,0.732422,1.048828,0.083618,-0.309265,-0.634155,-0.703674,down
41690,4.324219,7.136719,0.976562,0.267578,0.732422,1.048828,0.089966,-0.309998,-0.63324,-0.70343,down
41695,4.515625,7.015625,1.128906,0.25,0.644531,1.025391,0.093018,-0.310425,-0.632751,-0.703308,down
41701,4.515625,6.828125,1.050781,0.25,0.644531,1.025391,0.095764,-0.310791,-0.632263,-0.703247,down
41706,4.554687,6.671875,1.089844,0.164062,0.646484,0.980469,0.098755,-0.311157,-0.631592,-0.703186,down
41712,4.628906,6.597656,1.050781,0.148437,0.634766,0.951172,0.098755,-0.311157,-0.631592,-0.703186,down
41718,4.628906,6.449219,1.128906,0.148437,0.634766,0.951172,0.104248,-0.31189,-0.630371,-0.703247,down
41724,4.667969,6.410156,1.28125,0.097656,0.607422,0.904297,0.104248,-0.31189,-0.630371,-0.703247,down
41729,4.628906,6.292969,1.359375,0.099609,0.574219,0.884766,0.112061,-0.312927,-0.628357,-0.703369,down
41734,4.667969,6.214844,1.398438,0.099609,0.574219,0.884766,0.112061,-0.312927,-0.628357,-0.703369,down
41739,4.667969,6.101562,1.398438,0.128906,0.5,0.869141,0.112061,-0.312927,-0.628357,-0.703369,down
41745,4.667969,5.945312,1.550781,0.128906,0.5,0.869141,0.114563,-0.313354,-0.627686,-0.703308,down
41750,4.746094,5.601562,1.664063,0.240234,0.404297,0.855469,0.119202,-0.314392,-0.62677,-0.702942,down
41755,4.746094,5.339844,1.589844,0.240234,0.404297,0.855469,0.12384,-0.315552,-0.62616,-0.702148,down
41760,4.746094,5.257812,1.742188,0.414062,0.244141,0.833984,0.126282,-0.316284,-0.626099,-0.701477,down
41765,4.746094,5.066406,1.972656,0.478516,0.177734,0.806641,0.126282,-0.316284,-0.626099,-0.701477,down
41770,4.972656,4.996094,1.855469,0.478516,0.177734,0.806641,0.13031,-0.31781,-0.626343,-0.699768,down
41775,4.898437,4.917969,1.703125,0.570312,0.101563,0.748047,0.13031,-0.31781,-0.626343,-0.699768,down
41780,4.941406,4.800781,1.628906,0.570312,0.101563,0.748047,0.134094,-0.319458,-0.627075,-0.697693,down
41785,4.96875,4.761719,1.550781,0.570312,0.101563,0.748047,0.136047,-0.320435,-0.627625,-0.69635,down
41790,5.046875,4.835937,1.398438,0.570312,0.101563,0.748047,0.137634,-0.321167,-0.628174,-0.69519,down
41795,5.046875,4.800781,1.242188,0.703125,0.054687,0.652344,0.139526,-0.321899,-0.628845,-0.693848,down
41800,5.089844,4.722656,1.207031,0.728516,0.082031,0.634766,0.139526,-0.321899,-0.628845,-0.693848,down
41805,5.203125,4.953125,0.976562,0.728516,0.082031,0.634766,0.143188,-0.32312,-0.630371,-0.691223,down
41810,5.164062,4.992187,0.976562,0.728516,0.082031,0.634766,0.144836,-0.323547,-0.631104,-0.690002,down
41815,5.28125,5.105469,0.824219,0.820312,0.154297,0.583984,0.146851,-0.323914,-0.631958,-0.688538,down
41821,5.28125,5.144531,0.59375,0.820312,0.154297,0.583984,0.148682,-0.324219,-0.632874,-0.687195,down
41826,5.351562,5.21875,0.476562,0.820312,0.154297,0.583984,0.150635,-0.324524,-0.633789,-0.685791,down
41832,5.394531,5.445312,0.132812,0.820312,0.154297,0.583984,0.152527,-0.324707,-0.634705,-0.684448,down
41837,5.433594,5.523437,0.054687,0.855469,0.205078,0.507812,0.154419,-0.324829,-0.635681,-0.683044,down
41843,5.511719,5.449219,0.132812,0.880859,0.207031,0.5,0.154419,-0.324829,-0.635681,-0.683044,down
41849,5.546875,5.296875,0.210937,0.9375,0.210937,0.470703,0.154419,-0.324829,-0.635681,-0.683044,down
41854,5.589844,5.066406,0.285156,0.9375,0.210937,0.470703,0.160095,-0.325073,-0.638794,-0.678711,down
41859,5.625,4.875,0.09375,1.005859,0.242187,0.464844,0.160095,-0.325073,-0.638794,-0.678711,down
41864,5.664062,4.835937,-0.019531,1.005859,0.242187,0.464844,0.164185,-0.32489,-0.641296,-0.675476,down
41869,5.625,4.761719,-0.097656,1.005859,0.242187,0.464844,0.166626,-0.324585,-0.642822,-0.673523,down
41875,5.628906,4.683594,-0.097656,1.367188,0.482422,0.488281,0.166626,-0.324585,-0.642822,-0.673523,down
41880,5.625,4.453125,0.210937,1.367188,0.482422,0.488281,0.174316,-0.322998,-0.647583,-0.667786,down
41885,5.589844,4.339844,0.363281,1.546875,0.59375,0.476562,0.174316,-0.322998,-0.647583,-0.667786,down
41890,5.628906,4.300781,0.441406,1.617188,0.617187,0.482422,0.177551,-0.322083,-0.649597,-0.665405,down
41895,5.625,4.261719,0.515625,1.617188,0.617187,0.482422,0.183533,-0.32019,-0.653503,-0.660828,down
41900,5.585937,4.261719,0.515625,1.617188,0.617187,0.482422,0.186523,-0.319153,-0.655579,-0.658447,down
41905,5.585937,4.03125,0.746094,1.785156,0.537109,0.414062,0.186523,-0.319153,-0.655579,-0.658447,down
41910,5.589844,4.03125,0.859375,1.830078,0.476562,0.373047,0.189819,-0.317993,-0.65802,-0.655579,down
41915,5.546875,4.03125,0.859375,1.830078,0.476562,0.373047,0.195374,-0.315979,-0.662842,-0.650085,down
41920,5.546875,4.109375,0.824219,1.830078,0.476562,0.373047,0.197937,-0.315002,-0.665527,-0.647034,down
41925,5.472656,4.414062,0.324219,1.970703,0.158203,0.185547,0.197937,-0.315002,-0.665527,-0.647034,down
41930,5.355469,4.992187,-0.171875,1.970703,0.158203,0.185547,0.200317,-0.313965,-0.668579,-0.643677,down
41936,5.355469,4.992187,-0.171875,1.882813,-0.070312,0.039063,0.203735,-0.312378,-0.674316,-0.63739,down
41941,5.355469,4.992187,-0.171875,1.882813,-0.070312,0.039063,0.203735,-0.312378,-0.674316,-0.63739,down
41946,5.320312,5.523437,-0.632812,1.832031,-0.138672,-0.054687,0.203735,-0.312378,-0.674316,-0.63739,down
41951,5.089844,5.722656,-1.167969,1.796875,-0.173828,-0.158203,0.205994,-0.310669,-0.680359,-0.630981,down
41956,5.089844,5.722656,-1.167969,1.769531,-0.199219,-0.259766,0.206726,-0.309692,-0.683411,-0.62793,down
41961,4.9375,5.800781,-1.359375,1.603516,-0.193359,-0.478516,0.206726,-0.309692,-0.683411,-0.62793,down
41967,4.9375,5.800781,-1.324219,1.498047,-0.169922,-0.613281,0.206726,-0.309692,-0.683411,-0.62793,down
41972,4.859375,5.828125,-1.359375,1.498047,-0.169922,-0.613281,0.206726,-0.309692,-0.683411,-0.62793,down
41977,4.9375,6.027344,-1.359375,1.306641,-0.148437,-0.90625,0.206726,-0.309692,-0.683411,-0.62793,down
41983,4.972656,6.066406,-1.476563,1.224609,-0.173828,-1.070313,0.206726,-0.309692,-0.683411,-0.62793,down
41988,4.898437,6.214844,-1.589844,1.125,-0.181641,-1.224609,0.206726,-0.309692,-0.683411,-0.62793,down
41993,5.011719,6.710937,-2.011719,0.990234,-0.201172,-1.369141,0.206726,-0.309692,-0.683411,-0.62793,down
41998,5.164062,7.136719,-2.011719,0.746094,-0.283203,-1.474609,0.206726,-0.309692,-0.683411,-0.62793,down
42003,5.128906,7.367187,-1.972656,0.533203,-0.378906,-1.572266,0.206726,-0.309692,-0.683411,-0.62793,down
42008,5.242187,7.214844,-1.972656,0.433594,-0.486328,-1.675781,0.206726,-0.309692,-0.683411,-0.62793,down
42013,5.242187,7.253906,-2.011719,0.433594,-0.486328,-1.675781,0.19281,-0.285156,-0.715149,-0.608337,down
42018,5.164062,7.371094,-2.089844,0.333984,-0.628906,-1.841797,0.19281,-0.285156,-0.715149,-0.608337,down
42024,5.164062,7.597656,-2.089844,0.333984,-0.628906,-1.841797,0.185303,-0.28009,-0.71936,-0.608032,down
42030,5.011719,7.824219,-2.050781,0.333984,-0.628906,-1.841797,0.17688,-0.275269,-0.723633,-0.607666,down
42035,4.898437,7.824219,-2.011719,0.333984,-0.628906,-1.841797,0.17688,-0.275269,-0.723633,-0.607666,down
42040,4.78125,7.75,-1.898438,0.261719,-0.998047,-2.052734,0.16748,-0.270691,-0.728027,-0.607117,down
42045,4.554687,7.714844,-1.707031,0.261719,-0.998047,-2.052734,0.161926,-0.268188,-0.730591,-0.606689,down
42050,4.476562,7.785156,-1.589844,0.335938,-1.246094,-2.177734,0.161926,-0.268188,-0.730591,-0.606689,down
42055,4.285156,7.785156,-1.628906,0.335938,-1.246094,-2.177734,0.156738,-0.265991,-0.732971,-0.60614,down
42060,4.285156,7.785156,-1.628906,0.335938,-1.246094,-2.177734,0.151367,-0.263794,-0.735413,-0.60553,down
42065,3.902344,7.785156,-1.589844,0.335938,-1.246094,-2.177734,0.151367,-0.263794,-0.735413,-0.60553,down
42070,3.75,7.820312,-1.476563,0.341797,-1.587891,-2.412109,0.151367,-0.263794,-0.735413,-0.60553,down
42075,3.480469,7.902344,-1.398438,0.332031,-1.716797,-2.519531,0.126099,-0.255066,-0.74585,-0.602295,down
42080,3.367188,8.175781,-1.515625,0.199219,-1.949219,-2.792969,0.126099,-0.255066,-0.74585,-0.602295,down
42085,3.210938,8.203125,-1.667969,0.199219,-1.949219,-2.792969,0.117676,-0.252441,-0.74884,-0.601379,down
42090,3.136719,8.285156,-1.9375,-0.099609,-2.085938,-3.068359,0.109802,-0.250061,-0.751404,-0.600708,down
42095,3.136719,8.476563,-2.320313,-0.099609,-2.085938,-3.068359,0.101501,-0.247559,-0.753723,-0.60022,down
42101,2.945313,9.011719,-3.199219,-0.099609,-2.085938,-3.068359,0.084839,-0.242004,-0.757385,-0.600525,down
42106,2.867188,9.046875,-3.46875,-0.730469,-1.855469,-3.324219,0.075073,-0.238403,-0.758911,-0.601318,down
42112,2.867188,9.167969,-3.621094,-0.730469,-1.855469,-3.324219,0.066223,-0.234985,-0.76001,-0.602356,down
42117,2.675781,9.085938,-3.390625,-0.730469,-1.855469,-3.324219,0.057983,-0.231812,-0.760742,-0.603516,down
42122,2.523438,8.902344,-3.238281,-1.087891,-1.667969,-3.390625,0.057983,-0.231812,-0.760742,-0.603516,down
42127,2.445313,8.554688,-3.125,-1.144531,-1.564453,-3.416016,0.057983,-0.231812,-0.760742,-0.603516,down
42132,2.332031,8.09375,-2.855469,-1.191406,-1.458984,-3.447266,0.057983,-0.231812,-0.760742,-0.603516,down
42137,2.214844,7.75,-2.625,-1.191406,-1.458984,-3.447266,0.057983,-0.231812,-0.760742,-0.603516,down
42142,2.023438,7.597656,-2.394531,-1.214844,-1.373047,-3.466797,0.057983,-0.231812,-0.760742,-0.603516,down
42148,2.023438,7.597656,-2.394531,-1.171875,-1.289063,-3.494141,0.005615,-0.206299,-0.762329,-0.613403,down
42153,1.566406,7.632812,-1.972656,-1.171875,-1.289063,-3.494141,0.002502,0.201477,0.762573,0.614746,down
42158,1.257813,8.28125,-2.050781,-1.171875,-1.289063,-3.494141,0.010559,0.196594,0.762878,0.615845,down
42163,1.027344,8.554688,-2.050781,-0.699219,-1.28125,-3.541016,0.010559,0.196594,0.762878,0.615845,down
42168,0.796875,8.898438,-2.011719,-0.599609,-1.398438,-3.541016,0.010559,0.196594,0.762878,0.615845,down
42174,0.414062,9.429688,-1.972656,-0.519531,-1.548828,-3.515625,0.010559,0.196594,0.762878,0.615845,down
42180,0.261719,9.550781,-1.972656,-0.464844,-1.675781,-3.496094,0.010559,0.196594,0.762878,0.615845,down
42185,-0.121094,9.746094,-2.128906,-0.4375,-1.800781,-3.474609,0.010559,0.196594,0.762878,0.615845,down
42190,-0.273438,9.816406,-2.164063,-0.4375,-1.800781,-3.474609,0.062378,0.170288,0.766418,0.616211,down
42195,-0.351563,9.777344,-2.28125,-0.4375,-1.800781,-3.474609,0.07251,0.166321,0.766907,0.615601,down
42200,-0.390625,9.628906,-2.28125,-0.503906,-2.072266,-3.410156,0.090698,0.159607,0.767212,0.614563,down
42205,-0.464844,8.824219,-2.164063,-0.503906,-2.072266,-3.410156,0.090698,0.159607,0.767212,0.614563,down
42210,-0.542969,8.558594,-2.128906,-0.503906,-2.072266,-3.410156,0.100037,0.156189,0.767029,0.614258,down
42215,-0.617187,8.320313,-2.164063,-0.847656,-1.951172,-3.332031,0.100037,0.156189,0.767029,0.614258,down
42220,-0.617187,8.320313,-2.164063,-0.912109,-1.828125,-3.300781,0.118408,0.148926,0.76593,0.614136,down
42225,-0.847656,7.976562,-2.203125,-0.919922,-1.705078,-3.298828,0.127075,0.145081,0.765198,0.614258,down
42230,-0.847656,7.976562,-2.203125,-0.933594,-1.59375,-3.326172,0.135864,0.140869,0.764404,0.614319,down
42236,-1.0,7.941406,-2.203125,-0.962891,-1.496094,-3.333984,0.152283,0.132141,0.762695,0.614563,down
42242,-1.539063,8.359375,-2.089844,-0.962891,-1.496094,-3.333984,0.160461,0.127197,0.76178,0.614624,down
42248,-1.996094,8.898438,-2.128906,-0.962891,-1.496094,-3.333984,0.168152,0.122131,0.760925,0.614685,down
42253,-2.265625,8.96875,-2.203125,-0.884766,-0.984375,-3.511719,0.168152,0.122131,0.760925,0.614685,down
42259,-2.609375,9.285156,-2.320313,-0.814453,-0.886719,-3.589844,0.168152,0.122131,0.760925,0.614685,down
42264,-2.800781,9.667969,-2.320313,-0.771484,-0.822266,-3.658203,0.168152,0.122131,0.760925,0.614685,down
42269,-3.070313,9.933594,-2.355469,-0.710937,-0.785156,-3.708984,0.168152,0.122131,0.760925,0.614685,down
42274,-3.300781,10.050781,-2.242188,-0.636719,-0.779297,-3.773438,0.168152,0.122131,0.760925,0.614685,down
42280,-3.492188,10.007813,-2.164063,-0.589844,-0.794922,-3.832031,0.168152,0.122131,0.760925,0.614685,down
42285,-3.605469,9.742188,-1.972656,-0.617187,-0.794922,-3.880859,0.220581,0.079834,0.75647,0.610474,down
42290,-3.605469,9.742188,-1.972656,-0.683594,-0.761719,-3.916016,0.228027,0.073364,0.755798,0.609436,down
42295,-3.722656,9.433594,-1.820313,-0.683594,-0.761719,-3.916016,0.235474,0.066772,0.755005,0.608337,down
42301,-4.21875,9.550781,-1.515625,-0.683594,-0.761719,-3.916016,0.250671,0.052917,0.752808,0.606323,down
42306,-4.449219,9.511719,-1.515625,-1.011719,-0.740234,-4.107422,0.250671,0.052917,0.752808,0.606323,down
42311,-4.71875,9.207031,-1.476563,-1.011719,-0.740234,-4.107422,0.259033,0.045105,0.751221,0.605408,down
42316,-5.597656,10.394531,-2.96875,-1.394531,-1.054688,-4.333984,0.266846,0.037659,0.749512,0.604675,down
42322,-4.753906,9.050781,0.441406,-1.394531,-1.054688,-4.333984,0.283203,0.022888,0.74353,0.605347,down
42327,-4.871094,9.628906,0.09375,-2.003906,-0.873047,-4.558594,0.283203,0.022888,0.74353,0.605347,down
42332,-5.484375,8.824219,-1.476563,-2.003906,-0.873047,-4.558594,0.300171,0.005859,0.736816,0.605774,down
42337,-7.550781,9.472656,-1.707031,-2.003906,-0.873047,-4.558594,0.300171,0.005859,0.736816,0.605774,down
42342,-5.75,10.507813,-1.820313,-0.724609,-0.494141,-4.773437,0.316345,-0.011292,0.733826,0.601074,down
42347,-5.75,10.507813,-1.820313,-2.091797,-1.072266,-4.943359,0.316345,-0.011292,0.733826,0.601074,down
42352,-7.285156,10.390625,-1.550781,-2.091797,-1.072266,-4.943359,0.334229,-0.02948,0.725281,0.601135,down
42358,-5.214844,9.773438,-0.289063,-2.091797,-1.072266,-4.943359,0.343262,-0.03949,0.718872,0.603149,down
42363,-7.972656,10.238281,-0.976562,-2.091797,-1.072266,-4.943359,0.353088,-0.050598,0.71228,0.604492,down
42369,-8.164063,8.585938,-0.710937,-2.279297,-0.896484,-5.068359,0.353088,-0.050598,0.71228,0.604492,down
42374,-8.394531,8.480469,-0.632812,-0.927734,-0.921875,-5.222656,0.353088,-0.050598,0.71228,0.604492,down
42379,-7.933594,8.9375,-0.902344,0.035156,-1.074219,-5.355469,0.353088,-0.050598,0.71228,0.604492,down
42384,-7.898437,8.859375,-0.171875,0.019531,-1.257813,-5.25,0.353088,-0.050598,0.71228,0.604492,down
42389,-9.007813,8.628906,0.515625,0.019531,-1.257813,-5.25,0.353088,-0.050598,0.71228,0.604492,down
42394,-8.546875,8.554688,0.324219,0.019531,-1.257813,-5.25,0.409363,-0.099426,0.69281,0.585266,down
42400,-8.546875,8.554688,0.324219,-1.560547,-1.363281,-5.365234,0.41925,-0.107971,0.688232,0.582153,down
42405,-8.929688,8.628906,0.402344,-2.074219,-1.363281,-5.423828,0.41925,-0.107971,0.688232,0.582153,down
42410,-8.929688,8.628906,0.402344,-2.064453,-1.328125,-5.414062,0.438232,-0.126465,0.676636,0.578064,down
42415,-9.472656,7.824219,0.59375,-2.064453,-1.328125,-5.414062,0.447815,-0.136169,0.670349,0.575806,down
42421,-9.777344,7.75,0.285156,-2.064453,-1.328125,-5.414062,0.46637,-0.153809,0.658386,0.570374,down
42427,-10.273438,7.941406,0.210937,-2.064453,-1.328125,-5.414062,0.476501,-0.163147,0.651489,0.567322,down
42432,-10.273438,8.132813,0.59375,-2.058594,-1.533203,-5.068359,0.485291,-0.17157,0.644836,0.565002,down
42438,-10.542969,7.710937,0.976562,-2.058594,-1.533203,-5.068359,0.493164,-0.179382,0.638428,0.563049,down
42443,-10.765625,7.25,1.207031,-2.058594,-1.533203,-5.068359,0.501038,-0.188049,0.631287,0.56134,down
42448,-10.921875,6.984375,1.089844,-2.558594,-1.166016,-4.652344,0.508606,-0.197205,0.623718,0.559875,down
42453,-10.960938,6.867187,1.28125,-2.582031,-1.140625,-4.455078,0.508606,-0.197205,0.623718,0.559875,down
42459,-10.765625,5.988281,2.394531,-2.732422,-1.146484,-4.230469,0.508606,-0.197205,0.623718,0.559875,down
42464,-10.847656,5.449219,2.429688,-2.802734,-1.056641,-4.005859,0.508606,-0.197205,0.623718,0.559875,down
42470,-10.808594,5.105469,2.164063,-2.492188,-0.970703,-3.806641,0.508606,-0.197205,0.623718,0.559875,down
42475,-10.699219,4.644531,2.699219,-2.189453,-1.017578,-3.541016,0.508606,-0.197205,0.623718,0.559875,down
42480,-10.699219,4.644531,2.699219,-2.189453,-1.017578,-3.541016,0.508606,-0.197205,0.623718,0.559875,down
42485,-10.695313,4.378906,2.929688,-2.003906,-1.048828,-3.265625,0.508606,-0.197205,0.623718,0.559875,down
42490,-10.695313,4.378906,2.929688,-1.783203,-1.003906,-2.996094,0.55249,-0.255188,0.569275,0.552795,down
42496,-10.542969,3.535156,3.617188,-1.783203,-1.003906,-2.996094,0.55249,-0.255188,0.569275,0.552795,down
42501,-10.539063,3.457031,3.3125,-1.699219,-0.515625,-1.988281,0.559143,-0.264771,0.559082,0.551941,down
42506,-10.460938,3.152344,3.160156,-1.699219,-0.515625,-1.988281,0.56189,-0.269897,0.553955,0.551819,down
42512,-10.503906,3.074219,3.042969,-1.699219,-0.515625,-1.988281,0.565979,-0.277771,0.546143,0.551575,down
42518,-10.617188,3.34375,3.042969,-1.699219,-0.515625,-1.988281,0.567505,-0.28064,0.543274,0.551392,down
42524,-10.460938,3.226563,3.007813,-1.699219,-0.515625,-1.988281,0.568909,-0.283325,0.540649,0.551147,down
42529,-10.503906,3.191406,3.042969,-0.890625,-0.107422,-0.966797,0.568909,-0.283325,0.540649,0.551147,down
42534,-10.503906,3.191406,2.96875,-0.890625,-0.107422,-0.966797,0.570618,-0.288208,0.53656,0.550842,down
42541,-10.421875,3.304688,2.585938,-0.890625,-0.107422,-0.966797,0.570618,-0.288208,0.53656,0.550842,down
42546,-10.425781,3.226563,2.585938,-0.439453,0.1875,-0.599609,0.571594,-0.29364,0.53363,0.549744,down
42552,-10.15625,3.34375,2.660156,-0.439453,0.1875,-0.599609,0.571838,-0.2948,0.533386,0.549133,down
42557,-10.160156,3.574219,2.621094,-0.439453,0.1875,-0.599609,0.572021,-0.295776,0.533569,0.548279,down
42562,-10.160156,3.574219,2.621094,0.300781,0.318359,-0.318359,0.572266,-0.296448,0.534058,0.54718,down
42567,-10.308594,3.535156,2.585938,0.300781,0.318359,-0.318359,0.57251,-0.296875,0.534729,0.546021,down
42572,-9.960938,3.613281,2.660156,0.300781,0.318359,-0.318359,0.572693,-0.297241,0.535278,0.545105,down
42577,-10.042969,3.535156,2.816406,0.439453,0.445312,-0.232422,0.572693,-0.297241,0.535278,0.545105,down
42582,-10.117188,3.34375,2.660156,0.439453,0.445312,-0.232422,0.572937,-0.297668,0.537354,0.542603,down
42587,-10.082031,3.34375,2.546875,0.439453,0.445312,-0.232422,0.573242,-0.297485,0.538879,0.540894,down
42592,-9.851563,3.421875,2.660156,0.708984,0.333984,-0.195312,0.573608,-0.29718,0.540344,0.539185,down
42597,-9.960938,3.382813,2.777344,0.708984,0.333984,-0.195312,0.573914,-0.296936,0.541443,0.537903,down
42602,-9.964844,3.265625,2.585938,0.708984,0.333984,-0.195312,0.57428,-0.296631,0.542725,0.536377,down
42608,-9.851563,3.265625,2.660156,0.708984,0.333984,-0.195312,0.574646,-0.296326,0.543701,0.535156,down
42614,-9.894531,3.265625,2.738281,0.609375,0.177734,-0.175781,0.574646,-0.296326,0.543701,0.535156,down
42619,-9.855469,3.226563,2.621094,0.632812,0.142578,-0.166016,0.575562,-0.295471,0.545654,0.532654,down
42624,-9.773438,3.226563,2.621094,0.632812,0.142578,-0.166016,0.57605,-0.295044,0.546509,0.531494,down
42629,-9.890625,3.152344,2.621094,0.474609,0.09375,-0.144531,0.57605,-0.295044,0.546509,0.531494,down
42634,-9.855469,3.113281,2.585938,0.451172,0.066406,-0.152344,0.57605,-0.295044,0.546509,0.531494,down
42640,-9.855469,3.113281,2.585938,0.402344,0.042969,-0.136719,0.57605,-0.295044,0.546509,0.531494,down
42645,-9.925781,3.113281,2.585938,0.402344,0.042969,-0.136719,0.57605,-0.295044,0.546509,0.531494,down
42650,-9.964844,3.191406,2.585938,0.402344,0.042969,-0.136719,0.578125,-0.293457,0.549194,0.527344,down
42655,-9.964844,3.191406,2.585938,0.306641,0.052734,-0.121094,0.578125,-0.293457,0.549194,0.527344,down
42661,-10.0,3.304688,2.546875,0.3125,0.066406,-0.115234,0.579041,-0.292847,0.550415,0.52533,down
42666,-10.078125,3.304688,2.546875,0.3125,0.066406,-0.115234,0.579041,-0.292847,0.550415,0.52533,down
42671,-10.042969,3.34375,2.546875,0.435547,0.044922,-0.103516,0.579041,-0.292847,0.550415,0.52533,down
42676,-10.039063,3.421875,2.546875,0.435547,0.044922,-0.103516,0.579773,-0.292175,0.551453,0.523865,down
42682,-10.117188,3.496094,2.585938,0.431641,0.039063,-0.082031,0.580505,-0.29126,0.552551,0.5224,down
42687,-10.121094,3.457031,2.546875,0.34375,0.0625,-0.042969,0.580505,-0.29126,0.552551,0.5224,down
42692,-10.0,3.421875,2.546875,0.34375,0.0625,-0.042969,0.58075,-0.290894,0.553101,0.521667,down
42697,-10.199219,3.457031,2.621094,0.34375,0.0625,-0.042969,0.581116,-0.290222,0.554016,0.520691,down
42702,-10.082031,3.421875,2.585938,0.224609,0.083984,0.021484,0.581116,-0.290222,0.554016,0.520691,down
42707,-10.039063,3.34375,2.507813,0.224609,0.083984,0.021484,0.581238,-0.289673,0.554932,0.519958,down
42712,-10.003906,3.421875,2.585938,0.224609,0.083984,0.021484,0.581238,-0.289673,0.554932,0.519958,down
42717,-10.003906,3.421875,2.585938,0.224609,0.083984,0.021484,0.58136,-0.288879,0.555786,0.519287,down
42722,-9.894531,3.34375,2.546875,0.220703,0.035156,0.097656,0.58136,-0.288879,0.555786,0.519287,down
42727,-9.890625,3.34375,2.507813,0.220703,0.035156,0.097656,0.58136,-0.288391,0.556274,0.519043,down
42733,-9.695313,3.34375,2.546875,0.220703,0.035156,0.097656,0.58136,-0.287537,0.557068,0.518616,down
42738,-9.660156,3.34375,2.546875,0.251953,-0.005859,0.134766,0.581421,-0.286987,0.557556,0.518433,down
42743,-9.621094,3.34375,2.546875,0.201172,0.0,0.150391,0.58136,-0.286438,0.557922,0.518311,down
42748,-9.539063,3.226563,2.46875,0.160156,0.013672,0.171875,0.58136,-0.286438,0.557922,0.518311,down
42753,-9.5,3.226563,2.46875,0.160156,0.013672,0.171875,0.581177,-0.285522,0.558594,0.518311,down
42758,-9.351563,3.113281,2.429688,0.160156,0.013672,0.171875,0.581055,-0.285095,0.558899,0.518372,down
42763,-9.273438,3.035156,2.46875,0.162109,-0.011719,0.185547,0.581055,-0.285095,0.558899,0.518372,down
42769,-9.15625,2.960938,2.507813,0.162109,-0.011719,0.185547,0.581055,-0.285095,0.558899,0.518372,down
42774,-9.121094,2.921875,2.507813,0.1875,-0.019531,0.185547,0.581055,-0.285095,0.558899,0.518372,down
42779,-9.089844,2.921875,2.429688,0.185547,-0.019531,0.1875,0.580627,-0.282959,0.560242,0.518555,down
42785,-8.972656,2.808594,2.394531,0.179687,-0.027344,0.183594,0.580627,-0.282959,0.560242,0.518555,down
42791,-8.929688,2.808594,2.394531,0.171875,-0.033203,0.175781,0.580627,-0.282959,0.560242,0.518555,down
42797,-8.929688,2.769531,2.394531,0.152344,-0.029297,0.167969,0.580627,-0.282959,0.560242,0.518555,down
42802,-8.851563,2.769531,2.355469,0.144531,-0.019531,0.160156,0.580627,-0.282959,0.560242,0.518555,down
42808,-8.851563,2.691406,2.46875,0.144531,-0.019531,0.160156,0.5802,-0.280029,0.56189,0.51886,down
42813,-8.8125,2.652344,2.429688,0.076172,-0.003906,0.150391,0.580078,-0.279663,0.562134,0.518921,down
42818,-8.816406,2.617188,2.394531,0.042969,0.007813,0.148437,0.579956,-0.279358,0.562317,0.519104,down
42823,-8.734375,2.617188,2.394531,0.042969,0.007813,0.148437,0.579773,-0.279053,0.562439,0.519226,down
42828,-8.738281,2.539063,2.429688,0.042969,0.007813,0.148437,0.579773,-0.279053,0.562439,0.519226,down
42834,-8.773438,2.5,2.394531,0.0625,-0.005859,0.148437,0.579468,-0.278503,0.562744,0.519531,down
42839,-8.816406,2.539063,2.394531,0.074219,-0.013672,0.140625,0.579468,-0.278503,0.562744,0.519531,down
42844,-8.8125,2.617188,2.316406,0.107422,-0.027344,0.144531,0.579468,-0.278503,0.562744,0.519531,down
42849,-8.816406,2.578125,2.394531,0.128906,-0.041016,0.152344,0.579468,-0.278503,0.562744,0.519531,down
42855,-8.8125,2.578125,2.316406,0.142578,-0.039063,0.146484,0.579468,-0.278503,0.562744,0.519531,down
42860,-8.773438,2.652344,2.203125,0.142578,-0.039063,0.146484,0.579468,-0.278503,0.562744,0.519531,down
42865,-8.851563,2.730469,2.277344,0.142578,-0.039063,0.146484,0.579102,-0.276001,0.564026,0.519958,down
42870,-8.855469,2.769531,2.238281,0.148437,-0.041016,0.136719,0.579102,-0.276001,0.564026,0.519958,down
42876,-8.855469,2.769531,2.164063,0.148437,-0.041016,0.136719,0.579102,-0.275024,0.564514,0.519958,down
42882,-8.894531,2.730469,2.238281,0.148437,-0.041016,0.136719,0.579041,-0.27417,0.56488,0.52002,down
42887,-8.96875,2.730469,2.203125,0.087891,-0.041016,0.103516,0.579041,-0.27417,0.56488,0.52002,down
42892,-8.972656,2.769531,2.203125,0.087891,-0.041016,0.103516,0.579041,-0.273743,0.565002,0.520081,down
42897,-8.972656,2.769531,2.203125,0.087891,-0.041016,0.103516,0.579041,-0.273132,0.565186,0.520264,down
42902,-8.972656,2.808594,2.203125,0.087891,-0.041016,0.103516,0.579041,-0.273132,0.565186,0.520264,down
42907,-9.011719,2.808594,2.203125,0.066406,-0.050781,0.083984,0.579041,-0.272583,0.565308,0.520386,down
42912,-9.011719,2.769531,2.238281,0.066406,-0.050781,0.083984,0.579041,-0.272583,0.565308,0.520386,down
42917,-9.011719,2.769531,2.164063,0.068359,-0.046875,0.054687,0.579041,-0.272278,0.565369,0.520447,down
42922,-9.046875,2.769531,2.125,0.068359,-0.046875,0.054687,0.579163,-0.271851,0.565491,0.520508,down
42927,-9.046875,2.808594,2.125,0.068359,-0.046875,0.054687,0.579163,-0.271851,0.565491,0.520508,down
42932,-9.046875,2.84375,2.164063,0.085937,-0.042969,0.042969,0.579163,-0.271851,0.565491,0.520508,down
42937,-9.011719,2.84375,2.125,0.095703,-0.027344,0.03125,0.579285,-0.271301,0.565674,0.520447,down
42942,-9.046875,2.84375,2.125,0.095703,-0.027344,0.03125,0.579407,-0.270874,0.565857,0.520325,down
42947,-9.011719,2.882813,2.125,0.095703,-0.027344,0.03125,0.579407,-0.270874,0.565857,0.520325,down
42952,-9.050781,2.921875,2.125,0.095703,-0.027344,0.03125,0.57959,-0.270325,0.566162,0.520142,down
42957,-9.050781,2.921875,2.164063,0.095703,-0.027344,0.03125,0.57959,-0.270325,0.566162,0.520142,down
42962,-9.050781,2.921875,2.085938,0.107422,-0.023437,0.056641,0.57959,-0.270325,0.566162,0.520142,down
42967,-9.089844,2.882813,2.164063,0.101563,-0.023437,0.054687,0.57959,-0.270325,0.566162,0.520142,down
42972,-9.046875,2.882813,2.125,0.101563,-0.023437,0.054687,0.579651,-0.269287,0.566711,0.519958,down
42977,-9.046875,2.882813,2.164063,0.078125,-0.017578,0.083984,0.579651,-0.269287,0.566711,0.519958,down
42982,-9.046875,2.808594,2.085938,0.078125,-0.017578,0.083984,0.57959,-0.269043,0.566833,0.519958,down
42987,-9.046875,2.808594,2.085938,0.068359,-0.003906,0.095703,0.57959,-0.268799,0.566956,0.52002,down
42992,-9.046875,2.84375,2.125,0.068359,-0.003906,0.095703,0.579529,-0.268555,0.567078,0.52002,down
42997,-9.046875,2.84375,2.125,0.091797,-0.009766,0.115234,0.579529,-0.268555,0.567078,0.52002,down
43002,-9.089844,2.882813,2.085938,0.091797,-0.009766,0.115234,0.579407,-0.268005,0.567383,0.520142,down
43007,-9.089844,2.882813,2.085938,0.091797,-0.009766,0.115234,0.579224,-0.267395,0.567749,0.520264,down
43012,-9.050781,2.921875,2.085938,0.091797,-0.009766,0.115234,0.579224,-0.267395,0.567749,0.520264,down
43017,-9.050781,2.960938,2.046875,0.078125,0.019531,0.125,0.579224,-0.267395,0.567749,0.520264,down
43022,-9.089844,2.921875,2.046875,0.078125,0.019531,0.125,0.579041,-0.266724,0.568176,0.520386,down
43027,-9.050781,2.882813,2.046875,0.095703,0.021484,0.119141,0.578918,-0.266479,0.568359,0.520386,down
43033,-9.050781,2.882813,2.046875,0.101563,0.019531,0.119141,0.578796,-0.266174,0.568604,0.520447,down
43038,-9.050781,2.882813,2.046875,0.0625,0.035156,0.111328,0.578552,-0.265686,0.569031,0.520508,down
43043,-9.011719,2.769531,2.125,0.0625,0.035156,0.111328,0.578369,-0.265442,0.569275,0.520569,down
43048,-9.011719,2.84375,2.125,0.0625,0.041016,0.109375,0.578186,-0.265259,0.569458,0.52063,down
43053,-9.050781,2.84375,2.046875,0.058594,0.044922,0.097656,0.578064,-0.265076,0.569702,0.52063,down
43059,-9.046875,2.84375,2.085938,0.060547,0.037109,0.095703,0.577881,-0.264893,0.569885,0.520691,down
43064,-9.011719,2.882813,2.085938,0.060547,0.037109,0.095703,0.577759,-0.264709,0.570068,0.520691,down
43069,-9.011719,2.882813,2.125,0.039063,0.037109,0.099609,0.577759,-0.264709,0.570068,0.520691,down
43075,-9.011719,2.882813,2.085938,0.027344,0.050781,0.083984,0.577759,-0.264709,0.570068,0.520691,down
43080,-9.011719,2.84375,2.125,0.027344,0.050781,0.083984,0.577759,-0.264709,0.570068,0.520691,down
43085,-9.011719,2.84375,2.125,0.007813,0.044922,0.085937,0.577759,-0.264709,0.570068,0.520691,down
43091,-9.011719,2.84375,2.085938,0.0,0.054687,0.080078,0.577759,-0.264709,0.570068,0.520691,down
43096,-9.046875,2.84375,2.164063,0.0,0.054687,0.080078,0.577759,-0.264709,0.570068,0.520691,down
43101,-9.089844,2.84375,2.203125,-0.017578,0.052734,0.080078,0.577759,-0.264709,0.570068,0.520691,down
43106,-9.117188,2.84375,2.125,-0.013672,0.060547,0.083984,0.577759,-0.264709,0.570068,0.520691,down
43111,-9.117188,2.808594,2.164063,-0.013672,0.060547,0.083984,0.576111,-0.263977,0.57135,0.521484,down
43116,-9.117188,2.84375,2.238281,-0.013672,0.060547,0.083984,0.576111,-0.263977,0.57135,0.521484,down
43122,-9.117188,2.808594,2.238281,-0.013672,0.060547,0.083984,0.575745,-0.263977,0.571533,0.521667,down
43128,-9.089844,2.808594,2.238281,-0.017578,0.050781,0.074219,0.575378,-0.263916,0.571777,0.521912,down
43133,-9.046875,2.769531,2.238281,-0.017578,0.050781,0.074219,0.575195,-0.263855,0.571838,0.522034,down
