timestamp,ax,ay,az,gx,gy,gz,qw,qx,qy,qz,label
520592,4.109375,8.25,-2.390625,0.115234,0.003906,-0.03125,0.14917,-0.15448,-0.780579,-0.586975,down
520597,4.109375,8.214844,-2.277344,0.115234,0.003906,-0.03125,0.14917,-0.15448,-0.780579,-0.586975,down
520603,4.074219,8.171875,-2.238281,0.115234,0.003906,-0.03125,0.150513,-0.151611,-0.78186,-0.585693,down
520609,4.035156,8.132813,-2.238281,0.154297,-0.009766,-0.027344,0.150513,-0.151611,-0.78186,-0.585693,down
520614,4.074219,8.136719,-2.238281,0.146484,-0.042969,-0.041016,0.15094,-0.150696,-0.782471,-0.584961,down
520619,4.074219,8.214844,-2.238281,0.146484,-0.042969,-0.041016,0.151123,-0.150269,-0.782837,-0.584595,down
520624,4.074219,8.214844,-2.238281,0.146484,-0.042969,-0.041016,0.151306,-0.149414,-0.783447,-0.583984,down
520629,4.074219,8.253906,-2.277344,0.146484,-0.042969,-0.041016,0.151367,-0.148987,-0.783691,-0.58374,down
520634,4.074219,8.25,-2.316406,0.146484,-0.042969,-0.041016,0.151367,-0.148987,-0.783691,-0.58374,down
520639,4.109375,8.289063,-2.316406,0.052734,-0.087891,-0.087891,0.151245,-0.148193,-0.784119,-0.583374,down
520644,4.109375,8.292969,-2.351563,0.052734,-0.087891,-0.087891,0.151123,-0.147827,-0.784241,-0.583313,down
520649,4.109375,8.289063,-2.429688,0.052734,-0.087891,-0.087891,0.151001,-0.1474,-0.784363,-0.583313,down
520654,4.109375,8.253906,-2.507813,0.052734,-0.087891,-0.087891,0.151001,-0.1474,-0.784363,-0.583313,down
520659,4.109375,8.253906,-2.507813,-0.03125,-0.089844,-0.107422,0.150757,-0.146606,-0.784546,-0.583313,down
520664,4.148437,8.292969,-2.46875,-0.03125,-0.089844,-0.107422,0.150635,-0.146179,-0.784668,-0.583313,down
520669,4.148437,8.292969,-2.507813,-0.03125,-0.089844,-0.107422,0.150574,-0.145752,-0.78479,-0.583313,down
520674,4.109375,8.324219,-2.507813,-0.03125,-0.089844,-0.107422,0.150574,-0.145752,-0.78479,-0.583313,down
520679,4.109375,8.359375,-2.542969,0.033203,-0.054687,-0.111328,0.150452,-0.144836,-0.785095,-0.58313,down
520685,4.074219,8.398438,-2.542969,0.033203,-0.054687,-0.111328,0.150391,-0.144348,-0.785339,-0.582947,down
520690,4.109375,8.398438,-2.46875,0.033203,-0.054687,-0.111328,0.150391,-0.143921,-0.785522,-0.582703,down
520696,4.074219,8.398438,-2.46875,0.128906,-0.058594,-0.070312,0.150391,-0.143555,-0.785828,-0.582458,down
520701,4.109375,8.398438,-2.46875,0.128906,-0.058594,-0.070312,0.150452,-0.143127,-0.786133,-0.582153,down
520707,4.074219,8.320313,-2.390625,0.128906,-0.058594,-0.070312,0.150452,-0.143127,-0.786133,-0.582153,down
520713,4.074219,8.324219,-2.351563,0.177734,-0.068359,-0.017578,0.150452,-0.143127,-0.786133,-0.582153,down
520718,4.074219,8.289063,-2.316406,0.171875,-0.076172,0.007813,0.150452,-0.143127,-0.786133,-0.582153,down
520723,4.035156,8.292969,-2.316406,0.171875,-0.076172,0.007813,0.150757,-0.141968,-0.787415,-0.580566,down
520729,4.074219,8.253906,-2.277344,0.183594,-0.087891,0.011719,0.150757,-0.141968,-0.787415,-0.580566,down
520734,3.996094,8.132813,-2.238281,0.177734,-0.09375,0.015625,0.150757,-0.141968,-0.787415,-0.580566,down
520739,4.035156,8.132813,-2.238281,0.177734,-0.09375,0.015625,0.151001,-0.141357,-0.788452,-0.579285,down
520744,3.996094,8.097656,-2.199219,0.179687,-0.128906,-0.007813,0.151001,-0.141235,-0.788818,-0.578796,down
520749,3.957031,8.054688,-2.199219,0.179687,-0.128906,-0.007813,0.151001,-0.141052,-0.789185,-0.578308,down
520755,3.996094,8.054688,-2.199219,0.179687,-0.128906,-0.007813,0.150818,-0.140686,-0.789917,-0.577454,down
520760,3.996094,8.058594,-2.160156,0.179687,-0.128906,-0.007813,0.150635,-0.140503,-0.790283,-0.577087,down
520765,3.996094,8.054688,-2.199219,0.15625,-0.203125,-0.070312,0.150635,-0.140503,-0.790283,-0.577087,down
520770,3.957031,8.054688,-2.199219,0.130859,-0.226562,-0.072266,0.150635,-0.140503,-0.790283,-0.577087,down
520775,3.957031,8.058594,-2.277344,0.130859,-0.226562,-0.072266,0.149719,-0.140076,-0.791321,-0.575989,down
520781,3.996094,8.09375,-2.351563,0.130859,-0.226562,-0.072266,0.149353,-0.139954,-0.791626,-0.575684,down
520786,4.074219,8.015625,-2.351563,0.058594,-0.238281,-0.076172,0.149353,-0.139954,-0.791626,-0.575684,down
520792,4.074219,8.097656,-2.507813,0.058594,-0.238281,-0.076172,0.14856,-0.139832,-0.792114,-0.575256,down
520797,4.074219,8.136719,-2.542969,0.037109,-0.207031,-0.058594,0.14856,-0.139832,-0.792114,-0.575256,down
520802,4.109375,8.171875,-2.621094,0.042969,-0.199219,-0.050781,0.14856,-0.139832,-0.792114,-0.575256,down
520808,4.109375,8.253906,-2.621094,0.044922,-0.185547,-0.048828,0.14856,-0.139832,-0.792114,-0.575256,down
520814,4.109375,8.359375,-2.8125,0.044922,-0.185547,-0.048828,0.147156,-0.139282,-0.793091,-0.574402,down
520819,4.148437,8.402344,-2.773438,0.044922,-0.185547,-0.048828,0.147156,-0.139282,-0.793091,-0.574402,down
520824,4.148437,8.441406,-2.851563,0.082031,-0.128906,-0.056641,0.146851,-0.138916,-0.793518,-0.573975,down
520829,4.148437,8.515625,-2.851563,0.082031,-0.128906,-0.056641,0.146851,-0.138916,-0.793518,-0.573975,down
520834,4.148437,8.558594,-2.890625,0.113281,-0.115234,-0.078125,0.146545,-0.138367,-0.794067,-0.573425,down
520839,4.148437,8.703125,-2.851563,0.113281,-0.115234,-0.078125,0.146545,-0.138367,-0.794067,-0.573425,down
520844,4.148437,8.824219,-2.8125,0.105469,-0.109375,-0.099609,0.146545,-0.138367,-0.794067,-0.573425,down
520850,4.1875,8.820313,-2.851563,0.105469,-0.109375,-0.099609,0.145935,-0.137512,-0.7948,-0.572754,down
520855,4.148437,8.859375,-2.8125,0.050781,-0.134766,-0.089844,0.145935,-0.137512,-0.7948,-0.572754,down
520860,4.1875,8.859375,-2.890625,0.050781,-0.134766,-0.089844,0.145386,-0.137024,-0.795227,-0.572449,down
520865,4.226562,8.859375,-2.925781,0.050781,-0.134766,-0.089844,0.145142,-0.136841,-0.795349,-0.572388,down
520870,4.265625,8.785156,-2.925781,0.050781,-0.134766,-0.089844,0.144897,-0.136719,-0.79541,-0.572388,down
520876,4.300781,8.78125,-2.964844,0.050781,-0.134766,-0.089844,0.144653,-0.136597,-0.795471,-0.572388,down
520881,4.265625,8.824219,-3.042969,0.050781,-0.134766,-0.089844,0.14447,-0.136475,-0.795532,-0.572449,down
520886,4.265625,8.824219,-3.042969,-0.046875,-0.097656,-0.021484,0.14447,-0.136475,-0.795532,-0.572449,down
520891,4.265625,8.820313,-3.117188,-0.029297,-0.085937,-0.017578,0.14447,-0.136475,-0.795532,-0.572449,down
520896,4.1875,8.824219,-3.117188,-0.007813,-0.060547,-0.011719,0.14447,-0.136475,-0.795532,-0.572449,down
520901,4.148437,8.785156,-3.117188,-0.007813,-0.060547,-0.011719,0.144226,-0.135986,-0.795654,-0.572449,down
520906,4.148437,8.671875,-3.082031,0.029297,-0.023437,-0.007813,0.144226,-0.135986,-0.795654,-0.572449,down
520911,4.074219,8.671875,-3.003906,0.042969,-0.013672,-0.003906,0.144226,-0.135986,-0.795654,-0.572449,down
520916,4.074219,8.597656,-2.964844,0.066406,-0.009766,0.001953,0.144226,-0.135986,-0.795654,-0.572449,down
520921,3.996094,8.632813,-2.851563,0.066406,-0.009766,0.001953,0.144226,-0.135986,-0.795654,-0.572449,down
520926,3.996094,8.632813,-2.851563,0.085937,0.003906,0.001953,0.144226,-0.135986,-0.795654,-0.572449,down
520931,3.957031,8.597656,-2.773438,0.085937,0.003906,0.001953,0.144226,-0.135986,-0.795654,-0.572449,down
520937,3.917969,8.636719,-2.734375,0.085937,0.003906,0.001953,0.14502,-0.134583,-0.796448,-0.571411,down
520942,3.917969,8.636719,-2.773438,0.042969,-0.033203,-0.005859,0.14502,-0.134583,-0.796448,-0.571411,down
520948,3.882813,8.554688,-2.773438,0.017578,-0.041016,-0.011719,0.14502,-0.134583,-0.796448,-0.571411,down
520953,3.882813,8.515625,-2.773438,-0.013672,-0.056641,-0.015625,0.14502,-0.134583,-0.796448,-0.571411,down
520959,3.84375,8.441406,-2.773438,-0.060547,-0.060547,-0.029297,0.14502,-0.134583,-0.796448,-0.571411,down
520964,3.882813,8.476563,-2.851563,-0.060547,-0.060547,-0.029297,0.14502,-0.13385,-0.796753,-0.571228,down
520969,3.84375,8.402344,-2.8125,-0.083984,-0.080078,-0.052734,0.14502,-0.13385,-0.796753,-0.571228,down
520974,3.804688,8.398438,-2.8125,-0.083984,-0.080078,-0.052734,0.144775,-0.133606,-0.796631,-0.571472,down
520979,3.765625,8.363281,-2.773438,-0.083984,-0.080078,-0.052734,0.144592,-0.133484,-0.79657,-0.571594,down
520985,3.765625,8.324219,-2.851563,-0.095703,-0.070312,-0.066406,0.144226,-0.133118,-0.796448,-0.57196,down
520990,3.726563,8.289063,-2.8125,-0.09375,-0.058594,-0.078125,0.144104,-0.132935,-0.796387,-0.572083,down
520996,3.726563,8.210938,-2.8125,-0.09375,-0.058594,-0.078125,0.143921,-0.132751,-0.796387,-0.572266,down
521001,3.726563,8.175781,-2.8125,-0.056641,-0.048828,-0.09375,0.143921,-0.132751,-0.796387,-0.572266,down
521006,3.726563,8.25,-2.851563,-0.052734,-0.041016,-0.103516,0.143921,-0.132751,-0.796387,-0.572266,down
521011,3.726563,8.210938,-2.851563,-0.052734,-0.041016,-0.103516,0.143494,-0.131897,-0.796326,-0.572571,down
521017,3.691406,8.253906,-2.8125,-0.052734,-0.041016,-0.103516,0.143494,-0.131897,-0.796326,-0.572571,down
521022,3.652344,8.292969,-2.773438,-0.035156,-0.013672,-0.125,0.143494,-0.131897,-0.796326,-0.572571,down
521027,3.691406,8.398438,-2.8125,-0.035156,-0.013672,-0.125,0.143066,-0.130859,-0.796387,-0.572876,down
521032,3.613281,8.359375,-2.773438,-0.056641,-0.017578,-0.146484,0.143066,-0.130859,-0.796387,-0.572876,down
521037,3.652344,8.359375,-2.734375,-0.066406,-0.029297,-0.150391,0.143066,-0.130859,-0.796387,-0.572876,down
521043,3.691406,8.320313,-2.773438,-0.066406,-0.029297,-0.150391,0.142517,-0.1297,-0.796326,-0.573364,down
521048,3.652344,8.324219,-2.773438,-0.066406,-0.029297,-0.150391,0.142517,-0.1297,-0.796326,-0.573364,down
521054,3.613281,8.324219,-2.773438,-0.066406,-0.029297,-0.150391,0.142151,-0.128967,-0.796265,-0.573669,down
521060,3.613281,8.292969,-2.699219,-0.058594,-0.025391,-0.125,0.142151,-0.128967,-0.796265,-0.573669,down
521065,3.652344,8.289063,-2.660156,-0.058594,-0.025391,-0.125,0.141602,-0.127991,-0.796265,-0.574036,down
521070,3.652344,8.320313,-2.621094,-0.058594,-0.025391,-0.125,0.141479,-0.127747,-0.796326,-0.574036,down
521075,3.652344,8.324219,-2.699219,0.025391,-0.041016,-0.095703,0.141479,-0.127747,-0.796326,-0.574036,down
521080,3.574219,8.359375,-2.582031,0.025391,-0.041016,-0.095703,0.141235,-0.127197,-0.796509,-0.573975,down
521085,3.574219,8.324219,-2.582031,0.025391,-0.041016,-0.095703,0.141052,-0.126953,-0.796692,-0.573853,down
521090,3.613281,8.320313,-2.621094,0.025391,-0.041016,-0.095703,0.141052,-0.126953,-0.796692,-0.573853,down
521095,3.535156,8.289063,-2.621094,0.074219,-0.082031,-0.082031,0.140686,-0.126526,-0.796997,-0.573547,down
521101,3.613281,8.292969,-2.699219,0.074219,-0.082031,-0.082031,0.140503,-0.126343,-0.79718,-0.573425,down
521106,3.574219,8.363281,-2.734375,0.060547,-0.097656,-0.09375,0.140503,-0.126343,-0.79718,-0.573425,down
521111,3.613281,8.402344,-2.8125,0.041016,-0.09375,-0.115234,0.140503,-0.126343,-0.79718,-0.573425,down
521117,3.613281,8.480469,-2.890625,0.041016,-0.09375,-0.115234,0.140503,-0.126343,-0.79718,-0.573425,down
521122,3.652344,8.519531,-2.851563,-0.019531,-0.097656,-0.146484,0.140503,-0.126343,-0.79718,-0.573425,down
521128,3.652344,8.476563,-2.851563,-0.044922,-0.09375,-0.167969,0.140503,-0.126343,-0.79718,-0.573425,down
521133,3.652344,8.480469,-2.890625,-0.068359,-0.089844,-0.185547,0.140503,-0.126343,-0.79718,-0.573425,down
521139,3.652344,8.402344,-2.851563,-0.107422,-0.087891,-0.236328,0.140503,-0.126343,-0.79718,-0.573425,down
521144,3.652344,8.359375,-2.773438,-0.107422,-0.087891,-0.236328,0.137939,-0.123962,-0.797791,-0.57373,down
521150,3.691406,8.363281,-2.734375,-0.134766,-0.09375,-0.273438,0.137939,-0.123962,-0.797791,-0.57373,down
521155,3.652344,8.320313,-2.660156,-0.134766,-0.09375,-0.273438,0.136353,-0.122498,-0.797607,-0.574585,down
521160,3.652344,8.324219,-2.699219,-0.128906,-0.097656,-0.291016,0.136353,-0.122498,-0.797607,-0.574585,down
521165,3.613281,8.363281,-2.621094,-0.126953,-0.109375,-0.285156,0.135803,-0.121948,-0.797607,-0.574951,down
521170,3.652344,8.402344,-2.660156,-0.126953,-0.109375,-0.285156,0.134583,-0.120972,-0.797485,-0.575562,down
521175,3.652344,8.402344,-2.660156,-0.126953,-0.109375,-0.285156,0.134033,-0.120483,-0.797485,-0.575806,down
521180,3.613281,8.476563,-2.660156,-0.126953,-0.109375,-0.285156,0.134033,-0.120483,-0.797485,-0.575806,down
521185,3.574219,8.554688,-2.660156,-0.105469,-0.132812,-0.291016,0.13269,-0.119568,-0.797485,-0.576294,down
521190,3.574219,8.476563,-2.699219,-0.091797,-0.15625,-0.271484,0.13269,-0.119568,-0.797485,-0.576294,down
521195,3.613281,8.480469,-2.699219,-0.085937,-0.166016,-0.261719,0.13208,-0.119202,-0.797485,-0.576538,down
521200,3.613281,8.515625,-2.734375,-0.085937,-0.166016,-0.261719,0.131348,-0.118774,-0.797485,-0.576721,down
521206,3.613281,8.554688,-2.734375,-0.085937,-0.166016,-0.261719,0.130066,-0.118042,-0.797607,-0.577026,down
521212,3.613281,8.597656,-2.773438,-0.085937,-0.166016,-0.261719,0.129517,-0.117798,-0.797668,-0.577148,down
521217,3.613281,8.558594,-2.8125,-0.042969,-0.164062,-0.220703,0.128906,-0.117493,-0.797729,-0.577271,down
521222,3.613281,8.554688,-2.773438,-0.027344,-0.164062,-0.207031,0.128906,-0.117493,-0.797729,-0.577271,down
521227,3.574219,8.554688,-2.851563,-0.027344,-0.164062,-0.207031,0.127747,-0.116882,-0.797913,-0.577393,down
521232,3.574219,8.558594,-2.773438,0.003906,-0.150391,-0.189453,0.127258,-0.116638,-0.798035,-0.577393,down
521239,3.613281,8.558594,-2.851563,0.005859,-0.148437,-0.185547,0.127258,-0.116638,-0.798035,-0.577393,down
521244,3.574219,8.519531,-2.890625,0.015625,-0.136719,-0.189453,0.127258,-0.116638,-0.798035,-0.577393,down
521249,3.535156,8.558594,-2.851563,0.023437,-0.125,-0.1875,0.127258,-0.116638,-0.798035,-0.577393,down
521255,3.496094,8.476563,-2.851563,0.027344,-0.111328,-0.1875,0.127258,-0.116638,-0.798035,-0.577393,down
521260,3.535156,8.476563,-2.8125,0.019531,-0.113281,-0.193359,0.127258,-0.116638,-0.798035,-0.577393,down
521265,3.496094,8.476563,-2.8125,0.019531,-0.113281,-0.193359,0.124084,-0.11438,-0.79895,-0.577209,down
521270,3.460938,8.480469,-2.773438,0.023437,-0.105469,-0.214844,0.124084,-0.11438,-0.79895,-0.577209,down
521275,3.460938,8.515625,-2.734375,0.023437,-0.105469,-0.214844,0.123657,-0.114014,-0.799072,-0.577209,down
521280,3.421875,8.515625,-2.660156,0.023437,-0.105469,-0.214844,0.123657,-0.114014,-0.799072,-0.577209,down
521286,3.382813,8.519531,-2.621094,0.007813,-0.123047,-0.216797,0.122803,-0.11322,-0.799316,-0.577209,down
521291,3.421875,8.554688,-2.660156,0.007813,-0.123047,-0.216797,0.121765,-0.112488,-0.799561,-0.577209,down
521296,3.421875,8.476563,-2.699219,0.007813,-0.123047,-0.216797,0.121216,-0.112122,-0.799744,-0.577209,down
521301,3.421875,8.480469,-2.621094,0.007813,-0.123047,-0.216797,0.120667,-0.111816,-0.799805,-0.577271,down
521306,3.382813,8.4375,-2.660156,0.0,-0.164062,-0.21875,0.120056,-0.111511,-0.799927,-0.577271,down
521312,3.382813,8.402344,-2.582031,0.0,-0.164062,-0.21875,0.119568,-0.111206,-0.800049,-0.577271,down
521317,3.382813,8.402344,-2.660156,0.0,-0.164062,-0.21875,0.118958,-0.110901,-0.800171,-0.577271,down
521323,3.304688,8.359375,-2.621094,0.0,-0.164062,-0.21875,0.118958,-0.110901,-0.800171,-0.577271,down
521328,3.304688,8.324219,-2.542969,0.025391,-0.167969,-0.201172,0.118958,-0.110901,-0.800171,-0.577271,down
521333,3.230469,8.292969,-2.46875,0.044922,-0.175781,-0.199219,0.118958,-0.110901,-0.800171,-0.577271,down
521339,3.191406,8.214844,-2.46875,0.0625,-0.171875,-0.210937,0.118958,-0.110901,-0.800171,-0.577271,down
521345,3.152344,8.171875,-2.429688,0.070312,-0.181641,-0.214844,0.118958,-0.110901,-0.800171,-0.577271,down
521350,3.113281,8.058594,-2.351563,0.085937,-0.189453,-0.214844,0.118958,-0.110901,-0.800171,-0.577271,down
521355,3.113281,8.058594,-2.351563,0.105469,-0.195312,-0.224609,0.114929,-0.109009,-0.801514,-0.576599,down
521360,3.078125,7.941406,-2.277344,0.105469,-0.195312,-0.224609,0.114258,-0.108704,-0.801819,-0.576416,down
521365,3.078125,7.941406,-2.277344,0.130859,-0.244141,-0.263672,0.113525,-0.108459,-0.802124,-0.576172,down
521371,2.886719,7.671875,-2.046875,0.130859,-0.244141,-0.263672,0.112732,-0.108276,-0.802429,-0.575928,down
521376,2.886719,7.632812,-2.007813,0.130859,-0.244141,-0.263672,0.11084,-0.107544,-0.803223,-0.575317,down
521382,2.769531,7.40625,-1.855469,0.130859,-0.244141,-0.263672,0.109863,-0.107178,-0.803528,-0.575073,down
521387,2.730469,7.332031,-1.816406,0.115234,-0.345703,-0.375,0.108948,-0.106873,-0.803894,-0.57489,down
521393,2.65625,7.101562,-1.703125,0.115234,-0.345703,-0.375,0.107666,-0.106445,-0.80426,-0.574646,down
521399,2.617188,7.0625,-1.664063,0.076172,-0.419922,-0.470703,0.107666,-0.106445,-0.80426,-0.574646,down
521404,2.539063,6.984375,-1.546875,0.056641,-0.462891,-0.527344,0.107666,-0.106445,-0.80426,-0.574646,down
521410,2.386719,6.71875,-1.546875,0.056641,-0.462891,-0.527344,0.103149,-0.10498,-0.805298,-0.574341,down
521415,2.234375,6.640625,-1.472656,0.056641,-0.462891,-0.527344,0.101257,-0.10437,-0.805603,-0.574341,down
521421,2.117188,6.605469,-1.472656,-0.060547,-0.5625,-0.716797,0.096924,-0.102966,-0.806091,-0.574646,down
521427,1.8125,6.484375,-1.433594,-0.060547,-0.5625,-0.716797,0.094543,-0.102173,-0.806274,-0.57489,down
521432,1.8125,6.484375,-1.433594,-0.207031,-0.710937,-0.955078,0.091797,-0.101257,-0.806458,-0.575256,down
521437,1.699219,6.445312,-1.394531,-0.207031,-0.710937,-0.955078,0.088928,-0.100281,-0.806519,-0.575806,down
521442,1.660156,6.484375,-1.433594,-0.207031,-0.710937,-0.955078,0.08551,-0.099121,-0.80658,-0.576477,down
521447,1.621094,6.679687,-1.625,-0.207031,-0.710937,-0.955078,0.08551,-0.099121,-0.80658,-0.576477,down
521452,1.582031,6.789062,-1.738281,-0.4375,-0.882812,-1.291016,0.08551,-0.099121,-0.80658,-0.576477,down
521457,1.507813,6.832031,-1.855469,-0.503906,-0.927734,-1.371094,0.08551,-0.099121,-0.80658,-0.576477,down
521462,1.390625,6.945312,-2.085938,-0.503906,-0.927734,-1.371094,0.08551,-0.099121,-0.80658,-0.576477,down
521467,1.351563,6.988281,-2.199219,-0.597656,-0.964844,-1.517578,0.08551,-0.099121,-0.80658,-0.576477,down
521472,1.351563,6.988281,-2.199219,-0.638672,-0.966797,-1.583984,0.062683,-0.090637,-0.805298,-0.582581,down
521479,1.238281,7.214844,-2.390625,-0.638672,-0.966797,-1.583984,0.062683,-0.090637,-0.805298,-0.582581,down
521484,1.199219,7.292969,-2.46875,-0.666016,-0.958984,-1.722656,0.062683,-0.090637,-0.805298,-0.582581,down
521490,1.085938,7.367187,-2.542969,-0.658203,-0.945312,-1.796875,0.062683,-0.090637,-0.805298,-0.582581,down
521495,0.929687,7.636719,-2.621094,-0.654297,-0.919922,-1.882813,0.062683,-0.090637,-0.805298,-0.582581,down
521500,0.855469,7.671875,-2.621094,-0.654297,-0.919922,-1.882813,0.039734,-0.079773,-0.802979,-0.589294,down
521505,0.777344,7.828125,-2.621094,-0.654297,-0.919922,-1.882813,0.034546,-0.076843,-0.80249,-0.590698,down
521511,0.664062,7.867187,-2.660156,-0.578125,-0.884766,-2.210938,0.034546,-0.076843,-0.80249,-0.590698,down
521516,0.511719,8.019531,-2.621094,-0.578125,-0.884766,-2.210938,0.02478,-0.070923,-0.801636,-0.593018,down
521521,0.433594,8.015625,-2.582031,-0.568359,-0.880859,-2.283203,0.019897,-0.06781,-0.80127,-0.594116,down
521526,0.433594,8.015625,-2.582031,-0.568359,-0.880859,-2.283203,0.019897,-0.06781,-0.80127,-0.594116,down
521531,0.242187,8.136719,-2.46875,-0.617187,-0.888672,-2.453125,0.003601,-0.05719,-0.799805,-0.597534,down
521537,0.050781,8.289063,-2.429688,-0.617187,-0.888672,-2.453125,0.002258,0.053223,0.799072,0.598816,down
521542,0.011719,8.441406,-2.429688,-0.757812,-0.933594,-2.660156,0.007996,0.049316,0.79834,0.600159,down
521547,-0.101563,8.476563,-2.390625,-0.8125,-0.945312,-2.728516,0.007996,0.049316,0.79834,0.600159,down
521552,-0.21875,8.558594,-2.429688,-0.8125,-0.945312,-2.728516,0.007996,0.049316,0.79834,0.600159,down
521558,-0.410156,8.675781,-2.390625,-0.8125,-0.945312,-2.728516,0.026245,0.036804,0.795349,0.604431,down
521563,-0.449219,8.703125,-2.429688,-0.947266,-0.974609,-2.878906,0.026245,0.036804,0.795349,0.604431,down
521569,-0.640625,8.824219,-2.390625,-1.009766,-0.994141,-2.916016,0.026245,0.036804,0.795349,0.604431,down
521575,-0.675781,8.898438,-2.390625,-1.035156,-1.007813,-2.929688,0.026245,0.036804,0.795349,0.604431,down
521580,-0.792969,9.019531,-2.390625,-1.048828,-1.021484,-2.957031,0.026245,0.036804,0.795349,0.604431,down
521586,-1.058594,9.320313,-2.46875,-1.019531,-1.025391,-2.96875,0.026245,0.036804,0.795349,0.604431,down
521591,-1.214844,9.480469,-2.507813,-1.019531,-1.025391,-2.96875,0.071777,0.005554,0.784912,0.615417,down
521596,-1.214844,9.480469,-2.507813,-1.019531,-1.025391,-2.96875,0.071777,0.005554,0.784912,0.615417,down
521601,-1.328125,9.589844,-2.507813,-0.921875,-1.09375,-2.986328,0.071777,0.005554,0.784912,0.615417,down
521606,-1.328125,9.589844,-2.507813,-0.912109,-1.099609,-2.996094,0.085022,-0.003174,0.781677,0.617859,down
521611,-1.710938,9.667969,-2.542969,-0.912109,-1.099609,-2.996094,0.091919,-0.00769,0.779907,0.619019,down
521617,-1.710938,9.667969,-2.542969,-0.962891,-1.042969,-3.005859,0.105103,-0.016479,0.776306,0.621338,down
521622,-2.019531,9.746094,-2.621094,-0.962891,-1.042969,-3.005859,0.112366,-0.021484,0.77417,0.622559,down
521628,-2.210938,9.785156,-2.507813,-0.962891,-1.042969,-3.005859,0.118347,-0.025696,0.772217,0.623718,down
521633,-2.285156,9.820313,-2.507813,-1.152344,-0.949219,-3.025391,0.124939,-0.030518,0.769897,0.625061,down
521639,-2.402344,9.785156,-2.507813,-1.230469,-0.884766,-3.041016,0.124939,-0.030518,0.769897,0.625061,down
521645,-2.554688,9.667969,-2.390625,-1.230469,-0.884766,-3.041016,0.124939,-0.030518,0.769897,0.625061,down
521650,-2.667969,9.667969,-2.351563,-1.412109,-0.710937,-3.078125,0.124939,-0.030518,0.769897,0.625061,down
521656,-2.824219,9.625,-2.351563,-1.441406,-0.585937,-3.113281,0.155212,-0.056702,0.756348,0.632935,down
521661,-3.089844,9.550781,-2.390625,-1.441406,-0.585937,-3.113281,0.160645,-0.062622,0.753418,0.634521,down
521666,-3.207031,9.746094,-2.277344,-1.359375,-0.267578,-3.169922,0.160645,-0.062622,0.753418,0.634521,down
521671,-3.398438,9.933594,-2.160156,-1.359375,-0.267578,-3.169922,0.166443,-0.069214,0.750305,0.636047,down
521676,-3.398438,9.933594,-2.160156,-1.242188,-0.177734,-3.152344,0.171143,-0.074829,0.747803,0.637085,down
521681,-3.742188,10.394531,-2.085938,-1.076172,-0.113281,-3.113281,0.171143,-0.074829,0.747803,0.637085,down
521686,-3.742188,10.394531,-2.085938,-0.886719,-0.074219,-3.054688,0.181091,-0.087158,0.742981,0.638428,down
521692,-4.238281,11.238281,-1.96875,-0.886719,-0.074219,-3.054688,0.19043,-0.098755,0.739258,0.638306,down
521698,-4.777344,11.925781,-1.816406,-0.886719,-0.074219,-3.054688,0.194763,-0.104126,0.737793,0.637878,down
521703,-4.96875,12.039063,-1.816406,-0.283203,0.029297,-2.615234,0.198975,-0.109436,0.736511,0.637146,down
521709,-5.121094,12.117188,-1.816406,-0.214844,0.064453,-2.501953,0.198975,-0.109436,0.736511,0.637146,down
521714,-5.390625,12.238281,-1.855469,-0.173828,0.109375,-2.40625,0.206421,-0.11908,0.734436,0.635437,down
521721,-5.425781,12.277344,-1.855469,-0.154297,0.136719,-2.285156,0.206421,-0.11908,0.734436,0.635437,down
521726,-5.542969,12.382813,-1.855469,-0.146484,0.201172,-2.070313,0.206421,-0.11908,0.734436,0.635437,down
521731,-5.582031,12.539063,-1.855469,-0.142578,0.257813,-1.96875,0.216003,-0.132446,0.731812,0.632629,down
521737,-5.734375,12.804688,-1.855469,-0.142578,0.257813,-1.96875,0.22113,-0.140808,0.730286,0.630859,down
521742,-5.8125,12.921875,-1.894531,-0.113281,0.384766,-1.765625,0.223511,-0.145142,0.729553,0.629883,down
521748,-5.886719,13.039063,-1.816406,-0.113281,0.384766,-1.765625,0.225342,-0.148987,0.728943,0.628967,down
521753,-6.003906,13.113281,-1.816406,-0.115234,0.521484,-1.550781,0.225342,-0.148987,0.728943,0.628967,down
521758,-6.039062,13.265625,-1.816406,-0.115234,0.521484,-1.550781,0.225342,-0.148987,0.728943,0.628967,down
521764,-6.039062,13.265625,-1.816406,-0.134766,0.591797,-1.453125,0.229065,-0.159851,0.727539,0.626587,down
521769,-6.039062,13.265625,-1.816406,-0.189453,0.693359,-1.283203,0.229797,-0.163391,0.727112,0.625916,down
521774,-6.730469,14.152344,-1.816406,-0.189453,0.693359,-1.283203,0.230408,-0.166992,0.726685,0.625305,down
521781,-6.921875,14.339844,-1.816406,-0.294922,0.722656,-1.146484,0.230408,-0.166992,0.726685,0.625305,down
521786,-7.113281,14.457031,-1.777344,-0.521484,0.703125,-1.072266,0.230408,-0.166992,0.726685,0.625305,down
521791,-7.34375,14.652344,-1.703125,-0.681641,0.671875,-1.052734,0.231262,-0.177246,0.724731,0.624329,down
521796,-7.496094,14.761719,-1.585938,-0.681641,0.671875,-1.052734,0.231384,-0.180908,0.723633,0.624573,down
521802,-7.648437,14.839844,-1.472656,-0.681641,0.671875,-1.052734,0.231567,-0.187744,0.72052,0.626038,down
521808,-8.070313,14.800781,-1.164063,-0.681641,0.671875,-1.052734,0.231689,-0.191284,0.718384,0.627441,down
521813,-8.070313,14.800781,-1.164063,-1.808594,0.498047,-1.205078,0.23175,-0.195129,0.715576,0.629395,down
521818,-8.1875,14.570313,-1.011719,-1.808594,0.498047,-1.205078,0.231873,-0.199219,0.712158,0.631958,down
521823,-8.222656,14.457031,-0.9375,-1.808594,0.498047,-1.205078,0.231995,-0.203674,0.707886,0.635254,down
521828,-8.339844,14.070313,-0.707031,-1.808594,0.498047,-1.205078,0.231995,-0.203674,0.707886,0.635254,down
521833,-8.453125,13.953125,-0.628906,-3.279297,0.384766,-1.451172,0.231995,-0.203674,0.707886,0.635254,down
521838,-8.570313,13.917969,-0.589844,-3.587891,0.382813,-1.472656,0.231995,-0.203674,0.707886,0.635254,down
521843,-8.683594,13.804688,-0.476562,-3.587891,0.382813,-1.472656,0.231567,-0.223755,0.684814,0.653748,down
521850,-8.953125,13.652344,-0.324219,-3.587891,0.382813,-1.472656,0.231567,-0.223755,0.684814,0.653748,down
521855,-8.953125,13.652344,-0.324219,-4.199219,0.248047,-1.462891,0.230774,-0.234497,0.670105,0.665344,down
521860,-8.988281,13.53125,-0.09375,-4.28125,0.205078,-1.412109,0.230774,-0.234497,0.670105,0.665344,down
521865,-8.988281,13.53125,-0.09375,-4.300781,0.158203,-1.34375,0.229675,-0.244873,0.654175,0.677734,down
521870,-9.335938,13.34375,0.214844,-4.300781,0.158203,-1.34375,0.229004,-0.249634,0.64624,0.683838,down
521876,-9.640625,13.1875,0.289063,-4.091797,0.025391,-1.025391,0.229004,-0.249634,0.64624,0.683838,down
521881,-9.910156,12.765625,0.40625,-4.091797,0.025391,-1.025391,0.227356,-0.25824,0.630493,0.69574,down
521886,-10.101563,12.542969,0.519531,-4.091797,0.025391,-1.025391,0.226318,-0.26239,0.622131,0.702087,down
521892,-10.175781,12.347656,0.636719,-3.744141,-0.121094,-0.541016,0.226318,-0.26239,0.622131,0.702087,down
521897,-10.40625,12.199219,0.710937,-3.744141,-0.121094,-0.541016,0.222595,-0.270935,0.600891,0.718323,down
521902,-10.5625,11.695313,0.863281,-3.744141,-0.121094,-0.541016,0.220764,-0.273193,0.593445,0.724182,down
521907,-10.675781,11.472656,0.902344,-3.744141,-0.121094,-0.541016,0.218811,-0.274902,0.586792,0.729553,down
521912,-10.636719,11.273438,1.054688,-3.314453,-0.316406,0.208984,0.216858,-0.27594,0.580994,0.734314,down
521918,-10.484375,10.472656,1.363281,-3.314453,-0.316406,0.208984,0.214661,-0.27655,0.575317,0.739197,down
521923,-10.289063,10.203125,1.441406,-3.064453,-0.425781,0.650391,0.212097,-0.276733,0.569763,0.744202,down
521928,-10.140625,9.859375,1.515625,-2.939453,-0.484375,0.884766,0.212097,-0.276733,0.569763,0.744202,down
521933,-10.066406,9.628906,1.59375,-2.939453,-0.484375,0.884766,0.212097,-0.276733,0.569763,0.744202,down
521938,-9.949219,9.476563,1.632813,-2.787109,-0.53125,1.140625,0.206055,-0.275452,0.559387,0.75415,down
521943,-9.949219,9.476563,1.632813,-2.617188,-0.59375,1.388672,0.202637,-0.273987,0.554932,0.758911,down
521949,-9.257813,8.480469,1.746094,-2.617188,-0.59375,1.388672,0.194946,-0.269348,0.547058,0.76825,down
521956,-8.988281,8.171875,1.785156,-2.105469,-0.863281,2.121094,0.194946,-0.269348,0.547058,0.76825,down
521961,-8.679688,7.828125,1.824219,-1.732422,-1.041016,2.605469,0.194946,-0.269348,0.547058,0.76825,down
521966,-8.457031,7.484375,1.824219,-1.732422,-1.041016,2.605469,0.181641,-0.257813,0.538452,0.781433,down
521972,-7.875,6.871094,1.632813,-1.732422,-1.041016,2.605469,0.181641,-0.257813,0.538452,0.781433,down
521977,-7.496094,6.449219,1.746094,-1.128906,-1.304688,3.335938,0.181641,-0.257813,0.538452,0.781433,down
521982,-7.148437,6.027344,1.746094,-1.128906,-1.304688,3.335938,0.159912,-0.233398,0.533386,0.797119,down
521987,-6.84375,5.796875,1.707031,-1.128906,-1.304688,3.335938,0.154419,-0.226624,0.533386,0.800232,down
521992,-6.304687,5.453125,1.746094,-1.128906,-1.304688,3.335938,0.147827,-0.218506,0.533752,0.803467,down
521997,-6.039062,5.261719,1.746094,-0.337891,-1.490234,4.332031,0.147827,-0.218506,0.533752,0.803467,down
522002,-5.621094,5.109375,1.667969,-0.337891,-1.490234,4.332031,0.140686,-0.209534,0.534607,0.806519,down
522008,-4.894531,4.570312,1.824219,-0.337891,-1.490234,4.332031,0.126648,-0.19165,0.537537,0.81134,down
522013,-4.894531,4.570312,1.824219,-0.337891,-1.490234,4.332031,0.126648,-0.19165,0.537537,0.81134,down
522018,-4.511719,4.226562,1.746094,0.378906,-1.59375,5.328125,0.118958,-0.181763,0.539673,0.813416,down
522023,-3.933594,3.613281,1.515625,0.378906,-1.59375,5.328125,0.118958,-0.181763,0.539673,0.813416,down
522028,-3.667969,3.308594,1.476563,0.513672,-1.554688,5.578125,0.09259,-0.149475,0.547913,0.817871,down
522034,-2.980469,2.503906,1.402344,0.513672,-1.554688,5.578125,0.082642,-0.137756,0.551331,0.818665,down
522040,-2.09375,1.546875,1.285156,1.015625,-1.482422,6.185547,0.082642,-0.137756,0.551331,0.818665,down
522046,-1.671875,1.164063,1.246094,1.195313,-1.376953,6.355469,0.082642,-0.137756,0.551331,0.818665,down
522051,-1.40625,0.855469,1.132813,1.408203,-1.238281,6.509766,0.082642,-0.137756,0.551331,0.818665,down
522056,-0.753906,0.585937,0.9375,1.660156,-1.09375,6.644531,0.082642,-0.137756,0.551331,0.818665,down
522061,-0.410156,0.359375,0.902344,2.232422,-0.769531,6.892578,0.082642,-0.137756,0.551331,0.818665,down
522066,-0.066406,0.128906,0.9375,2.232422,-0.769531,6.892578,0.015503,-0.066895,0.578186,0.813049,down
522072,0.242187,0.050781,0.976562,2.873047,-0.361328,7.126953,0.015503,-0.066895,0.578186,0.813049,down
522077,0.242187,0.050781,0.976562,2.873047,-0.361328,7.126953,0.010254,0.044189,-0.59021,-0.805969,down
522082,0.625,0.242187,0.863281,2.873047,-0.361328,7.126953,0.010254,0.044189,-0.59021,-0.805969,down
522087,0.625,0.242187,0.863281,3.597656,0.0625,7.335937,0.038452,0.022217,-0.604492,-0.795349,down
522092,0.855469,0.28125,0.941406,3.597656,0.0625,7.335937,0.068054,0.00177,-0.620117,-0.781555,down
522097,1.007813,0.203125,1.246094,3.597656,0.0625,7.335937,0.083923,-0.008057,-0.628357,-0.773315,down
522102,1.046875,0.050781,1.359375,4.566406,1.054688,7.441406,0.083923,-0.008057,-0.628357,-0.773315,down
522107,1.121094,-0.101563,1.476563,4.669922,1.283203,7.392578,0.10083,-0.017639,-0.636963,-0.764038,down
522112,1.160156,-0.332031,1.707031,4.669922,1.283203,7.392578,0.133179,-0.033813,-0.65271,-0.745056,down
522117,1.238281,-0.484375,1.980469,4.669922,1.283203,7.392578,0.149048,-0.040771,-0.659851,-0.735352,down
522122,1.121094,-1.019531,2.324219,4.669922,1.283203,7.392578,0.149048,-0.040771,-0.659851,-0.735352,down
522127,1.085938,-1.175781,2.433594,4.742187,2.019531,7.154297,0.183044,-0.053589,-0.673767,-0.713867,down
522132,1.046875,-1.59375,2.546875,4.742187,2.019531,7.154297,0.183044,-0.053589,-0.673767,-0.713867,down
522137,1.046875,-1.59375,2.546875,4.679687,2.371094,6.908203,0.199768,-0.059021,-0.679932,-0.703064,down
522143,1.085938,-1.863281,2.664063,4.679687,2.371094,6.908203,0.216309,-0.064026,-0.68573,-0.692017,down
522148,1.085938,-2.132813,3.238281,4.765625,2.589844,6.613281,0.249634,-0.072571,-0.696777,-0.668518,down
522153,0.816406,-1.863281,3.390625,4.765625,2.589844,6.613281,0.266357,-0.07605,-0.702209,-0.655884,down
522159,0.546875,-1.710938,3.546875,4.765625,2.589844,6.613281,0.282166,-0.078918,-0.707458,-0.643188,down
522165,0.472656,-1.75,3.773438,5.384766,2.744141,5.939453,0.282166,-0.078918,-0.707458,-0.643188,down
522170,0.242187,-1.75,4.082031,5.384766,2.744141,5.939453,0.312988,-0.083496,-0.717957,-0.616089,down
522175,0.242187,-1.75,4.082031,5.712891,2.662109,5.626953,0.327515,-0.085144,-0.723145,-0.602112,down
522180,0.011719,-1.824219,4.160156,5.861328,2.585938,5.464844,0.327515,-0.085144,-0.723145,-0.602112,down
522185,0.011719,-1.824219,4.160156,6.039062,2.453125,5.285156,0.355652,-0.087524,-0.733643,-0.572388,down
522190,-1.058594,-1.710938,5.34375,6.039062,2.453125,5.285156,0.368469,-0.088196,-0.738953,-0.557068,down
522196,-1.40625,-1.789063,5.882812,6.369141,2.041016,4.902344,0.368469,-0.088196,-0.738953,-0.557068,down
522202,-2.054688,-1.980469,6.613281,6.466797,1.767578,4.695312,0.368469,-0.088196,-0.738953,-0.557068,down
522207,-2.515625,-2.171875,6.6875,6.466797,1.767578,4.695312,0.412231,-0.08905,-0.761719,-0.491882,down
522212,-3.015625,-2.207031,6.648437,6.466797,1.767578,4.695312,0.412231,-0.08905,-0.761719,-0.491882,down
522217,-3.015625,-2.207031,6.648437,6.314453,0.796875,3.964844,0.42041,-0.08905,-0.767395,-0.475891,down
522222,-3.589844,-2.285156,6.726562,6.191406,0.345703,3.667969,0.42041,-0.08905,-0.767395,-0.475891,down
522227,-3.589844,-2.285156,6.726562,6.054687,-0.134766,3.347656,0.432983,-0.089233,-0.779358,-0.444092,down
522233,-6.078125,-2.015625,6.914062,5.601562,-1.257813,2.566406,0.432983,-0.089233,-0.779358,-0.444092,down
522238,-7.496094,-2.667969,7.1875,5.269531,-1.875,2.099609,0.439209,-0.0896,-0.791931,-0.414673,down
522244,-8.800781,-4.085937,6.609375,5.269531,-1.875,2.099609,0.438477,-0.090149,-0.805664,-0.388,down
522249,-9.140625,-4.085937,6.226562,4.373047,-3.125,0.857422,0.438477,-0.090149,-0.805664,-0.388,down
522254,-9.140625,-4.085937,6.226562,3.943359,-3.896484,0.039063,0.429138,-0.089905,-0.820496,-0.366821,down
522259,-9.910156,-4.660156,6.074219,3.943359,-3.896484,0.039063,0.429138,-0.089905,-0.820496,-0.366821,down
522264,-9.910156,-4.660156,6.074219,3.0625,-5.640625,-2.003906,0.429138,-0.089905,-0.820496,-0.366821,down
522270,-11.480469,-3.703125,4.121094,3.0625,-5.640625,-2.003906,0.394714,-0.084167,-0.846375,-0.347534,down
522275,-12.359375,-1.824219,3.085938,2.001953,-7.503906,-4.388672,0.377197,-0.080078,-0.855774,-0.344971,down
522282,-13.390625,2.386719,0.828125,2.001953,-7.503906,-4.388672,0.377197,-0.080078,-0.855774,-0.344971,down
522287,-13.320313,4.496094,-0.398438,0.806641,-9.9375,-6.875,0.377197,-0.080078,-0.855774,-0.344971,down
522292,-13.472656,6.71875,-2.925781,-0.144531,-11.191406,-8.041016,0.377197,-0.080078,-0.855774,-0.344971,down
522297,-13.472656,6.71875,-2.925781,-0.144531,-11.191406,-8.041016,0.377197,-0.080078,-0.855774,-0.344971,down
522302,-13.472656,6.71875,-2.925781,-1.412109,-12.421875,-9.15625,0.229004,-0.043152,-0.901672,-0.364258,down
522307,-13.472656,6.71875,-2.925781,-4.541016,-13.808594,-11.576172,0.186951,-0.032654,-0.906372,-0.377502,down
522312,-14.390625,11.886719,-9.019531,-4.541016,-13.808594,-11.576172,0.143372,-0.020752,-0.907715,-0.393799,down
522317,-17.339844,17.976562,-17.597656,-4.541016,-13.808594,-11.576172,0.096924,-0.006348,-0.905151,-0.413818,down
522322,-17.53125,19.933594,-20.433594,-10.150391,-14.484375,-16.642578,0.096924,-0.006348,-0.905151,-0.413818,down
522327,-17.570312,26.980469,-22.003906,-10.150391,-14.484375,-16.642578,0.004639,-0.034363,0.885071,0.464172,down
522332,-16.765625,32.386719,-21.125,-10.150391,-14.484375,-16.642578,0.062927,-0.062866,0.864807,0.494202,down
522338,-16.535156,36.710937,-20.28125,-16.380859,-13.558594,-24.130859,0.062927,-0.062866,0.864807,0.494202,down
522343,-17.6875,36.441406,-19.667969,-16.380859,-13.558594,-24.130859,0.228271,-0.168335,0.766663,0.57605,down
522348,-20.445312,30.390625,-19.324219,-18.460937,-8.472656,-27.277344,0.228271,-0.168335,0.766663,0.57605,down
522353,-20.445312,30.390625,-19.324219,-18.679687,-6.375,-27.65625,0.317993,-0.261841,0.674194,0.613037,down
522358,-30.289062,20.96875,-19.898437,-18.021484,-5.488281,-26.886719,0.317993,-0.261841,0.674194,0.613037,down
522363,-32.890625,20.046875,-15.953125,-18.021484,-5.488281,-26.886719,0.392883,-0.362122,0.564209,0.629456,down
522368,-35.308594,16.828125,-11.507813,-18.021484,-5.488281,-26.886719,0.419067,-0.398865,0.519958,0.628418,down
522373,-34.421875,19.128906,-4.230469,-18.021484,-5.488281,-26.886719,0.444031,-0.431946,0.478455,0.622375,down
522378,-26.6875,22.613281,-1.164063,-3.277344,-1.816406,-12.064453,0.444031,-0.431946,0.478455,0.622375,down
522383,-13.625,22.160156,1.976563,-3.277344,-1.816406,-12.064453,0.463379,-0.452759,0.450562,0.614197,down
522389,-27.878906,26.445312,8.066406,-3.277344,-1.816406,-12.064453,0.485352,-0.462769,0.436768,0.599609,down
522394,-27.878906,26.445312,8.066406,6.433594,4.308594,3.964844,0.485901,-0.458252,0.450378,0.592529,down
522399,-28.800781,19.359375,-4.691406,6.433594,4.308594,3.964844,0.480591,-0.449158,0.47821,0.581848,down
522404,-29.253906,17.671875,-6.875,6.433594,4.308594,3.964844,0.474426,-0.437683,0.507202,0.571045,down
522409,-27.757812,13.039063,-2.199219,6.433594,4.308594,3.964844,0.474426,-0.437683,0.507202,0.571045,down
522414,-27.757812,13.039063,-2.199219,14.378906,6.591797,8.763672,0.459656,-0.403198,0.574158,0.544495,down
522419,-26.152344,10.507813,-2.734375,14.378906,6.591797,8.763672,0.453552,-0.380066,0.614258,0.522034,down
522425,-26.839844,15.910156,-5.457031,14.378906,6.591797,8.763672,0.451233,-0.359802,0.646301,0.499207,down
522431,-25.582031,17.824219,-3.921875,15.412109,2.619141,4.009766,0.451233,-0.359802,0.646301,0.499207,down
522437,-19.445312,17.863281,0.097656,12.833984,-0.210937,2.228516,0.451233,-0.359802,0.646301,0.499207,down
522442,-14.890625,16.105469,2.972656,9.972656,-2.333984,0.884766,0.451233,-0.359802,0.646301,0.499207,down
522447,-9.375,13.535156,8.179688,6.458984,-3.396484,0.132812,0.451233,-0.359802,0.646301,0.499207,down
522453,-5.007812,12.160156,9.175781,2.683594,-2.509766,-0.068359,0.490417,-0.274597,0.714905,0.415894,down
522459,-5.3125,-0.101563,-0.820312,2.683594,-2.509766,-0.068359,0.488403,-0.278503,0.710754,0.422729,down
522464,-4.234375,-0.867187,0.40625,-6.134766,-0.853516,0.310547,0.485046,-0.284424,0.704285,0.433289,down
522469,-3.628906,-0.828125,1.785156,-6.421875,-1.333984,0.441406,0.485046,-0.284424,0.704285,0.433289,down
522474,-3.398438,-0.636719,3.316406,-7.652344,-1.189453,0.675781,0.485046,-0.284424,0.704285,0.433289,down
522480,-3.242188,0.742187,4.078125,-7.652344,-1.189453,0.675781,0.485046,-0.284424,0.704285,0.433289,down
522485,-3.820313,1.429688,3.855469,-11.230469,0.335938,1.441406,0.485046,-0.284424,0.704285,0.433289,down
522491,-4.277344,1.890625,2.933594,-12.494141,1.017578,1.615234,0.485046,-0.284424,0.704285,0.433289,down
522497,-5.460937,0.703125,-0.515625,-12.494141,1.017578,1.615234,0.485046,-0.284424,0.704285,0.433289,down
522503,-5.882812,-0.523437,-3.117188,-7.474609,0.757812,1.652344,0.485046,-0.284424,0.704285,0.433289,down
522508,-6.269531,-0.90625,-4.84375,-4.275391,-0.1875,1.8125,0.409485,-0.35907,0.61554,0.569702,down
522513,-6.578125,0.011719,-2.890625,-4.275391,-0.1875,1.8125,0.396729,-0.362305,0.605896,0.58667,down
522518,-6.503906,0.550781,0.023437,-4.275391,-0.1875,1.8125,0.395142,-0.358337,0.606628,0.589478,down
522523,-6.226562,0.664062,2.015625,2.753906,-0.064453,1.492188,0.395142,-0.358337,0.606628,0.589478,down
522528,-6.691406,1.851563,1.285156,2.753906,-0.064453,1.492188,0.395142,-0.353271,0.610596,0.588379,down
522533,-7.152344,2.386719,0.480469,2.753906,-0.064453,1.492188,0.39563,-0.344238,0.624146,0.579163,down
522538,-7.304687,2.925781,-0.324219,5.21875,1.373047,0.972656,0.39563,-0.344238,0.624146,0.579163,down
522543,-7.496094,3.460938,-1.011719,5.884766,1.353516,0.806641,0.39624,-0.339294,0.63385,0.571045,down
522549,-8.148438,4.113281,-2.199219,5.884766,1.353516,0.806641,0.399475,-0.329041,0.653687,0.552124,down
522554,-8.335938,4.265625,-2.582031,6.240234,0.462891,0.433594,0.402893,-0.322327,0.664429,0.54071,down
522560,-8.261719,4.378906,-2.085938,6.240234,0.462891,0.433594,0.406433,-0.31665,0.671814,0.532166,down
522566,-8.035156,4.648437,-0.476562,4.693359,-0.701172,0.193359,0.406433,-0.31665,0.671814,0.532166,down
522572,-7.726562,4.761719,0.289063,3.429688,-0.890625,0.128906,0.406433,-0.31665,0.671814,0.532166,down
522577,-7.839844,4.953125,0.597656,2.128906,-0.703125,0.101563,0.406433,-0.31665,0.671814,0.532166,down
522582,-7.730469,5.03125,0.519531,0.560547,-0.328125,0.089844,0.406433,-0.31665,0.671814,0.532166,down
522587,-8.109375,4.761719,-0.09375,0.560547,-0.328125,0.089844,0.420227,-0.298401,0.687012,0.512207,down
522592,-8.453125,4.609375,-0.78125,0.560547,-0.328125,0.089844,0.418396,-0.300171,0.685669,0.514526,down
522598,-8.722656,4.726562,-0.898437,-3.023438,0.625,0.271484,0.41095,-0.307068,0.679565,0.524414,down
522603,-9.183594,4.648437,-0.898437,-3.023438,0.625,0.271484,0.406128,-0.311218,0.675171,0.531372,down
522608,-9.378906,4.609375,-0.820312,-4.783203,0.658203,0.630859,0.406128,-0.311218,0.675171,0.531372,down
522613,-9.566406,4.609375,-0.9375,-4.783203,0.658203,0.630859,0.394897,-0.320251,0.664978,0.547119,down
522618,-9.757813,4.417969,-1.128906,-4.783203,0.658203,0.630859,0.394897,-0.320251,0.664978,0.547119,down
522623,-9.644531,4.304687,-1.242188,-4.783203,0.658203,0.630859,0.38324,-0.328491,0.654724,0.562622,down
522628,-9.792969,4.265625,-1.28125,-4.783203,0.658203,0.630859,0.38324,-0.328491,0.654724,0.562622,down
522633,-9.757813,4.304687,-1.242188,-2.972656,0.464844,0.724609,0.375,-0.332947,0.648682,0.57251,down
522638,-9.761719,4.265625,-0.9375,-2.972656,0.464844,0.724609,0.375,-0.332947,0.648682,0.57251,down
522643,-9.679688,4.304687,-0.972656,-1.283203,0.369141,0.675781,0.369507,-0.334351,0.64679,0.577332,down
522648,-9.488281,4.417969,-0.972656,-1.283203,0.369141,0.675781,0.369507,-0.334351,0.64679,0.577332,down
522653,-9.410156,4.570312,-0.972656,1.484375,0.416016,0.439453,0.369507,-0.334351,0.64679,0.577332,down
522659,-9.140625,5.03125,-0.972656,1.484375,0.416016,0.439453,0.367737,-0.331177,0.653381,0.572937,down
522664,-9.257813,5.300781,-0.78125,2.455078,0.363281,0.351563,0.36853,-0.328735,0.657715,0.568787,down
522669,-9.605469,5.605469,-0.898437,2.441406,0.318359,0.291016,0.369507,-0.326477,0.661743,0.564758,down
522675,-9.789063,5.875,-1.011719,2.285156,0.193359,0.208984,0.370544,-0.324463,0.665222,0.561157,down
522680,-9.378906,5.835937,-1.011719,2.285156,0.193359,0.208984,0.371887,-0.322205,0.66864,0.557495,down
522686,-9.179688,5.796875,-0.78125,1.894531,-0.130859,0.035156,0.371887,-0.322205,0.66864,0.557495,down
522691,-9.066406,5.796875,-0.515625,1.597656,-0.222656,-0.023437,0.371887,-0.322205,0.66864,0.557495,down
522696,-8.722656,5.644531,-0.207031,1.597656,-0.222656,-0.023437,0.376587,-0.316772,0.675415,0.549255,down
522701,-8.605469,5.53125,-0.09375,0.507812,-0.177734,-0.021484,0.376587,-0.316772,0.675415,0.549255,down
522708,-8.53125,5.03125,-0.359375,-0.136719,-0.091797,0.011719,0.376587,-0.316772,0.675415,0.549255,down
522713,-8.53125,4.761719,-0.628906,-0.623047,-0.019531,0.042969,0.377625,-0.315735,0.675903,0.548462,down
522719,-8.453125,4.535156,-0.707031,-1.169922,-0.072266,0.068359,0.377625,-0.315735,0.675903,0.548462,down
522724,-8.339844,4.304687,-0.707031,-1.169922,-0.072266,0.068359,0.375061,-0.318176,0.671753,0.553894,down
522729,-8.191406,4.148437,-0.550781,-1.169922,-0.072266,0.068359,0.374268,-0.319031,0.670166,0.555908,down
522735,-7.957031,3.84375,-0.476562,-1.169922,-0.072266,0.068359,0.373291,-0.319885,0.668457,0.558105,down
522741,-7.875,3.765625,-0.476562,-0.791016,-0.033203,0.072266,0.372498,-0.320618,0.667175,0.559753,down
522746,-7.796875,3.921875,-0.515625,-0.791016,-0.033203,0.072266,0.372498,-0.320618,0.667175,0.559753,down
522751,-7.953125,4.148437,-0.476562,-0.119141,0.0,0.113281,0.372498,-0.320618,0.667175,0.559753,down
522757,-7.839844,4.113281,-0.476562,0.228516,0.029297,0.144531,0.372498,-0.320618,0.667175,0.559753,down
522762,-7.730469,4.304687,-0.476562,0.550781,0.039063,0.160156,0.372498,-0.320618,0.667175,0.559753,down
522767,-7.917969,4.378906,-0.4375,0.767578,0.060547,0.173828,0.372498,-0.320618,0.667175,0.559753,down
522772,-7.730469,4.417969,-0.398438,0.767578,0.060547,0.173828,0.371887,-0.318542,0.669495,0.558533,down
522777,-7.917969,4.496094,-0.285156,1.035156,0.048828,0.181641,0.371887,-0.318542,0.669495,0.558533,down
522782,-8.257813,4.839844,-0.4375,1.035156,0.048828,0.181641,0.372803,-0.316223,0.672791,0.555298,down
522788,-8.335938,4.878906,-0.628906,1.035156,0.048828,0.181641,0.373169,-0.315186,0.674316,0.553772,down
522793,-8.21875,4.839844,-0.667969,0.757812,0.021484,0.099609,0.373169,-0.315186,0.674316,0.553772,down
522799,-8.191406,4.953125,-0.550781,0.578125,-0.060547,0.058594,0.374451,-0.312805,0.677307,0.550598,down
522804,-8.1875,5.144531,-0.4375,0.578125,-0.060547,0.058594,0.374878,-0.312317,0.677612,0.550232,down
522809,-8.152344,5.183594,-0.476562,-0.142578,-0.121094,-0.001953,0.374878,-0.312317,0.677612,0.550232,down
522814,-8.21875,5.222656,-0.589844,-0.142578,-0.121094,-0.001953,0.375061,-0.312256,0.677063,0.550842,down
522819,-8.21875,5.222656,-0.589844,-0.142578,-0.121094,-0.001953,0.374939,-0.3125,0.676331,0.551636,down
522825,-8.191406,5.144531,-0.742187,-0.142578,-0.121094,-0.001953,0.374756,-0.312927,0.675293,0.552795,down
522830,-8.152344,5.144531,-0.820312,-0.587891,-0.179687,-0.025391,0.374573,-0.313293,0.674316,0.553894,down
522835,-8.070313,5.070312,-0.859375,-0.587891,-0.179687,-0.025391,0.374451,-0.313599,0.673462,0.554871,down
522840,-8.03125,5.03125,-0.898437,-0.587891,-0.179687,-0.025391,0.374451,-0.313599,0.673462,0.554871,down
522845,-8.03125,4.917969,-1.011719,-0.435547,-0.189453,0.003906,0.374451,-0.313599,0.673462,0.554871,down
522850,-8.070313,4.726562,-1.050781,-0.3125,-0.152344,0.007813,0.374451,-0.313599,0.673462,0.554871,down
522855,-8.152344,4.609375,-1.089844,-0.169922,-0.136719,0.017578,0.374451,-0.313599,0.673462,0.554871,down
522861,-8.035156,4.648437,-1.011719,-0.169922,-0.136719,0.017578,0.37439,-0.314026,0.670471,0.558289,down
522866,-8.074219,4.800781,-1.050781,0.150391,-0.130859,0.005859,0.37439,-0.314026,0.670471,0.558289,down
522871,-8.074219,4.953125,-1.050781,0.294922,-0.101563,-0.001953,0.37439,-0.314026,0.670471,0.558289,down
522876,-8.03125,5.375,-1.164063,0.408203,-0.068359,-0.001953,0.37439,-0.314026,0.670471,0.558289,down
522882,-8.035156,5.566406,-1.203125,0.503906,-0.054687,0.019531,0.37439,-0.314026,0.670471,0.558289,down
522887,-8.035156,5.722656,-1.164063,0.556641,-0.044922,0.048828,0.37439,-0.314026,0.670471,0.558289,down
522892,-8.03125,5.875,-1.164063,0.556641,-0.044922,0.048828,0.376526,-0.311157,0.67334,0.554993,down
522898,-8.03125,5.988281,-1.164063,0.556641,-0.044922,0.048828,0.377075,-0.309753,0.675049,0.553284,down
522903,-8.074219,5.988281,-1.203125,0.556641,-0.044922,0.048828,0.377075,-0.309753,0.675049,0.553284,down
522909,-8.074219,5.914062,-1.164063,0.46875,0.039063,0.132812,0.377075,-0.309753,0.675049,0.553284,down
522914,-8.074219,5.914062,-1.164063,0.46875,0.039063,0.132812,0.377319,-0.307983,0.677429,0.55127,down
522920,-8.109375,5.875,-1.164063,0.46875,0.039063,0.132812,0.377197,-0.307495,0.677979,0.550903,down
522925,-8.109375,5.875,-1.164063,0.181641,0.035156,0.167969,0.377014,-0.307007,0.678528,0.550598,down
522931,-8.152344,5.988281,-1.128906,0.181641,0.035156,0.167969,0.376892,-0.306641,0.678894,0.550476,down
522937,-8.148438,6.027344,-1.164063,0.091797,0.009766,0.167969,0.376648,-0.306274,0.679321,0.550354,down
522942,-8.070313,5.988281,-1.089844,0.060547,0.0,0.171875,0.376648,-0.306274,0.679321,0.550354,down
522947,-8.074219,5.949219,-1.089844,0.060547,0.0,0.171875,0.377441,-0.304138,0.680481,0.549561,down
522952,-8.035156,5.914062,-1.128906,0.060547,0.0,0.171875,0.377441,-0.304138,0.680481,0.549561,down
522957,-7.992187,5.875,-1.128906,-0.019531,-0.009766,0.154297,0.377441,-0.304138,0.680481,0.549561,down
522963,-7.992187,5.835937,-1.089844,-0.019531,-0.009766,0.154297,0.378296,-0.301331,0.681763,0.548889,down
522969,-7.835937,5.683594,-1.089844,-0.019531,-0.009766,0.154297,0.378784,-0.299683,0.682373,0.548706,down
522974,-7.839844,5.605469,-1.128906,-0.019531,-0.009766,0.154297,0.378784,-0.299683,0.682373,0.548706,down
522979,-7.796875,5.566406,-1.128906,-0.060547,-0.050781,0.15625,0.379211,-0.298035,0.682922,0.548645,down
522984,-7.765625,5.53125,-1.128906,-0.060547,-0.050781,0.15625,0.379456,-0.297241,0.683167,0.548645,down
522989,-7.765625,5.492187,-1.128906,-0.103516,-0.039063,0.175781,0.379456,-0.297241,0.683167,0.548645,down
522994,-7.730469,5.453125,-1.128906,-0.103516,-0.039063,0.175781,0.379578,-0.296387,0.68335,0.548706,down
522999,-7.6875,5.414062,-1.164063,-0.107422,-0.033203,0.177734,0.379578,-0.296387,0.68335,0.548706,down
523004,-7.6875,5.414062,-1.164063,-0.083984,-0.019531,0.195312,0.3797,-0.294983,0.683716,0.54895,down
523009,-7.648437,5.414062,-1.128906,-0.083984,-0.019531,0.195312,0.3797,-0.294312,0.683899,0.549133,down
523014,-7.730469,5.414062,-1.128906,-0.083984,-0.019531,0.195312,0.379639,-0.293701,0.684082,0.549194,down
523019,-7.726562,5.414062,-1.164063,-0.007813,0.019531,0.208984,0.379639,-0.293701,0.684082,0.549194,down
523024,-7.765625,5.453125,-1.128906,-0.007813,0.019531,0.208984,0.379639,-0.292297,0.684753,0.549194,down
523029,-7.800781,5.492187,-1.128906,0.046875,0.048828,0.208984,0.379639,-0.291504,0.685181,0.549072,down
523034,-7.800781,5.453125,-1.128906,0.046875,0.048828,0.208984,0.379639,-0.29071,0.685608,0.548889,down
523039,-7.765625,5.375,-1.089844,0.046875,0.048828,0.208984,0.379578,-0.289185,0.686646,0.548523,down
523044,-7.765625,5.375,-1.089844,0.046875,0.048828,0.208984,0.379578,-0.289185,0.686646,0.548523,down
523049,-7.730469,5.414062,-1.011719,0.111328,0.070312,0.220703,0.379578,-0.289185,0.686646,0.548523,down
523054,-7.6875,5.375,-1.050781,0.111328,0.070312,0.220703,0.379272,-0.287048,0.688232,0.547791,down
523059,-7.652344,5.375,-1.050781,0.111328,0.070312,0.220703,0.37915,-0.286316,0.688782,0.547607,down
523064,-7.652344,5.339844,-0.972656,0.111328,0.070312,0.220703,0.37915,-0.286316,0.688782,0.547607,down
523069,-7.652344,5.339844,-0.972656,0.095703,0.078125,0.236328,0.37915,-0.286316,0.688782,0.547607,down
523074,-7.652344,5.339844,-1.011719,0.095703,0.078125,0.236328,0.378906,-0.284851,0.68988,0.54718,down
523079,-7.652344,5.300781,-0.898437,0.095703,0.078125,0.236328,0.378723,-0.284119,0.690369,0.546997,down
523084,-7.648437,5.300781,-0.972656,0.056641,0.066406,0.230469,0.378479,-0.283386,0.690918,0.546875,down
523089,-7.652344,5.261719,-0.9375,0.056641,0.066406,0.230469,0.378357,-0.282776,0.691345,0.546753,down
523094,-7.652344,5.222656,-0.972656,0.056641,0.066406,0.230469,0.378174,-0.282104,0.691772,0.546631,down
