timestamp,ax,ay,az,gx,gy,gz,qw,qx,qy,qz,label
442223,4.5,7.742187,-3.332031,-0.074219,0.007813,-0.115234,0.107361,-0.269043,-0.790771,-0.539246,down
442228,4.539062,7.742187,-3.292969,-0.060547,-0.001953,-0.107422,0.107361,-0.269043,-0.790771,-0.539246,down
442234,4.5,7.703125,-3.253906,-0.042969,-0.015625,-0.099609,0.107361,-0.269043,-0.790771,-0.539246,down
442240,4.460937,7.824219,-3.292969,-0.042969,-0.015625,-0.099609,0.108887,-0.263794,-0.792236,-0.539368,down
442245,4.425781,7.859375,-3.332031,-0.042969,-0.015625,-0.099609,0.108887,-0.263794,-0.792236,-0.539368,down
442250,4.425781,7.976562,-3.40625,0.041016,-0.054687,-0.085937,0.109314,-0.261963,-0.792969,-0.539062,down
442255,4.425781,8.046875,-3.445313,0.041016,-0.054687,-0.085937,0.109436,-0.261169,-0.793335,-0.53894,down
442260,4.460937,8.050781,-3.484375,0.041016,-0.054687,-0.085937,0.109436,-0.261169,-0.793335,-0.53894,down
442265,4.460937,8.085938,-3.558594,-0.001953,-0.099609,-0.095703,0.109619,-0.259583,-0.793945,-0.538696,down
442270,4.425781,8.167969,-3.714844,-0.001953,-0.099609,-0.095703,0.109619,-0.259583,-0.793945,-0.538696,down
442275,4.425781,8.164063,-3.75,-0.001953,-0.099609,-0.095703,0.109558,-0.258118,-0.794373,-0.538818,down
442280,4.5,8.164063,-3.75,-0.001953,-0.099609,-0.095703,0.109558,-0.258118,-0.794373,-0.538818,down
442285,4.460937,8.125,-3.75,-0.171875,-0.113281,-0.119141,0.109314,-0.256775,-0.794556,-0.539307,down
442290,4.460937,8.164063,-3.75,-0.171875,-0.113281,-0.119141,0.109314,-0.256775,-0.794556,-0.539307,down
442295,4.386719,8.203125,-3.714844,-0.171875,-0.113281,-0.119141,0.109131,-0.256042,-0.794556,-0.539612,down
442300,4.386719,8.167969,-3.675781,-0.291016,-0.085937,-0.144531,0.109131,-0.256042,-0.794556,-0.539612,down
442305,4.308594,8.050781,-3.523438,-0.291016,-0.085937,-0.144531,0.108704,-0.2547,-0.794434,-0.540588,down
442310,4.308594,8.015625,-3.484375,-0.291016,-0.085937,-0.144531,0.108459,-0.253967,-0.794312,-0.541138,down
442315,4.269531,7.980469,-3.445313,-0.291016,-0.085937,-0.144531,0.108215,-0.253296,-0.794189,-0.541687,down
442321,4.195312,7.980469,-3.40625,-0.285156,-0.09375,-0.146484,0.107666,-0.252014,-0.794006,-0.542664,down
442326,4.15625,8.085938,-3.367188,-0.285156,-0.09375,-0.146484,0.107483,-0.251404,-0.793945,-0.54303,down
442331,4.195312,8.167969,-3.40625,-0.21875,-0.109375,-0.123047,0.107483,-0.251404,-0.793945,-0.54303,down
442336,4.195312,8.246094,-3.484375,-0.208984,-0.121094,-0.117188,0.107178,-0.250793,-0.793884,-0.543457,down
442342,4.230469,8.285156,-3.558594,-0.208984,-0.121094,-0.117188,0.106689,-0.249756,-0.793823,-0.544128,down
442347,4.269531,8.28125,-3.558594,-0.208984,-0.121094,-0.117188,0.106567,-0.249329,-0.793823,-0.544373,down
442352,4.269531,8.324219,-3.523438,-0.162109,-0.142578,-0.03125,0.106567,-0.249329,-0.793823,-0.544373,down
442357,4.308594,8.320313,-3.636719,-0.138672,-0.132812,-0.003906,0.106567,-0.249329,-0.793823,-0.544373,down
442363,4.308594,8.324219,-3.675781,-0.138672,-0.132812,-0.003906,0.106567,-0.249329,-0.793823,-0.544373,down
442368,4.347656,8.320313,-3.675781,-0.103516,-0.132812,0.052734,0.106567,-0.249329,-0.793823,-0.544373,down
442374,4.347656,8.285156,-3.675781,-0.101563,-0.119141,0.082031,0.106567,-0.249329,-0.793823,-0.544373,down
442379,4.347656,8.246094,-3.675781,-0.099609,-0.097656,0.109375,0.106567,-0.249329,-0.793823,-0.544373,down
442384,4.308594,8.164063,-3.789063,-0.099609,-0.097656,0.109375,0.106567,-0.249329,-0.793823,-0.544373,down
442390,4.347656,8.128906,-3.75,-0.099609,-0.097656,0.109375,0.10675,-0.247742,-0.79364,-0.545288,down
442395,4.347656,8.046875,-3.75,-0.044922,-0.050781,0.158203,0.10675,-0.247742,-0.79364,-0.545288,down
442400,4.386719,7.980469,-3.675781,-0.044922,-0.050781,0.158203,0.1073,-0.247681,-0.793579,-0.545288,down
442405,4.386719,7.976562,-3.636719,-0.044922,-0.050781,0.158203,0.107666,-0.24762,-0.793579,-0.545227,down
442411,4.386719,7.9375,-3.636719,0.003906,-0.023437,0.152344,0.108459,-0.247498,-0.79364,-0.545044,down
442416,4.347656,7.863281,-3.597656,0.015625,-0.015625,0.140625,0.108826,-0.247375,-0.793701,-0.544922,down
442421,4.386719,7.742187,-3.523438,0.015625,-0.015625,0.140625,0.109253,-0.247253,-0.793762,-0.5448,down
442426,4.386719,7.742187,-3.558594,0.015625,-0.015625,0.140625,0.109619,-0.24707,-0.793884,-0.544739,down
442431,4.386719,7.742187,-3.523438,0.015625,-0.015625,0.140625,0.109985,-0.247009,-0.793945,-0.544617,down
442436,4.425781,7.707031,-3.523438,0.015625,-0.015625,0.140625,0.110352,-0.246826,-0.794006,-0.544495,down
442441,4.5,7.746094,-3.558594,0.003906,-0.021484,0.101563,0.110352,-0.246826,-0.794006,-0.544495,down
442446,4.460937,7.820312,-3.484375,0.0,-0.039063,0.103516,0.110657,-0.246704,-0.794006,-0.544434,down
442451,4.460937,7.78125,-3.445313,0.0,-0.039063,0.103516,0.111206,-0.24646,-0.794128,-0.54425,down
442456,4.5,7.785156,-3.40625,0.0,-0.039063,0.103516,0.111389,-0.246399,-0.794189,-0.544189,down
442461,4.5,7.78125,-3.445313,-0.037109,-0.082031,0.111328,0.111389,-0.246399,-0.794189,-0.544189,down
442466,4.539062,7.746094,-3.484375,-0.050781,-0.101563,0.107422,0.111511,-0.246399,-0.794189,-0.544189,down
442472,4.539062,7.746094,-3.484375,-0.066406,-0.121094,0.109375,0.111755,-0.246399,-0.794189,-0.544128,down
442477,4.617187,7.632812,-3.558594,-0.058594,-0.128906,0.095703,0.111755,-0.246521,-0.794128,-0.544128,down
442482,4.652344,7.632812,-3.675781,-0.058594,-0.128906,0.095703,0.111755,-0.246521,-0.794128,-0.544128,down
442487,4.652344,7.632812,-3.675781,-0.058594,-0.128906,0.095703,0.111755,-0.246582,-0.794128,-0.544128,down
442492,4.617187,7.632812,-3.675781,-0.058594,-0.128906,0.095703,0.111755,-0.246521,-0.794189,-0.544067,down
442498,4.617187,7.632812,-3.675781,-0.058594,-0.128906,0.095703,0.111755,-0.246521,-0.794189,-0.544067,down
442505,4.617187,7.632812,-3.75,-0.037109,-0.103516,0.048828,0.111755,-0.246521,-0.794189,-0.544067,down
442511,4.578125,7.636719,-3.714844,-0.021484,-0.085937,0.037109,0.111816,-0.246277,-0.794312,-0.543945,down
442516,4.539062,7.664062,-3.714844,0.001953,-0.066406,0.021484,0.111816,-0.246277,-0.794312,-0.543945,down
442521,4.578125,7.664062,-3.714844,0.001953,-0.066406,0.021484,0.111877,-0.245911,-0.794556,-0.543823,down
442526,4.5,7.703125,-3.714844,0.001953,-0.066406,0.021484,0.111938,-0.245667,-0.794617,-0.543762,down
442531,4.5,7.742187,-3.714844,0.0,-0.037109,-0.03125,0.111938,-0.245667,-0.794617,-0.543762,down
442536,4.460937,7.78125,-3.714844,0.0,-0.037109,-0.03125,0.112,-0.245117,-0.794861,-0.543701,down
442541,4.425781,7.859375,-3.714844,0.0,-0.037109,-0.03125,0.112,-0.244751,-0.794922,-0.543701,down
442546,4.425781,7.902344,-3.75,-0.039063,-0.029297,-0.078125,0.112,-0.244751,-0.794922,-0.543701,down
442551,4.425781,7.898437,-3.714844,-0.039063,-0.029297,-0.078125,0.111938,-0.243958,-0.795105,-0.543823,down
442556,4.425781,7.941406,-3.714844,-0.039063,-0.029297,-0.078125,0.111938,-0.243958,-0.795105,-0.543823,down
442561,4.386719,7.941406,-3.75,-0.083984,-0.025391,-0.107422,0.111938,-0.243958,-0.795105,-0.543823,down
442566,4.386719,7.941406,-3.75,-0.128906,-0.027344,-0.142578,0.111755,-0.243042,-0.795166,-0.544189,down
442571,4.347656,7.941406,-3.75,-0.128906,-0.027344,-0.142578,0.111328,-0.242065,-0.795166,-0.544678,down
442576,4.347656,7.902344,-3.714844,-0.166016,-0.027344,-0.179687,0.111328,-0.242065,-0.795166,-0.544678,down
442581,4.386719,7.902344,-3.714844,-0.166016,-0.027344,-0.179687,0.11084,-0.241028,-0.795105,-0.54541,down
442586,4.347656,7.820312,-3.636719,-0.197266,-0.029297,-0.210937,0.11084,-0.241028,-0.795105,-0.54541,down
442591,4.308594,7.785156,-3.558594,-0.201172,-0.033203,-0.220703,0.110535,-0.240417,-0.795044,-0.545837,down
442596,4.308594,7.785156,-3.523438,-0.201172,-0.033203,-0.220703,0.109863,-0.239258,-0.794922,-0.546631,down
442601,4.269531,7.785156,-3.558594,-0.201172,-0.033203,-0.220703,0.109436,-0.238647,-0.794861,-0.547058,down
442606,4.195312,7.742187,-3.484375,-0.193359,-0.050781,-0.267578,0.109436,-0.238647,-0.794861,-0.547058,down
442611,4.15625,7.707031,-3.40625,-0.197266,-0.050781,-0.275391,0.109009,-0.237976,-0.7948,-0.547485,down
442616,4.117187,7.746094,-3.40625,-0.197266,-0.050781,-0.275391,0.108093,-0.236633,-0.7948,-0.548279,down
442621,4.117187,7.707031,-3.40625,-0.199219,-0.058594,-0.294922,0.108093,-0.236633,-0.7948,-0.548279,down
442626,4.039062,7.746094,-3.40625,-0.203125,-0.074219,-0.3125,0.107544,-0.235901,-0.794739,-0.548767,down
442631,4.039062,7.667969,-3.367188,-0.203125,-0.074219,-0.3125,0.106995,-0.235229,-0.794739,-0.549194,down
442636,3.964844,7.703125,-3.367188,-0.203125,-0.074219,-0.3125,0.105774,-0.233765,-0.794739,-0.55011,down
442641,4.003906,7.746094,-3.332031,-0.203125,-0.074219,-0.3125,0.105225,-0.233093,-0.794739,-0.550476,down
442646,4.003906,7.746094,-3.332031,-0.203125,-0.074219,-0.3125,0.105225,-0.233093,-0.794739,-0.550476,down
442651,3.964844,7.746094,-3.214844,-0.220703,-0.09375,-0.359375,0.105225,-0.233093,-0.794739,-0.550476,down
442656,3.925781,7.742187,-3.253906,-0.25,-0.115234,-0.380859,0.103821,-0.231567,-0.794678,-0.551392,down
442661,3.925781,7.742187,-3.214844,-0.25,-0.115234,-0.380859,0.103027,-0.230835,-0.794678,-0.551941,down
442667,3.847656,7.742187,-3.140625,-0.25,-0.115234,-0.380859,0.101318,-0.229248,-0.794556,-0.552979,down
442673,3.8125,7.785156,-3.101563,-0.25,-0.115234,-0.380859,0.100464,-0.228577,-0.794556,-0.553467,down
442678,3.8125,7.785156,-3.101563,-0.291016,-0.195312,-0.423828,0.099365,-0.227783,-0.794495,-0.554077,down
442684,3.734375,7.785156,-3.023438,-0.291016,-0.195312,-0.423828,0.099365,-0.227783,-0.794495,-0.554077,down
442689,3.734375,7.859375,-2.910156,-0.291016,-0.195312,-0.423828,0.09729,-0.22644,-0.794373,-0.555176,down
442694,3.621094,7.9375,-2.945313,-0.326172,-0.257813,-0.482422,0.09729,-0.22644,-0.794373,-0.555176,down
442699,3.621094,7.9375,-2.871094,-0.335938,-0.287109,-0.501953,0.09729,-0.22644,-0.794373,-0.555176,down
442705,3.542969,8.015625,-2.871094,-0.335938,-0.287109,-0.501953,0.093323,-0.224182,-0.794189,-0.557068,down
442710,3.464844,8.085938,-2.792969,-0.335938,-0.287109,-0.501953,0.093323,-0.224182,-0.794189,-0.557068,down
442715,3.390625,8.167969,-2.792969,-0.335938,-0.287109,-0.501953,0.09021,-0.222534,-0.793945,-0.558533,down
442720,3.390625,8.167969,-2.792969,-0.484375,-0.386719,-0.685547,0.088379,-0.22168,-0.793823,-0.559387,down
442726,3.351563,8.203125,-2.792969,-0.542969,-0.419922,-0.736328,0.088379,-0.22168,-0.793823,-0.559387,down
442731,3.238281,8.203125,-2.71875,-0.611328,-0.445312,-0.787109,0.08197,-0.218689,-0.79303,-0.562622,down
442736,3.238281,8.242188,-2.71875,-0.765625,-0.486328,-0.875,0.08197,-0.218689,-0.79303,-0.562622,down
442741,3.238281,8.242188,-2.71875,-0.765625,-0.486328,-0.875,0.079529,-0.217651,-0.792664,-0.563965,down
442746,3.160156,8.242188,-2.753906,-0.765625,-0.486328,-0.875,0.076782,-0.216492,-0.792114,-0.565491,down
442751,3.199219,8.246094,-2.753906,-0.962891,-0.542969,-0.96875,0.076782,-0.216492,-0.792114,-0.565491,down
442756,3.121094,8.324219,-2.792969,-0.962891,-0.542969,-0.96875,0.071167,-0.214172,-0.790833,-0.568909,down
442761,3.121094,8.324219,-2.792969,-1.033203,-0.564453,-0.984375,0.068359,-0.213013,-0.7901,-0.57074,down
442766,3.160156,8.28125,-2.792969,-1.033203,-0.564453,-0.984375,0.065552,-0.211914,-0.789307,-0.57251,down
442771,3.121094,8.324219,-2.832031,-1.033203,-0.564453,-0.984375,0.062317,-0.210693,-0.788452,-0.574585,down
442776,3.082031,8.359375,-2.832031,-0.982422,-0.560547,-0.980469,0.062317,-0.210693,-0.788452,-0.574585,down
442781,3.082031,8.359375,-2.832031,-0.9375,-0.564453,-0.976562,0.056641,-0.208374,-0.786865,-0.578125,down
442786,2.929688,8.472656,-2.871094,-0.9375,-0.564453,-0.976562,0.053772,-0.207275,-0.786072,-0.579834,down
442792,2.929688,8.511719,-2.832031,-0.878906,-0.578125,-0.96875,0.047729,-0.204895,-0.784729,-0.583069,down
442797,2.890625,8.628906,-2.792969,-0.791016,-0.591797,-0.949219,0.044922,-0.203857,-0.784119,-0.584473,down
442803,2.777344,8.78125,-2.792969,-0.791016,-0.591797,-0.949219,0.042236,-0.20282,-0.783569,-0.585693,down
442808,2.738281,8.824219,-2.832031,-0.744141,-0.587891,-0.939453,0.042236,-0.20282,-0.783569,-0.585693,down
442813,2.699219,8.820313,-2.871094,-0.726562,-0.595703,-0.9375,0.042236,-0.20282,-0.783569,-0.585693,down
442819,2.660156,8.78125,-2.871094,-0.726562,-0.595703,-0.9375,0.033813,-0.199585,-0.782043,-0.589417,down
442824,2.660156,8.820313,-2.984375,-0.728516,-0.572266,-0.908203,0.033813,-0.199585,-0.782043,-0.589417,down
442830,2.625,8.78125,-2.945313,-0.742187,-0.554687,-0.898437,0.033813,-0.199585,-0.782043,-0.589417,down
442835,2.699219,8.703125,-3.023438,-0.742187,-0.554687,-0.898437,0.025757,-0.196472,-0.780334,-0.59314,down
442840,2.699219,8.746094,-3.0625,-0.716797,-0.486328,-0.849609,0.025757,-0.196472,-0.780334,-0.59314,down
442845,2.699219,8.742188,-3.023438,-0.677734,-0.439453,-0.814453,0.025757,-0.196472,-0.780334,-0.59314,down
442850,2.660156,8.667969,-3.140625,-0.677734,-0.439453,-0.814453,0.018677,-0.193298,-0.778687,-0.596619,down
442855,2.625,8.664063,-3.101563,-0.507812,-0.320313,-0.724609,0.018677,-0.193298,-0.778687,-0.596619,down
442860,2.625,8.78125,-3.0625,-0.398438,-0.28125,-0.667969,0.018677,-0.193298,-0.778687,-0.596619,down
442865,2.585938,8.820313,-3.023438,-0.279297,-0.238281,-0.599609,0.018677,-0.193298,-0.778687,-0.596619,down
442870,2.507813,9.164063,-3.0625,-0.279297,-0.238281,-0.599609,0.012085,-0.18927,-0.777771,-0.599243,down
442875,2.433594,9.316406,-3.023438,0.041016,-0.185547,-0.447266,0.012085,-0.18927,-0.777771,-0.599243,down
442880,2.394531,9.429688,-2.984375,0.162109,-0.197266,-0.365234,0.012085,-0.18927,-0.777771,-0.599243,down
442885,2.355469,9.429688,-2.910156,0.162109,-0.197266,-0.365234,0.009521,-0.187317,-0.77887,-0.598511,down
442890,2.316406,9.433594,-2.984375,0.162109,-0.197266,-0.365234,0.009521,-0.187317,-0.77887,-0.598511,down
442895,2.316406,9.433594,-3.023438,0.162109,-0.197266,-0.365234,0.008667,-0.187012,-0.78009,-0.596985,down
442900,2.316406,9.394531,-3.140625,0.462891,-0.230469,-0.001953,0.008667,-0.187012,-0.78009,-0.596985,down
442905,2.316406,9.433594,-3.175781,0.462891,-0.230469,-0.001953,0.008301,-0.187439,-0.781494,-0.595032,down
442910,2.433594,9.394531,-3.253906,0.462891,-0.230469,-0.001953,0.008301,-0.187439,-0.781494,-0.595032,down
442915,2.46875,9.390625,-3.367188,0.462891,-0.230469,-0.001953,0.008118,-0.188232,-0.782837,-0.593079,down
442920,2.46875,9.429688,-3.484375,0.365234,-0.226562,0.125,0.008118,-0.188232,-0.782837,-0.593079,down
442925,2.585938,9.351563,-3.636719,0.365234,-0.226562,0.125,0.008118,-0.188232,-0.782837,-0.593079,down
442931,2.585938,9.355469,-3.675781,0.365234,-0.226562,0.125,0.008118,-0.189514,-0.784241,-0.590759,down
442936,2.585938,9.355469,-3.675781,0.28125,-0.128906,0.097656,0.008118,-0.189514,-0.784241,-0.590759,down
442941,2.660156,9.277344,-3.636719,0.28125,-0.128906,0.097656,0.008301,-0.190186,-0.784973,-0.589539,down
442947,2.699219,9.125,-3.558594,0.28125,-0.128906,0.097656,0.008545,-0.190491,-0.785828,-0.588257,down
442952,2.699219,9.125,-3.558594,0.28125,-0.128906,0.097656,0.008545,-0.190491,-0.785828,-0.588257,down
442957,2.660156,9.046875,-3.523438,0.314453,-0.023437,0.0,0.008545,-0.190491,-0.785828,-0.588257,down
442962,2.660156,9.011719,-3.484375,0.314453,-0.023437,0.0,0.008972,-0.190369,-0.787231,-0.586487,down
442967,2.660156,9.050781,-3.445313,0.298828,-0.019531,-0.052734,0.008972,-0.190369,-0.787231,-0.586487,down
442972,2.660156,9.046875,-3.40625,0.298828,-0.017578,-0.083984,0.009094,-0.190186,-0.78772,-0.585876,down
442977,2.625,9.007813,-3.445313,0.298828,-0.017578,-0.083984,0.009216,-0.189636,-0.788696,-0.584717,down
442982,2.660156,9.007813,-3.445313,0.298828,-0.017578,-0.083984,0.009155,-0.189392,-0.789185,-0.584167,down
442987,2.625,9.050781,-3.332031,0.298828,-0.017578,-0.083984,0.009155,-0.189392,-0.789185,-0.584167,down
442992,2.625,9.085938,-3.292969,0.232422,-0.054687,-0.119141,0.008972,-0.188843,-0.789978,-0.583252,down
442997,2.660156,9.046875,-3.367188,0.232422,-0.054687,-0.119141,0.008972,-0.188843,-0.789978,-0.583252,down
443002,2.625,9.085938,-3.332031,0.126953,-0.115234,-0.152344,0.008972,-0.188843,-0.789978,-0.583252,down
443007,2.585938,9.085938,-3.332031,0.126953,-0.115234,-0.152344,0.008484,-0.188293,-0.79071,-0.58252,down
443013,2.625,9.007813,-3.332031,0.126953,-0.115234,-0.152344,0.00769,-0.187744,-0.791138,-0.582092,down
443018,2.625,8.972656,-3.40625,0.126953,-0.115234,-0.152344,0.007263,-0.1875,-0.79126,-0.58197,down
443023,2.625,8.972656,-3.40625,-0.013672,-0.150391,-0.210937,0.006775,-0.187195,-0.791382,-0.581909,down
443028,2.625,8.929688,-3.40625,-0.03125,-0.144531,-0.220703,0.006165,-0.186829,-0.791504,-0.581909,down
443033,2.660156,8.894531,-3.445313,-0.03125,-0.144531,-0.220703,0.005554,-0.186523,-0.791565,-0.581909,down
443039,2.660156,8.890625,-3.484375,-0.03125,-0.144531,-0.220703,0.005066,-0.186157,-0.791626,-0.581909,down
443044,2.625,8.929688,-3.484375,-0.037109,-0.125,-0.248047,0.005066,-0.186157,-0.791626,-0.581909,down
443050,2.585938,8.929688,-3.523438,-0.033203,-0.115234,-0.246094,0.005066,-0.186157,-0.791626,-0.581909,down
443056,2.585938,8.890625,-3.523438,-0.033203,-0.115234,-0.246094,0.005066,-0.186157,-0.791626,-0.581909,down
443062,2.546875,8.972656,-3.597656,0.025391,-0.052734,-0.222656,0.005066,-0.186157,-0.791626,-0.581909,down
443067,2.546875,8.933594,-3.558594,0.025391,-0.052734,-0.222656,0.002502,-0.184021,-0.792114,-0.581909,down
443072,2.546875,8.894531,-3.558594,0.089844,-0.025391,-0.205078,0.002136,-0.183533,-0.792358,-0.581848,down
443077,2.585938,8.890625,-3.523438,0.089844,-0.025391,-0.205078,0.001831,-0.183044,-0.792603,-0.581665,down
443082,2.546875,8.933594,-3.523438,0.089844,-0.025391,-0.205078,0.001465,-0.182068,-0.793152,-0.581177,down
443087,2.46875,8.890625,-3.523438,0.089844,-0.025391,-0.205078,0.001404,-0.18158,-0.793396,-0.580933,down
443092,2.46875,8.820313,-3.367188,0.175781,0.046875,-0.179687,0.001404,-0.18158,-0.793396,-0.580933,down
443097,2.433594,8.820313,-3.40625,0.175781,0.046875,-0.179687,0.001282,-0.180542,-0.794128,-0.580322,down
443102,2.394531,8.824219,-3.253906,0.175781,0.046875,-0.179687,0.001282,-0.180542,-0.794128,-0.580322,down
443107,2.394531,8.824219,-3.253906,0.181641,0.066406,-0.175781,0.001282,-0.179932,-0.794495,-0.580017,down
443112,2.316406,8.855469,-3.214844,0.171875,0.046875,-0.179687,0.001282,-0.179443,-0.7948,-0.579712,down
443118,2.277344,8.820313,-3.175781,0.171875,0.046875,-0.179687,0.001221,-0.178406,-0.795532,-0.579102,down
443123,2.242188,8.820313,-3.175781,0.171875,0.046875,-0.179687,0.001099,-0.177856,-0.795837,-0.578796,down
443129,2.242188,8.820313,-3.140625,0.171875,0.046875,-0.179687,0.000977,-0.177368,-0.796082,-0.578613,down
443134,2.203125,8.820313,-3.140625,0.082031,0.007813,-0.212891,0.000977,-0.177368,-0.796082,-0.578613,down
443139,2.203125,8.820313,-3.140625,0.056641,0.0,-0.222656,0.000549,-0.176331,-0.796509,-0.578308,down
443144,2.203125,8.820313,-3.140625,0.056641,0.0,-0.222656,0.000549,-0.176331,-0.796509,-0.578308,down
443149,2.203125,8.820313,-3.140625,0.025391,-0.013672,-0.246094,0.000122,0.175293,0.796814,0.578186,down
443154,2.164063,8.707031,-3.175781,0.025391,-0.013672,-0.246094,0.000122,0.175293,0.796814,0.578186,down
443159,2.164063,8.707031,-3.140625,0.025391,-0.013672,-0.246094,0.001038,0.174255,0.797058,0.578247,down
443164,2.125,8.707031,-3.175781,0.025391,-0.013672,-0.246094,0.001465,0.173584,0.797119,0.578308,down
443170,2.085938,8.742188,-3.101563,-0.0625,-0.039063,-0.333984,0.001465,0.173584,0.797119,0.578308,down
443175,2.050781,8.742188,-3.0625,-0.074219,-0.044922,-0.353516,0.001465,0.173584,0.797119,0.578308,down
443180,2.011719,8.78125,-3.140625,-0.074219,-0.044922,-0.353516,0.003174,0.171509,0.797302,0.578674,down
443185,1.972656,8.78125,-3.140625,-0.126953,-0.052734,-0.400391,0.003174,0.171509,0.797302,0.578674,down
443190,1.933594,8.785156,-3.023438,-0.146484,-0.050781,-0.427734,0.003174,0.171509,0.797302,0.578674,down
443196,1.894531,8.742188,-3.0625,-0.146484,-0.050781,-0.427734,0.005371,0.169006,0.797302,0.579407,down
443202,1.855469,8.742188,-3.023438,-0.242187,-0.083984,-0.494141,0.005371,0.169006,0.797302,0.579407,down
443207,1.820313,8.78125,-3.023438,-0.271484,-0.097656,-0.515625,0.00708,0.167114,0.797119,0.5802,down
443212,1.820313,8.820313,-2.945313,-0.271484,-0.097656,-0.515625,0.008118,0.166077,0.796936,0.58075,down
443217,1.742188,8.78125,-2.910156,-0.271484,-0.097656,-0.515625,0.009216,0.1651,0.796753,0.581238,down
443223,1.742188,8.78125,-2.945313,-0.373047,-0.130859,-0.560547,0.009216,0.1651,0.796753,0.581238,down
443228,1.742188,8.703125,-2.871094,-0.373047,-0.130859,-0.560547,0.012756,0.162048,0.795898,0.583191,down
443234,1.703125,8.625,-2.832031,-0.373047,-0.130859,-0.560547,0.013916,0.161133,0.795593,0.583862,down
443239,1.703125,8.625,-2.832031,-0.431641,-0.177734,-0.613281,0.015381,0.160034,0.795166,0.584656,down
443245,1.664063,8.625,-2.792969,-0.431641,-0.177734,-0.613281,0.015381,0.160034,0.795166,0.584656,down
443250,1.628906,8.667969,-2.792969,-0.427734,-0.193359,-0.652344,0.015381,0.160034,0.795166,0.584656,down
443256,1.628906,8.707031,-2.753906,-0.421875,-0.207031,-0.664062,0.015381,0.160034,0.795166,0.584656,down
443261,1.589844,8.785156,-2.792969,-0.431641,-0.220703,-0.683594,0.015381,0.160034,0.795166,0.584656,down
443267,1.589844,8.820313,-2.792969,-0.445312,-0.220703,-0.726562,0.015381,0.160034,0.795166,0.584656,down
443272,1.472656,8.972656,-2.832031,-0.445312,-0.220703,-0.726562,0.024353,0.153381,0.792969,0.589111,down
443277,1.472656,8.972656,-2.832031,-0.445312,-0.220703,-0.726562,0.026184,0.152039,0.792542,0.589966,down
443283,1.4375,9.046875,-2.871094,-0.466797,-0.242187,-0.755859,0.029602,0.149597,0.791748,0.591553,down
443288,1.4375,9.128906,-2.910156,-0.466797,-0.242187,-0.755859,0.031616,0.148193,0.791199,0.592468,down
443293,1.4375,9.207031,-2.871094,-0.533203,-0.253906,-0.810547,0.031616,0.148193,0.791199,0.592468,down
443298,1.359375,9.164063,-2.871094,-0.533203,-0.253906,-0.810547,0.035217,0.145569,0.790222,0.594238,down
443303,1.398438,9.050781,-2.792969,-0.603516,-0.242187,-0.824219,0.035217,0.145569,0.790222,0.594238,down
443308,1.359375,9.007813,-2.832031,-0.603516,-0.242187,-0.824219,0.03894,0.142822,0.789001,0.596252,down
443314,1.246094,8.929688,-2.753906,-0.603516,-0.242187,-0.824219,0.040833,0.141418,0.78833,0.597412,down
443319,1.246094,8.890625,-2.753906,-0.628906,-0.197266,-0.802734,0.04248,0.140137,0.78772,0.598389,down
443325,1.167969,8.851563,-2.640625,-0.628906,-0.197266,-0.802734,0.044189,0.138733,0.787048,0.599487,down
443331,1.128906,8.890625,-2.601563,-0.576172,-0.177734,-0.775391,0.044189,0.138733,0.787048,0.599487,down
443336,1.054688,8.851563,-2.601563,-0.541016,-0.158203,-0.761719,0.044189,0.138733,0.787048,0.599487,down
443342,0.898437,8.851563,-2.5625,-0.472656,-0.152344,-0.744141,0.044189,0.138733,0.787048,0.599487,down
443347,0.824219,8.894531,-2.5625,-0.404297,-0.140625,-0.728516,0.044189,0.138733,0.787048,0.599487,down
443353,0.785156,8.820313,-2.527344,-0.259766,-0.128906,-0.695312,0.044189,0.138733,0.787048,0.599487,down
443358,0.785156,8.78125,-2.449219,-0.259766,-0.128906,-0.695312,0.053528,0.130615,0.784302,0.604126,down
443364,0.707031,8.78125,-2.449219,-0.259766,-0.128906,-0.695312,0.056091,0.128174,0.784119,0.604614,down
443369,0.707031,8.820313,-2.410156,-0.070312,-0.117188,-0.65625,0.056091,0.128174,0.784119,0.604614,down
443374,0.632812,8.820313,-2.371094,-0.042969,-0.111328,-0.65625,0.056091,0.128174,0.784119,0.604614,down
443379,0.632812,8.855469,-2.335938,-0.042969,-0.111328,-0.65625,0.059753,0.124634,0.784424,0.604614,down
443385,0.554687,8.894531,-2.335938,-0.042969,-0.111328,-0.65625,0.060913,0.123413,0.784607,0.604492,down
443390,0.515625,8.890625,-2.296875,-0.029297,-0.119141,-0.673828,0.060913,0.123413,0.784607,0.604492,down
443396,0.441406,8.96875,-2.257813,-0.029297,-0.119141,-0.673828,0.063416,0.120972,0.784912,0.60437,down
443401,0.402344,8.933594,-2.296875,-0.138672,-0.144531,-0.708984,0.063416,0.120972,0.784912,0.60437,down
443407,0.363281,8.929688,-2.257813,-0.212891,-0.150391,-0.736328,0.063416,0.120972,0.784912,0.60437,down
443412,0.285156,8.855469,-2.257813,-0.292969,-0.166016,-0.755859,0.063416,0.120972,0.784912,0.60437,down
443417,0.25,8.820313,-2.257813,-0.292969,-0.166016,-0.755859,0.069214,0.115845,0.784363,0.605469,down
443422,0.25,8.820313,-2.257813,-0.408203,-0.1875,-0.794922,0.070923,0.114441,0.783936,0.606018,down
443427,0.25,8.820313,-2.257813,-0.435547,-0.189453,-0.816406,0.07251,0.113098,0.783508,0.606628,down
443432,0.210937,8.742188,-2.296875,-0.435547,-0.189453,-0.816406,0.07428,0.111633,0.78302,0.607361,down
443437,0.171875,8.664063,-2.21875,-0.445312,-0.208984,-0.845703,0.07605,0.110229,0.782593,0.607971,down
443443,0.171875,8.585938,-2.21875,-0.427734,-0.212891,-0.863281,0.079712,0.107239,0.781677,0.609253,down
443449,0.132812,8.546875,-2.144531,-0.427734,-0.212891,-0.863281,0.081665,0.105652,0.78125,0.609741,down
443454,0.132812,8.511719,-2.144531,-0.427734,-0.212891,-0.863281,0.083679,0.104004,0.780884,0.610229,down
443459,0.058594,8.546875,-2.144531,-0.253906,-0.216797,-0.898437,0.085327,0.1026,0.780701,0.610474,down
443465,-0.019531,8.707031,-2.027344,-0.253906,-0.216797,-0.898437,0.087097,0.101135,0.780518,0.610718,down
443471,-0.25,8.96875,-2.066406,-0.253906,-0.216797,-0.898437,0.087097,0.101135,0.780518,0.610718,down
443476,-0.289063,9.046875,-2.027344,-0.177734,-0.242187,-0.939453,0.087097,0.101135,0.780518,0.610718,down
443482,-0.363281,9.167969,-2.027344,-0.201172,-0.261719,-0.964844,0.087097,0.101135,0.780518,0.610718,down
443487,-0.519531,9.234375,-2.027344,-0.263672,-0.279297,-1.013672,0.087097,0.101135,0.780518,0.610718,down
443492,-0.554687,9.203125,-2.027344,-0.263672,-0.279297,-1.013672,0.097046,0.093262,0.779846,0.611328,down
443498,-0.59375,9.203125,-1.949219,-0.328125,-0.316406,-1.041016,0.097046,0.093262,0.779846,0.611328,down
443503,-0.59375,9.203125,-1.949219,-0.328125,-0.316406,-1.041016,0.101379,0.089966,0.779297,0.611877,down
443508,-0.59375,9.203125,-1.949219,-0.328125,-0.316406,-1.041016,0.103882,0.088074,0.77887,0.612183,down
443513,-0.59375,9.167969,-1.875,-0.304688,-0.345703,-1.072266,0.103882,0.088074,0.77887,0.612183,down
443518,-0.632812,9.207031,-1.875,-0.304688,-0.345703,-1.072266,0.108582,0.084717,0.778137,0.612793,down
443524,-0.710937,9.273438,-1.835938,-0.304688,-0.345703,-1.072266,0.113098,0.081543,0.777588,0.613098,down
443529,-0.746094,9.273438,-1.835938,-0.169922,-0.353516,-1.076172,0.115784,0.079651,0.777405,0.613098,down
443535,-0.863281,9.390625,-1.875,-0.169922,-0.353516,-1.076172,0.118164,0.078003,0.777283,0.612976,down
443540,-0.863281,9.429688,-1.835938,-0.080078,-0.398438,-1.0625,0.118164,0.078003,0.777283,0.612976,down
443547,-0.976562,9.511719,-1.835938,-0.080078,-0.398438,-1.0625,0.118164,0.078003,0.777283,0.612976,down
443552,-0.976562,9.589844,-1.875,-0.037109,-0.417969,-1.035156,0.118164,0.078003,0.777283,0.612976,down
443557,-1.054688,9.695313,-1.875,-0.035156,-0.433594,-1.021484,0.118164,0.078003,0.777283,0.612976,down
443562,-1.167969,9.699219,-1.914063,-0.035156,-0.433594,-1.021484,0.118164,0.078003,0.777283,0.612976,down
443568,-1.207031,9.699219,-1.914063,-0.207031,-0.443359,-1.029297,0.118164,0.078003,0.777283,0.612976,down
443573,-1.207031,9.589844,-1.914063,-0.207031,-0.443359,-1.029297,0.134766,0.068176,0.776794,0.611328,down
443578,-1.246094,9.550781,-1.949219,-0.207031,-0.443359,-1.029297,0.13739,0.066589,0.776428,0.611389,down
443583,-1.246094,9.507813,-1.949219,-0.455078,-0.408203,-1.027344,0.139648,0.065247,0.776001,0.611633,down
443588,-1.246094,9.429688,-1.914063,-0.455078,-0.408203,-1.027344,0.142212,0.063599,0.77533,0.612061,down
443594,-1.285156,9.351563,-1.949219,-0.455078,-0.408203,-1.027344,0.14679,0.060425,0.773926,0.613037,down
443600,-1.246094,9.273438,-1.988281,-0.455078,-0.408203,-1.027344,0.148987,0.058777,0.773254,0.613525,down
443605,-1.285156,9.316406,-1.988281,-0.390625,-0.273438,-0.976562,0.151184,0.057007,0.772583,0.614014,down
443612,-1.320313,9.3125,-1.949219,-0.289063,-0.236328,-0.958984,0.151184,0.057007,0.772583,0.614014,down
443617,-1.359375,9.433594,-1.988281,-0.289063,-0.236328,-0.958984,0.151184,0.057007,0.772583,0.614014,down
443622,-1.359375,9.433594,-1.988281,-0.021484,-0.179687,-0.919922,0.156799,0.052307,0.771729,0.614075,down
443627,-1.4375,9.394531,-1.949219,0.119141,-0.169922,-0.912109,0.156799,0.052307,0.771729,0.614075,down
443632,-1.550781,9.433594,-1.988281,0.236328,-0.167969,-0.90625,0.160217,0.049377,0.772217,0.612854,down
443637,-1.628906,9.617188,-1.914063,0.236328,-0.167969,-0.90625,0.161865,0.047974,0.772644,0.611938,down
443642,-1.742188,9.660156,-1.875,0.423828,-0.207031,-0.914062,0.161865,0.047974,0.772644,0.611938,down
443647,-1.78125,9.894531,-1.914063,0.423828,-0.207031,-0.914062,0.165405,0.045288,0.773987,0.609558,down
443652,-1.933594,10.121094,-1.914063,0.423828,-0.207031,-0.914062,0.165405,0.045288,0.773987,0.609558,down
443657,-2.011719,10.199219,-1.835938,0.423828,-0.207031,-0.914062,0.169128,0.042847,0.775269,0.607056,down
443662,-2.089844,10.351563,-1.796875,0.300781,-0.332031,-0.962891,0.169128,0.042847,0.775269,0.607056,down
443667,-2.164063,10.355469,-1.796875,0.300781,-0.332031,-0.962891,0.173218,0.040283,0.776062,0.605042,down
443672,-2.28125,10.351563,-1.875,0.300781,-0.332031,-0.962891,0.173218,0.040283,0.776062,0.605042,down
443677,-2.242188,10.277344,-1.875,0.300781,-0.332031,-0.962891,0.177856,0.037292,0.775879,0.604126,down
443682,-2.242188,10.238281,-1.835938,-0.378906,-0.4375,-1.058594,0.177856,0.037292,0.775879,0.604126,down
443688,-2.242188,9.96875,-1.835938,-0.378906,-0.4375,-1.058594,0.185181,0.032532,0.77356,0.605164,down
443693,-2.203125,9.894531,-1.875,-0.378906,-0.4375,-1.058594,0.185181,0.032532,0.77356,0.605164,down
443698,-2.242188,9.738281,-1.835938,-0.830078,-0.496094,-1.117188,0.185181,0.032532,0.77356,0.605164,down
443704,-2.125,9.433594,-1.757813,-0.830078,-0.496094,-1.117188,0.193298,0.0271,0.769531,0.608093,down
443709,-2.125,9.3125,-1.683594,-0.884766,-0.478516,-1.121094,0.196167,0.025085,0.767883,0.609314,down
443714,-2.125,9.125,-1.644531,-0.853516,-0.458984,-1.111328,0.198792,0.023254,0.766418,0.610352,down
443720,-2.203125,9.011719,-1.722656,-0.853516,-0.458984,-1.111328,0.201233,0.021484,0.765076,0.611328,down
443725,-2.316406,8.933594,-1.605469,-0.853516,-0.458984,-1.111328,0.203735,0.019653,0.763733,0.612244,down
443730,-2.394531,9.046875,-1.566406,-0.677734,-0.431641,-1.083984,0.203735,0.019653,0.763733,0.612244,down
443735,-2.507813,9.128906,-1.566406,-0.613281,-0.410156,-1.080078,0.203735,0.019653,0.763733,0.612244,down
443740,-2.664063,9.207031,-1.566406,-0.613281,-0.410156,-1.080078,0.211182,0.014343,0.760193,0.614197,down
443746,-2.929688,9.472656,-1.53125,-0.613281,-0.410156,-1.080078,0.211182,0.014343,0.760193,0.614197,down
443752,-3.046875,9.511719,-1.492188,-0.472656,-0.384766,-1.113281,0.211182,0.014343,0.760193,0.614197,down
443757,-3.277344,9.660156,-1.492188,-0.451172,-0.384766,-1.132813,0.211182,0.014343,0.760193,0.614197,down
443762,-3.277344,9.777344,-1.492188,-0.458984,-0.402344,-1.148438,0.211182,0.014343,0.760193,0.614197,down
443767,-3.351563,9.851563,-1.453125,-0.458984,-0.402344,-1.148438,0.223633,0.00531,0.755554,0.615662,down
443772,-3.429688,9.929688,-1.492188,-0.5,-0.433594,-1.21875,0.223633,0.00531,0.755554,0.615662,down
443779,-3.429688,10.011719,-1.453125,-0.5,-0.433594,-1.21875,0.231873,-0.00061,0.75238,0.616577,down
443784,-3.429688,10.011719,-1.453125,-0.5,-0.433594,-1.21875,0.231873,-0.00061,0.75238,0.616577,down
443789,-3.390625,10.011719,-1.414063,-0.677734,-0.460937,-1.294922,0.231873,-0.00061,0.75238,0.616577,down
443794,-3.390625,9.929688,-1.300781,-0.744141,-0.453125,-1.314453,0.23761,-0.004883,0.749695,0.617615,down
443799,-3.351563,9.773438,-1.261719,-0.810547,-0.4375,-1.318359,0.240417,-0.00708,0.74823,0.618286,down
443804,-3.351563,9.695313,-1.300781,-0.875,-0.416016,-1.332031,0.246033,-0.011902,0.744934,0.619995,down
443809,-3.429688,9.46875,-1.222656,-0.875,-0.416016,-1.332031,0.246033,-0.011902,0.744934,0.619995,down
443814,-3.429688,9.355469,-1.183594,-0.875,-0.416016,-1.332031,0.251465,-0.016968,0.741333,0.62207,down
443819,-3.46875,9.277344,-1.183594,-1.111328,-0.3125,-1.308594,0.251465,-0.016968,0.741333,0.62207,down
443824,-3.542969,9.164063,-1.109375,-1.154297,-0.277344,-1.304688,0.254211,-0.019775,0.739258,0.623352,down
443829,-3.621094,9.167969,-1.070313,-1.154297,-0.277344,-1.304688,0.259094,-0.025146,0.735168,0.625916,down
443834,-3.734375,9.167969,-0.992187,-1.154297,-0.277344,-1.304688,0.26178,-0.028259,0.732849,0.62738,down
443839,-3.851563,9.167969,-0.957031,-1.193359,-0.212891,-1.353516,0.26178,-0.028259,0.732849,0.62738,down
443844,-4.003906,9.207031,-0.957031,-1.193359,-0.212891,-1.353516,0.266357,-0.033691,0.728882,0.629822,down
443850,-4.195312,9.550781,-0.800781,-1.193359,-0.212891,-1.353516,0.26886,-0.036743,0.726746,0.630981,down
443855,-4.308594,9.695313,-0.761719,-1.136719,-0.214844,-1.53125,0.271484,-0.039856,0.72467,0.63208,down
443861,-4.386719,9.855469,-0.761719,-1.111328,-0.203125,-1.599609,0.274292,-0.043213,0.722534,0.633118,down
443866,-4.5,10.199219,-0.800781,-1.087891,-0.189453,-1.669922,0.274292,-0.043213,0.722534,0.633118,down
443871,-4.578125,10.351563,-0.726562,-1.074219,-0.195312,-1.724609,0.274292,-0.043213,0.722534,0.633118,down
443877,-4.617187,10.464844,-0.570312,-1.070313,-0.214844,-1.753906,0.274292,-0.043213,0.722534,0.633118,down
443882,-4.65625,10.695313,-0.496094,-1.09375,-0.224609,-1.779297,0.274292,-0.043213,0.722534,0.633118,down
443888,-4.882812,11.15625,-0.304688,-1.216797,-0.242187,-1.759766,0.274292,-0.043213,0.722534,0.633118,down
443893,-5.078125,11.382813,-0.304688,-1.216797,-0.242187,-1.759766,0.292297,-0.064514,0.709656,0.637817,down
443899,-5.230469,11.5,-0.1875,-1.511719,-0.208984,-1.697266,0.292297,-0.064514,0.709656,0.637817,down
443904,-5.460937,11.609375,-0.1875,-1.511719,-0.208984,-1.697266,0.298157,-0.071899,0.704407,0.640076,down
443909,-5.878906,11.964844,-0.113281,-1.691406,-0.1875,-1.65625,0.300903,-0.075684,0.701416,0.641663,down
443914,-5.878906,11.964844,-0.113281,-1.691406,-0.1875,-1.65625,0.300903,-0.075684,0.701416,0.641663,down
443919,-6.457031,12.230469,0.078125,-2.050781,-0.171875,-1.607422,0.300903,-0.075684,0.701416,0.641663,down
443924,-6.609375,12.304688,0.230469,-2.234375,-0.162109,-1.597656,0.310791,-0.092163,0.686218,0.651123,down
443929,-6.761719,12.347656,0.308594,-2.443359,-0.076172,-1.570313,0.310791,-0.092163,0.686218,0.651123,down
443934,-6.914062,12.382813,0.425781,-2.476563,-0.021484,-1.554688,0.313171,-0.096985,0.681458,0.654297,down
443939,-6.992187,12.308594,0.539062,-2.476563,-0.021484,-1.554688,0.316956,-0.105652,0.672913,0.659973,down
443944,-7.222656,12.269531,0.730469,-2.476563,-0.021484,-1.554688,0.316956,-0.105652,0.672913,0.659973,down
443949,-7.335937,12.226563,0.808594,-2.476563,-0.021484,-1.554688,0.32019,-0.115051,0.664124,0.66571,down
443954,-7.488281,12.226563,0.882812,-2.476563,-0.021484,-1.554688,0.32019,-0.115051,0.664124,0.66571,down
443959,-7.527344,12.1875,0.960937,-2.476563,-0.021484,-1.554688,0.322449,-0.123413,0.656921,0.670227,down
443964,-7.644531,12.152344,1.0,-2.476563,-0.021484,-1.554688,0.323303,-0.127258,0.653809,0.67218,down
443969,-7.71875,12.191406,1.074219,-2.476563,-0.021484,-1.554688,0.323303,-0.127258,0.653809,0.67218,down
443974,-8.027344,12.492188,1.152344,-1.53125,0.398438,-0.960937,0.323303,-0.127258,0.653809,0.67218,down
443979,-8.21875,12.648438,1.152344,-1.53125,0.398438,-0.960937,0.324341,-0.137512,0.646423,0.676819,down
443984,-8.410156,12.835938,1.113281,-1.53125,0.398438,-0.960937,0.324341,-0.137512,0.646423,0.676819,down
443989,-8.5625,12.914063,1.113281,-1.150391,0.503906,-0.541016,0.323792,-0.1427,0.642944,0.67926,down
443994,-8.753906,12.996094,1.265625,-1.150391,0.503906,-0.541016,0.323242,-0.144897,0.641357,0.680542,down
443999,-8.832031,13.074219,1.34375,-1.150391,0.503906,-0.541016,0.32251,-0.146973,0.639771,0.682007,down
444004,-8.832031,12.992188,1.34375,-1.150391,0.503906,-0.541016,0.32251,-0.146973,0.639771,0.682007,down
444009,-8.90625,12.730469,1.574219,-1.203125,0.4375,-0.056641,0.32251,-0.146973,0.639771,0.682007,down
444014,-8.90625,12.652344,1.535156,-1.203125,0.4375,-0.056641,0.318909,-0.152344,0.634094,0.687744,down
444019,-9.023438,12.570313,1.613281,-1.203125,0.4375,-0.056641,0.317322,-0.15387,0.631836,0.690247,down
444024,-9.097656,12.53125,1.613281,-1.203125,0.4375,-0.056641,0.317322,-0.15387,0.631836,0.690247,down
444029,-9.175781,12.386719,1.574219,-2.167969,0.375,0.533203,0.317322,-0.15387,0.631836,0.690247,down
444034,-9.25,12.035156,1.457031,-2.167969,0.375,0.533203,0.31311,-0.156982,0.626038,0.696655,down
444039,-9.289063,11.808594,1.457031,-2.167969,0.375,0.533203,0.310486,-0.158569,0.622375,0.700806,down
444044,-9.289063,11.808594,1.457031,-2.527344,0.261719,0.765625,0.308044,-0.159729,0.618896,0.704651,down
444049,-9.097656,11.304688,1.496094,-2.642578,0.1875,0.880859,0.308044,-0.159729,0.618896,0.704651,down
444054,-9.097656,11.304688,1.496094,-2.714844,0.111328,0.994141,0.302246,-0.161682,0.610535,0.713989,down
444059,-8.675781,10.273438,1.6875,-2.660156,-0.033203,1.259766,0.302246,-0.161682,0.610535,0.713989,down
444064,-8.371094,9.738281,1.839844,-2.660156,-0.033203,1.259766,0.295898,-0.162415,0.601746,0.723877,down
444069,-8.253906,9.433594,1.957031,-2.660156,-0.033203,1.259766,0.292358,-0.16217,0.59729,0.729004,down
444074,-8.140625,9.085938,2.03125,-2.101563,-0.203125,1.763672,0.292358,-0.16217,0.59729,0.729004,down
444079,-7.988281,8.820313,1.996094,-2.101563,-0.203125,1.763672,0.285095,-0.160217,0.589722,0.738464,down
444084,-7.835937,8.46875,2.03125,-2.101563,-0.203125,1.763672,0.28125,-0.158447,0.586609,0.742737,down
444090,-7.644531,7.898437,2.070313,-2.101563,-0.203125,1.763672,0.27301,-0.153137,0.582031,0.750488,down
444096,-7.296875,7.742187,1.765625,-2.101563,-0.203125,1.763672,0.268738,-0.149841,0.580627,0.753784,down
444101,-7.144531,7.785156,1.804688,-0.693359,-0.347656,2.580078,0.264587,-0.146423,0.579834,0.756531,down
444106,-6.53125,7.59375,2.300781,-0.693359,-0.347656,2.580078,0.259888,-0.142029,0.579529,0.759216,down
444112,-6.265625,7.4375,2.414063,-0.154297,-0.517578,2.867188,0.259888,-0.142029,0.579529,0.759216,down
444117,-5.996094,7.246094,2.378906,0.013672,-0.492187,2.990234,0.259888,-0.142029,0.579529,0.759216,down
444122,-5.804687,7.132812,2.148438,0.013672,-0.492187,2.990234,0.259888,-0.142029,0.579529,0.759216,down
444127,-5.574219,7.015625,1.917969,0.15625,-0.414062,3.099609,0.259888,-0.142029,0.579529,0.759216,down
444132,-5.574219,7.015625,1.917969,0.265625,-0.371094,3.207031,0.234314,-0.115662,0.583496,0.768921,down
444138,-4.730469,6.449219,1.804688,0.382813,-0.371094,3.40625,0.234314,-0.115662,0.583496,0.768921,down
444143,-4.15625,5.90625,1.6875,0.382813,-0.371094,3.40625,0.234314,-0.115662,0.583496,0.768921,down
444149,-3.890625,5.753906,1.648438,0.382813,-0.371094,3.40625,0.215698,-0.097412,0.588074,0.773437,down
444155,-3.3125,5.527344,1.535156,0.427734,-0.158203,3.685547,0.215698,-0.097412,0.588074,0.773437,down
444160,-3.121094,5.410156,1.457031,0.427734,-0.158203,3.685547,0.194519,-0.079041,0.593201,0.777222,down
444165,-2.96875,5.332031,1.417969,0.716797,0.041016,4.005859,0.187622,-0.073364,0.595032,0.778015,down
444170,-2.664063,5.21875,1.34375,0.716797,0.041016,4.005859,0.187622,-0.073364,0.595032,0.778015,down
444175,-2.472656,5.105469,1.382813,0.716797,0.041016,4.005859,0.171875,-0.060791,0.599854,0.779053,down
444180,-2.164063,5.144531,1.457031,1.300781,0.183594,4.363281,0.162598,-0.053528,0.603149,0.779053,down
444186,-1.78125,5.105469,1.765625,1.300781,0.183594,4.363281,0.154602,-0.04718,0.606262,0.778687,down
444191,-1.707031,5.023437,1.726563,1.853516,0.265625,4.654297,0.154602,-0.04718,0.606262,0.778687,down
444197,-1.589844,4.949219,1.535156,1.853516,0.265625,4.654297,0.154602,-0.04718,0.606262,0.778687,down
444202,-1.589844,4.949219,1.535156,2.320313,0.488281,4.955078,0.154602,-0.04718,0.606262,0.778687,down
444208,-1.359375,4.683594,1.382813,2.320313,0.488281,4.955078,0.126099,-0.025146,0.619385,0.774475,down
444213,-0.863281,4.339844,1.535156,2.701172,0.636719,5.195312,0.104797,-0.009888,0.629883,0.769531,down
444219,-0.441406,3.875,1.839844,2.701172,0.636719,5.195312,0.093872,-0.002258,0.635437,0.766418,down
444224,-0.210937,3.835938,1.804688,3.119141,0.824219,5.394531,0.070435,0.013306,0.647583,0.758606,down
444229,0.210937,3.917969,1.613281,3.119141,0.824219,5.394531,0.070435,0.013306,0.647583,0.758606,down
444234,0.402344,3.953125,1.574219,3.119141,0.824219,5.394531,0.058533,0.020935,0.654053,0.753906,down
444239,0.632812,3.917969,1.535156,3.841797,1.074219,5.564453,0.058533,0.020935,0.654053,0.753906,down
444244,0.632812,3.917969,1.535156,4.0625,1.164063,5.583984,0.033569,0.036255,0.667908,0.742615,down
444249,0.863281,3.957031,1.417969,4.28125,1.265625,5.603516,0.033569,0.036255,0.667908,0.742615,down
444254,0.863281,3.957031,1.417969,4.462891,1.369141,5.619141,0.007629,0.051147,0.682617,0.728943,down
444259,1.359375,3.992188,1.035156,4.462891,1.369141,5.619141,0.019287,-0.065247,-0.697693,-0.713196,down
444264,1.511719,3.761719,0.769531,4.462891,1.369141,5.619141,0.019287,-0.065247,-0.697693,-0.713196,down
444269,1.628906,3.679688,0.769531,4.462891,1.369141,5.619141,0.032715,-0.071838,-0.705017,-0.704773,down
444275,1.664063,3.609375,0.808594,4.908203,1.861328,5.541016,0.032715,-0.071838,-0.705017,-0.704773,down
444280,1.703125,3.574219,0.769531,4.908203,1.861328,5.541016,0.07489,-0.090759,-0.726624,-0.67688,down
444285,1.703125,3.453125,0.808594,4.908203,1.861328,5.541016,0.07489,-0.090759,-0.726624,-0.67688,down
444290,1.703125,3.453125,0.808594,4.916016,2.064453,5.423828,0.088196,-0.096069,-0.73291,-0.667725,down
444295,1.742188,3.335938,0.882812,4.916016,2.064453,5.423828,0.102539,-0.101501,-0.739258,-0.657776,down
444300,1.742188,2.574219,1.113281,4.650391,2.228516,5.238281,0.116333,-0.106384,-0.744934,-0.648254,down
444305,1.855469,2.382813,1.152344,4.519531,2.275391,5.125,0.14386,-0.11554,-0.755066,-0.62915,down
444310,1.894531,2.191406,1.152344,4.234375,2.261719,4.873047,0.14386,-0.11554,-0.755066,-0.62915,down
444315,1.933594,2.109375,1.226563,4.234375,2.261719,4.873047,0.158264,-0.120117,-0.759888,-0.618958,down
444320,2.046875,1.808594,1.34375,4.164062,2.191406,4.716797,0.158264,-0.120117,-0.759888,-0.618958,down
444325,2.089844,1.769531,1.457031,4.128906,2.074219,4.541016,0.194214,-0.131165,-0.771179,-0.591858,down
444330,2.085938,1.886719,1.457031,4.185547,1.914063,4.148437,0.194214,-0.131165,-0.771179,-0.591858,down
444335,1.933594,1.921875,1.382813,4.185547,1.914063,4.148437,0.206787,-0.134827,-0.77533,-0.58136,down
444340,1.929688,1.921875,1.265625,4.185547,1.914063,4.148437,0.217468,-0.137695,-0.778931,-0.571838,down
444345,1.929688,1.921875,1.265625,4.199219,1.738281,3.736328,0.22699,-0.140137,-0.782227,-0.562988,down
444350,1.851563,1.847656,1.226563,4.199219,1.738281,3.736328,0.237061,-0.142578,-0.785889,-0.552979,down
444355,1.820313,1.578125,1.226563,4.140625,1.455078,3.314453,0.237061,-0.142578,-0.785889,-0.552979,down
444360,1.628906,0.890625,1.496094,4.058594,1.306641,3.099609,0.237061,-0.142578,-0.785889,-0.552979,down
444365,1.628906,0.734375,1.652344,3.867188,1.066406,2.662109,0.237061,-0.142578,-0.785889,-0.552979,down
444371,1.359375,0.507812,1.839844,3.867188,1.066406,2.662109,0.277222,-0.151184,-0.803101,-0.50531,down
444377,0.976562,0.046875,2.152344,3.867188,1.066406,2.662109,0.282776,-0.152039,-0.80603,-0.497253,down
444383,0.976562,0.046875,2.152344,3.615234,0.648437,1.972656,0.288574,-0.152771,-0.809387,-0.488098,down
444388,0.707031,-0.105469,2.378906,3.525391,0.421875,1.740234,0.29303,-0.153259,-0.8125,-0.480164,down
444393,0.707031,-0.105469,2.378906,3.525391,0.421875,1.740234,0.29303,-0.153259,-0.8125,-0.480164,down
444399,0.058594,-0.527344,2.492188,3.361328,0.304688,1.484375,0.300415,-0.153687,-0.818848,-0.464355,down
444405,-0.519531,-0.796875,2.261719,3.011719,0.011719,1.0,0.300415,-0.153687,-0.818848,-0.464355,down
444410,-1.320313,-0.910156,2.414063,2.867188,-0.230469,0.730469,0.300415,-0.153687,-0.818848,-0.464355,down
444415,-1.667969,-0.910156,2.414063,2.867188,-0.230469,0.730469,0.306152,-0.151855,-0.831726,-0.4375,down
444420,-1.933594,-0.988281,2.339844,2.867188,-0.230469,0.730469,0.306152,-0.151855,-0.831726,-0.4375,down
444425,-2.316406,-1.257813,2.148438,2.519531,-0.994141,-0.253906,0.303345,-0.149048,-0.838745,-0.42688,down
444430,-3.160156,-1.140625,1.765625,2.519531,-0.994141,-0.253906,0.303345,-0.149048,-0.838745,-0.42688,down
444435,-3.578125,-1.140625,1.6875,2.271484,-1.964844,-1.525391,0.300049,-0.146729,-0.843079,-0.421509,down
444440,-4.078125,-1.21875,1.648438,2.271484,-1.964844,-1.525391,0.295898,-0.144226,-0.847168,-0.417053,down
444446,-5.113281,-0.296875,1.613281,2.271484,-1.964844,-1.525391,0.283447,-0.137451,-0.856384,-0.40918,down
444451,-5.648437,0.621094,1.878906,2.115234,-3.519531,-3.1875,0.273438,-0.132568,-0.862244,-0.405151,down
444457,-6.796875,1.464844,2.644531,2.115234,-3.519531,-3.1875,0.26239,-0.127502,-0.867981,-0.401917,down
444462,-6.796875,1.464844,2.644531,1.636719,-4.728516,-4.59375,0.250671,-0.122253,-0.87323,-0.399658,down
444467,-8.367188,2.078125,2.53125,1.636719,-4.728516,-4.59375,0.250671,-0.122253,-0.87323,-0.399658,down
444472,-8.367188,2.078125,2.53125,0.568359,-6.041016,-6.193359,0.21698,-0.107849,-0.884888,-0.397827,down
444479,-10.171875,4.03125,1.648438,0.568359,-6.041016,-6.193359,0.21698,-0.107849,-0.884888,-0.397827,down
444484,-11.089844,7.515625,0.652344,-0.871094,-7.894531,-8.041016,0.21698,-0.107849,-0.884888,-0.397827,down
444490,-11.785156,8.855469,-0.378906,-2.789063,-9.708984,-10.136719,0.21698,-0.107849,-0.884888,-0.397827,down
444495,-12.203125,10.503906,-1.949219,-4.042969,-10.466797,-11.121094,0.112488,-0.068481,-0.901245,-0.412903,down
444501,-13.425781,13.453125,-5.742187,-4.042969,-10.466797,-11.121094,0.075195,-0.054687,-0.901672,-0.422241,down
444506,-13.425781,13.453125,-5.742187,-5.644531,-11.115234,-12.085938,0.041077,-0.041931,-0.899658,-0.432617,down
444511,-13.847656,14.722656,-7.582031,-5.644531,-11.115234,-12.085938,0.001831,-0.026794,-0.894348,-0.446594,down
444517,-16.070312,17.898437,-10.839844,-8.501953,-12.042969,-13.943359,0.084656,-0.008972,0.872681,0.480774,down
444523,-17.296875,18.664062,-11.296875,-8.501953,-12.042969,-13.943359,0.129883,-0.02948,0.856323,0.498962,down
444529,-18.066406,17.820312,-11.453125,-11.578125,-12.619141,-17.087891,0.129883,-0.02948,0.856323,0.498962,down
444534,-19.289062,17.207031,-11.375,-12.337891,-12.28125,-17.988281,0.129883,-0.02948,0.856323,0.498962,down
444539,-24.804687,16.519531,-10.492188,-12.337891,-12.28125,-17.988281,0.270935,-0.1073,0.781067,0.552246,down
444544,-28.519531,17.476562,-10.339844,-12.529297,-10.859375,-19.332031,0.270935,-0.1073,0.781067,0.552246,down
444549,-31.207031,20.425781,-10.570313,-12.09375,-9.955078,-19.544922,0.270935,-0.1073,0.781067,0.552246,down
444554,-32.234375,24.5625,-11.03125,-12.09375,-9.955078,-19.544922,0.396667,-0.198853,0.681152,0.582397,down
444559,-28.789062,30.582031,-10.570313,-12.09375,-9.955078,-19.544922,0.396667,-0.198853,0.681152,0.582397,down
444564,-25.683594,31.035156,-8.539063,-9.089844,-9.455078,-17.667969,0.396667,-0.198853,0.681152,0.582397,down
444569,-21.703125,30.464844,-5.898437,-8.570313,-9.515625,-16.039062,0.396667,-0.198853,0.681152,0.582397,down
444574,-15.035156,24.292969,-1.722656,-8.570313,-9.515625,-16.039062,0.532776,-0.294495,0.538635,0.582458,down
444579,-14.230469,19.617187,-0.265625,-7.392578,-7.376953,-11.832031,0.532776,-0.294495,0.538635,0.582458,down
444584,-14.078125,13.339844,1.496094,-6.861328,-5.800781,-9.410156,0.532776,-0.294495,0.538635,0.582458,down
444589,-14.308594,7.171875,3.066406,-6.861328,-5.800781,-9.410156,0.58606,-0.334656,0.456482,0.579773,down
444595,-16.113281,-1.179688,6.054687,-6.861328,-5.800781,-9.410156,0.600281,-0.351318,0.423706,0.580261,down
444600,-16.183594,-4.050781,7.164062,-6.861328,-5.800781,-9.410156,0.600281,-0.351318,0.423706,0.580261,down
444605,-16.113281,-5.699219,7.585937,-2.119141,-1.167969,-2.1875,0.605652,-0.359253,0.409668,0.579895,down
444610,-15.613281,-4.511719,6.859375,-2.119141,-1.167969,-2.1875,0.605652,-0.359253,0.409668,0.579895,down
444615,-15.148438,-1.90625,5.863281,-2.119141,-1.167969,-2.1875,0.606506,-0.360413,0.409058,0.578735,down
444620,-14.804688,1.273438,4.484375,3.396484,2.441406,0.820312,0.606506,-0.360413,0.409058,0.578735,down
444625,-14.964844,7.59375,2.222656,3.396484,2.441406,0.820312,0.60614,-0.358765,0.419312,0.572754,down
444630,-15.265625,9.816406,1.574219,3.396484,2.441406,0.820312,0.605164,-0.355042,0.431458,0.567078,down
444636,-15.386719,11.5,1.765625,6.859375,3.755859,2.251953,0.605164,-0.355042,0.431458,0.567078,down
444641,-15.226563,12.648438,2.414063,6.859375,3.755859,2.251953,0.601013,-0.334717,0.479126,0.545227,down
444646,-15.109375,13.109375,2.722656,6.859375,3.755859,2.251953,0.599731,-0.325989,0.496521,0.536194,down
444651,-16.109375,13.070313,2.300781,9.482422,3.935547,1.908203,0.598938,-0.314026,0.518311,0.523437,down
444656,-16.640625,12.535156,1.382813,9.828125,3.070313,1.414063,0.599609,-0.302063,0.537109,0.51062,down
444661,-16.835937,11.730469,0.84375,9.828125,3.070313,1.414063,0.601746,-0.290222,0.552246,0.498718,down
444666,-15.453125,10.007813,2.261719,9.828125,3.070313,1.414063,0.605896,-0.275635,0.566711,0.485535,down
444671,-14.039063,9.203125,3.71875,6.3125,-0.435547,0.507812,0.609985,-0.264038,0.575562,0.476318,down
444676,-13.121094,9.011719,4.945312,6.3125,-0.435547,0.507812,0.613586,-0.254822,0.581116,0.46991,down
444681,-11.667969,8.320313,6.207031,1.894531,-0.496094,0.380859,0.615784,-0.249329,0.583801,0.466736,down
444687,-9.519531,5.5625,5.519531,1.894531,-0.496094,0.380859,0.616211,-0.247192,0.584473,0.466431,down
444692,-9.597656,4.488281,4.445312,-1.923828,0.152344,0.537109,0.616211,-0.247192,0.584473,0.466431,down
444697,-9.214844,3.800781,3.832031,-3.023438,0.060547,0.632812,0.616211,-0.247192,0.584473,0.466431,down
444702,-8.566406,3.378906,3.832031,-3.023438,0.060547,0.632812,0.609497,-0.255798,0.577148,0.479614,down
444707,-7.683594,2.6875,4.101562,-3.023438,0.060547,0.632812,0.605835,-0.261292,0.571777,0.487671,down
444713,-7.378906,2.191406,3.71875,-5.824219,-0.265625,0.974609,0.605835,-0.261292,0.571777,0.487671,down
444718,-7.101562,1.425781,2.53125,-5.824219,-0.265625,0.974609,0.595886,-0.276001,0.557129,0.50824,down
444723,-6.996094,1.117188,1.996094,-5.578125,-0.287109,0.923828,0.595886,-0.276001,0.557129,0.50824,down
444728,-6.722656,0.925781,1.535156,-4.566406,-0.435547,0.884766,0.595886,-0.276001,0.557129,0.50824,down
444733,-6.535156,0.925781,1.535156,-3.166016,-0.572266,0.861328,0.595886,-0.276001,0.557129,0.50824,down
444738,-6.339844,1.117188,1.6875,-3.166016,-0.572266,0.861328,0.581787,-0.293518,0.535583,0.53717,down
444743,-6.191406,1.730469,2.261719,-3.166016,-0.572266,0.861328,0.581787,-0.293518,0.535583,0.53717,down
444749,-6.414062,1.730469,2.070313,0.904297,-0.099609,0.931641,0.581787,-0.293518,0.535583,0.53717,down
444754,-6.679687,1.617188,1.878906,0.904297,-0.099609,0.931641,0.579468,-0.287964,0.537476,0.540771,down
444759,-7.035156,1.273438,1.457031,0.904297,-0.099609,0.931641,0.579468,-0.287964,0.537476,0.540771,down
444764,-7.140625,1.425781,1.34375,2.857422,0.613281,0.916016,0.579468,-0.287964,0.537476,0.540771,down
444769,-7.261719,1.539063,1.34375,2.857422,0.613281,0.916016,0.579041,-0.275085,0.552002,0.533264,down
444775,-7.5625,2.230469,1.226563,2.857422,0.613281,0.916016,0.579895,-0.264587,0.564514,0.524475,down
444780,-7.722656,2.574219,1.265625,2.857422,0.613281,0.916016,0.579895,-0.264587,0.564514,0.524475,down
444786,-7.839844,2.996094,1.535156,3.316406,0.605469,0.550781,0.580933,-0.255066,0.575623,0.515869,down
444791,-8.144531,3.648438,2.03125,3.316406,0.605469,0.550781,0.580933,-0.251648,0.580017,0.512634,down
444796,-8.410156,4.070312,2.070313,1.443359,0.744141,0.429687,0.580383,-0.249146,0.583862,0.510071,down
444801,-8.828125,4.335937,1.878906,1.443359,0.744141,0.429687,0.579529,-0.247986,0.586426,0.508667,down
444806,-8.871094,4.566406,1.496094,0.316406,0.714844,0.369141,0.579529,-0.247986,0.586426,0.508667,down
444811,-8.910156,4.527344,1.648438,0.316406,0.714844,0.369141,0.576721,-0.247681,0.590149,0.507751,down
444816,-8.984375,4.644531,1.878906,0.316406,0.714844,0.369141,0.576721,-0.247681,0.590149,0.507751,down
444821,-9.136719,4.679687,1.996094,-0.707031,0.576172,0.3125,0.576721,-0.247681,0.590149,0.507751,down
444826,-9.558594,4.335937,1.839844,-1.017578,0.542969,0.298828,0.573792,-0.249207,0.591248,0.509033,down
444831,-9.558594,4.335937,1.839844,-1.017578,0.542969,0.298828,0.570251,-0.252441,0.590759,0.511963,down
444836,-9.476563,3.992188,1.613281,-1.017578,0.542969,0.298828,0.570251,-0.252441,0.590759,0.511963,down
444841,-9.441406,3.914063,1.574219,-1.052734,0.349609,0.199219,0.567322,-0.255737,0.589417,0.515137,down
444846,-9.441406,3.722656,1.878906,-1.052734,0.349609,0.199219,0.566345,-0.256836,0.588806,0.516357,down
444851,-9.367188,3.683594,1.957031,-1.052734,0.349609,0.199219,0.566345,-0.256836,0.588806,0.516357,down
444856,-9.289063,3.648438,2.070313,-0.570312,0.167969,0.107422,0.566345,-0.256836,0.588806,0.516357,down
444861,-9.253906,3.609375,2.03125,-0.570312,0.167969,0.107422,0.564758,-0.258728,0.58783,0.51825,down
444866,-9.292969,3.378906,1.878906,-0.607422,0.191406,0.123047,0.562988,-0.260559,0.587036,0.520142,down
444871,-9.519531,3.074219,1.878906,-0.607422,0.191406,0.123047,0.562988,-0.260559,0.587036,0.520142,down
444876,-9.558594,2.765625,1.957031,-0.677734,0.224609,0.1875,0.562988,-0.260559,0.587036,0.520142,down
444881,-9.476563,2.460938,2.03125,-0.677734,0.224609,0.1875,0.560974,-0.262512,0.586121,0.522339,down
444886,-9.476563,2.460938,2.03125,-0.677734,0.224609,0.1875,0.559021,-0.264282,0.58551,0.524231,down
444891,-9.480469,2.460938,2.222656,-0.677734,0.224609,0.1875,0.559021,-0.264282,0.58551,0.524231,down
444896,-9.441406,2.535156,2.1875,-0.480469,0.242187,0.142578,0.55719,-0.265808,0.585205,0.525696,down
444901,-9.441406,2.84375,2.1875,-0.25,0.292969,0.150391,0.55719,-0.265808,0.585205,0.525696,down
444906,-9.476563,2.996094,2.109375,-0.097656,0.320313,0.169922,0.556396,-0.266418,0.585327,0.526184,down
444911,-9.480469,3.109375,2.109375,-0.097656,0.320313,0.169922,0.555481,-0.266907,0.585693,0.526489,down
444917,-9.476563,3.339844,2.148438,-0.097656,0.320313,0.169922,0.554077,-0.266907,0.587097,0.526428,down
444922,-9.476563,3.339844,2.148438,-0.097656,0.320313,0.169922,0.553467,-0.266479,0.588135,0.526062,down
444927,-9.519531,3.417969,2.109375,0.492187,0.310547,0.324219,0.552856,-0.265808,0.589478,0.525574,down
444933,-9.40625,3.492188,2.070313,0.492187,0.310547,0.324219,0.552246,-0.264893,0.590881,0.525085,down
444938,-9.367188,3.492188,2.070313,0.492187,0.310547,0.324219,0.551697,-0.263977,0.592224,0.524597,down
444943,-9.332031,3.53125,2.03125,0.59375,0.255859,0.439453,0.551697,-0.263977,0.592224,0.524597,down
444949,-9.25,3.53125,1.996094,0.558594,0.244141,0.474609,0.551697,-0.263977,0.592224,0.524597,down
444954,-9.09375,3.492188,1.917969,0.482422,0.232422,0.529297,0.551697,-0.263977,0.592224,0.524597,down
444960,-9.054688,3.457031,1.878906,0.388672,0.222656,0.572266,0.551697,-0.263977,0.592224,0.524597,down
444965,-8.984375,3.417969,1.765625,0.296875,0.21875,0.611328,0.551697,-0.263977,0.592224,0.524597,down
444970,-8.871094,3.417969,1.6875,0.242187,0.210937,0.640625,0.551697,-0.263977,0.592224,0.524597,down
444975,-8.832031,3.417969,1.6875,0.214844,0.199219,0.675781,0.551697,-0.263977,0.592224,0.524597,down
444980,-8.714844,3.457031,1.613281,0.214844,0.199219,0.675781,0.544983,-0.255249,0.602051,0.52478,down
444985,-8.675781,3.300781,1.535156,0.210937,0.191406,0.710937,0.544983,-0.255249,0.602051,0.52478,down
444990,-8.714844,3.226563,1.457031,0.210937,0.191406,0.710937,0.542786,-0.253052,0.604065,0.525757,down
444996,-8.714844,2.917969,1.457031,0.210937,0.191406,0.710937,0.540588,-0.250793,0.606201,0.526672,down
445001,-8.710938,2.765625,1.417969,0.210937,0.191406,0.710937,0.540588,-0.250793,0.606201,0.526672,down
445006,-8.644531,2.613281,1.535156,0.326172,0.189453,0.625,0.540588,-0.250793,0.606201,0.526672,down
445011,-8.601563,2.6875,1.613281,0.326172,0.189453,0.625,0.538757,-0.248535,0.608398,0.5271,down
445016,-8.640625,2.726563,1.574219,0.513672,0.189453,0.421875,0.537903,-0.247253,0.60968,0.527039,down
445021,-8.644531,2.882813,1.496094,0.513672,0.189453,0.421875,0.537354,-0.246216,0.61084,0.526855,down
445027,-8.671875,3.226563,1.496094,0.513672,0.189453,0.421875,0.536438,-0.244141,0.61322,0.525879,down
445032,-8.671875,3.378906,1.535156,0.578125,0.171875,0.238281,0.536133,-0.243103,0.614502,0.525208,down
445037,-8.671875,3.570313,1.457031,0.544922,0.173828,0.197266,0.535889,-0.242249,0.615601,0.524536,down
445043,-8.710938,3.800781,1.457031,0.544922,0.173828,0.197266,0.535706,-0.241516,0.616638,0.523865,down
445048,-8.710938,3.953125,1.417969,0.544922,0.173828,0.197266,0.535522,-0.240845,0.617554,0.523254,down
445054,-8.710938,3.992188,1.496094,0.357422,0.132812,0.111328,0.535522,-0.240845,0.617554,0.523254,down
445059,-8.710938,3.992188,1.417969,0.242187,0.107422,0.105469,0.535217,-0.239868,0.619019,0.522339,down
445064,-8.640625,4.03125,1.417969,0.242187,0.107422,0.105469,0.535034,-0.239624,0.619446,0.522095,down
445069,-8.566406,3.992188,1.417969,0.005859,0.041016,0.099609,0.535034,-0.239624,0.619446,0.522095,down
445074,-8.566406,3.992188,1.382813,-0.103516,0.027344,0.09375,0.535034,-0.239624,0.619446,0.522095,down
445080,-8.523438,3.953125,1.417969,-0.203125,0.013672,0.095703,0.535034,-0.239624,0.619446,0.522095,down
445086,-8.449219,3.839844,1.265625,-0.203125,0.013672,0.095703,0.534851,-0.238464,0.61969,0.522583,down
445091,-8.445313,3.800781,1.265625,-0.203125,0.013672,0.095703,0.534851,-0.238464,0.61969,0.522583,down
445096,-8.40625,3.761719,1.265625,-0.337891,-0.017578,0.126953,0.535095,-0.237732,0.619446,0.522949,down
445101,-8.371094,3.683594,1.191406,-0.337891,-0.017578,0.126953,0.535095,-0.237732,0.619446,0.522949,down
445106,-8.289063,3.683594,1.152344,-0.337891,-0.017578,0.126953,0.535156,-0.237366,0.619263,0.523193,down
445112,-8.289063,3.648438,1.113281,-0.275391,0.001953,0.160156,0.535278,-0.236511,0.619202,0.523499,down
445117,-8.289063,3.609375,1.113281,-0.275391,0.001953,0.160156,0.5354,-0.235962,0.619385,0.52356,down
445122,-8.292969,3.53125,1.074219,-0.275391,0.001953,0.160156,0.5354,-0.235352,0.619568,0.523499,down
445127,-8.40625,3.53125,1.113281,-0.005859,0.072266,0.183594,0.5354,-0.235352,0.619568,0.523499,down
445132,-8.410156,3.457031,1.113281,-0.005859,0.072266,0.183594,0.535522,-0.234558,0.619995,0.523254,down
445138,-8.488281,3.53125,1.191406,-0.005859,0.072266,0.183594,0.53595,-0.232849,0.621094,0.522339,down
445143,-8.523438,3.570313,1.074219,0.136719,0.117188,0.117188,0.536133,-0.231995,0.621704,0.521729,down
445148,-8.5625,3.722656,1.113281,0.167969,0.130859,0.097656,0.536377,-0.231201,0.622375,0.521057,down
445153,-8.675781,3.800781,1.113281,0.167969,0.130859,0.097656,0.536621,-0.230408,0.623108,0.520264,down
445158,-8.714844,3.992188,1.074219,0.167969,0.130859,0.097656,0.536621,-0.230408,0.623108,0.520264,down
445163,-8.710938,4.105469,1.074219,0.230469,0.160156,0.041016,0.536621,-0.230408,0.623108,0.520264,down
445168,-8.75,4.144531,1.113281,0.230469,0.164062,0.041016,0.536621,-0.230408,0.623108,0.520264,down
445174,-8.789063,4.261719,1.074219,0.230469,0.164062,0.041016,0.537598,-0.227478,0.626099,0.516907,down
445179,-8.789063,4.261719,1.074219,0.197266,0.166016,0.050781,0.537598,-0.227478,0.626099,0.516907,down
445186,-8.828125,4.335937,1.113281,0.160156,0.171875,0.050781,0.537598,-0.227478,0.626099,0.516907,down
445191,-8.832031,4.414062,1.191406,0.160156,0.171875,0.050781,0.538208,-0.225159,0.628784,0.514099,down
445196,-8.867188,4.414062,1.152344,0.160156,0.171875,0.050781,0.538208,-0.225159,0.628784,0.514099,down
445201,-8.832031,4.375,1.191406,-0.017578,0.132812,0.052734,0.538208,-0.225159,0.628784,0.514099,down
445206,-8.867188,4.414062,1.113281,-0.017578,0.132812,0.052734,0.538391,-0.224304,0.6297,0.513184,down
445212,-8.832031,4.375,1.074219,-0.017578,0.132812,0.052734,0.538452,-0.223694,0.630249,0.512634,down
445217,-8.792969,4.335937,1.074219,-0.144531,0.097656,0.066406,0.538452,-0.223694,0.630249,0.512634,down
445222,-8.710938,4.335937,1.113281,-0.144531,0.097656,0.066406,0.538452,-0.223267,0.630554,0.512451,down
445228,-8.75,4.105469,1.074219,-0.144531,0.097656,0.066406,0.538391,-0.223145,0.630676,0.512451,down
