timestamp,ax,ay,az,gx,gy,gz,qw,qx,qy,qz,label
349508,5.867187,7.027344,-2.160156,0.070312,-0.066406,-0.123047,0.308472,-0.103333,-0.795105,-0.511902,down
349513,5.867187,7.066406,-2.199219,0.052734,-0.068359,-0.148437,0.308472,-0.103333,-0.795105,-0.511902,down
349518,5.828125,7.144531,-2.3125,0.052734,-0.068359,-0.148437,0.307739,-0.102783,-0.79541,-0.511902,down
349523,5.867187,7.144531,-2.351563,0.001953,-0.054687,-0.175781,0.307739,-0.102783,-0.79541,-0.511902,down
349528,5.867187,7.179687,-2.390625,-0.035156,-0.056641,-0.175781,0.307312,-0.102478,-0.795532,-0.512024,down
349533,5.867187,7.222656,-2.390625,-0.035156,-0.056641,-0.175781,0.30658,-0.101868,-0.795654,-0.512451,down
349538,5.867187,7.179687,-2.425781,-0.035156,-0.056641,-0.175781,0.306152,-0.101624,-0.795654,-0.512756,down
349543,5.828125,7.222656,-2.273438,-0.128906,-0.042969,-0.203125,0.306152,-0.101624,-0.795654,-0.512756,down
349548,5.828125,7.222656,-2.273438,-0.121094,-0.037109,-0.207031,0.305725,-0.101318,-0.795593,-0.513184,down
349553,5.753906,7.300781,-2.234375,-0.121094,-0.037109,-0.207031,0.304932,-0.100769,-0.795471,-0.513916,down
349558,5.714844,7.328125,-2.160156,-0.109375,-0.080078,-0.173828,0.304932,-0.100769,-0.795471,-0.513916,down
349563,5.753906,7.296875,-2.121094,-0.109375,-0.080078,-0.173828,0.304016,-0.100403,-0.79541,-0.514648,down
349568,5.714844,7.296875,-2.121094,-0.109375,-0.080078,-0.173828,0.304016,-0.100403,-0.79541,-0.514648,down
349573,5.675781,7.257812,-2.160156,-0.109375,-0.080078,-0.173828,0.303162,-0.100281,-0.795349,-0.515198,down
349578,5.714844,7.261719,-2.160156,-0.099609,-0.140625,-0.107422,0.303162,-0.100281,-0.795349,-0.515198,down
349583,5.753906,7.332031,-2.199219,-0.099609,-0.140625,-0.107422,0.302185,-0.100281,-0.79541,-0.515747,down
349588,5.792969,7.371094,-2.234375,-0.099609,-0.140625,-0.107422,0.301697,-0.100342,-0.795471,-0.515869,down
349593,5.753906,7.488281,-2.390625,-0.099609,-0.140625,-0.107422,0.301147,-0.100464,-0.795593,-0.515991,down
349598,5.753906,7.527344,-2.425781,-0.099609,-0.140625,-0.107422,0.301147,-0.100464,-0.795593,-0.515991,down
349603,5.828125,7.5625,-2.542969,-0.033203,-0.185547,-0.072266,0.300171,-0.100647,-0.795837,-0.516174,down
349609,5.792969,7.640625,-2.695313,-0.033203,-0.185547,-0.072266,0.299683,-0.100769,-0.795898,-0.516296,down
349614,5.828125,7.605469,-2.808594,-0.033203,-0.185547,-0.072266,0.299316,-0.10083,-0.795959,-0.516418,down
349619,5.828125,7.605469,-2.808594,-0.074219,-0.152344,-0.052734,0.298889,-0.100952,-0.796021,-0.516541,down
349624,5.867187,7.640625,-2.734375,-0.074219,-0.152344,-0.052734,0.298462,-0.101074,-0.796082,-0.516724,down
349630,5.828125,7.523437,-2.617188,-0.074219,-0.152344,-0.052734,0.298096,-0.101196,-0.796143,-0.516846,down
349635,5.792969,7.527344,-2.617188,-0.042969,-0.130859,-0.035156,0.297729,-0.101318,-0.796204,-0.516907,down
349641,5.792969,7.367187,-2.503906,-0.046875,-0.126953,-0.017578,0.297729,-0.101318,-0.796204,-0.516907,down
349647,5.753906,7.296875,-2.464844,-0.048828,-0.121094,-0.003906,0.297729,-0.101318,-0.796204,-0.516907,down
349652,5.753906,7.21875,-2.425781,-0.025391,-0.126953,0.013672,0.297729,-0.101318,-0.796204,-0.516907,down
349658,5.753906,7.222656,-2.351563,-0.017578,-0.130859,0.025391,0.296326,-0.102173,-0.796448,-0.51709,down
349663,5.753906,7.179687,-2.351563,-0.017578,-0.130859,0.025391,0.296021,-0.102356,-0.79657,-0.51709,down
349668,5.714844,7.222656,-2.351563,-0.017578,-0.130859,0.025391,0.296021,-0.102356,-0.79657,-0.51709,down
349673,5.675781,7.21875,-2.351563,0.039063,-0.144531,0.041016,0.296021,-0.102356,-0.79657,-0.51709,down
349678,5.753906,7.222656,-2.464844,0.039063,-0.144531,0.041016,0.29541,-0.102722,-0.796875,-0.516907,down
349683,5.714844,7.222656,-2.503906,0.046875,-0.15625,0.046875,0.295105,-0.102966,-0.797058,-0.516724,down
349688,5.753906,7.261719,-2.464844,0.046875,-0.15625,0.046875,0.2948,-0.103149,-0.797241,-0.516602,down
349693,5.753906,7.261719,-2.503906,0.046875,-0.15625,0.046875,0.294495,-0.103394,-0.797424,-0.516418,down
349698,5.753906,7.261719,-2.503906,0.033203,-0.166016,0.042969,0.294495,-0.103394,-0.797424,-0.516418,down
349703,5.714844,7.222656,-2.503906,0.033203,-0.166016,0.042969,0.293884,-0.103821,-0.797729,-0.516174,down
349708,5.753906,7.179687,-2.503906,0.027344,-0.175781,0.052734,0.293579,-0.104065,-0.797913,-0.516052,down
349713,5.792969,7.179687,-2.503906,0.027344,-0.175781,0.052734,0.293213,-0.10437,-0.798096,-0.51593,down
349719,5.792969,7.179687,-2.503906,0.023437,-0.171875,0.039063,0.292542,-0.104858,-0.798401,-0.515747,down
349724,5.828125,7.066406,-2.617188,0.025391,-0.177734,0.037109,0.292175,-0.105103,-0.798584,-0.515625,down
349730,5.867187,7.222656,-2.734375,0.025391,-0.177734,0.037109,0.29187,-0.105347,-0.798706,-0.515564,down
349735,5.828125,7.328125,-2.734375,0.025391,-0.177734,0.037109,0.291504,-0.10553,-0.798889,-0.515442,down
349740,5.828125,7.328125,-2.773438,0.027344,-0.185547,0.011719,0.291504,-0.10553,-0.798889,-0.515442,down
349745,5.867187,7.261719,-2.734375,0.021484,-0.173828,0.001953,0.291504,-0.10553,-0.798889,-0.515442,down
349751,5.867187,7.261719,-2.773438,0.023437,-0.173828,-0.013672,0.291504,-0.10553,-0.798889,-0.515442,down
349757,5.90625,7.222656,-2.734375,0.023437,-0.173828,-0.013672,0.289917,-0.106201,-0.799561,-0.515198,down
349763,5.867187,7.261719,-2.734375,-0.027344,-0.167969,-0.070312,0.289917,-0.106201,-0.799561,-0.515198,down
349768,5.867187,7.261719,-2.773438,-0.027344,-0.167969,-0.070312,0.289001,-0.106384,-0.799805,-0.515259,down
349773,5.828125,7.328125,-2.808594,-0.027344,-0.167969,-0.070312,0.288513,-0.106445,-0.799927,-0.515381,down
349778,5.867187,7.445312,-2.886719,-0.099609,-0.15625,-0.134766,0.288025,-0.106445,-0.799988,-0.515503,down
349783,5.828125,7.445312,-2.886719,-0.099609,-0.15625,-0.134766,0.287415,-0.106445,-0.800049,-0.515747,down
349788,5.867187,7.328125,-2.808594,-0.099609,-0.15625,-0.134766,0.286865,-0.106384,-0.800049,-0.516052,down
349793,5.867187,7.21875,-2.847656,-0.099609,-0.15625,-0.134766,0.285828,-0.106384,-0.799866,-0.516907,down
349798,5.828125,7.144531,-2.847656,-0.099609,-0.15625,-0.134766,0.285828,-0.106384,-0.799866,-0.516907,down
349803,5.828125,7.144531,-2.847656,-0.195312,-0.083984,-0.148437,0.284973,-0.106262,-0.799561,-0.517883,down
349808,5.792969,7.144531,-2.808594,-0.195312,-0.083984,-0.148437,0.284973,-0.106262,-0.799561,-0.517883,down
349813,5.753906,7.21875,-2.808594,-0.195312,-0.083984,-0.148437,0.284485,-0.106079,-0.799438,-0.518433,down
349819,5.753906,7.300781,-2.773438,-0.162109,-0.072266,-0.162109,0.28363,-0.105835,-0.799194,-0.519287,down
349824,5.675781,7.40625,-2.773438,-0.162109,-0.072266,-0.162109,0.283264,-0.105652,-0.799072,-0.519714,down
349830,5.714844,7.410156,-2.808594,-0.113281,-0.041016,-0.166016,0.282837,-0.105408,-0.799011,-0.520081,down
349835,5.636719,7.328125,-2.847656,-0.113281,-0.041016,-0.166016,0.282532,-0.105225,-0.79895,-0.520386,down
349840,5.636719,7.300781,-2.773438,-0.044922,-0.054687,-0.166016,0.282532,-0.105225,-0.79895,-0.520386,down
349845,5.636719,7.300781,-2.734375,-0.044922,-0.054687,-0.166016,0.282532,-0.105225,-0.79895,-0.520386,down
349850,5.636719,7.300781,-2.65625,0.011719,-0.041016,-0.162109,0.282532,-0.105225,-0.79895,-0.520386,down
349856,5.636719,7.300781,-2.65625,0.011719,-0.037109,-0.158203,0.282532,-0.105225,-0.79895,-0.520386,down
349861,5.5625,7.40625,-2.582031,0.011719,-0.037109,-0.158203,0.280884,-0.103821,-0.799194,-0.521118,down
349867,5.5625,7.484375,-2.542969,0.011719,-0.021484,-0.154297,0.280884,-0.103821,-0.799194,-0.521118,down
349872,5.484375,7.5625,-2.582031,0.015625,-0.021484,-0.150391,0.280884,-0.103821,-0.799194,-0.521118,down
349878,5.484375,7.644531,-2.542969,0.013672,-0.03125,-0.136719,0.280884,-0.103821,-0.799194,-0.521118,down
349883,5.410156,7.640625,-2.464844,0.013672,-0.03125,-0.136719,0.279785,-0.102722,-0.799561,-0.521423,down
349889,5.445312,7.601562,-2.390625,0.013672,-0.083984,-0.107422,0.279785,-0.102722,-0.799561,-0.521423,down
349894,5.445312,7.484375,-2.351563,0.013672,-0.083984,-0.107422,0.27887,-0.102234,-0.799866,-0.521545,down
349900,5.410156,7.300781,-2.425781,0.013672,-0.083984,-0.107422,0.278564,-0.102173,-0.799927,-0.521545,down
349905,5.445312,7.300781,-2.390625,0.025391,-0.113281,-0.076172,0.278564,-0.102173,-0.799927,-0.521545,down
349911,5.410156,7.332031,-2.390625,0.044922,-0.121094,-0.080078,0.278564,-0.102173,-0.799927,-0.521545,down
349916,5.410156,7.332031,-2.425781,0.044922,-0.121094,-0.080078,0.278564,-0.102173,-0.799927,-0.521545,down
349922,5.410156,7.367187,-2.464844,0.058594,-0.09375,-0.066406,0.278564,-0.102173,-0.799927,-0.521545,down
349927,5.410156,7.296875,-2.464844,0.044922,-0.085937,-0.054687,0.278564,-0.102173,-0.799927,-0.521545,down
349932,5.445312,7.261719,-2.464844,0.044922,-0.085937,-0.054687,0.276733,-0.101868,-0.800842,-0.52124,down
349938,5.410156,7.21875,-2.425781,0.044922,-0.085937,-0.054687,0.276245,-0.101746,-0.801147,-0.521057,down
349943,5.445312,7.21875,-2.390625,0.044922,-0.085937,-0.054687,0.276245,-0.101746,-0.801147,-0.521057,down
349948,5.410156,7.257812,-2.390625,0.111328,-0.085937,-0.083984,0.275696,-0.10144,-0.801575,-0.520691,down
349953,5.371094,7.300781,-2.425781,0.111328,-0.085937,-0.083984,0.275696,-0.10144,-0.801575,-0.520691,down
349958,5.445312,7.367187,-2.464844,0.111328,-0.085937,-0.083984,0.275391,-0.101257,-0.801819,-0.520569,down
349964,5.445312,7.371094,-2.425781,0.083984,-0.107422,-0.128906,0.274658,-0.10083,-0.802246,-0.520386,down
349969,5.410156,7.367187,-2.503906,0.083984,-0.107422,-0.128906,0.274231,-0.100647,-0.802368,-0.520386,down
349974,5.371094,7.40625,-2.503906,0.083984,-0.107422,-0.128906,0.273804,-0.100464,-0.80249,-0.520508,down
349979,5.410156,7.40625,-2.503906,-0.054687,-0.132812,-0.177734,0.273804,-0.100464,-0.80249,-0.520508,down
349984,5.445312,7.523437,-2.542969,-0.054687,-0.132812,-0.177734,0.273254,-0.100281,-0.802551,-0.520691,down
349989,5.445312,7.566406,-2.542969,-0.054687,-0.132812,-0.177734,0.272095,-0.099976,-0.802612,-0.521301,down
349994,5.410156,7.640625,-2.582031,-0.054687,-0.132812,-0.177734,0.271545,-0.099854,-0.802612,-0.521667,down
349999,5.445312,7.644531,-2.617188,-0.179687,-0.167969,-0.189453,0.271545,-0.099854,-0.802612,-0.521667,down
350005,5.445312,7.683594,-2.773438,-0.179687,-0.167969,-0.189453,0.270142,-0.09967,-0.802429,-0.522644,down
350010,5.484375,7.679687,-2.808594,-0.179687,-0.167969,-0.189453,0.269531,-0.099609,-0.802368,-0.523132,down
350015,5.484375,7.679687,-2.808594,-0.207031,-0.177734,-0.195312,0.268799,-0.099548,-0.802246,-0.523682,down
350021,5.484375,7.710937,-2.925781,-0.207031,-0.177734,-0.195312,0.268799,-0.099548,-0.802246,-0.523682,down
350026,5.445312,7.753906,-2.925781,-0.166016,-0.173828,-0.191406,0.268799,-0.099548,-0.802246,-0.523682,down
350032,5.445312,7.832031,-3.0,-0.158203,-0.167969,-0.191406,0.268799,-0.099548,-0.802246,-0.523682,down
350037,5.484375,7.832031,-2.964844,-0.144531,-0.162109,-0.189453,0.268799,-0.099548,-0.802246,-0.523682,down
350042,5.484375,7.789062,-2.925781,-0.144531,-0.162109,-0.189453,0.265503,-0.099243,-0.801941,-0.525879,down
350047,5.445312,7.753906,-2.925781,-0.123047,-0.136719,-0.173828,0.265503,-0.099243,-0.801941,-0.525879,down
350052,5.484375,7.75,-2.925781,-0.105469,-0.130859,-0.150391,0.265503,-0.099243,-0.801941,-0.525879,down
350057,5.445312,7.710937,-2.886719,-0.101563,-0.119141,-0.140625,0.265503,-0.099243,-0.801941,-0.525879,down
350062,5.410156,7.5625,-2.808594,-0.101563,-0.119141,-0.140625,0.265503,-0.099243,-0.801941,-0.525879,down
350068,5.445312,7.601562,-2.808594,-0.101563,-0.119141,-0.140625,0.263062,-0.098755,-0.801819,-0.527405,down
350074,5.445312,7.683594,-2.773438,-0.058594,-0.09375,-0.095703,0.263062,-0.098755,-0.801819,-0.527405,down
350079,5.410156,7.714844,-2.808594,-0.058594,-0.09375,-0.095703,0.261963,-0.098572,-0.801819,-0.528015,down
350084,5.410156,7.753906,-2.808594,-0.041016,-0.083984,-0.078125,0.261963,-0.098572,-0.801819,-0.528015,down
350089,5.410156,7.753906,-2.773438,-0.029297,-0.087891,-0.064453,0.261597,-0.098572,-0.801819,-0.528137,down
350094,5.410156,7.714844,-2.808594,-0.029297,-0.087891,-0.064453,0.261047,-0.098511,-0.80188,-0.52832,down
350099,5.410156,7.683594,-2.808594,-0.029297,-0.087891,-0.064453,0.260803,-0.098511,-0.801941,-0.528381,down
350104,5.445312,7.679687,-2.847656,-0.029297,-0.087891,-0.064453,0.260803,-0.098511,-0.801941,-0.528381,down
350109,5.445312,7.679687,-2.847656,0.037109,-0.087891,-0.048828,0.260315,-0.09845,-0.802185,-0.52832,down
350114,5.445312,7.714844,-2.808594,0.037109,-0.087891,-0.048828,0.260315,-0.09845,-0.802185,-0.52832,down
350119,5.445312,7.714844,-2.773438,0.060547,-0.089844,-0.048828,0.260315,-0.09845,-0.802185,-0.52832,down
350124,5.484375,7.710937,-2.773438,0.060547,-0.089844,-0.048828,0.259766,-0.098328,-0.802429,-0.528137,down
350130,5.445312,7.714844,-2.734375,0.060547,-0.089844,-0.048828,0.259338,-0.098328,-0.802734,-0.527954,down
350136,5.410156,7.5625,-2.65625,0.060547,-0.089844,-0.048828,0.259094,-0.098328,-0.802856,-0.527893,down
350141,5.410156,7.488281,-2.65625,0.039063,-0.097656,-0.013672,0.25885,-0.098389,-0.802979,-0.527771,down
350146,5.371094,7.40625,-2.582031,0.042969,-0.097656,-0.007813,0.25885,-0.098389,-0.802979,-0.527771,down
350152,5.371094,7.410156,-2.65625,0.042969,-0.097656,-0.007813,0.258484,-0.098572,-0.803162,-0.527649,down
350158,5.332031,7.449219,-2.695313,0.052734,-0.085937,-0.013672,0.258484,-0.098572,-0.803162,-0.527649,down
350163,5.332031,7.449219,-2.695313,0.056641,-0.078125,-0.011719,0.258484,-0.098572,-0.803162,-0.527649,down
350168,5.332031,7.488281,-2.734375,0.058594,-0.058594,-0.011719,0.258484,-0.098572,-0.803162,-0.527649,down
350173,5.371094,7.488281,-2.734375,0.058594,-0.058594,-0.011719,0.257813,-0.098694,-0.80365,-0.527222,down
350178,5.332031,7.445312,-2.773438,0.056641,-0.044922,-0.017578,0.257813,-0.098694,-0.80365,-0.527222,down
350183,5.371094,7.488281,-2.773438,0.070312,-0.041016,-0.033203,0.257813,-0.098694,-0.80365,-0.527222,down
350189,5.332031,7.566406,-2.695313,0.070312,-0.041016,-0.033203,0.257324,-0.09845,-0.804077,-0.526794,down
350194,5.332031,7.566406,-2.695313,0.070312,-0.041016,-0.033203,0.257324,-0.09845,-0.804077,-0.526794,down
350199,5.292969,7.601562,-2.734375,0.056641,-0.03125,-0.070312,0.257019,-0.098145,-0.804321,-0.526672,down
350204,5.292969,7.710937,-2.695313,0.056641,-0.03125,-0.070312,0.256775,-0.098022,-0.804382,-0.526672,down
350209,5.292969,7.683594,-2.617188,0.0,-0.070312,-0.070312,0.256775,-0.098022,-0.804382,-0.526672,down
350214,5.253906,7.644531,-2.617188,-0.009766,-0.078125,-0.078125,0.256531,-0.097961,-0.804504,-0.526672,down
350219,5.253906,7.644531,-2.617188,-0.009766,-0.078125,-0.078125,0.256042,-0.097839,-0.804565,-0.526794,down
350224,5.292969,7.488281,-2.617188,-0.009766,-0.078125,-0.078125,0.255798,-0.097839,-0.804626,-0.526855,down
350229,5.292969,7.410156,-2.617188,-0.048828,-0.09375,-0.056641,0.255798,-0.097839,-0.804626,-0.526855,down
350234,5.332031,7.332031,-2.617188,-0.048828,-0.09375,-0.056641,0.255249,-0.097839,-0.804626,-0.527161,down
350239,5.292969,7.445312,-2.65625,-0.048828,-0.09375,-0.056641,0.255249,-0.097839,-0.804626,-0.527161,down
350245,5.292969,7.445312,-2.65625,-0.056641,-0.083984,-0.060547,0.254639,-0.0979,-0.804626,-0.527405,down
350250,5.292969,7.449219,-2.695313,-0.021484,-0.087891,-0.058594,0.254395,-0.0979,-0.804626,-0.527527,down
350255,5.253906,7.445312,-2.734375,-0.021484,-0.087891,-0.058594,0.254395,-0.0979,-0.804626,-0.527527,down
350261,5.292969,7.445312,-2.734375,0.023437,-0.072266,-0.064453,0.253906,-0.0979,-0.804749,-0.527588,down
350266,5.292969,7.371094,-2.734375,0.023437,-0.072266,-0.064453,0.253723,-0.097778,-0.804871,-0.527527,down
350271,5.292969,7.445312,-2.773438,0.072266,-0.064453,-0.076172,0.253723,-0.097778,-0.804871,-0.527527,down
350276,5.292969,7.445312,-2.808594,0.078125,-0.048828,-0.089844,0.253723,-0.097778,-0.804871,-0.527527,down
350281,5.253906,7.566406,-2.847656,0.078125,-0.048828,-0.089844,0.253723,-0.097778,-0.804871,-0.527527,down
350286,5.292969,7.605469,-2.847656,0.0625,-0.035156,-0.103516,0.253723,-0.097778,-0.804871,-0.527527,down
350292,5.253906,7.605469,-2.847656,0.041016,-0.029297,-0.111328,0.253723,-0.097778,-0.804871,-0.527527,down
350297,5.253906,7.644531,-2.808594,0.041016,-0.029297,-0.111328,0.252441,-0.096741,-0.805603,-0.527161,down
350303,5.253906,7.601562,-2.773438,-0.005859,-0.013672,-0.128906,0.252441,-0.096741,-0.805603,-0.527161,down
350308,5.214844,7.644531,-2.773438,-0.029297,-0.015625,-0.128906,0.252441,-0.096741,-0.805603,-0.527161,down
350313,5.179687,7.683594,-2.695313,-0.041016,-0.015625,-0.126953,0.252441,-0.096741,-0.805603,-0.527161,down
350318,5.179687,7.644531,-2.695313,-0.056641,-0.019531,-0.136719,0.252441,-0.096741,-0.805603,-0.527161,down
350323,5.214844,7.601562,-2.617188,-0.082031,-0.017578,-0.138672,0.252441,-0.096741,-0.805603,-0.527161,down
350329,5.140625,7.523437,-2.617188,-0.082031,-0.017578,-0.138672,0.25116,-0.095337,-0.80542,-0.52832,down
350334,5.140625,7.523437,-2.617188,-0.082031,-0.017578,-0.138672,0.250854,-0.095154,-0.805298,-0.528625,down
350339,5.140625,7.449219,-2.617188,-0.082031,-0.017578,-0.138672,0.250854,-0.095154,-0.805298,-0.528625,down
350344,5.140625,7.449219,-2.65625,-0.095703,-0.037109,-0.144531,0.25,-0.094604,-0.805054,-0.529602,down
350349,5.101562,7.449219,-2.582031,-0.095703,-0.037109,-0.144531,0.25,-0.094604,-0.805054,-0.529602,down
350354,5.101562,7.445312,-2.617188,-0.076172,-0.046875,-0.158203,0.249695,-0.094421,-0.804993,-0.529846,down
350360,5.0625,7.445312,-2.617188,-0.076172,-0.046875,-0.158203,0.24939,-0.094177,-0.804932,-0.530151,down
350365,5.023437,7.410156,-2.503906,-0.068359,-0.058594,-0.162109,0.24939,-0.094177,-0.804932,-0.530151,down
350371,5.023437,7.488281,-2.503906,-0.068359,-0.058594,-0.162109,0.248352,-0.093506,-0.80481,-0.530945,down
350376,5.023437,7.488281,-2.503906,-0.058594,-0.066406,-0.201172,0.247925,-0.093201,-0.80481,-0.531189,down
350381,4.988281,7.523437,-2.503906,-0.058594,-0.066406,-0.201172,0.247437,-0.092896,-0.80481,-0.531494,down
350387,4.988281,7.484375,-2.503906,-0.058594,-0.066406,-0.201172,0.24707,-0.09259,-0.804749,-0.531738,down
350392,4.949219,7.445312,-2.464844,-0.123047,-0.087891,-0.251953,0.24707,-0.09259,-0.804749,-0.531738,down
350398,4.910156,7.449219,-2.464844,-0.154297,-0.087891,-0.271484,0.24707,-0.09259,-0.804749,-0.531738,down
350403,4.910156,7.410156,-2.425781,-0.154297,-0.087891,-0.271484,0.245361,-0.091553,-0.804504,-0.533081,down
350408,4.871094,7.371094,-2.390625,-0.154297,-0.087891,-0.271484,0.245361,-0.091553,-0.804504,-0.533081,down
350413,4.832031,7.332031,-2.390625,-0.154297,-0.087891,-0.271484,0.24408,-0.090881,-0.804199,-0.534302,down
350418,4.871094,7.328125,-2.351563,-0.251953,-0.113281,-0.335938,0.24408,-0.090881,-0.804199,-0.534302,down
350423,4.832031,7.328125,-2.3125,-0.251953,-0.113281,-0.335938,0.242615,-0.090088,-0.803772,-0.535706,down
350428,4.796875,7.367187,-2.390625,-0.287109,-0.113281,-0.351563,0.242615,-0.090088,-0.803772,-0.535706,down
350433,4.832031,7.332031,-2.390625,-0.287109,-0.117188,-0.365234,0.242615,-0.090088,-0.803772,-0.535706,down
350438,4.832031,7.332031,-2.425781,-0.296875,-0.123047,-0.378906,0.242615,-0.090088,-0.803772,-0.535706,down
350443,4.832031,7.332031,-2.425781,-0.296875,-0.123047,-0.378906,0.242615,-0.090088,-0.803772,-0.535706,down
350449,4.832031,7.367187,-2.503906,-0.296875,-0.123047,-0.378906,0.238586,-0.088074,-0.802551,-0.539673,down
350455,4.796875,7.445312,-2.582031,-0.259766,-0.101563,-0.423828,0.238586,-0.088074,-0.802551,-0.539673,down
350460,4.832031,7.601562,-2.808594,-0.259766,-0.101563,-0.423828,0.236084,-0.086426,-0.801819,-0.542114,down
350465,4.796875,7.683594,-2.847656,-0.248047,-0.072266,-0.462891,0.236084,-0.086426,-0.801819,-0.542114,down
350470,4.832031,7.714844,-2.925781,-0.248047,-0.056641,-0.478516,0.235229,-0.085754,-0.801636,-0.542908,down
350475,4.832031,7.792969,-3.0,-0.248047,-0.056641,-0.478516,0.233643,-0.08429,-0.801208,-0.544434,down
350480,4.871094,7.832031,-3.0,-0.248047,-0.056641,-0.478516,0.23291,-0.083435,-0.800903,-0.545288,down
350485,4.871094,7.949219,-3.195313,-0.248047,-0.056641,-0.478516,0.23291,-0.083435,-0.800903,-0.545288,down
350490,4.832031,7.949219,-3.195313,-0.273438,0.046875,-0.544922,0.231445,-0.081482,-0.800354,-0.547058,down
350495,4.832031,8.023438,-3.15625,-0.296875,0.085937,-0.587891,0.230774,-0.080383,-0.799988,-0.547974,down
350500,4.832031,8.210938,-3.078125,-0.296875,0.085937,-0.587891,0.230042,-0.079163,-0.799561,-0.549072,down
350505,4.832031,8.289063,-3.039063,-0.332031,0.109375,-0.619141,0.230042,-0.079163,-0.799561,-0.549072,down
350510,4.757812,8.519531,-3.117188,-0.375,0.119141,-0.621094,0.229309,-0.077942,-0.799194,-0.55011,down
350515,4.757812,8.59375,-3.15625,-0.375,0.119141,-0.621094,0.228638,-0.076782,-0.798767,-0.551147,down
350520,4.757812,8.59375,-3.15625,-0.427734,0.140625,-0.642578,0.228027,-0.075684,-0.798279,-0.552307,down
350525,4.757812,8.597656,-3.195313,-0.427734,0.140625,-0.642578,0.226685,-0.073242,-0.796936,-0.555115,down
350531,4.832031,8.410156,-3.195313,-0.427734,0.140625,-0.642578,0.225952,-0.072021,-0.796082,-0.556824,down
350537,4.832031,8.371094,-3.230469,-0.427734,0.140625,-0.642578,0.225342,-0.070801,-0.795105,-0.558533,down
350543,4.832031,8.328125,-3.15625,-0.712891,0.248047,-0.6875,0.225342,-0.070801,-0.795105,-0.558533,down
350548,4.796875,8.332031,-3.15625,-0.71875,0.287109,-0.695312,0.225342,-0.070801,-0.795105,-0.558533,down
350553,4.796875,8.371094,-3.117188,-0.71875,0.287109,-0.695312,0.225342,-0.070801,-0.795105,-0.558533,down
350558,4.71875,8.40625,-3.078125,-0.707031,0.367188,-0.712891,0.225342,-0.070801,-0.795105,-0.558533,down
350563,4.757812,8.40625,-3.039063,-0.693359,0.396484,-0.71875,0.225342,-0.070801,-0.795105,-0.558533,down
350568,4.71875,8.40625,-3.0,-0.693359,0.396484,-0.71875,0.222595,-0.062073,-0.788696,-0.569702,down
350573,4.679687,8.484375,-2.886719,-0.693359,0.396484,-0.71875,0.222595,-0.062073,-0.788696,-0.569702,down
350578,4.605469,8.636719,-2.734375,-0.550781,0.488281,-0.740234,0.222595,-0.062073,-0.788696,-0.569702,down
350584,4.566406,8.75,-2.351563,-0.550781,0.488281,-0.740234,0.222046,-0.05658,-0.785645,-0.574646,down
350589,4.488281,8.789063,-2.273438,-0.550781,0.488281,-0.740234,0.221802,-0.05481,-0.784912,-0.575989,down
350595,4.375,8.710938,-2.273438,-0.339844,0.470703,-0.716797,0.221802,-0.05481,-0.784912,-0.575989,down
350600,4.335937,8.59375,-2.199219,-0.326172,0.455078,-0.693359,0.221313,-0.049194,-0.782837,-0.579407,down
350605,4.296875,8.371094,-1.890625,-0.326172,0.455078,-0.693359,0.221313,-0.049194,-0.782837,-0.579407,down
350610,4.296875,8.253906,-1.699219,-0.330078,0.308594,-0.585937,0.221069,-0.047424,-0.782227,-0.580566,down
350615,4.296875,8.210938,-1.660156,-0.330078,0.308594,-0.585937,0.220825,-0.046082,-0.781616,-0.581482,down
350620,4.222656,8.210938,-1.621094,-0.330078,0.308594,-0.585937,0.220337,-0.043579,-0.780396,-0.583557,down
350625,4.222656,8.210938,-1.621094,-0.439453,0.265625,-0.46875,0.220337,-0.043579,-0.780396,-0.583557,down
350630,4.222656,8.175781,-1.621094,-0.439453,0.265625,-0.46875,0.220093,-0.042358,-0.779602,-0.584778,down
350635,4.183594,8.253906,-1.660156,-0.416016,0.248047,-0.384766,0.220093,-0.042358,-0.779602,-0.584778,down
350641,4.105469,8.289063,-1.851563,-0.416016,0.248047,-0.384766,0.219727,-0.039673,-0.777466,-0.587952,down
350647,4.066406,8.371094,-1.890625,-0.416016,0.248047,-0.384766,0.219666,-0.038757,-0.776794,-0.588928,down
350652,4.105469,8.367188,-1.851563,-0.220703,0.255859,-0.306641,0.219727,-0.037964,-0.776306,-0.5896,down
350657,4.105469,8.367188,-1.851563,-0.138672,0.265625,-0.300781,0.219788,-0.037109,-0.775879,-0.59021,down
350663,4.066406,8.445313,-1.929688,-0.138672,0.265625,-0.300781,0.219849,-0.036194,-0.775574,-0.590576,down
350669,4.027344,8.40625,-1.890625,-0.017578,0.291016,-0.294922,0.219849,-0.036194,-0.775574,-0.590576,down
350675,3.992188,8.445313,-1.8125,0.046875,0.300781,-0.292969,0.219849,-0.036194,-0.775574,-0.590576,down
350681,3.953125,8.445313,-1.738281,0.091797,0.326172,-0.285156,0.219849,-0.036194,-0.775574,-0.590576,down
350686,3.953125,8.515625,-1.738281,0.091797,0.326172,-0.285156,0.220825,-0.030945,-0.775085,-0.591187,down
350691,3.875,8.671875,-1.660156,0.091797,0.326172,-0.285156,0.221069,-0.029846,-0.775085,-0.591187,down
350696,3.835938,8.714844,-1.585938,0.091797,0.326172,-0.285156,0.221313,-0.028931,-0.775024,-0.591187,down
350701,3.835938,8.753906,-1.507813,0.033203,0.294922,-0.269531,0.221497,-0.027832,-0.774963,-0.591248,down
350706,3.761719,8.710938,-1.394531,0.001953,0.273438,-0.265625,0.22168,-0.026855,-0.774841,-0.591431,down
350711,3.800781,8.671875,-1.394531,0.001953,0.273438,-0.265625,0.221802,-0.026123,-0.774658,-0.591614,down
350717,3.761719,8.597656,-1.316406,0.001953,0.273438,-0.265625,0.221924,-0.025208,-0.774414,-0.59198,down
350722,3.761719,8.449219,-1.277344,-0.089844,0.201172,-0.232422,0.221985,-0.024475,-0.77417,-0.592285,down
350727,3.722656,8.449219,-1.203125,-0.095703,0.171875,-0.222656,0.221985,-0.024475,-0.77417,-0.592285,down
350733,3.722656,8.40625,-1.203125,-0.095703,0.171875,-0.222656,0.221985,-0.024475,-0.77417,-0.592285,down
350740,3.683594,8.410156,-1.203125,-0.052734,0.125,-0.207031,0.221985,-0.024475,-0.77417,-0.592285,down
350745,3.644531,8.410156,-1.203125,-0.033203,0.099609,-0.193359,0.221863,-0.021729,-0.773254,-0.593567,down
350750,3.644531,8.488281,-1.238281,-0.033203,0.099609,-0.193359,0.221863,-0.021729,-0.773254,-0.593567,down
350755,3.644531,8.445313,-1.277344,-0.033203,0.099609,-0.193359,0.221741,-0.02124,-0.773254,-0.593689,down
350761,3.644531,8.519531,-1.355469,0.041016,0.033203,-0.1875,0.221313,-0.020386,-0.773315,-0.593811,down
350766,3.644531,8.558594,-1.429688,0.041016,0.033203,-0.1875,0.221069,-0.019958,-0.773437,-0.59375,down
350771,3.644531,8.597656,-1.46875,0.09375,0.003906,-0.193359,0.220825,-0.01947,-0.77356,-0.593689,down
350776,3.644531,8.554688,-1.507813,0.09375,0.003906,-0.193359,0.220581,-0.019104,-0.773682,-0.593689,down
350781,3.644531,8.597656,-1.46875,0.097656,0.003906,-0.214844,0.220276,-0.018616,-0.773804,-0.593567,down
350787,3.644531,8.515625,-1.46875,0.097656,0.003906,-0.214844,0.220032,-0.018188,-0.773926,-0.593567,down
350792,3.644531,8.554688,-1.46875,0.044922,0.017578,-0.236328,0.220032,-0.018188,-0.773926,-0.593567,down
350798,3.644531,8.597656,-1.507813,0.023437,0.029297,-0.25,0.219421,-0.017151,-0.773987,-0.593689,down
350803,3.609375,8.597656,-1.394531,0.0,0.027344,-0.253906,0.219421,-0.017151,-0.773987,-0.593689,down
350809,3.609375,8.671875,-1.46875,-0.037109,0.03125,-0.265625,0.219421,-0.017151,-0.773987,-0.593689,down
350814,3.609375,8.671875,-1.46875,-0.058594,0.037109,-0.271484,0.219421,-0.017151,-0.773987,-0.593689,down
350819,3.570313,8.710938,-1.46875,-0.076172,0.033203,-0.271484,0.219421,-0.017151,-0.773987,-0.593689,down
350825,3.53125,8.714844,-1.585938,-0.076172,0.033203,-0.271484,0.217529,-0.013977,-0.773437,-0.595154,down
350830,3.492188,8.792969,-1.621094,-0.076172,0.033203,-0.271484,0.217529,-0.013977,-0.773437,-0.595154,down
350835,3.492188,8.832031,-1.738281,-0.109375,0.046875,-0.296875,0.217529,-0.013977,-0.773437,-0.595154,down
350840,3.53125,8.898438,-1.8125,-0.109375,0.046875,-0.296875,0.216919,-0.012878,-0.773132,-0.595886,down
350845,3.53125,8.941406,-1.851563,-0.109375,0.046875,-0.296875,0.216553,-0.012207,-0.772888,-0.596375,down
350851,3.53125,9.019531,-1.890625,-0.173828,0.089844,-0.375,0.216553,-0.012207,-0.772888,-0.596375,down
350856,3.53125,9.015625,-1.851563,-0.173828,0.089844,-0.375,0.215454,-0.010132,-0.772034,-0.5979,down
350861,3.492188,9.09375,-1.890625,-0.173828,0.089844,-0.375,0.215027,-0.009277,-0.771667,-0.598511,down
350866,3.492188,9.132813,-1.890625,-0.267578,0.115234,-0.486328,0.215027,-0.009277,-0.771667,-0.598511,down
350871,3.453125,9.136719,-1.8125,-0.326172,0.119141,-0.525391,0.214539,-0.008301,-0.771179,-0.599304,down
350876,3.492188,9.097656,-1.738281,-0.326172,0.119141,-0.525391,0.21344,-0.006287,-0.770081,-0.601196,down
350881,3.417969,9.136719,-1.699219,-0.326172,0.119141,-0.525391,0.21283,-0.00531,-0.769409,-0.602234,down
350886,3.417969,9.175781,-1.585938,-0.503906,0.101563,-0.646484,0.21283,-0.00531,-0.769409,-0.602234,down
350891,3.378906,9.132813,-1.394531,-0.556641,0.09375,-0.695312,0.212036,-0.004089,-0.768555,-0.603577,down
350896,3.339844,9.097656,-1.316406,-0.556641,0.09375,-0.695312,0.211243,-0.00293,-0.7677,-0.60498,down
350901,3.339844,9.097656,-1.316406,-0.626953,0.076172,-0.720703,0.210388,-0.001892,-0.766846,-0.606384,down
350906,3.261719,9.058594,-1.238281,-0.626953,0.076172,-0.720703,0.209473,-0.000732,-0.765808,-0.608032,down
350911,3.109375,8.976563,-1.046875,-0.808594,0.009766,-0.841797,0.209473,-0.000732,-0.765808,-0.608032,down
350916,3.109375,8.976563,-1.046875,-0.808594,0.009766,-0.841797,0.205872,0.002869,-0.762146,-0.61377,down
350921,3.03125,8.9375,-0.972656,-0.960937,-0.046875,-0.953125,0.205872,0.002869,-0.762146,-0.61377,down
350926,2.996094,8.9375,-0.933594,-1.035156,-0.0625,-1.009766,0.204224,0.004211,-0.760559,-0.616272,down
350932,2.996094,8.9375,-0.933594,-1.121094,-0.080078,-1.068359,0.20105,0.006714,-0.757507,-0.621033,down
350937,2.878906,8.867188,-0.933594,-1.210938,-0.080078,-1.119141,0.199097,0.008179,-0.755554,-0.624084,down
350942,2.839844,8.867188,-0.894531,-1.210938,-0.080078,-1.119141,0.197327,0.00946,-0.753723,-0.62677,down
350947,2.804688,8.828125,-0.820312,-1.210938,-0.080078,-1.119141,0.195435,0.010864,-0.751709,-0.629761,down
350953,2.726563,8.675781,-0.703125,-1.210938,-0.080078,-1.119141,0.195435,0.010864,-0.751709,-0.629761,down
350959,2.6875,8.675781,-0.625,-1.431641,-0.050781,-1.253906,0.195435,0.010864,-0.751709,-0.629761,down
350964,2.613281,8.671875,-0.511719,-1.451172,-0.029297,-1.257813,0.195435,0.010864,-0.751709,-0.629761,down
350970,2.535156,8.710938,-0.433594,-1.451172,-0.029297,-1.257813,0.195435,0.010864,-0.751709,-0.629761,down
350975,2.457031,8.789063,-0.398438,-1.408203,0.013672,-1.222656,0.195435,0.010864,-0.751709,-0.629761,down
350980,2.457031,8.867188,-0.398438,-1.226563,0.013672,-1.167969,0.195435,0.010864,-0.751709,-0.629761,down
350986,2.382813,8.980469,-0.207031,-1.226563,0.013672,-1.167969,0.180115,0.023499,-0.733643,-0.654785,down
350991,2.34375,9.015625,-0.207031,-1.226563,0.013672,-1.167969,0.180115,0.023499,-0.733643,-0.654785,down
350996,2.304688,9.097656,-0.242187,-0.839844,0.041016,-1.033203,0.180115,0.023499,-0.733643,-0.654785,down
351001,2.152344,9.175781,-0.242187,-0.839844,0.041016,-1.033203,0.17688,0.026672,-0.730225,-0.659424,down
351006,2.113281,9.25,-0.242187,-0.630859,0.025391,-0.955078,0.175293,0.028259,-0.72876,-0.661377,down
351012,2.113281,9.289063,-0.242187,-0.630859,0.025391,-0.955078,0.172302,0.031311,-0.726379,-0.664673,down
351017,2.074219,9.324219,-0.242187,-0.5,0.021484,-0.898437,0.170837,0.032776,-0.725342,-0.666016,down
351023,2.0,9.441406,-0.207031,-0.5,0.021484,-0.898437,0.169617,0.034058,-0.724548,-0.667175,down
351028,2.0,9.441406,-0.167969,-0.423828,0.021484,-0.849609,0.169617,0.034058,-0.724548,-0.667175,down
351033,2.0,9.515625,-0.089844,-0.429687,0.023437,-0.822266,0.169617,0.034058,-0.724548,-0.667175,down
351038,2.0,9.515625,-0.089844,-0.435547,0.029297,-0.791016,0.169617,0.034058,-0.724548,-0.667175,down
351044,1.84375,9.671875,-0.089844,-0.435547,0.029297,-0.791016,0.164551,0.039368,-0.721191,-0.671753,down
351049,1.84375,9.675781,-0.015625,-0.458984,0.041016,-0.753906,0.164551,0.039368,-0.721191,-0.671753,down
351054,1.769531,9.703125,0.023437,-0.460937,0.029297,-0.724609,0.164551,0.039368,-0.721191,-0.671753,down
351059,1.769531,9.675781,0.0625,-0.460937,0.029297,-0.724609,0.164551,0.039368,-0.721191,-0.671753,down
351065,1.769531,9.675781,0.0625,-0.451172,0.023437,-0.695312,0.160217,0.043945,-0.717712,-0.676208,down
351070,1.769531,9.675781,0.0625,-0.398438,0.0,-0.611328,0.15918,0.044922,-0.716919,-0.677246,down
351076,1.652344,9.675781,0.214844,-0.398438,0.0,-0.611328,0.15918,0.044922,-0.716919,-0.677246,down
351081,1.652344,9.636719,0.175781,-0.398438,0.0,-0.611328,0.157349,0.04657,-0.715637,-0.678955,down
351086,1.652344,9.597656,0.175781,-0.220703,-0.0625,-0.429687,0.156372,0.047363,-0.714966,-0.67981,down
351091,1.691406,9.59375,0.140625,-0.220703,-0.0625,-0.429687,0.15564,0.047913,-0.714478,-0.68042,down
351096,1.652344,9.675781,0.101563,-0.220703,-0.0625,-0.429687,0.154114,0.048889,-0.713867,-0.681335,down
351101,1.652344,9.707031,0.0625,-0.220703,-0.0625,-0.429687,0.153381,0.049255,-0.713745,-0.681641,down
351106,1.617188,9.785156,-0.015625,-0.220703,-0.0625,-0.429687,0.153381,0.049255,-0.713745,-0.681641,down
351111,1.652344,9.902344,-0.015625,-0.023437,-0.130859,-0.367188,0.153381,0.049255,-0.713745,-0.681641,down
351116,1.652344,9.9375,-0.015625,-0.035156,-0.142578,-0.378906,0.151733,0.050049,-0.713623,-0.682129,down
351121,1.652344,9.9375,-0.015625,-0.0625,-0.148437,-0.410156,0.150818,0.050476,-0.713501,-0.682373,down
351126,1.617188,10.054688,-0.089844,-0.0625,-0.148437,-0.410156,0.149902,0.050903,-0.71344,-0.682617,down
351131,1.617188,10.054688,-0.089844,-0.0625,-0.148437,-0.410156,0.147949,0.051758,-0.713013,-0.68335,down
351136,1.617188,10.019531,-0.050781,-0.0625,-0.148437,-0.410156,0.147949,0.051758,-0.713013,-0.68335,down
351141,1.617188,9.9375,-0.050781,-0.238281,-0.162109,-0.488281,0.147949,0.051758,-0.713013,-0.68335,down
351146,1.617188,9.785156,0.0625,-0.308594,-0.15625,-0.521484,0.147949,0.051758,-0.713013,-0.68335,down
351151,1.617188,9.742188,0.140625,-0.308594,-0.15625,-0.521484,0.143494,0.053833,-0.710754,-0.686523,down
351156,1.617188,9.742188,0.175781,-0.519531,-0.134766,-0.568359,0.143494,0.053833,-0.710754,-0.686523,down
351161,1.578125,9.675781,0.214844,-0.558594,-0.126953,-0.589844,0.142456,0.054321,-0.709961,-0.687561,down
351166,1.578125,9.59375,0.292969,-0.558594,-0.126953,-0.589844,0.141174,0.054993,-0.708862,-0.688843,down
351172,1.578125,9.59375,0.332031,-0.611328,-0.126953,-0.607422,0.140137,0.055603,-0.707886,-0.690063,down
351177,1.5,9.636719,0.367188,-0.611328,-0.126953,-0.607422,0.137878,0.056763,-0.705688,-0.692688,down
351182,1.460938,9.636719,0.367188,-0.611328,-0.126953,-0.607422,0.136536,0.057434,-0.704407,-0.694153,down
351187,1.5,9.671875,0.40625,-0.611328,-0.126953,-0.607422,0.135437,0.058044,-0.70343,-0.695374,down
351192,1.425781,9.703125,0.367188,-0.582031,-0.146484,-0.65625,0.134094,0.058777,-0.702209,-0.696716,down
351197,1.386719,9.746094,0.40625,-0.582031,-0.146484,-0.65625,0.132874,0.059387,-0.701294,-0.697876,down
351202,1.386719,9.78125,0.332031,-0.582031,-0.146484,-0.65625,0.13147,0.06012,-0.700195,-0.699158,down
351208,1.386719,9.859375,0.445312,-0.582031,-0.146484,-0.65625,0.130127,0.060791,-0.699219,-0.700317,down
351213,1.386719,9.898438,0.332031,-0.542969,-0.171875,-0.732422,0.130127,0.060791,-0.699219,-0.700317,down
351218,1.386719,9.898438,0.332031,-0.580078,-0.160156,-0.753906,0.127136,0.062378,-0.697083,-0.70282,down
351223,1.269531,9.859375,0.40625,-0.580078,-0.160156,-0.753906,0.125671,0.063171,-0.695984,-0.704163,down
351228,1.269531,9.824219,0.40625,-0.6875,-0.144531,-0.808594,0.125671,0.063171,-0.695984,-0.704163,down
351233,1.269531,9.859375,0.40625,-0.734375,-0.119141,-0.84375,0.125671,0.063171,-0.695984,-0.704163,down
351238,1.269531,9.859375,0.367188,-0.734375,-0.119141,-0.84375,0.121033,0.066101,-0.691895,-0.70874,down
351243,1.15625,9.707031,0.445312,-0.734375,-0.119141,-0.84375,0.119446,0.067261,-0.690247,-0.71051,down
351248,1.195313,9.78125,0.445312,-0.900391,-0.025391,-0.945312,0.119446,0.067261,-0.690247,-0.71051,down
351254,1.15625,9.746094,0.5625,-0.949219,0.005859,-0.962891,0.119446,0.067261,-0.690247,-0.71051,down
351259,1.078125,9.675781,0.597656,-0.949219,0.005859,-0.962891,0.114868,0.071228,-0.684753,-0.716125,down
351264,0.964844,9.636719,0.597656,-0.974609,0.089844,-0.972656,0.114868,0.071228,-0.684753,-0.716125,down
351269,0.964844,9.554688,0.5625,-0.953125,0.142578,-0.986328,0.114868,0.071228,-0.684753,-0.716125,down
351274,0.925781,9.4375,0.636719,-0.916016,0.160156,-0.980469,0.114868,0.071228,-0.684753,-0.716125,down
351279,0.925781,9.402344,0.714844,-0.916016,0.160156,-0.980469,0.109497,0.077698,-0.677063,-0.723572,down
351284,0.925781,9.402344,0.714844,-0.806641,0.263672,-0.958984,0.108276,0.079529,-0.675232,-0.725281,down
351289,0.8125,9.320313,0.789062,-0.806641,0.263672,-0.958984,0.108276,0.079529,-0.675232,-0.725281,down
351294,0.65625,9.292969,0.828125,-0.748047,0.322266,-0.945312,0.107239,0.081421,-0.673584,-0.726746,down
351300,0.582031,9.363281,0.828125,-0.556641,0.429687,-0.927734,0.106323,0.083374,-0.671997,-0.728149,down
351305,0.429687,9.554688,0.789062,-0.556641,0.429687,-0.927734,0.106323,0.083374,-0.671997,-0.728149,down
351310,0.273438,9.820313,0.980469,-0.556641,0.429687,-0.927734,0.103821,0.090027,-0.668213,-0.73114,down
351315,0.160156,9.863281,1.019531,-0.302734,0.486328,-0.9375,0.103821,0.090027,-0.668213,-0.73114,down
351320,0.121094,9.980469,0.945312,-0.248047,0.492187,-0.960937,0.103821,0.090027,-0.668213,-0.73114,down
351325,0.046875,10.09375,0.980469,-0.228516,0.486328,-0.990234,0.103821,0.090027,-0.668213,-0.73114,down
351330,-0.183594,10.28125,0.980469,-0.228516,0.486328,-0.990234,0.103821,0.090027,-0.668213,-0.73114,down
351335,-0.222656,10.398438,0.90625,-0.228516,0.486328,-0.990234,0.099243,0.102234,-0.663818,-0.734192,down
351340,-0.300781,10.398438,0.980469,-0.345703,0.457031,-1.150391,0.099243,0.102234,-0.663818,-0.734192,down
351345,-0.300781,10.476563,1.058594,-0.345703,0.457031,-1.150391,0.09668,0.107666,-0.661621,-0.735718,down
351350,-0.414062,10.507813,1.136719,-0.345703,0.457031,-1.150391,0.09668,0.107666,-0.661621,-0.735718,down
351355,-0.453125,10.480469,1.136719,-0.345703,0.457031,-1.150391,0.09375,0.113098,-0.658508,-0.738098,down
351361,-0.453125,10.480469,1.171875,-1.083984,0.457031,-1.537109,0.09375,0.113098,-0.658508,-0.738098,down
351367,-0.605469,10.585938,1.210938,-1.083984,0.457031,-1.537109,0.088623,0.122192,-0.651306,-0.743652,down
351372,-0.683594,10.628906,1.289063,-1.369141,0.46875,-1.677734,0.088623,0.122192,-0.651306,-0.743652,down
351377,-0.757812,10.707031,1.363281,-1.369141,0.46875,-1.677734,0.084717,0.128906,-0.644775,-0.748657,down
351382,-1.066406,11.125,1.519531,-1.369141,0.46875,-1.677734,0.084717,0.128906,-0.644775,-0.748657,down
351387,-1.21875,11.167969,1.59375,-1.666016,0.466797,-1.820313,0.082581,0.132446,-0.640991,-0.751465,down
351392,-1.332031,11.207031,1.710938,-1.666016,0.466797,-1.820313,0.078369,0.139343,-0.63324,-0.757263,down
351397,-1.410156,11.285156,1.75,-1.802734,0.462891,-1.865234,0.078369,0.139343,-0.63324,-0.757263,down
351402,-1.679688,11.390625,1.824219,-1.802734,0.462891,-1.865234,0.076294,0.1427,-0.62915,-0.760254,down
351407,-1.679688,11.390625,1.824219,-1.84375,0.462891,-1.878906,0.07428,0.145874,-0.625244,-0.763062,down
351412,-1.71875,11.390625,1.902344,-1.84375,0.462891,-1.878906,0.072083,0.149414,-0.620789,-0.766235,down
351417,-1.753906,11.394531,2.054688,-1.845703,0.398438,-1.833984,0.069885,0.152771,-0.616516,-0.769226,down
351422,-1.910156,11.472656,2.246094,-1.845703,0.398438,-1.833984,0.065491,0.159241,-0.607727,-0.775269,down
351427,-1.945313,11.46875,2.359375,-1.832031,0.365234,-1.755859,0.065491,0.159241,-0.607727,-0.775269,down
351432,-2.101563,11.472656,2.476563,-1.832031,0.365234,-1.755859,0.061096,0.165588,-0.598633,-0.781372,down
351437,-2.292969,11.355469,2.628906,-1.832031,0.365234,-1.755859,0.061096,0.165588,-0.598633,-0.781372,down
351443,-2.484375,11.550781,2.589844,-1.832031,0.365234,-1.755859,0.057251,0.170837,-0.59021,-0.786865,down
351449,-2.675781,11.507813,2.589844,-1.953125,0.324219,-1.539063,0.055481,0.173462,-0.585754,-0.789795,down
351454,-2.75,11.433594,2.628906,-2.009766,0.333984,-1.462891,0.055481,0.173462,-0.585754,-0.789795,down
351459,-3.019531,11.316406,2.742188,-2.009766,0.333984,-1.462891,0.052429,0.178406,-0.576294,-0.795776,down
351464,-3.132813,11.3125,2.9375,-2.056641,0.341797,-1.265625,0.052429,0.178406,-0.576294,-0.795776,down
351470,-3.363281,11.351563,2.972656,-2.021484,0.373047,-1.160156,0.052429,0.178406,-0.576294,-0.795776,down
351475,-3.515625,11.472656,2.972656,-2.021484,0.373047,-1.160156,0.049438,0.184937,-0.562256,-0.804504,down
351480,-3.59375,11.546875,3.050781,-2.021484,0.373047,-1.160156,0.049438,0.184937,-0.562256,-0.804504,down
351485,-3.707031,11.734375,3.242188,-1.833984,0.345703,-0.90625,0.048462,0.188354,-0.553894,-0.809509,down
351490,-3.707031,11.734375,3.242188,-1.517578,0.246094,-0.546875,0.048279,0.189575,-0.550354,-0.811707,down
351496,-4.09375,12.273438,3.703125,-1.517578,0.246094,-0.546875,0.048401,0.19043,-0.547119,-0.81366,down
351502,-4.246094,12.429688,3.703125,-1.517578,0.246094,-0.546875,0.048401,0.19043,-0.547119,-0.81366,down
351507,-4.246094,12.351563,3.855469,-1.070313,-0.017578,0.164062,0.050476,0.190063,-0.540039,-0.818359,down
351512,-4.128906,12.011719,4.125,-1.070313,-0.017578,0.164062,0.050476,0.190063,-0.540039,-0.818359,down
351517,-4.09375,11.777344,4.199219,-0.923828,-0.300781,0.830078,0.05188,0.188721,-0.538147,-0.819824,down
351522,-4.015625,11.433594,4.160156,-0.921875,-0.378906,1.03125,0.053345,0.187195,-0.536743,-0.820984,down
351527,-3.671875,10.707031,4.199219,-0.921875,-0.378906,1.03125,0.05542,0.184875,-0.535156,-0.822388,down
351532,-3.554688,10.398438,4.277344,-0.921875,-0.378906,1.03125,0.06012,0.179504,-0.532532,-0.824951,down
351537,-3.402344,10.167969,4.238281,-0.921875,-0.378906,1.03125,0.06012,0.179504,-0.532532,-0.824951,down
351542,-3.363281,9.976563,4.085937,-0.884766,-0.544922,1.548828,0.065674,0.172974,-0.530518,-0.827271,down
351547,-3.132813,9.59375,3.96875,-0.884766,-0.544922,1.548828,0.065674,0.172974,-0.530518,-0.827271,down
351552,-3.019531,9.558594,3.933594,-0.558594,-0.646484,1.972656,0.068848,0.16925,-0.529785,-0.828247,down
351558,-2.90625,9.597656,3.816406,-0.558594,-0.646484,1.972656,0.072388,0.1651,-0.529358,-0.829041,down
351563,-2.867188,9.675781,3.738281,-0.15625,-0.736328,2.279297,0.072388,0.1651,-0.529358,-0.829041,down
351569,-2.367188,9.59375,3.777344,-0.15625,-0.736328,2.279297,0.083374,0.151917,-0.530701,-0.829651,down
351574,-2.175781,9.476563,3.664063,0.345703,-0.835937,2.65625,0.087524,0.146912,-0.532227,-0.829163,down
351580,-2.023438,9.25,3.738281,0.591797,-0.910156,2.859375,0.087524,0.146912,-0.532227,-0.829163,down
351585,-1.792969,8.871094,3.738281,0.591797,-0.910156,2.859375,0.096619,0.135681,-0.537109,-0.826904,down
351590,-1.601563,8.488281,3.664063,0.921875,-0.96875,3.267578,0.096619,0.135681,-0.537109,-0.826904,down
351595,-1.371094,8.136719,3.664063,1.001953,-1.007813,3.443359,0.096619,0.135681,-0.537109,-0.826904,down
351600,-1.371094,8.136719,3.664063,1.042969,-1.029297,3.609375,0.112488,0.116638,-0.546875,-0.821411,down
351605,-0.949219,7.371094,3.664063,1.042969,-1.029297,3.609375,0.112488,0.116638,-0.546875,-0.821411,down
351610,-0.949219,7.371094,3.664063,1.064453,-1.015625,3.871094,0.124512,0.102661,-0.553894,-0.816833,down
351616,-0.335938,6.496094,3.28125,1.064453,-1.015625,3.871094,0.124512,0.102661,-0.553894,-0.816833,down
351622,0.160156,5.914062,3.089844,1.064453,-1.015625,3.871094,0.137207,0.088501,-0.560852,-0.811707,down
351628,0.390625,5.652344,2.972656,1.365234,-0.855469,4.107422,0.137207,0.088501,-0.560852,-0.811707,down
351633,0.582031,5.457031,2.859375,1.365234,-0.855469,4.107422,0.158264,0.066284,-0.572571,-0.801697,down
351639,0.773437,5.308594,2.707031,1.365234,-0.855469,4.107422,0.164612,0.060059,-0.576355,-0.798218,down
351644,1.308594,4.84375,2.476563,1.365234,-0.855469,4.107422,0.171509,0.053528,-0.580688,-0.794067,down
351649,1.5,4.648437,2.398438,2.035156,-0.541016,4.105469,0.171509,0.053528,-0.580688,-0.794067,down
351655,1.652344,4.425781,2.207031,2.238281,-0.443359,4.085937,0.171509,0.053528,-0.580688,-0.794067,down
351660,1.652344,4.425781,2.207031,2.414063,-0.351563,4.044922,0.192871,0.035461,-0.595276,-0.779236,down
351665,1.769531,4.269531,2.246094,2.529297,-0.25,4.013672,0.199951,0.03009,-0.600464,-0.773621,down
351670,1.769531,4.269531,2.246094,2.529297,-0.25,4.013672,0.199951,0.03009,-0.600464,-0.773621,down
351675,2.113281,3.65625,2.167969,2.689453,0.039063,3.921875,0.214661,0.020264,-0.611145,-0.761597,down
351680,2.265625,3.195313,2.246094,2.689453,0.039063,3.921875,0.222046,0.01593,-0.616333,-0.75531,down
351687,2.648438,2.695313,2.628906,2.689453,0.039063,3.921875,0.222046,0.01593,-0.616333,-0.75531,down
351692,2.769531,2.429688,2.667969,3.060547,0.453125,3.976563,0.222046,0.01593,-0.616333,-0.75531,down
351697,2.804688,2.238281,2.820313,3.060547,0.453125,3.976563,0.245544,0.004028,-0.632324,-0.734741,down
351702,2.726563,2.007813,3.050781,3.060547,0.453125,3.976563,0.253662,0.000427,-0.637817,-0.727234,down
351708,2.765625,1.472656,3.46875,3.265625,0.486328,4.044922,0.253662,0.000427,-0.637817,-0.727234,down
351713,2.726563,1.128906,3.511719,3.265625,0.486328,4.044922,0.279053,-0.010376,-0.655151,-0.701965,down
351718,2.726563,0.859375,3.433594,3.265625,0.486328,4.044922,0.285767,-0.013184,-0.660034,-0.694702,down
351723,2.6875,0.667969,3.511719,3.802734,0.34375,4.0,0.294312,-0.016907,-0.666626,-0.684631,down
351729,2.765625,0.132812,3.507813,3.802734,0.34375,4.0,0.301086,-0.019836,-0.672302,-0.675964,down
351735,2.765625,-0.136719,3.472656,4.148437,0.128906,3.804688,0.301086,-0.019836,-0.672302,-0.675964,down
351740,2.765625,-0.136719,3.472656,4.291016,0.0,3.677734,0.314819,-0.026001,-0.685547,-0.655945,down
351745,2.726563,-0.175781,3.390625,4.435547,-0.123047,3.568359,0.320862,-0.02887,-0.692383,-0.64563,down
351750,2.726563,-0.175781,3.390625,4.556641,-0.216797,3.451172,0.320862,-0.02887,-0.692383,-0.64563,down
351755,2.726563,-0.175781,3.390625,4.664062,-0.273438,3.345703,0.331909,-0.034241,-0.706665,-0.623901,down
351760,2.535156,-0.136719,2.515625,4.664062,-0.273438,3.345703,0.331909,-0.034241,-0.706665,-0.623901,down
351766,2.230469,0.171875,1.75,4.757812,-0.306641,3.160156,0.331909,-0.034241,-0.706665,-0.623901,down
351771,2.152344,0.246094,1.402344,4.757812,-0.306641,3.160156,0.346252,-0.040833,-0.728088,-0.59021,down
351776,2.191406,0.476562,1.097656,4.693359,-0.369141,2.943359,0.346252,-0.040833,-0.728088,-0.59021,down
351781,2.191406,0.707031,0.753906,4.693359,-0.369141,2.943359,0.354431,-0.044495,-0.741577,-0.567871,down
351787,2.191406,0.707031,0.753906,4.574219,-0.527344,2.578125,0.354431,-0.044495,-0.741577,-0.567871,down
351792,2.191406,0.707031,0.714844,4.574219,-0.527344,2.578125,0.361328,-0.047668,-0.7547,-0.545532,down
351797,2.1875,0.667969,0.675781,4.441406,-0.546875,2.320313,0.361328,-0.047668,-0.7547,-0.545532,down
351802,2.191406,0.667969,0.636719,4.441406,-0.546875,2.320313,0.367004,-0.050232,-0.767151,-0.523682,down
351807,1.578125,0.476562,0.40625,4.349609,-0.513672,2.199219,0.369507,-0.05127,-0.77301,-0.513184,down
351812,1.578125,0.476562,0.40625,4.306641,-0.515625,2.041016,0.369507,-0.05127,-0.77301,-0.513184,down
351818,0.699219,-0.519531,0.675781,4.306641,-0.515625,2.041016,0.371826,-0.052002,-0.778809,-0.502502,down
351823,0.351563,-0.671875,1.058594,4.203125,-0.671875,1.628906,0.37616,-0.052673,-0.795349,-0.472412,down
351828,0.046875,-0.710937,1.328125,4.259766,-0.859375,1.070313,0.37616,-0.052673,-0.795349,-0.472412,down
351833,-0.875,-0.75,2.015625,4.259766,-0.859375,1.070313,0.376587,-0.052002,-0.80127,-0.462036,down
351838,-1.296875,-0.941406,2.164063,4.185547,-1.207031,0.398438,0.376282,-0.050903,-0.807007,-0.452332,down
351844,-2.367188,-1.628906,1.902344,4.185547,-1.207031,0.398438,0.373474,-0.047424,-0.81781,-0.435242,down
351849,-2.753906,-1.285156,1.671875,3.949219,-1.548828,-0.466797,0.373474,-0.047424,-0.81781,-0.435242,down
351854,-3.132813,-0.980469,1.824219,3.949219,-1.548828,-0.466797,0.366821,-0.041504,-0.829285,-0.419495,down
351859,-3.519531,-0.75,2.132813,3.949219,-1.548828,-0.466797,0.361694,-0.037781,-0.835083,-0.412781,down
351865,-4.320312,-0.175781,2.589844,3.949219,-1.548828,-0.466797,0.354858,-0.033142,-0.841125,-0.406738,down
351870,-4.585937,0.054687,2.628906,3.162109,-2.992188,-2.857422,0.354858,-0.033142,-0.841125,-0.406738,down
351876,-6.15625,1.96875,3.050781,3.162109,-2.992188,-2.857422,0.337036,-0.02179,-0.852905,-0.398132,down
351881,-6.15625,1.96875,3.050781,2.427734,-4.111328,-4.333984,0.337036,-0.02179,-0.852905,-0.398132,down
351887,-7.078125,3.542969,3.050781,2.427734,-4.111328,-4.333984,0.324829,-0.014709,-0.858948,-0.395569,down
351892,-9.152344,4.730469,2.09375,1.150391,-5.570312,-6.080078,0.294067,0.000854,-0.870117,-0.395508,down
351897,-9.71875,6.070312,1.25,0.318359,-6.277344,-6.949219,0.27417,0.009888,-0.875061,-0.398682,down
351902,-10.101563,7.21875,0.597656,-0.753906,-7.152344,-7.869141,0.27417,0.009888,-0.875061,-0.398682,down
351907,-10.484375,8.367188,-1.046875,-0.753906,-7.152344,-7.869141,0.224854,0.029602,-0.881653,-0.413818,down
351912,-10.90625,9.097656,-2.542969,-0.753906,-7.152344,-7.869141,0.197937,0.039246,-0.88208,-0.42572,down
351918,-11.605469,9.671875,-4.191406,-5.648437,-9.255859,-11.033203,0.197937,0.039246,-0.88208,-0.42572,down
351923,-11.867188,11.203125,-6.027344,-7.345703,-9.492188,-12.177734,0.10083,0.076294,-0.865662,-0.484375,down
351928,-12.480469,13.5,-8.289063,-7.345703,-9.492188,-12.177734,0.064636,0.091675,-0.853149,-0.509521,down
351933,-12.40625,14.457031,-8.554688,-11.271484,-10.228516,-15.826172,0.064636,0.091675,-0.853149,-0.509521,down
351938,-12.480469,15.03125,-8.824219,-11.271484,-10.228516,-15.826172,0.01416,-0.129272,0.815369,0.564148,down
351943,-13.898438,13.425781,-9.285156,-11.271484,-10.228516,-15.826172,0.01416,-0.129272,0.815369,0.564148,down
351948,-15.011719,12.542969,-9.4375,-11.271484,-10.228516,-15.826172,0.097778,-0.182068,0.755371,0.621826,down
351953,-16.582031,12.046875,-9.476563,-11.271484,-10.228516,-15.826172,0.097778,-0.182068,0.755371,0.621826,down
351958,-17.921875,11.242188,-8.941406,-14.806641,-6.048828,-21.166016,0.097778,-0.182068,0.755371,0.621826,down
351964,-17.921875,11.242188,-8.941406,-14.150391,-5.244141,-21.525391,0.2052,-0.27179,0.645264,0.683838,down
351970,-25.046875,16.414062,-3.769531,-14.150391,-5.244141,-21.525391,0.243469,-0.307495,0.599426,0.697754,down
351977,-24.46875,16.796875,-2.617188,-11.779297,-4.083984,-21.111328,0.243469,-0.307495,0.599426,0.697754,down
351982,-25.316406,20.78125,-1.316406,-10.744141,-3.582031,-20.220703,0.243469,-0.307495,0.599426,0.697754,down
351988,-24.351562,17.867187,-0.167969,-9.902344,-3.279297,-18.955078,0.362671,-0.416687,0.441345,0.707153,down
351993,-22.136719,15.070313,0.980469,-9.902344,-3.279297,-18.955078,0.362671,-0.416687,0.441345,0.707153,down
351998,-19.988281,10.320313,4.238281,-8.099609,-2.771484,-15.4375,0.362671,-0.416687,0.441345,0.707153,down
352003,-20.222656,7.449219,5.921875,-8.099609,-2.771484,-15.4375,0.404297,-0.453064,0.375671,0.700134,down
352008,-20.488281,5.074219,7.109375,-3.484375,-1.65625,-9.259766,0.404297,-0.453064,0.375671,0.700134,down
352013,-20.367187,3.082031,7.839844,-3.484375,-1.65625,-9.259766,0.437378,-0.478149,0.323486,0.689514,down
352018,-19.03125,0.628906,8.144531,-3.484375,-1.65625,-9.259766,0.449585,-0.484985,0.307739,0.684082,down
352024,-18.730469,0.589844,7.722656,0.419922,-0.783203,-5.525391,0.469421,-0.489685,0.294312,0.673218,down
352030,-18.304687,1.089844,6.382812,0.419922,-0.783203,-5.525391,0.478577,-0.489014,0.294739,0.667053,down
352035,-18.074219,1.742188,5.464844,3.775391,1.083984,-1.132813,0.484558,-0.487549,0.298645,0.661987,down
352040,-18.226562,4.078125,3.242188,3.775391,1.083984,-1.132813,0.489807,-0.485229,0.306641,0.656189,down
352045,-18.226562,5.1875,3.050781,5.091797,2.160156,0.583984,0.489807,-0.485229,0.306641,0.656189,down
352050,-18.34375,6.03125,3.320313,5.34375,2.550781,1.064453,0.489807,-0.485229,0.306641,0.656189,down
352055,-18.535156,6.757812,3.320313,5.34375,2.550781,1.064453,0.499268,-0.475708,0.342712,0.637939,down
352060,-18.53125,8.597656,3.128906,5.34375,2.550781,1.064453,0.500854,-0.472534,0.356506,0.63147,down
352065,-18.609375,9.25,3.28125,5.103516,2.880859,1.398438,0.500854,-0.472534,0.356506,0.63147,down
352070,-18.726562,9.515625,3.433594,5.025391,2.484375,1.128906,0.500854,-0.472534,0.356506,0.63147,down
352075,-18.070312,9.324219,3.933594,5.025391,2.484375,1.128906,0.500854,-0.472534,0.356506,0.63147,down
352080,-18.070312,9.324219,3.933594,4.550781,1.166016,0.480469,0.500854,-0.472534,0.356506,0.63147,down
352085,-16.503906,8.292969,4.925781,4.550781,1.166016,0.480469,0.512146,-0.453369,0.41217,0.601868,down
352090,-14.746094,6.453125,6.382812,4.550781,1.166016,0.480469,0.512146,-0.453369,0.41217,0.601868,down
352095,-13.703125,5.535156,6.957031,1.279297,-0.355469,-0.037109,0.512146,-0.453369,0.41217,0.601868,down
352100,-12.75,4.347656,6.652344,-0.21875,-0.333984,-0.136719,0.512146,-0.453369,0.41217,0.601868,down
352106,-11.988281,2.773438,5.539062,-1.492188,-0.279297,-0.1875,0.512146,-0.453369,0.41217,0.601868,down
352111,-11.488281,2.316406,5.273437,-2.589844,-0.384766,-0.185547,0.512146,-0.453369,0.41217,0.601868,down
352116,-10.984375,2.164063,5.15625,-3.376953,-0.574219,-0.175781,0.512146,-0.453369,0.41217,0.601868,down
352121,-10.183594,1.933594,5.121094,-4.050781,-0.730469,-0.144531,0.512146,-0.453369,0.41217,0.601868,down
352126,-9.1875,1.242188,4.773437,-4.431641,-0.740234,-0.099609,0.512146,-0.453369,0.41217,0.601868,down
352131,-8.878906,0.746094,4.351562,-4.451172,-0.662109,-0.044922,0.512146,-0.453369,0.41217,0.601868,down
352137,-8.6875,0.476562,3.894531,-4.078125,-0.568359,0.037109,0.512146,-0.453369,0.41217,0.601868,down
352142,-8.652344,-0.289063,3.433594,-3.367188,-0.496094,0.152344,0.512146,-0.453369,0.41217,0.601868,down
352148,-8.570313,-0.480469,3.472656,-1.238281,-0.390625,0.361328,0.512146,-0.453369,0.41217,0.601868,down
352153,-8.609375,-0.519531,3.511719,-1.238281,-0.390625,0.361328,0.489075,-0.476868,0.365906,0.632019,down
352158,-8.609375,-0.441406,3.703125,0.722656,-0.128906,0.476562,0.489075,-0.476868,0.365906,0.632019,down
352163,-8.847656,-0.441406,3.894531,0.722656,-0.128906,0.476562,0.487671,-0.475952,0.365417,0.634155,down
352168,-8.996094,-0.328125,3.777344,0.722656,-0.128906,0.476562,0.48822,-0.474182,0.367615,0.633789,down
352174,-9.257813,-0.019531,3.546875,2.037109,0.263672,0.5,0.491028,-0.468994,0.375916,0.630554,down
352179,-9.640625,0.4375,3.28125,2.992188,0.330078,0.445312,0.493225,-0.465698,0.381226,0.628052,down
352185,-9.417969,1.394531,3.320313,2.992188,0.330078,0.445312,0.495789,-0.462097,0.386658,0.625427,down
352191,-9.796875,2.046875,3.664063,3.185547,0.115234,0.472656,0.495789,-0.462097,0.386658,0.625427,down
352196,-10.0625,2.507813,4.007812,2.626953,0.09375,0.517578,0.501404,-0.453552,0.398193,0.619934,down
352201,-9.996094,2.699219,4.007812,2.626953,0.09375,0.517578,0.502808,-0.450806,0.401978,0.618408,down
352206,-10.105469,2.738281,3.816406,1.169922,0.242187,0.603516,0.502808,-0.450806,0.401978,0.618408,down
352212,-10.21875,2.621094,3.625,0.542969,0.273438,0.628906,0.502808,-0.450806,0.401978,0.618408,down
352217,-10.296875,2.621094,3.320313,0.123047,0.210937,0.662109,0.502808,-0.450806,0.401978,0.618408,down
352223,-10.222656,2.507813,3.355469,-0.248047,0.083984,0.685547,0.502808,-0.450806,0.401978,0.618408,down
352229,-10.257813,2.277344,3.394531,-0.509766,-0.023437,0.695312,0.497864,-0.446167,0.409851,0.620544,down
352234,-10.296875,1.742188,3.128906,-0.509766,-0.023437,0.695312,0.496033,-0.44635,0.409302,0.622253,down
352239,-10.300781,1.511719,3.011719,-0.509766,-0.023437,0.695312,0.494446,-0.446533,0.408569,0.62384,down
352244,-10.339844,1.320313,2.898438,-0.6875,-0.265625,0.480469,0.494446,-0.446533,0.408569,0.62384,down
352249,-10.21875,1.242188,2.898438,-0.488281,-0.335938,0.388672,0.49292,-0.446594,0.407593,0.62561,down
352254,-9.996094,1.320313,2.742188,-0.488281,-0.335938,0.388672,0.491333,-0.446045,0.406189,0.628174,down
352259,-9.957031,1.394531,2.667969,-0.488281,-0.335938,0.388672,0.491211,-0.445312,0.405884,0.629028,down
352264,-9.761719,1.28125,2.667969,0.205078,-0.429687,0.224609,0.491211,-0.445312,0.405884,0.629028,down
352269,-9.800781,1.359375,2.78125,0.205078,-0.429687,0.224609,0.491455,-0.444214,0.405823,0.6297,down
352275,-9.417969,1.050781,2.9375,0.205078,-0.429687,0.224609,0.492371,-0.441895,0.406311,0.630249,down
352280,-9.417969,1.050781,2.9375,0.423828,-0.308594,0.246094,0.49292,-0.440613,0.40686,0.630371,down
352285,-9.414063,1.089844,3.011719,0.423828,-0.308594,0.246094,0.493103,-0.439514,0.407349,0.630676,down
352291,-9.414063,0.976562,2.707031,0.423828,-0.308594,0.246094,0.492981,-0.438904,0.407593,0.631042,down
352296,-9.335938,0.976562,2.628906,-0.007813,-0.080078,0.314453,0.492981,-0.438904,0.407593,0.631042,down
352302,-9.257813,1.011719,2.628906,0.107422,-0.082031,0.332031,0.492981,-0.438904,0.407593,0.631042,down
352307,-9.148438,1.089844,2.707031,0.107422,-0.082031,0.332031,0.491882,-0.437317,0.408691,0.632263,down
352312,-9.070313,1.128906,2.898438,0.107422,-0.082031,0.332031,0.491882,-0.437317,0.408691,0.632263,down
352317,-9.070313,1.011719,2.859375,0.107422,-0.082031,0.332031,0.490906,-0.436218,0.409973,0.632935,down
352322,-9.152344,0.859375,2.820313,-0.044922,0.148437,0.521484,0.490906,-0.436218,0.409973,0.632935,down
352327,-9.152344,0.746094,2.742188,-0.044922,0.148437,0.521484,0.488831,-0.43573,0.411438,0.633972,down
352332,-9.109375,0.746094,2.667969,0.050781,0.1875,0.572266,0.488831,-0.43573,0.411438,0.633972,down
352337,-9.070313,0.78125,2.667969,0.210937,0.195312,0.580078,0.488831,-0.43573,0.411438,0.633972,down
352342,-8.996094,0.859375,2.628906,0.367188,0.199219,0.582031,0.488831,-0.43573,0.411438,0.633972,down
352347,-9.03125,1.089844,2.667969,0.367188,0.199219,0.582031,0.488831,-0.43573,0.411438,0.633972,down
352352,-9.191406,1.167969,2.628906,0.367188,0.199219,0.582031,0.48468,-0.432678,0.417969,0.634949,down
352357,-9.230469,1.128906,2.667969,0.599609,0.212891,0.636719,0.48468,-0.432678,0.417969,0.634949,down
352362,-9.257813,1.128906,2.667969,0.59375,0.199219,0.634766,0.48468,-0.432678,0.417969,0.634949,down
352367,-9.296875,1.167969,2.742188,0.59375,0.199219,0.634766,0.48468,-0.432678,0.417969,0.634949,down
352373,-9.339844,1.167969,2.742188,0.59375,0.199219,0.634766,0.482422,-0.428528,0.425354,0.634583,down
352379,-9.261719,1.359375,2.707031,0.472656,0.126953,0.556641,0.482422,-0.428528,0.425354,0.634583,down
352384,-9.257813,1.472656,2.667969,0.396484,0.085937,0.519531,0.480896,-0.425781,0.429504,0.634766,down
352389,-9.1875,1.550781,2.667969,0.224609,0.001953,0.46875,0.480896,-0.425781,0.429504,0.634766,down
352394,-9.113281,1.585938,2.628906,0.144531,-0.017578,0.458984,0.480347,-0.424927,0.430542,0.635071,down
352399,-9.113281,1.550781,2.628906,0.144531,-0.017578,0.458984,0.479248,-0.423584,0.431946,0.635864,down
352404,-9.035156,1.28125,2.589844,0.144531,-0.017578,0.458984,0.479248,-0.423584,0.431946,0.635864,down
352409,-8.957031,1.203125,2.589844,0.144531,-0.017578,0.458984,0.477966,-0.422546,0.432617,0.637024,down
352414,-8.804688,1.011719,2.628906,0.144531,-0.017578,0.458984,0.477966,-0.422546,0.432617,0.637024,down
352419,-8.726563,1.011719,2.550781,0.144531,-0.017578,0.458984,0.476685,-0.421814,0.432739,0.638489,down
352424,-8.609375,1.050781,2.515625,0.144531,-0.017578,0.458984,0.476074,-0.421509,0.432678,0.639099,down
352429,-8.613281,1.128906,2.398438,0.144531,-0.017578,0.458984,0.476074,-0.421509,0.432678,0.639099,down
352434,-8.453125,1.242188,2.359375,-0.160156,-0.109375,0.3125,0.476074,-0.421509,0.432678,0.639099,down
352439,-8.574219,1.203125,2.359375,-0.160156,-0.109375,0.3125,0.474365,-0.420593,0.432617,0.641052,down
352444,-8.453125,0.9375,2.246094,-0.160156,-0.109375,0.3125,0.474365,-0.420593,0.432617,0.641052,down
352449,-8.457031,0.859375,2.285156,-0.060547,-0.052734,0.337891,0.473267,-0.419861,0.432983,0.642029,down
352454,-8.535156,0.667969,2.398438,-0.060547,-0.052734,0.337891,0.473267,-0.419861,0.432983,0.642029,down
352459,-8.570313,0.667969,2.398438,-0.060547,-0.052734,0.337891,0.472717,-0.419556,0.433289,0.642456,down
352464,-8.613281,0.628906,2.398438,0.005859,0.044922,0.308594,0.47168,-0.418945,0.434143,0.643066,down
352469,-8.652344,0.707031,2.359375,0.005859,0.044922,0.308594,0.47168,-0.418945,0.434143,0.643066,down
352474,-8.691406,0.859375,2.398438,0.005859,0.044922,0.308594,0.471069,-0.418213,0.435669,0.642944,down
352479,-8.726563,1.089844,2.359375,0.005859,0.044922,0.308594,0.471069,-0.418213,0.435669,0.642944,down
352484,-8.769531,1.320313,2.398438,0.375,0.179687,0.234375,0.470703,-0.41748,0.437744,0.642334,down
352489,-8.914063,1.625,2.324219,0.375,0.179687,0.234375,0.470703,-0.41748,0.437744,0.642334,down
352494,-8.992188,1.703125,2.398438,0.472656,0.25,0.240234,0.47052,-0.417114,0.438904,0.641907,down
352499,-9.074219,1.742188,2.398438,0.472656,0.25,0.240234,0.470276,-0.416626,0.440308,0.641357,down
352505,-9.152344,1.777344,2.476563,0.472656,0.25,0.240234,0.46991,-0.415894,0.44281,0.640381,down
352511,-9.1875,1.816406,2.550781,0.472656,0.25,0.240234,0.469727,-0.415588,0.44397,0.639954,down
352516,-9.1875,1.855469,2.550781,0.285156,0.216797,0.205078,0.469727,-0.415588,0.44397,0.639954,down
352522,-9.148438,1.894531,2.550781,0.205078,0.210937,0.195312,0.469727,-0.415588,0.44397,0.639954,down
352527,-9.191406,1.933594,2.515625,0.205078,0.210937,0.195312,0.468811,-0.415039,0.446533,0.63916,down
352533,-9.191406,1.96875,2.515625,0.052734,0.167969,0.189453,0.468811,-0.415039,0.446533,0.63916,down
352538,-9.1875,1.933594,2.476563,-0.023437,0.148437,0.189453,0.468811,-0.415039,0.446533,0.63916,down
352544,-9.1875,1.894531,2.476563,-0.080078,0.132812,0.189453,0.468811,-0.415039,0.446533,0.63916,down
352549,-9.148438,1.894531,2.515625,-0.080078,0.132812,0.189453,0.466858,-0.415283,0.447998,0.639465,down
352555,-9.1875,1.855469,2.515625,-0.134766,0.089844,0.169922,0.466858,-0.415283,0.447998,0.639465,down
352560,-9.226563,1.894531,2.476563,-0.134766,0.089844,0.169922,0.46521,-0.415649,0.448303,0.640198,down
352566,-9.1875,1.664063,2.476563,-0.134766,0.089844,0.169922,0.464783,-0.41571,0.448425,0.640381,down
352571,-9.152344,1.625,2.476563,-0.044922,0.0625,0.146484,0.464783,-0.41571,0.448425,0.640381,down
352576,-9.152344,1.625,2.476563,-0.007813,0.0625,0.132812,0.464783,-0.41571,0.448425,0.640381,down
352581,-9.074219,1.585938,2.515625,-0.007813,0.0625,0.132812,0.463745,-0.41571,0.449036,0.640686,down
352588,-9.074219,1.585938,2.515625,0.076172,0.070312,0.123047,0.463745,-0.41571,0.449036,0.640686,down
352593,-9.03125,1.585938,2.515625,0.128906,0.095703,0.115234,0.463745,-0.41571,0.449036,0.640686,down
352599,-9.03125,1.703125,2.515625,0.181641,0.107422,0.113281,0.463074,-0.415222,0.450867,0.640198,down
352604,-8.953125,1.742188,2.515625,0.181641,0.107422,0.113281,0.463074,-0.415222,0.450867,0.640198,down
352609,-8.953125,1.816406,2.476563,0.253906,0.154297,0.126953,0.463074,-0.415222,0.450867,0.640198,down
352614,-8.996094,1.894531,2.476563,0.253906,0.154297,0.126953,0.46283,-0.414856,0.452209,0.639648,down
352619,-8.996094,1.96875,2.4375,0.253906,0.154297,0.126953,0.462708,-0.414673,0.453064,0.639343,down
352624,-8.996094,1.96875,2.4375,0.253906,0.154297,0.126953,0.462524,-0.41449,0.453796,0.638977,down
352630,-8.996094,2.007813,2.476563,0.304688,0.201172,0.160156,0.462158,-0.414124,0.455627,0.638184,down
352636,-9.074219,2.125,2.515625,0.304688,0.201172,0.160156,0.461975,-0.41394,0.456543,0.637817,down
352641,-9.074219,2.125,2.515625,0.285156,0.240234,0.177734,0.461731,-0.413818,0.457458,0.63739,down
352646,-9.113281,2.199219,2.515625,0.255859,0.253906,0.185547,0.461731,-0.413818,0.457458,0.63739,down
352651,-9.109375,2.164063,2.550781,0.222656,0.248047,0.201172,0.461731,-0.413818,0.457458,0.63739,down
352656,-9.152344,2.125,2.589844,0.222656,0.248047,0.201172,0.461731,-0.413818,0.457458,0.63739,down
352661,-9.152344,2.125,2.589844,0.175781,0.242187,0.208984,0.461731,-0.413818,0.457458,0.63739,down
352666,-9.1875,2.125,2.589844,0.142578,0.242187,0.216797,0.461731,-0.413818,0.457458,0.63739,down
352673,-9.152344,2.007813,2.628906,0.142578,0.242187,0.216797,0.45929,-0.413452,0.462402,0.635803,down
352679,-9.1875,2.007813,2.628906,0.099609,0.226562,0.216797,0.45929,-0.413452,0.462402,0.635803,down
352685,-9.230469,2.046875,2.628906,0.103516,0.222656,0.214844,0.457764,-0.413513,0.464355,0.635498,down
352690,-9.226563,2.007813,2.628906,0.103516,0.222656,0.214844,0.457275,-0.413513,0.464966,0.635376,down
352695,-9.226563,1.96875,2.628906,0.121094,0.214844,0.197266,0.456726,-0.413513,0.465698,0.635254,down
352701,-9.191406,1.855469,2.628906,0.121094,0.214844,0.197266,0.45636,-0.413452,0.466309,0.635132,down
352706,-9.1875,1.894531,2.628906,0.15625,0.193359,0.183594,0.455933,-0.413391,0.467041,0.634888,down
352712,-9.1875,1.894531,2.628906,0.15625,0.193359,0.183594,0.455627,-0.41333,0.467651,0.634705,down
352718,-9.230469,1.855469,2.628906,0.214844,0.222656,0.166016,0.455627,-0.41333,0.467651,0.634705,down
352723,-9.230469,1.816406,2.628906,0.240234,0.226562,0.154297,0.455627,-0.41333,0.467651,0.634705,down
352729,-9.261719,1.777344,2.707031,0.240234,0.226562,0.154297,0.455627,-0.41333,0.467651,0.634705,down
352734,-9.261719,1.816406,2.742188,0.277344,0.220703,0.107422,0.455627,-0.41333,0.467651,0.634705,down
352739,-9.257813,1.855469,2.707031,0.277344,0.220703,0.107422,0.454346,-0.412903,0.471619,0.632996,down
352744,-9.230469,1.933594,2.742188,0.277344,0.220703,0.107422,0.454224,-0.412781,0.472412,0.632507,down
