timestamp,ax,ay,az,gx,gy,gz,qw,qx,qy,qz,label
43911,4.996094,8.164063,-1.605469,-0.039063,-0.076172,-0.056641,0.200684,-0.175781,-0.748596,-0.606995,down
43916,4.996094,8.167969,-1.683594,-0.035156,-0.113281,-0.052734,0.200317,-0.175842,-0.748596,-0.607056,down
43921,4.996094,8.207031,-1.683594,-0.035156,-0.113281,-0.052734,0.200012,-0.175903,-0.748657,-0.607117,down
43926,5.035156,8.203125,-1.796875,-0.035156,-0.113281,-0.052734,0.199646,-0.175964,-0.748657,-0.607178,down
43931,4.996094,8.28125,-1.796875,-0.021484,-0.109375,-0.058594,0.199646,-0.175964,-0.748657,-0.607178,down
43936,5.074219,8.28125,-1.835938,-0.021484,-0.109375,-0.058594,0.198975,-0.176025,-0.748718,-0.6073,down
43941,4.996094,8.316406,-1.875,-0.005859,-0.097656,-0.068359,0.198975,-0.176025,-0.748718,-0.6073,down
43946,4.996094,8.316406,-1.875,-0.005859,-0.097656,-0.068359,0.198303,-0.175964,-0.74884,-0.607361,down
43951,5.035156,8.355469,-1.953125,-0.009766,-0.072266,-0.083984,0.198303,-0.175964,-0.74884,-0.607361,down
43956,4.996094,8.390625,-1.914063,-0.009766,-0.072266,-0.083984,0.197754,-0.175842,-0.748962,-0.607483,down
43961,5.035156,8.355469,-1.953125,-0.009766,-0.072266,-0.083984,0.197449,-0.17572,-0.749023,-0.607544,down
43966,5.035156,8.355469,-1.914063,-0.009766,-0.072266,-0.083984,0.197205,-0.175598,-0.749084,-0.607605,down
43971,4.996094,8.355469,-1.835938,-0.009766,-0.072266,-0.083984,0.197205,-0.175598,-0.749084,-0.607605,down
43976,4.996094,8.355469,-1.875,-0.03125,-0.037109,-0.089844,0.197205,-0.175598,-0.749084,-0.607605,down
43981,4.996094,8.351563,-1.796875,-0.03125,-0.037109,-0.089844,0.196472,-0.175232,-0.749084,-0.60791,down
43986,4.996094,8.351563,-1.796875,-0.03125,-0.037109,-0.089844,0.196228,-0.17511,-0.749084,-0.608032,down
43991,4.957031,8.3125,-1.796875,-0.044922,-0.035156,-0.064453,0.196228,-0.17511,-0.749084,-0.608032,down
43996,4.957031,8.351563,-1.761719,-0.044922,-0.035156,-0.064453,0.195801,-0.174927,-0.749023,-0.608276,down
44001,4.957031,8.351563,-1.796875,-0.044922,-0.035156,-0.064453,0.195618,-0.174866,-0.748962,-0.608398,down
44006,4.957031,8.3125,-1.761719,-0.044922,-0.035156,-0.064453,0.195618,-0.174866,-0.748962,-0.608398,down
44011,4.957031,8.3125,-1.761719,-0.025391,-0.042969,-0.052734,0.19519,-0.174805,-0.748962,-0.608582,down
44016,4.917969,8.3125,-1.761719,-0.025391,-0.042969,-0.052734,0.19519,-0.174805,-0.748962,-0.608582,down
44021,4.957031,8.351563,-1.761719,0.005859,-0.037109,-0.041016,0.19519,-0.174805,-0.748962,-0.608582,down
44026,4.957031,8.351563,-1.796875,0.005859,-0.037109,-0.041016,0.194824,-0.174683,-0.749023,-0.608704,down
44031,4.957031,8.394531,-1.761719,0.005859,-0.037109,-0.041016,0.194702,-0.174622,-0.749084,-0.608704,down
44036,4.957031,8.394531,-1.761719,0.005859,-0.037109,-0.041016,0.194458,-0.174561,-0.749207,-0.608643,down
44041,4.957031,8.351563,-1.796875,0.005859,-0.037109,-0.041016,0.194458,-0.174561,-0.749207,-0.608643,down
44046,4.917969,8.351563,-1.761719,0.039063,-0.015625,-0.013672,0.194336,-0.174438,-0.749329,-0.608582,down
44051,4.957031,8.28125,-1.796875,0.039063,-0.015625,-0.013672,0.194336,-0.174438,-0.749329,-0.608582,down
44056,4.957031,8.28125,-1.722656,0.039063,-0.015625,-0.013672,0.194214,-0.174377,-0.749451,-0.608398,down
44061,4.957031,8.3125,-1.722656,0.039063,-0.015625,-0.013672,0.194214,-0.174377,-0.749451,-0.608398,down
44066,4.996094,8.3125,-1.722656,0.050781,-0.001953,0.009766,0.194214,-0.174316,-0.749634,-0.608276,down
44071,4.996094,8.242188,-1.722656,0.050781,-0.001953,0.009766,0.194275,-0.174255,-0.749695,-0.608154,down
44076,4.996094,8.28125,-1.722656,0.050781,-0.001953,0.009766,0.194275,-0.174194,-0.749756,-0.608093,down
44081,4.996094,8.28125,-1.761719,0.050781,-0.001953,0.009766,0.194275,-0.174194,-0.749756,-0.608093,down
44086,4.996094,8.285156,-1.683594,0.074219,0.0,0.023437,0.194275,-0.174194,-0.749756,-0.608093,down
44091,4.996094,8.285156,-1.683594,0.082031,0.001953,0.019531,0.194336,-0.174133,-0.749939,-0.607849,down
44096,4.957031,8.285156,-1.683594,0.074219,0.001953,0.013672,0.194458,-0.174133,-0.750061,-0.607666,down
44101,4.957031,8.316406,-1.683594,0.074219,0.001953,0.013672,0.19458,-0.174133,-0.750122,-0.607605,down
44107,4.996094,8.316406,-1.683594,0.078125,-0.007813,0.0,0.194641,-0.174133,-0.750183,-0.607483,down
44112,4.996094,8.355469,-1.683594,0.078125,-0.007813,0.0,0.194763,-0.174072,-0.750366,-0.607239,down
44118,4.996094,8.351563,-1.722656,0.078125,-0.007813,0.0,0.194763,-0.174072,-0.750427,-0.607117,down
44124,4.996094,8.3125,-1.722656,0.078125,-0.007813,0.0,0.194763,-0.174072,-0.750488,-0.607056,down
44129,4.957031,8.316406,-1.644531,0.078125,-0.007813,0.0,0.194763,-0.174072,-0.750488,-0.607056,down
44134,4.957031,8.3125,-1.722656,0.003906,-0.025391,-0.017578,0.194763,-0.174072,-0.750488,-0.607056,down
44140,4.957031,8.316406,-1.683594,-0.007813,-0.029297,-0.021484,0.194763,-0.174072,-0.750488,-0.607056,down
44145,4.957031,8.355469,-1.683594,-0.007813,-0.029297,-0.021484,0.194763,-0.174072,-0.750488,-0.607056,down
44150,4.957031,8.351563,-1.761719,-0.023437,-0.042969,-0.029297,0.194763,-0.174072,-0.750488,-0.607056,down
44155,4.957031,8.433594,-1.761719,-0.029297,-0.044922,-0.039063,0.194763,-0.174072,-0.750488,-0.607056,down
44161,4.917969,8.433594,-1.796875,-0.033203,-0.054687,-0.033203,0.194031,-0.174194,-0.750305,-0.607483,down
44166,4.917969,8.433594,-1.796875,-0.033203,-0.054687,-0.033203,0.194031,-0.174194,-0.750305,-0.607483,down
44171,4.957031,8.433594,-1.796875,-0.035156,-0.056641,-0.041016,0.194031,-0.174194,-0.750305,-0.607483,down
44176,4.917969,8.429688,-1.835938,-0.035156,-0.060547,-0.046875,0.194031,-0.174194,-0.750305,-0.607483,down
44181,4.917969,8.429688,-1.875,-0.035156,-0.060547,-0.046875,0.193542,-0.174316,-0.750183,-0.607727,down
44186,4.917969,8.472656,-1.914063,-0.035156,-0.060547,-0.046875,0.193359,-0.174316,-0.750183,-0.607849,down
44192,4.882812,8.429688,-1.875,-0.013672,-0.0625,-0.035156,0.193359,-0.174316,-0.750183,-0.607849,down
44197,4.882812,8.472656,-1.875,-0.013672,-0.0625,-0.035156,0.192932,-0.174438,-0.750122,-0.607971,down
44203,4.84375,8.429688,-1.875,-0.013672,-0.0625,-0.035156,0.19281,-0.174438,-0.750122,-0.608032,down
44208,4.84375,8.429688,-1.875,-0.003906,-0.054687,-0.005859,0.192688,-0.1745,-0.750122,-0.608032,down
44213,4.882812,8.472656,-1.875,-0.003906,-0.054687,-0.005859,0.192627,-0.174622,-0.750122,-0.608032,down
44218,4.882812,8.429688,-1.875,-0.003906,-0.054687,-0.005859,0.192566,-0.174683,-0.750122,-0.608032,down
44224,4.84375,8.429688,-1.953125,-0.003906,-0.054687,-0.005859,0.192566,-0.174683,-0.750122,-0.608032,down
44229,4.84375,8.429688,-1.914063,0.023437,-0.033203,0.011719,0.192566,-0.174683,-0.750122,-0.608032,down
44234,4.84375,8.472656,-1.914063,0.023437,-0.033203,0.011719,0.192505,-0.174866,-0.750183,-0.60791,down
44240,4.84375,8.472656,-1.953125,0.035156,-0.021484,0.013672,0.192505,-0.174866,-0.750183,-0.60791,down
44245,4.84375,8.472656,-1.914063,0.03125,-0.019531,0.017578,0.192505,-0.174866,-0.750183,-0.60791,down
44250,4.882812,8.394531,-1.796875,0.025391,-0.009766,0.015625,0.192505,-0.174866,-0.750183,-0.60791,down
44255,4.882812,8.355469,-1.875,0.027344,-0.003906,0.017578,0.192566,-0.174988,-0.750305,-0.607727,down
44261,4.882812,8.390625,-1.835938,0.023437,0.0,0.007813,0.192566,-0.174988,-0.750305,-0.607727,down
44266,4.882812,8.351563,-1.796875,0.019531,-0.001953,0.003906,0.192566,-0.174988,-0.750305,-0.607727,down
44271,4.882812,8.3125,-1.761719,0.019531,-0.001953,0.003906,0.192627,-0.174988,-0.750305,-0.607666,down
44276,4.882812,8.3125,-1.761719,0.019531,-0.001953,0.003906,0.192627,-0.174988,-0.750305,-0.607666,down
44282,4.84375,8.28125,-1.796875,-0.003906,0.0,0.0,0.192627,-0.174988,-0.750305,-0.607666,down
44288,4.84375,8.28125,-1.796875,-0.005859,-0.001953,-0.001953,0.192627,-0.174988,-0.750305,-0.607727,down
44293,4.882812,8.28125,-1.796875,-0.005859,-0.001953,-0.001953,0.192627,-0.174988,-0.750244,-0.607727,down
44299,4.84375,8.28125,-1.722656,0.013672,0.003906,-0.007813,0.192627,-0.174927,-0.750244,-0.607788,down
44305,4.882812,8.28125,-1.761719,0.017578,-0.009766,-0.001953,0.192627,-0.174927,-0.750244,-0.607788,down
44311,4.84375,8.28125,-1.722656,0.017578,-0.009766,-0.001953,0.192627,-0.174927,-0.750244,-0.607788,down
44316,4.84375,8.28125,-1.722656,0.033203,-0.011719,-0.011719,0.192627,-0.174927,-0.750244,-0.607788,down
44321,4.84375,8.28125,-1.722656,0.023437,-0.017578,-0.005859,0.192627,-0.174927,-0.750244,-0.607788,down
44326,4.804687,8.242188,-1.683594,0.023437,-0.017578,-0.005859,0.192505,-0.174866,-0.750427,-0.607605,down
44332,4.84375,8.207031,-1.683594,0.025391,-0.03125,-0.021484,0.192505,-0.174866,-0.750427,-0.607605,down
44337,4.84375,8.167969,-1.683594,0.025391,-0.03125,-0.021484,0.192261,-0.174805,-0.75061,-0.607544,down
44342,4.804687,8.164063,-1.683594,0.025391,-0.03125,-0.021484,0.192139,-0.174744,-0.75061,-0.607544,down
44347,4.804687,8.203125,-1.644531,-0.007813,-0.046875,-0.052734,0.192139,-0.174744,-0.75061,-0.607544,down
44352,4.765625,8.164063,-1.644531,-0.007813,-0.046875,-0.052734,0.191956,-0.174744,-0.750671,-0.607605,down
44357,4.765625,8.164063,-1.644531,-0.03125,-0.054687,-0.070312,0.191956,-0.174744,-0.750671,-0.607605,down
44362,4.765625,8.207031,-1.722656,-0.03125,-0.054687,-0.070312,0.191284,-0.174561,-0.750671,-0.607788,down
44367,4.765625,8.246094,-1.722656,-0.052734,-0.068359,-0.091797,0.191284,-0.174561,-0.750671,-0.607788,down
44372,4.804687,8.242188,-1.683594,-0.066406,-0.078125,-0.095703,0.190979,-0.1745,-0.750671,-0.60791,down
44377,4.804687,8.285156,-1.722656,-0.066406,-0.078125,-0.095703,0.190308,-0.174438,-0.75061,-0.608215,down
44382,4.804687,8.285156,-1.761719,-0.066406,-0.078125,-0.095703,0.189941,-0.174377,-0.750549,-0.608398,down
44387,4.84375,8.285156,-1.875,-0.066406,-0.078125,-0.095703,0.189941,-0.174377,-0.750549,-0.608398,down
44392,4.84375,8.285156,-1.835938,-0.068359,-0.099609,-0.105469,0.189941,-0.174377,-0.750549,-0.608398,down
44397,4.84375,8.316406,-1.914063,-0.068359,-0.099609,-0.105469,0.188843,-0.174255,-0.750488,-0.608887,down
44402,4.84375,8.316406,-1.914063,-0.068359,-0.099609,-0.105469,0.188477,-0.174255,-0.750488,-0.609009,down
44407,4.84375,8.355469,-1.953125,-0.068359,-0.099609,-0.105469,0.188477,-0.174255,-0.750488,-0.609009,down
44412,4.84375,8.390625,-1.953125,-0.042969,-0.095703,-0.101563,0.188477,-0.174255,-0.750488,-0.609009,down
44417,4.84375,8.429688,-1.988281,-0.042969,-0.095703,-0.101563,0.187683,-0.174194,-0.750488,-0.609253,down
44422,4.84375,8.429688,-1.953125,-0.042969,-0.095703,-0.101563,0.187378,-0.174133,-0.750549,-0.609314,down
44427,4.84375,8.429688,-1.988281,0.019531,-0.089844,-0.083984,0.187378,-0.174133,-0.750549,-0.609314,down
44433,4.84375,8.429688,-1.988281,0.021484,-0.082031,-0.082031,0.186462,-0.174011,-0.750793,-0.609314,down
44439,4.765625,8.351563,-1.875,0.021484,-0.082031,-0.082031,0.186157,-0.17395,-0.750916,-0.609314,down
44444,4.765625,8.351563,-1.875,0.013672,-0.070312,-0.097656,0.185913,-0.173889,-0.750977,-0.609253,down
44449,4.765625,8.351563,-1.914063,0.013672,-0.070312,-0.097656,0.185608,-0.173767,-0.751099,-0.609314,down
44454,4.726562,8.429688,-1.835938,0.013672,-0.070312,-0.097656,0.185608,-0.173767,-0.751099,-0.609314,down
44459,4.691406,8.433594,-1.835938,-0.037109,-0.070312,-0.125,0.185608,-0.173767,-0.751099,-0.609314,down
44465,4.652344,8.46875,-1.796875,-0.0625,-0.070312,-0.142578,0.185608,-0.173767,-0.751099,-0.609314,down
44471,4.613281,8.507813,-1.761719,-0.0625,-0.070312,-0.142578,0.185608,-0.173767,-0.751099,-0.609314,down
44477,4.613281,8.507813,-1.796875,-0.109375,-0.089844,-0.177734,0.185608,-0.173767,-0.751099,-0.609314,down
44482,4.574219,8.628906,-1.761719,-0.148437,-0.105469,-0.212891,0.185608,-0.173767,-0.751099,-0.609314,down
44488,4.535156,8.664063,-1.722656,-0.148437,-0.105469,-0.212891,0.181946,-0.172607,-0.750854,-0.611023,down
44493,4.5,8.667969,-1.683594,-0.207031,-0.130859,-0.265625,0.181152,-0.172363,-0.750732,-0.61145,down
44499,4.5,8.734375,-1.644531,-0.207031,-0.130859,-0.265625,0.180481,-0.17218,-0.750549,-0.611938,down
44505,4.34375,8.816406,-1.644531,-0.207031,-0.130859,-0.265625,0.179565,-0.171936,-0.750366,-0.612488,down
44510,4.34375,8.855469,-1.53125,-0.289063,-0.181641,-0.330078,0.179565,-0.171936,-0.750366,-0.612488,down
44515,4.34375,8.855469,-1.53125,-0.308594,-0.189453,-0.355469,0.179565,-0.171936,-0.750366,-0.612488,down
44520,4.304687,8.933594,-1.453125,-0.357422,-0.207031,-0.384766,0.179565,-0.171936,-0.750366,-0.612488,down
44525,4.191406,9.011719,-1.378906,-0.400391,-0.21875,-0.414062,0.179565,-0.171936,-0.750366,-0.612488,down
44531,4.191406,9.007813,-1.414063,-0.400391,-0.21875,-0.414062,0.174133,-0.170654,-0.749023,-0.616089,down
44537,4.152344,9.007813,-1.339844,-0.529297,-0.292969,-0.498047,0.174133,-0.170654,-0.749023,-0.616089,down
44542,4.113281,9.050781,-1.222656,-0.529297,-0.292969,-0.498047,0.169617,-0.169861,-0.74762,-0.619263,down
44547,4.039062,9.046875,-1.183594,-0.603516,-0.314453,-0.5625,0.169617,-0.169861,-0.74762,-0.619263,down
44552,3.960938,9.085938,-1.261719,-0.634766,-0.339844,-0.589844,0.167786,-0.169556,-0.747009,-0.620544,down
44557,3.921875,9.160156,-1.183594,-0.634766,-0.339844,-0.589844,0.166016,-0.16925,-0.746399,-0.621826,down
44562,3.886719,9.089844,-1.070313,-0.634766,-0.339844,-0.589844,0.162354,-0.16864,-0.745117,-0.624512,down
44567,3.808594,9.117188,-1.109375,-0.785156,-0.386719,-0.669922,0.162354,-0.16864,-0.745117,-0.624512,down
44572,3.808594,9.089844,-0.992187,-0.820312,-0.400391,-0.693359,0.160095,-0.168274,-0.744324,-0.62616,down
44577,3.847656,9.046875,-0.917969,-0.820312,-0.400391,-0.693359,0.157959,-0.167908,-0.743469,-0.627747,down
44583,3.730469,8.96875,-0.992187,-0.820312,-0.400391,-0.693359,0.153442,-0.167175,-0.74176,-0.631165,down
44589,3.65625,9.007813,-0.878906,-0.820312,-0.400391,-0.693359,0.151123,-0.16687,-0.740845,-0.632812,down
44594,3.65625,9.007813,-0.917969,-0.888672,-0.46875,-0.736328,0.148926,-0.166565,-0.740051,-0.634338,down
44599,3.578125,9.085938,-0.878906,-0.888672,-0.46875,-0.736328,0.146545,-0.16626,-0.739136,-0.636047,down
44604,3.503906,9.15625,-0.839844,-0.888672,-0.46875,-0.736328,0.143982,-0.165955,-0.738159,-0.637817,down
44609,3.464844,9.160156,-0.800781,-0.886719,-0.53125,-0.757812,0.143982,-0.165955,-0.738159,-0.637817,down
44614,3.464844,9.121094,-0.800781,-0.886719,-0.53125,-0.757812,0.143982,-0.165955,-0.738159,-0.637817,down
44619,3.425781,9.160156,-0.839844,-0.898437,-0.556641,-0.783203,0.143982,-0.165955,-0.738159,-0.637817,down
44624,3.425781,9.121094,-0.839844,-0.896484,-0.570312,-0.787109,0.143982,-0.165955,-0.738159,-0.637817,down
44630,3.347656,9.089844,-0.839844,-0.875,-0.587891,-0.785156,0.143982,-0.165955,-0.738159,-0.637817,down
44635,3.347656,9.089844,-0.878906,-0.853516,-0.611328,-0.802734,0.143982,-0.165955,-0.738159,-0.637817,down
44641,3.234375,9.050781,-0.839844,-0.841797,-0.619141,-0.800781,0.143982,-0.165955,-0.738159,-0.637817,down
44646,3.273438,8.96875,-0.878906,-0.822266,-0.607422,-0.802734,0.143982,-0.165955,-0.738159,-0.637817,down
44651,3.117188,9.007813,-0.878906,-0.822266,-0.607422,-0.802734,0.143982,-0.165955,-0.738159,-0.637817,down
44657,3.082031,9.011719,-0.917969,-0.773437,-0.615234,-0.798828,0.143982,-0.165955,-0.738159,-0.637817,down
44662,3.042969,9.011719,-0.917969,-0.722656,-0.644531,-0.8125,0.143982,-0.165955,-0.738159,-0.637817,down
44667,2.964844,9.15625,-0.878906,-0.722656,-0.644531,-0.8125,0.111389,-0.163086,-0.727905,-0.656616,down
44672,2.964844,9.273438,-0.839844,-0.722656,-0.644531,-0.8125,0.108521,-0.162842,-0.727234,-0.657898,down
44677,2.925781,9.390625,-0.800781,-0.683594,-0.683594,-0.835937,0.108521,-0.162842,-0.727234,-0.657898,down
44682,2.925781,9.390625,-0.800781,-0.675781,-0.722656,-0.833984,0.102722,-0.162415,-0.725952,-0.660339,down
44687,2.925781,9.539063,-0.800781,-0.671875,-0.744141,-0.839844,0.102722,-0.162415,-0.725952,-0.660339,down
44692,2.851563,9.777344,-0.800781,-0.671875,-0.744141,-0.839844,0.096619,-0.16217,-0.724731,-0.662659,down
44697,2.8125,9.773438,-0.878906,-0.767578,-0.767578,-0.814453,0.096619,-0.16217,-0.724731,-0.662659,down
44702,2.851563,9.855469,-0.957031,-0.767578,-0.767578,-0.814453,0.090576,-0.161987,-0.723328,-0.6651,down
44708,2.851563,9.882813,-0.878906,-0.8125,-0.802734,-0.796875,0.084045,-0.162109,-0.721558,-0.667847,down
44713,2.851563,9.8125,-0.765625,-0.947266,-0.898437,-0.771484,0.080811,-0.162354,-0.72052,-0.669312,down
44718,2.925781,9.886719,-0.726562,-1.021484,-0.919922,-0.757812,0.077515,-0.162659,-0.71936,-0.670898,down
44723,2.964844,9.925781,-0.726562,-1.021484,-0.919922,-0.757812,0.07428,-0.163025,-0.718079,-0.672485,down
44729,3.042969,9.921875,-0.574219,-1.021484,-0.919922,-0.757812,0.070618,-0.163513,-0.716553,-0.674438,down
44734,3.15625,9.882813,-0.609375,-1.234375,-0.933594,-0.708984,0.070618,-0.163513,-0.716553,-0.674438,down
44739,3.15625,9.882813,-0.609375,-1.285156,-0.929687,-0.689453,0.064209,-0.164429,-0.71344,-0.678101,down
44745,3.234375,9.695313,-0.6875,-1.285156,-0.929687,-0.689453,0.06073,-0.164978,-0.711609,-0.680237,down
44750,3.273438,9.738281,-0.6875,-1.335938,-0.875,-0.652344,0.06073,-0.164978,-0.711609,-0.680237,down
44757,3.425781,9.695313,-0.726562,-1.341797,-0.835937,-0.626953,0.06073,-0.164978,-0.711609,-0.680237,down
44762,3.425781,9.734375,-0.800781,-1.306641,-0.802734,-0.595703,0.06073,-0.164978,-0.711609,-0.680237,down
44768,3.503906,9.773438,-0.839844,-1.195313,-0.789062,-0.505859,0.06073,-0.164978,-0.711609,-0.680237,down
44773,3.578125,9.851563,-0.726562,-1.195313,-0.789062,-0.505859,0.04248,-0.168213,-0.700378,-0.692383,down
44778,3.617188,9.921875,-0.726562,-1.195313,-0.789062,-0.505859,0.040161,-0.168701,-0.698914,-0.693848,down
44783,3.65625,10.039063,-0.765625,-0.867187,-0.634766,-0.378906,0.040161,-0.168701,-0.698914,-0.693848,down
44788,3.695313,10.078125,-0.839844,-0.867187,-0.634766,-0.378906,0.035645,-0.1698,-0.696228,-0.696533,down
44793,3.617188,10.277344,-0.917969,-0.867187,-0.634766,-0.378906,0.035645,-0.1698,-0.696228,-0.696533,down
44798,3.65625,10.421875,-0.957031,-0.867187,-0.634766,-0.378906,0.032227,-0.170837,-0.694336,-0.698303,down
44803,3.730469,10.460938,-0.917969,-0.867187,-0.634766,-0.378906,0.030701,-0.171448,-0.693604,-0.698975,down
44808,3.769531,10.542969,-0.878906,-0.326172,-0.53125,-0.119141,0.030701,-0.171448,-0.693604,-0.698975,down
44813,3.886719,10.847656,-0.648437,-0.326172,-0.53125,-0.119141,0.028198,-0.172852,-0.692627,-0.699707,down
44818,4.0,11.039063,-0.609375,-0.326172,-0.53125,-0.119141,0.027039,-0.173706,-0.692322,-0.69989,down
44823,4.0,11.039063,-0.609375,-0.326172,-0.53125,-0.119141,0.027039,-0.173706,-0.692322,-0.69989,down
44828,4.113281,11.148438,-0.496094,-0.166016,-0.519531,0.029297,0.027039,-0.173706,-0.692322,-0.69989,down
44833,4.304687,11.535156,-0.457031,-0.158203,-0.509766,0.064453,0.025208,-0.175537,-0.691772,-0.700012,down
44838,4.304687,11.535156,-0.457031,-0.173828,-0.486328,0.09375,0.024414,-0.176514,-0.691467,-0.700073,down
44843,4.34375,11.53125,-0.417969,-0.208984,-0.457031,0.101563,0.022949,-0.178589,-0.690613,-0.700439,down
44848,4.421875,11.613281,-0.417969,-0.208984,-0.457031,0.101563,0.022339,-0.179443,-0.690125,-0.700745,down
44853,4.34375,11.769531,-0.265625,-0.208984,-0.457031,0.101563,0.021606,-0.180359,-0.689453,-0.701172,down
44858,4.304687,11.878906,-0.226562,-0.416016,-0.332031,0.039063,0.020935,-0.180969,-0.688843,-0.70166,down
44863,4.152344,12.148438,-0.035156,-0.494141,-0.294922,-0.003906,0.020935,-0.180969,-0.688843,-0.70166,down
44869,4.0,12.378906,0.195312,-0.494141,-0.294922,-0.003906,0.019409,-0.182007,-0.687134,-0.703125,down
44874,3.921875,12.535156,0.269531,-0.691406,-0.21875,-0.125,0.018555,-0.182312,-0.686035,-0.704163,down
44880,3.847656,12.683594,0.386719,-0.789062,-0.179687,-0.189453,0.017578,-0.182373,-0.684814,-0.705322,down
44886,3.695313,12.917969,0.613281,-0.789062,-0.179687,-0.189453,0.016479,-0.182312,-0.68335,-0.706726,down
44891,3.65625,13.03125,0.84375,-1.044922,-0.144531,-0.322266,0.016479,-0.182312,-0.68335,-0.706726,down
44896,3.65625,13.183594,1.0,-1.201172,-0.154297,-0.369141,0.016479,-0.182312,-0.68335,-0.706726,down
44901,3.539063,13.417969,1.265625,-1.394531,-0.177734,-0.423828,0.016479,-0.182312,-0.68335,-0.706726,down
44906,3.539063,13.445313,1.6875,-1.394531,-0.177734,-0.423828,0.016479,-0.182312,-0.68335,-0.706726,down
44912,3.425781,13.296875,1.992188,-1.394531,-0.177734,-0.423828,0.008545,-0.180664,-0.672485,-0.717712,down
44918,3.347656,13.101563,2.109375,-2.136719,-0.189453,-0.503906,0.004089,-0.179687,-0.665161,-0.724792,down
44924,3.234375,12.953125,2.261719,-2.699219,-0.201172,-0.521484,0.001709,-0.179199,-0.660767,-0.728882,down
44929,3.195313,12.53125,2.414063,-2.953125,-0.238281,-0.521484,0.00116,0.17865,0.655334,0.733887,down
44935,2.964844,11.878906,2.605469,-2.953125,-0.238281,-0.521484,0.003967,0.178284,0.649841,0.738892,down
44940,2.890625,11.691406,2.722656,-3.257813,-0.375,-0.505859,0.006531,0.17804,0.644775,0.743286,down
44945,2.734375,11.042969,3.105469,-3.257813,-0.375,-0.505859,0.009705,0.177917,0.638672,0.748535,down
44951,2.734375,10.660156,3.296875,-3.40625,-0.496094,-0.517578,0.009705,0.177917,0.638672,0.748535,down
44957,2.734375,10.460938,3.527344,-3.386719,-0.556641,-0.523437,0.009705,0.177917,0.638672,0.748535,down
44963,2.734375,10.304688,3.949219,-3.386719,-0.556641,-0.523437,0.009705,0.177917,0.638672,0.748535,down
44968,2.699219,10.238281,4.140625,-3.072266,-0.716797,-0.566406,0.009705,0.177917,0.638672,0.748535,down
44973,2.582031,10.078125,4.367187,-3.072266,-0.716797,-0.566406,0.026672,0.178467,0.608276,0.772949,down
44978,2.542969,9.921875,4.332031,-3.072266,-0.716797,-0.566406,0.030518,0.178833,0.602173,0.777466,down
44983,2.542969,9.921875,4.332031,-2.724609,-0.773437,-0.585937,0.033752,0.179138,0.597351,0.781006,down
44988,2.390625,9.699219,4.445312,-2.5625,-0.832031,-0.59375,0.033752,0.179138,0.597351,0.781006,down
44993,2.429688,9.8125,4.789062,-2.400391,-0.919922,-0.585937,0.040955,0.180237,0.587585,0.787781,down
44998,2.429688,9.851563,4.90625,-2.269531,-1.017578,-0.566406,0.044495,0.18103,0.583191,0.790649,down
45004,2.351563,9.882813,4.867187,-2.181641,-1.097656,-0.539062,0.052429,0.183472,0.574036,0.796326,down
45009,2.351563,9.960938,4.828125,-2.181641,-1.097656,-0.539062,0.055969,0.184814,0.570007,0.798584,down
45014,2.351563,9.964844,4.945312,-2.181641,-1.097656,-0.539062,0.059448,0.186462,0.566162,0.80072,down
45019,2.429688,9.925781,4.945312,-2.107422,-1.529297,-0.337891,0.059448,0.186462,0.566162,0.80072,down
45024,2.429688,9.773438,4.980469,-2.107422,-1.529297,-0.337891,0.067566,0.191223,0.556946,0.80542,down
45030,2.582031,9.273438,4.867187,-2.107422,-1.529297,-0.337891,0.070923,0.193542,0.55304,0.807251,down
45035,2.621094,9.007813,4.714844,-2.095703,-1.773438,-0.125,0.070923,0.193542,0.55304,0.807251,down
45042,2.660156,8.667969,4.675781,-2.056641,-1.84375,-0.066406,0.070923,0.193542,0.55304,0.807251,down
45047,2.890625,8.472656,4.714844,-1.994141,-1.931641,-0.017578,0.070923,0.193542,0.55304,0.807251,down
45052,3.15625,8.125,4.789062,-1.994141,-1.931641,-0.017578,0.070923,0.193542,0.55304,0.807251,down
45058,3.195313,8.007813,4.714844,-1.791016,-2.035156,0.035156,0.070923,0.193542,0.55304,0.807251,down
45063,3.195313,8.007813,4.714844,-1.630859,-2.050781,0.041016,0.092834,0.21405,0.526855,0.817322,down
45068,3.234375,7.96875,4.5625,-1.421875,-2.064453,0.050781,0.092834,0.21405,0.526855,0.817322,down
45073,3.273438,7.859375,4.253906,-1.207031,-2.074219,0.052734,0.09967,0.221924,0.519897,0.818848,down
45078,3.273438,7.859375,4.253906,-0.982422,-2.097656,0.072266,0.102844,0.225952,0.51709,0.819153,down
45083,3.273438,8.050781,4.175781,-0.982422,-2.097656,0.072266,0.108826,0.234375,0.512756,0.818726,down
45088,3.273438,8.3125,3.984375,-0.412109,-2.123047,0.085937,0.108826,0.234375,0.512756,0.818726,down
45093,3.234375,8.511719,3.871094,-0.412109,-2.123047,0.085937,0.111938,0.239136,0.510925,0.818115,down
45098,3.195313,8.738281,3.757813,-0.318359,-2.142578,0.095703,0.117188,0.247498,0.508301,0.816467,down
45103,3.195313,8.890625,3.640625,-0.318359,-2.142578,0.095703,0.117188,0.247498,0.508301,0.816467,down
45108,3.082031,9.085938,3.257813,-0.244141,-2.142578,0.087891,0.12262,0.256348,0.505798,0.814514,down
45113,3.042969,9.117188,3.105469,-0.244141,-2.142578,0.087891,0.12262,0.256348,0.505798,0.814514,down
45118,3.082031,9.199219,3.066406,-0.320313,-2.251953,0.097656,0.128357,0.265564,0.502869,0.8125,down
45123,3.15625,9.160156,3.066406,-0.462891,-2.453125,0.121094,0.128357,0.265564,0.502869,0.8125,down
45128,3.386719,9.160156,3.144531,-0.462891,-2.453125,0.121094,0.131409,0.270386,0.50116,0.811462,down
45134,3.386719,9.050781,3.144531,-0.570312,-2.513672,0.111328,0.138184,0.28064,0.496826,0.809509,down
45139,3.425781,8.890625,3.027344,-0.810547,-2.550781,0.078125,0.141602,0.285522,0.494385,0.808716,down
45144,3.503906,8.585938,2.914063,-0.810547,-2.550781,0.078125,0.14563,0.291016,0.491394,0.807861,down
45149,3.578125,8.429688,2.835938,-0.888672,-2.59375,-0.003906,0.14563,0.291016,0.491394,0.807861,down
45154,3.617188,8.128906,2.683594,-0.857422,-2.599609,-0.044922,0.149353,0.295837,0.488647,0.807068,down
45159,3.65625,8.089844,2.644531,-0.857422,-2.599609,-0.044922,0.153076,0.300537,0.486023,0.806274,down
45164,3.65625,8.089844,2.644531,-0.804687,-2.583984,-0.097656,0.156677,0.304932,0.483582,0.805359,down
45169,3.695313,8.050781,2.644531,-0.804687,-2.583984,-0.097656,0.160706,0.309753,0.481018,0.80426,down
45174,3.730469,7.824219,2.378906,-0.638672,-2.513672,-0.179687,0.164551,0.314331,0.47876,0.80304,down
45179,3.808594,7.78125,2.300781,-0.566406,-2.472656,-0.175781,0.168335,0.318787,0.476685,0.801758,down
45184,3.769531,7.707031,2.222656,-0.566406,-2.472656,-0.175781,0.176208,0.328308,0.472351,0.798767,down
45189,3.886719,7.628906,2.148438,-0.566406,-2.472656,-0.175781,0.179138,0.331848,0.470642,0.797668,down
45194,4.0,7.398437,1.800781,-0.566406,-2.472656,-0.175781,0.182556,0.33606,0.468506,0.796387,down
45199,4.0,7.359375,1.574219,-0.646484,-2.09375,-0.074219,0.18573,0.339844,0.46637,0.795288,down
45204,4.0,7.167969,1.496094,-0.738281,-2.017578,-0.041016,0.18573,0.339844,0.46637,0.795288,down
45209,4.078125,6.710937,1.226563,-0.738281,-2.017578,-0.041016,0.189148,0.343872,0.463867,0.79425,down
45215,4.191406,6.398437,1.0,-0.738281,-2.017578,-0.041016,0.194519,0.350586,0.459351,0.792603,down
45221,4.269531,6.171875,0.921875,-0.65625,-1.814453,0.119141,0.197144,0.354126,0.45697,0.791809,down
45227,4.382812,5.976562,0.84375,-0.615234,-1.751953,0.164062,0.197144,0.354126,0.45697,0.791809,down
45233,4.535156,5.710937,0.84375,-0.615234,-1.751953,0.164062,0.197144,0.354126,0.45697,0.791809,down
45238,4.613281,5.59375,0.84375,-0.464844,-1.613281,0.240234,0.197144,0.354126,0.45697,0.791809,down
45243,4.691406,5.554687,0.882812,-0.378906,-1.527344,0.248047,0.206543,0.370178,0.446838,0.787781,down
45248,4.652344,5.597656,0.804687,-0.378906,-1.527344,0.248047,0.206543,0.370178,0.446838,0.787781,down
45253,4.613281,5.714844,0.691406,-0.378906,-1.527344,0.248047,0.207703,0.372986,0.445557,0.786926,down
45258,4.535156,5.828125,0.5,-0.378906,-1.527344,0.248047,0.20874,0.375793,0.44458,0.785828,down
45263,4.535156,5.828125,0.5,0.25,-1.048828,0.158203,0.209412,0.378174,0.444153,0.78479,down
45268,4.269531,6.132812,0.117188,0.25,-1.048828,0.158203,0.209412,0.378174,0.444153,0.78479,down
45273,4.0,6.476562,-0.226562,0.384766,-0.957031,0.125,0.210327,0.382629,0.444397,0.782227,down
45278,3.886719,6.671875,-0.496094,0.642578,-0.816406,-0.021484,0.210327,0.382629,0.444397,0.782227,down
45283,3.808594,6.859375,-0.648437,0.642578,-0.816406,-0.021484,0.210937,0.386536,0.445679,0.779419,down
45289,3.847656,7.246094,-1.183594,0.642578,-0.816406,-0.021484,0.211792,0.390381,0.447449,0.776245,down
45294,3.921875,7.398437,-1.378906,0.566406,-0.855469,-0.142578,0.211792,0.390381,0.447449,0.776245,down
45299,4.078125,7.507812,-1.492188,0.566406,-0.855469,-0.142578,0.213074,0.393921,0.448853,0.773254,down
45304,4.191406,7.664062,-1.570313,0.566406,-0.855469,-0.142578,0.21405,0.395447,0.449219,0.772034,down
45309,4.382812,7.824219,-1.875,0.566406,-0.855469,-0.142578,0.21405,0.395447,0.449219,0.772034,down
45314,4.5,7.933594,-2.027344,0.082031,-0.734375,-0.238281,0.216431,0.397888,0.449158,0.770081,down
45319,4.613281,7.933594,-2.21875,-0.421875,-0.609375,-0.28125,0.217957,0.398682,0.448547,0.769653,down
45324,4.726562,7.898437,-2.335938,-0.421875,-0.609375,-0.28125,0.219727,0.399109,0.447388,0.769592,down
45329,4.882812,7.742187,-2.410156,-0.421875,-0.609375,-0.28125,0.219727,0.399109,0.447388,0.769592,down
45334,4.917969,7.703125,-2.410156,-1.033203,-0.433594,-0.3125,0.223999,0.398987,0.44342,0.770691,down
45339,4.957031,7.625,-2.527344,-1.566406,-0.166016,-0.341797,0.226196,0.398315,0.440979,0.771851,down
45345,4.84375,7.550781,-2.601563,-1.566406,-0.166016,-0.341797,0.228943,0.396973,0.437561,0.773621,down
45350,4.691406,7.324219,-2.679688,-1.566406,-0.166016,-0.341797,0.231384,0.395386,0.434326,0.775574,down
45356,4.691406,7.242187,-2.679688,-2.126953,0.349609,-0.390625,0.233521,0.393494,0.431274,0.777588,down
45361,4.535156,7.164062,-2.601563,-2.126953,0.349609,-0.390625,0.236023,0.39093,0.427612,0.780151,down
45366,4.460937,7.097656,-2.488281,-2.216797,0.6875,-0.425781,0.236023,0.39093,0.427612,0.780151,down
45372,4.421875,7.128906,-2.335938,-2.148438,0.84375,-0.443359,0.236023,0.39093,0.427612,0.780151,down
45378,4.421875,7.125,-1.796875,-2.148438,0.84375,-0.443359,0.236023,0.39093,0.427612,0.780151,down
45384,4.269531,7.203125,-1.53125,-1.71875,1.298828,-0.419922,0.236023,0.39093,0.427612,0.780151,down
45389,4.152344,7.019531,-0.878906,-1.71875,1.298828,-0.419922,0.245239,0.373535,0.412231,0.793945,down
45394,3.960938,6.941406,-0.574219,-1.71875,1.298828,-0.419922,0.246216,0.36908,0.409973,0.796936,down
45399,3.695313,6.78125,-0.417969,-1.71875,1.298828,-0.419922,0.246826,0.364624,0.40802,0.799805,down
45404,3.425781,6.519531,-0.34375,-1.396484,1.669922,-0.222656,0.246948,0.360657,0.406494,0.802307,down
45410,3.042969,6.097656,0.039063,-1.396484,1.669922,-0.222656,0.246277,0.351624,0.403625,0.807983,down
45415,2.890625,5.941406,0.691406,-1.396484,1.669922,-0.222656,0.245667,0.347656,0.402527,0.810425,down
45420,2.890625,5.941406,0.691406,-0.970703,1.763672,-0.041016,0.244873,0.343262,0.401489,0.813049,down
45425,2.773438,5.867187,1.0,-0.796875,1.767578,-0.054687,0.243835,0.338867,0.400757,0.815552,down
45431,2.699219,6.136719,1.574219,-0.796875,1.767578,-0.054687,0.242859,0.335144,0.400452,0.817505,down
45436,2.699219,6.210937,1.839844,-0.404297,1.773438,-0.105469,0.242859,0.335144,0.400452,0.817505,down
45441,2.699219,6.289062,2.070313,-0.150391,1.771484,-0.142578,0.240356,0.327148,0.401123,0.821167,down
45448,2.699219,6.4375,2.339844,0.123047,1.765625,-0.183594,0.240356,0.327148,0.401123,0.821167,down
45453,2.507813,6.863281,2.644531,0.123047,1.765625,-0.183594,0.240356,0.327148,0.401123,0.821167,down
45459,2.390625,7.058594,2.722656,0.808594,1.744141,-0.220703,0.240356,0.327148,0.401123,0.821167,down
45464,2.390625,7.058594,2.722656,0.808594,1.744141,-0.220703,0.233582,0.312805,0.408936,0.824829,down
45469,2.046875,7.664062,2.914063,0.808594,1.744141,-0.220703,0.233582,0.312805,0.408936,0.824829,down
45474,1.777344,8.472656,3.066406,0.951172,1.689453,-0.203125,0.229614,0.306396,0.414856,0.825378,down
45479,1.738281,8.8125,3.144531,0.755859,1.623047,-0.179687,0.229614,0.306396,0.414856,0.825378,down
45485,1.738281,9.3125,3.488281,0.755859,1.623047,-0.179687,0.223633,0.296997,0.423157,0.826294,down
45490,1.625,9.46875,3.601563,0.388672,1.613281,-0.146484,0.221741,0.29364,0.425293,0.826904,down
45495,1.546875,9.578125,3.792969,0.1875,1.625,-0.134766,0.220032,0.290222,0.426941,0.827698,down
45500,1.546875,9.65625,4.0625,0.1875,1.625,-0.134766,0.218628,0.287109,0.427979,0.828613,down
45505,1.472656,9.539063,4.253906,0.1875,1.625,-0.134766,0.217163,0.283691,0.428711,0.829773,down
45510,1.394531,9.355469,4.40625,-0.355469,1.544922,-0.107422,0.215759,0.279846,0.429077,0.831238,down
45515,1.394531,9.3125,4.636719,-0.515625,1.474609,-0.123047,0.214661,0.276489,0.429077,0.832703,down
45520,1.355469,9.316406,5.097656,-0.654297,1.375,-0.152344,0.214661,0.276489,0.429077,0.832703,down
45526,1.433594,9.316406,5.519531,-0.654297,1.375,-0.152344,0.213257,0.27002,0.428101,0.835693,down
45531,1.472656,9.277344,5.632812,-0.802734,1.162109,-0.173828,0.212769,0.266968,0.427246,0.837219,down
45537,1.472656,9.355469,5.824219,-0.826172,1.068359,-0.166016,0.212769,0.266968,0.427246,0.837219,down
45542,1.433594,9.316406,5.863281,-0.804687,1.0,-0.132812,0.212769,0.266968,0.427246,0.837219,down
45547,1.433594,9.273438,5.863281,-0.765625,0.914062,-0.091797,0.212769,0.266968,0.427246,0.837219,down
45553,1.394531,9.390625,5.902344,-0.755859,0.830078,-0.025391,0.212769,0.266968,0.427246,0.837219,down
45558,1.433594,8.285156,6.132812,-0.755859,0.830078,-0.025391,0.211182,0.254578,0.421814,0.844177,down
45563,1.511719,9.160156,6.285156,-0.753906,0.677734,0.148437,0.211182,0.254578,0.421814,0.844177,down
45568,1.089844,9.472656,6.015625,-0.878906,0.761719,0.291016,0.211182,0.254578,0.421814,0.844177,down
45573,0.972656,9.121094,5.328125,-0.878906,0.761719,0.291016,0.209106,0.24939,0.417419,0.84845,down
45578,0.972656,8.851563,5.363281,-0.878906,0.761719,0.291016,0.209106,0.24939,0.417419,0.84845,down
45583,1.164063,8.738281,5.480469,-1.208984,0.578125,0.380859,0.209106,0.24939,0.417419,0.84845,down
45588,1.164063,8.667969,5.402344,-1.144531,0.628906,0.408203,0.209106,0.24939,0.417419,0.84845,down
45593,1.128906,8.625,5.25,-1.144531,0.628906,0.408203,0.205933,0.243225,0.408508,0.855347,down
45599,1.128906,8.625,5.328125,-0.998047,0.705078,0.441406,0.205933,0.243225,0.408508,0.855347,down
45604,1.128906,8.625,5.328125,-0.945312,0.738281,0.46875,0.203735,0.240173,0.404419,0.858643,down
45609,1.089844,8.585938,5.328125,-0.908203,0.789062,0.494141,0.203735,0.240173,0.404419,0.858643,down
45614,1.089844,8.585938,5.328125,-0.859375,0.853516,0.515625,0.200989,0.236877,0.400757,0.861938,down
45619,0.898437,8.472656,5.632812,-0.859375,0.853516,0.515625,0.199463,0.235107,0.399109,0.863525,down
45624,0.246094,8.351563,5.863281,-0.859375,0.853516,0.515625,0.197815,0.233215,0.397644,0.865051,down
45629,0.246094,8.351563,5.863281,-0.859375,0.853516,0.515625,0.194153,0.229431,0.39502,0.868103,down
45634,0.054687,8.167969,6.246094,-0.859375,0.853516,0.515625,0.194153,0.229431,0.39502,0.868103,down
45639,-0.023437,8.351563,6.476562,-0.789062,0.824219,0.539062,0.194153,0.229431,0.39502,0.868103,down
45644,-0.214844,8.433594,6.859375,-0.789062,0.824219,0.539062,0.190674,0.226013,0.392151,0.871094,down
45649,-0.328125,8.3125,6.820312,-0.789062,0.824219,0.539062,0.189148,0.224304,0.39032,0.872681,down
45655,-0.445312,8.167969,6.746094,-1.0625,0.736328,0.367188,0.189148,0.224304,0.39032,0.872681,down
45660,-0.519531,8.167969,6.515625,-1.0625,0.736328,0.367188,0.185974,0.21936,0.383972,0.877441,down
45665,-0.636719,8.128906,6.4375,-1.0625,0.736328,0.367188,0.185364,0.218018,0.381958,0.878784,down
45671,-0.480469,7.96875,6.4375,-1.0625,0.736328,0.367188,0.184814,0.216736,0.3797,0.880188,down
45677,-0.253906,8.203125,6.398437,-0.943359,0.337891,0.275391,0.184326,0.215759,0.377625,0.881409,down
45682,-0.253906,8.203125,6.398437,-0.916016,0.318359,0.285156,0.183899,0.215027,0.375793,0.882446,down
45687,0.167969,8.164063,6.285156,-0.916016,0.318359,0.285156,0.183472,0.214233,0.373657,0.883667,down
45693,0.246094,8.125,6.285156,-0.9375,0.322266,0.34375,0.183472,0.214233,0.373657,0.883667,down
45698,0.285156,8.085938,6.246094,-0.917969,0.361328,0.384766,0.183472,0.214233,0.373657,0.883667,down
45703,0.359375,7.859375,6.285156,-0.917969,0.361328,0.384766,0.181458,0.211792,0.367493,0.887207,down
45708,0.4375,7.78125,6.359375,-0.845703,0.4375,0.439453,0.181458,0.211792,0.367493,0.887207,down
45714,0.398438,7.480469,6.4375,-0.837891,0.509766,0.476562,0.181458,0.211792,0.367493,0.887207,down
45719,0.359375,7.242187,6.707031,-0.837891,0.509766,0.476562,0.178528,0.208984,0.361816,0.890808,down
45724,0.359375,7.203125,6.746094,-0.84375,0.525391,0.488281,0.178528,0.208984,0.361816,0.890808,down
45730,0.324219,6.976562,6.859375,-0.894531,0.542969,0.476562,0.17511,0.205566,0.355896,0.894653,down
45735,0.246094,6.785156,6.972656,-0.894531,0.542969,0.476562,0.174133,0.204346,0.353882,0.895935,down
45740,0.246094,6.785156,7.011719,-0.894531,0.542969,0.476562,0.173279,0.203247,0.35199,0.897095,down
45745,0.207031,6.785156,7.089844,-0.894531,0.542969,0.476562,0.173279,0.203247,0.35199,0.897095,down
45750,0.207031,6.785156,7.167969,-0.855469,0.458984,0.349609,0.171753,0.201172,0.348206,0.899292,down
45755,0.246094,6.902344,7.320312,-0.855469,0.458984,0.349609,0.171082,0.200317,0.346558,0.900269,down
45760,0.207031,6.976562,7.320312,-0.855469,0.458984,0.349609,0.170471,0.199646,0.344971,0.901184,down
45765,0.285156,6.863281,7.355469,-0.648437,0.203125,0.322266,0.170471,0.199646,0.344971,0.901184,down
45770,0.359375,6.785156,7.433594,-0.648437,0.203125,0.322266,0.1698,0.199036,0.343262,0.902039,down
45776,0.476562,6.710937,7.472656,-0.648437,0.203125,0.322266,0.16864,0.198547,0.340454,0.903442,down
45781,0.476562,6.710937,7.472656,-0.648437,0.203125,0.322266,0.16864,0.198547,0.340454,0.903442,down
45786,0.589844,6.554687,7.433594,-0.605469,0.052734,0.410156,0.167969,0.198425,0.338928,0.904175,down
45791,0.742187,6.363281,7.433594,-0.605469,0.052734,0.410156,0.167969,0.198425,0.338928,0.904175,down
45796,0.78125,6.289062,7.324219,-0.648437,0.041016,0.414062,0.165955,0.198425,0.334167,0.906311,down
45802,1.011719,6.097656,7.203125,-0.648437,0.041016,0.414062,0.165344,0.198425,0.332458,0.907043,down
45807,1.089844,5.980469,7.164062,-0.648437,0.041016,0.414062,0.164673,0.198486,0.330444,0.907898,down
45812,1.320313,5.867187,7.246094,-0.648437,0.041016,0.414062,0.164185,0.198547,0.328918,0.908569,down
45817,1.320313,5.828125,7.320312,-0.646484,-0.029297,0.386719,0.164185,0.198547,0.328918,0.908569,down
45823,1.394531,5.714844,7.285156,-0.580078,-0.019531,0.375,0.164185,0.198547,0.328918,0.908569,down
45828,1.355469,5.558594,7.246094,-0.580078,-0.019531,0.375,0.162476,0.198975,0.32428,0.9104,down
45833,1.355469,5.636719,7.242187,-0.580078,-0.019531,0.375,0.161865,0.199158,0.323181,0.910889,down
45838,1.320313,5.675781,7.285156,-0.275391,-0.017578,0.392578,0.161865,0.199158,0.323181,0.910889,down
45843,1.355469,5.789062,7.320312,-0.164062,-0.056641,0.404297,0.161865,0.199158,0.323181,0.910889,down
45848,1.433594,5.941406,7.429687,-0.041016,-0.091797,0.408203,0.161865,0.199158,0.323181,0.910889,down
45854,1.433594,5.980469,7.429687,-0.041016,-0.091797,0.408203,0.158691,0.200745,0.320923,0.911865,down
45860,1.472656,6.097656,7.351562,0.25,-0.099609,0.351563,0.158691,0.200745,0.320923,0.911865,down
45865,1.511719,6.289062,7.246094,0.25,-0.099609,0.351563,0.156189,0.202637,0.321777,0.911621,down
45870,1.585938,6.402344,7.242187,0.378906,-0.140625,0.287109,0.156189,0.202637,0.321777,0.911621,down
45875,1.625,6.554687,7.207031,0.378906,-0.140625,0.287109,0.155334,0.20343,0.32251,0.911316,down
45880,1.738281,6.710937,7.242187,0.429687,-0.148437,0.251953,0.153992,0.204773,0.324097,0.910645,down
45886,1.894531,6.902344,7.203125,0.455078,-0.111328,0.175781,0.153442,0.205444,0.325012,0.910278,down
45891,2.046875,7.207031,7.128906,0.412109,-0.083984,0.144531,0.152893,0.205994,0.325989,0.909912,down
45896,2.121094,7.402344,7.28125,0.412109,-0.083984,0.144531,0.152466,0.206421,0.326843,0.909546,down
45901,2.046875,7.589844,7.320312,0.412109,-0.083984,0.144531,0.152161,0.206726,0.327515,0.909302,down
45906,2.046875,7.703125,7.394531,0.412109,-0.083984,0.144531,0.151855,0.206909,0.328247,0.909058,down
45911,2.085938,7.746094,7.433594,0.164062,0.060547,-0.011719,0.151672,0.206909,0.328796,0.908875,down
45917,2.277344,7.746094,7.394531,0.164062,0.060547,-0.011719,0.151672,0.206848,0.329102,0.908813,down
45922,3.15625,7.476562,6.707031,0.164062,0.060547,-0.011719,0.151733,0.206726,0.329163,0.908752,down
45927,2.925781,8.28125,5.902344,-0.191406,0.005859,-0.072266,0.151733,0.206726,0.329163,0.908752,down
45932,3.082031,8.472656,5.710937,-0.337891,0.0625,-0.099609,0.151733,0.206726,0.329163,0.908752,down
45938,3.234375,7.898437,6.515625,-0.337891,0.0625,-0.099609,0.152649,0.206055,0.32782,0.909241,down
45944,3.082031,7.746094,7.585937,-0.337891,0.0625,-0.099609,0.152649,0.206055,0.32782,0.909241,down
45950,2.890625,8.011719,7.664062,-0.361328,0.464844,-0.126953,0.152649,0.206055,0.32782,0.909241,down
45955,2.660156,7.898437,7.511719,-0.361328,0.464844,-0.126953,0.153503,0.202209,0.325378,0.910889,down
45960,2.507813,7.703125,7.472656,-0.716797,0.617187,-0.072266,0.153503,0.202209,0.325378,0.910889,down
45965,2.351563,7.398437,7.511719,-0.716797,0.617187,-0.072266,0.153503,0.2005,0.32428,0.911621,down
45970,2.238281,7.054687,7.472656,-1.015625,0.724609,-0.011719,0.153503,0.2005,0.32428,0.911621,down
45975,2.046875,6.515625,7.625,-1.015625,0.724609,-0.011719,0.153503,0.196655,0.320801,0.913696,down
45980,1.777344,6.441406,7.773437,-1.015625,0.724609,-0.011719,0.153442,0.194519,0.318665,0.914917,down
45986,1.625,6.324219,7.929687,-0.996094,0.654297,-0.003906,0.153442,0.190857,0.314758,0.917053,down
45991,1.472656,5.980469,8.046875,-0.996094,0.654297,-0.003906,0.153503,0.189331,0.312866,0.917969,down
45996,1.355469,5.828125,8.007813,-0.978516,0.400391,-0.03125,0.153748,0.187744,0.310608,0.919067,down
46001,1.355469,5.675781,7.929687,-0.978516,0.400391,-0.03125,0.153931,0.186707,0.308899,0.9198,down
46006,1.511719,5.597656,7.777344,-0.978516,0.400391,-0.03125,0.154297,0.185852,0.306885,0.920593,down
46012,1.664063,5.675781,7.46875,-0.978516,0.400391,-0.03125,0.154602,0.185425,0.305481,0.921082,down
46017,1.816406,5.636719,7.394531,-0.458984,-0.107422,-0.013672,0.154602,0.185425,0.305481,0.921082,down
46022,1.816406,5.636719,7.394531,-0.269531,-0.201172,-0.005859,0.155212,0.185547,0.303345,0.921631,down
46028,2.390625,5.75,6.972656,-0.269531,-0.201172,-0.005859,0.155518,0.186035,0.302917,0.921692,down
46033,2.507813,5.75,6.898437,0.050781,-0.291016,0.0,0.155518,0.186035,0.302917,0.921692,down
46039,2.660156,5.789062,6.78125,0.148437,-0.283203,-0.009766,0.155518,0.186035,0.302917,0.921692,down
46044,2.851563,5.90625,6.585937,0.207031,-0.251953,-0.033203,0.155518,0.186035,0.302917,0.921692,down
46049,2.925781,5.980469,6.550781,0.248047,-0.1875,-0.058594,0.155518,0.186035,0.302917,0.921692,down
46054,3.042969,6.019531,6.585937,0.248047,-0.1875,-0.058594,0.156494,0.188965,0.304443,0.92041,down
46060,3.117188,6.097656,6.550781,0.296875,-0.054687,-0.125,0.15686,0.18927,0.305969,0.919739,down
46065,3.15625,6.210937,6.589844,0.277344,0.113281,-0.173828,0.15686,0.18927,0.305969,0.919739,down
46070,3.117188,6.25,6.746094,0.277344,0.113281,-0.173828,0.157043,0.189087,0.306824,0.919495,down
46076,3.082031,6.324219,6.820312,0.134766,0.261719,-0.195312,0.157043,0.189087,0.306824,0.919495,down
46081,2.925781,6.324219,6.898437,0.134766,0.261719,-0.195312,0.157593,0.187317,0.308655,0.919128,down
46087,2.582031,6.324219,7.011719,0.134766,0.261719,-0.195312,0.157776,0.186401,0.308899,0.919189,down
46092,2.507813,6.363281,7.085937,-0.117188,0.359375,-0.201172,0.157776,0.186401,0.308899,0.919189,down
46097,2.429688,6.324219,7.164062,-0.162109,0.332031,-0.179687,0.158264,0.184326,0.308899,0.919556,down
46103,2.46875,6.289062,7.28125,-0.162109,0.332031,-0.179687,0.158508,0.183411,0.308777,0.919739,down
46109,2.46875,6.210937,7.351562,-0.220703,0.275391,-0.167969,0.158508,0.183411,0.308777,0.919739,down
46114,2.542969,6.171875,7.355469,-0.244141,0.25,-0.158203,0.158508,0.183411,0.308777,0.919739,down
46119,2.582031,6.132812,7.394531,-0.244141,0.25,-0.158203,0.159363,0.180908,0.307922,0.920349,down
46125,2.621094,6.132812,7.394531,-0.183594,0.212891,-0.150391,0.159363,0.180908,0.307922,0.920349,down
46130,2.621094,6.097656,7.390625,-0.183594,0.212891,-0.150391,0.159973,0.179504,0.307312,0.920715,down
46136,2.699219,6.132812,7.429687,-0.162109,0.212891,-0.152344,0.159973,0.179504,0.307312,0.920715,down
46141,2.734375,6.171875,7.433594,-0.142578,0.246094,-0.1875,0.160522,0.178162,0.306946,0.921021,down
46146,2.773438,6.132812,7.472656,-0.142578,0.246094,-0.1875,0.161133,0.176575,0.306763,0.921265,down
46151,2.699219,6.132812,7.472656,-0.142578,0.246094,-0.1875,0.161499,0.175598,0.306763,0.921387,down
46156,2.660156,6.132812,7.46875,-0.142578,0.246094,-0.1875,0.161743,0.174683,0.306824,0.921509,down
46161,2.582031,6.210937,7.507812,-0.142578,0.246094,-0.1875,0.162048,0.173645,0.306946,0.921631,down
46166,2.582031,6.25,7.664062,-0.017578,0.398438,-0.238281,0.162354,0.172424,0.30719,0.921692,down
46171,2.390625,6.324219,7.664062,-0.017578,0.398438,-0.238281,0.162354,0.172424,0.30719,0.921692,down
46176,2.316406,6.363281,7.667969,-0.017578,0.398438,-0.238281,0.162781,0.170227,0.307983,0.921753,down
46181,2.238281,6.480469,7.734375,-0.017578,0.398438,-0.238281,0.162781,0.170227,0.307983,0.921753,down
46186,2.160156,6.480469,7.773437,0.164062,0.404297,-0.222656,0.163086,0.168091,0.309387,0.921631,down
46192,1.894531,6.671875,8.050781,0.164062,0.404297,-0.222656,0.163147,0.167236,0.310181,0.921509,down
46197,1.777344,6.710937,8.046875,0.320313,0.365234,-0.191406,0.163208,0.166321,0.311157,0.921326,down
46202,1.738281,6.746094,7.96875,0.353516,0.355469,-0.191406,0.163208,0.165466,0.312195,0.921143,down
46207,1.625,6.746094,7.96875,0.388672,0.330078,-0.183594,0.163269,0.164673,0.313293,0.920898,down
46213,1.625,6.902344,8.046875,0.388672,0.330078,-0.183594,0.163269,0.164001,0.314514,0.920593,down
46218,1.585938,6.902344,8.011719,0.457031,0.242187,-0.166016,0.163269,0.164001,0.314514,0.920593,down
46224,1.585938,6.976562,8.011719,0.476562,0.216797,-0.158203,0.163269,0.164001,0.314514,0.920593,down
46230,1.585938,7.054687,7.890625,0.476562,0.216797,-0.158203,0.163269,0.164001,0.314514,0.920593,down
46236,1.625,7.015625,7.890625,0.392578,0.160156,-0.117188,0.163269,0.164001,0.314514,0.920593,down
46241,1.585938,7.054687,7.816406,0.392578,0.160156,-0.117188,0.163269,0.16156,0.321533,0.91864,down
46247,1.585938,7.054687,7.628906,0.392578,0.160156,-0.117188,0.163269,0.161255,0.322449,0.918335,down
46252,1.585938,7.054687,7.628906,0.326172,0.138672,-0.101563,0.163269,0.16095,0.323486,0.91803,down
46257,1.546875,7.015625,7.46875,0.326172,0.138672,-0.101563,0.163269,0.160706,0.324402,0.917786,down
46263,1.546875,7.054687,7.507812,0.326172,0.138672,-0.101563,0.163269,0.160461,0.325073,0.917542,down
46268,1.585938,6.976562,7.351562,0.326172,0.138672,-0.101563,0.163208,0.160217,0.325867,0.917358,down
46274,1.546875,6.902344,7.285156,0.246094,0.138672,-0.080078,0.163208,0.160217,0.325867,0.917358,down
46279,1.546875,6.902344,7.285156,0.230469,0.130859,-0.068359,0.163208,0.160217,0.325867,0.917358,down
46285,1.546875,6.863281,7.355469,0.230469,0.130859,-0.068359,0.163208,0.160217,0.325867,0.917358,down
46291,1.546875,6.824219,7.28125,0.171875,0.142578,-0.064453,0.163208,0.160217,0.325867,0.917358,down
46296,1.511719,6.710937,7.320312,0.171875,0.142578,-0.064453,0.163086,0.158752,0.329041,0.916443,down
46301,1.511719,6.671875,7.242187,0.171875,0.142578,-0.064453,0.163086,0.158142,0.329956,0.91626,down
46306,1.511719,6.632812,7.207031,0.171875,0.142578,-0.064453,0.163086,0.158142,0.329956,0.91626,down
46311,1.433594,6.59375,7.203125,0.091797,0.132812,-0.046875,0.163025,0.157532,0.330627,0.916138,down
46316,1.433594,6.554687,7.207031,0.091797,0.132812,-0.046875,0.162964,0.157288,0.330872,0.916077,down
46321,1.433594,6.554687,7.207031,0.056641,0.070312,-0.019531,0.162964,0.157288,0.330872,0.916077,down
46326,1.433594,6.554687,7.207031,0.056641,0.070312,-0.019531,0.162964,0.157104,0.331116,0.916077,down
46331,1.472656,6.515625,7.164062,0.050781,0.046875,-0.021484,0.162964,0.15686,0.331482,0.915955,down
46336,1.511719,6.554687,7.164062,0.050781,0.046875,-0.021484,0.162964,0.156799,0.331726,0.915894,down
46341,1.546875,6.515625,7.085937,0.082031,0.0,-0.023437,0.162964,0.156799,0.331726,0.915894,down
46346,1.585938,6.515625,7.046875,0.082031,0.0,-0.023437,0.163025,0.156799,0.33197,0.915771,down
46351,1.625,6.554687,7.011719,0.111328,0.001953,-0.048828,0.163025,0.156799,0.33197,0.915771,down
46356,1.625,6.59375,7.007812,0.111328,0.001953,-0.048828,0.163147,0.156738,0.332581,0.915527,down
46361,1.703125,6.632812,7.007812,0.111328,0.001953,-0.048828,0.163269,0.156738,0.332947,0.915405,down
46366,1.738281,6.632812,7.007812,0.128906,0.037109,-0.072266,0.163452,0.156555,0.333679,0.9151,down
46371,1.703125,6.710937,7.007812,0.128906,0.037109,-0.072266,0.163452,0.156555,0.333679,0.9151,down
46376,1.738281,6.671875,7.089844,0.056641,0.078125,-0.072266,0.163574,0.156372,0.333984,0.914978,down
46381,1.664063,6.710937,7.007812,0.056641,0.078125,-0.072266,0.163696,0.156128,0.33429,0.914917,down
46386,1.664063,6.746094,7.085937,0.056641,0.078125,-0.072266,0.163757,0.155884,0.334473,0.914917,down
46391,1.625,6.671875,7.089844,0.056641,0.078125,-0.072266,0.163818,0.155579,0.334595,0.914856,down
46396,1.625,6.671875,7.128906,-0.033203,0.123047,-0.042969,0.163879,0.155212,0.334717,0.914917,down
46401,1.585938,6.632812,7.050781,-0.033203,0.123047,-0.042969,0.16394,0.154907,0.334778,0.914917,down
46406,1.585938,6.554687,7.011719,-0.033203,0.123047,-0.042969,0.16394,0.154541,0.334778,0.914978,down
46411,1.625,6.59375,7.050781,-0.033203,0.123047,-0.042969,0.16394,0.154236,0.334839,0.914978,down
46416,1.625,6.59375,7.085937,0.076172,0.082031,-0.025391,0.16394,0.154236,0.334839,0.914978,down
46421,1.625,6.632812,7.050781,0.076172,0.082031,-0.025391,0.163879,0.153687,0.335144,0.914978,down
46426,1.664063,6.632812,6.96875,0.076172,0.082031,-0.025391,0.163879,0.153503,0.335449,0.914917,down
46431,1.664063,6.671875,6.902344,0.164062,0.048828,-0.021484,0.163818,0.153381,0.335754,0.914856,down
46436,1.664063,6.710937,6.941406,0.164062,0.048828,-0.021484,0.163757,0.153259,0.336182,0.914673,down
46441,1.664063,6.785156,6.941406,0.228516,0.005859,-0.007813,0.163757,0.153259,0.33667,0.914551,down
46446,1.664063,6.785156,6.941406,0.234375,0.001953,0.007813,0.163696,0.153259,0.337219,0.914307,down
46451,1.625,7.015625,6.972656,0.234375,0.001953,0.007813,0.163635,0.15332,0.337708,0.914124,down
46456,1.625,7.097656,6.972656,0.228516,0.003906,0.013672,0.163391,0.153503,0.338867,0.913757,down
46461,1.664063,7.097656,7.011719,0.228516,0.003906,0.013672,0.163391,0.153503,0.338867,0.913757,down
46466,1.664063,7.167969,7.050781,0.169922,-0.017578,0.015625,0.163391,0.153503,0.338867,0.913757,down
46471,1.664063,7.167969,7.050781,0.136719,-0.021484,0.019531,0.163208,0.153687,0.339661,0.913452,down
46476,1.664063,7.242187,7.089844,0.136719,-0.021484,0.019531,0.163208,0.153809,0.339966,0.91333,down
46481,1.703125,7.324219,6.972656,0.095703,-0.013672,-0.007813,0.163208,0.153809,0.339966,0.91333,down
46487,1.703125,7.320312,7.050781,0.027344,-0.007813,-0.015625,0.163208,0.153809,0.339966,0.91333,down
46492,1.664063,7.359375,6.972656,0.027344,-0.007813,-0.015625,0.163269,0.153931,0.340637,0.913025,down
46497,1.585938,7.320312,6.859375,0.027344,-0.007813,-0.015625,0.16333,0.153931,0.340698,0.913025,down
46502,1.585938,7.320312,6.859375,0.027344,-0.007813,-0.015625,0.16333,0.153931,0.340698,0.912964,down
46507,1.546875,7.320312,6.9375,-0.025391,-0.054687,0.025391,0.163391,0.153992,0.340698,0.912964,down
46512,1.546875,7.324219,6.898437,-0.046875,-0.066406,0.044922,0.163391,0.154175,0.340576,0.912964,down
46517,1.546875,7.285156,6.9375,-0.046875,-0.066406,0.044922,0.16333,0.154297,0.340454,0.913025,down
46522,1.511719,7.167969,6.9375,-0.068359,-0.097656,0.095703,0.163269,0.154602,0.340271,0.913025,down
46528,1.511719,7.125,6.898437,-0.068359,-0.097656,0.095703,0.163208,0.154846,0.340088,0.913086,down
46533,1.546875,7.167969,6.9375,-0.042969,-0.15625,0.115234,0.163208,0.154846,0.340088,0.913086,down
46538,1.546875,7.167969,6.972656,-0.042969,-0.15625,0.115234,0.163208,0.154846,0.340088,0.913086,down
46544,1.585938,7.203125,6.972656,0.001953,-0.1875,0.103516,0.162903,0.156128,0.339661,0.913086,down
46549,1.664063,7.203125,7.011719,0.005859,-0.189453,0.087891,0.162903,0.156128,0.339661,0.913086,down
46554,1.664063,7.203125,7.011719,0.005859,-0.189453,0.087891,0.162842,0.157104,0.339539,0.912964,down
46560,1.703125,7.246094,7.050781,0.011719,-0.201172,0.066406,0.162842,0.157104,0.339539,0.912964,down
46565,1.738281,7.246094,7.050781,0.001953,-0.177734,0.048828,0.162842,0.157104,0.339539,0.912964,down
46571,1.777344,7.207031,7.050781,-0.011719,-0.160156,0.046875,0.162842,0.157104,0.339539,0.912964,down
46576,1.738281,7.242187,7.128906,-0.048828,-0.144531,0.041016,0.162842,0.157104,0.339539,0.912964,down
46581,1.777344,7.28125,7.128906,-0.109375,-0.109375,0.042969,0.162842,0.157104,0.339539,0.912964,down
46587,1.738281,7.28125,7.128906,-0.154297,-0.066406,0.035156,0.162842,0.157104,0.339539,0.912964,down
46592,1.738281,7.285156,7.242187,-0.154297,-0.066406,0.035156,0.163208,0.159363,0.337769,0.913208,down
46597,1.703125,7.285156,7.28125,-0.296875,0.027344,0.052734,0.163208,0.159363,0.337769,0.913208,down
46602,1.664063,7.207031,7.351562,-0.296875,0.027344,0.052734,0.163208,0.159241,0.337158,0.913452,down
46608,1.625,7.054687,7.320312,-0.359375,0.046875,0.089844,0.163086,0.158875,0.335754,0.914001,down
46613,1.511719,6.863281,7.320312,-0.367188,0.019531,0.109375,0.162964,0.158691,0.334778,0.914429,down
46618,1.433594,6.671875,7.355469,-0.376953,-0.027344,0.154297,0.162842,0.15863,0.333923,0.914795,down
46623,1.394531,6.097656,7.246094,-0.376953,-0.027344,0.154297,0.162659,0.158752,0.33313,0.915039,down
46629,1.703125,6.363281,7.242187,-0.376953,-0.027344,0.154297,0.162415,0.159058,0.332214,0.915405,down
46635,1.777344,6.324219,7.546875,-0.275391,-0.253906,0.253906,0.162415,0.159058,0.332214,0.915405,down
46640,1.738281,6.097656,7.628906,-0.234375,-0.244141,0.230469,0.162415,0.159058,0.332214,0.915405,down
46645,1.894531,6.171875,7.246094,-0.234375,-0.244141,0.230469,0.161682,0.160767,0.329956,0.916016,down
46650,1.894531,6.132812,7.203125,-0.173828,-0.152344,0.185547,0.161682,0.160767,0.329956,0.916016,down
46655,1.816406,6.058594,7.429687,-0.078125,-0.203125,0.160156,0.161682,0.160767,0.329956,0.916016,down
46660,1.894531,6.210937,7.585937,-0.042969,-0.1875,0.128906,0.161682,0.160767,0.329956,0.916016,down
46665,1.96875,6.210937,7.507812,-0.042969,-0.1875,0.128906,0.161682,0.160767,0.329956,0.916016,down
46670,1.929688,6.25,7.472656,-0.042969,-0.1875,0.128906,0.16095,0.162903,0.328491,0.916321,down
46675,1.894531,6.097656,7.628906,-0.128906,-0.078125,0.070312,0.16095,0.162903,0.328491,0.916321,down
46680,1.894531,6.132812,7.664062,-0.128906,-0.078125,0.070312,0.160889,0.163269,0.327881,0.916504,down
46686,1.855469,5.980469,7.625,-0.128906,-0.078125,0.070312,0.160889,0.163269,0.327881,0.916504,down
46692,1.777344,6.019531,7.703125,-0.318359,0.011719,0.091797,0.160706,0.163086,0.325806,0.917297,down
46697,1.703125,5.789062,7.8125,-0.318359,0.011719,0.091797,0.160645,0.163025,0.324951,0.917603,down
46702,1.625,5.789062,7.851562,-0.373047,-0.035156,0.107422,0.160645,0.163025,0.324951,0.917603,down
46707,1.585938,5.675781,7.894531,-0.373047,-0.035156,0.107422,0.160583,0.163025,0.324097,0.917908,down
46712,1.625,5.597656,7.816406,-0.357422,-0.054687,0.117188,0.160461,0.163147,0.322388,0.918518,down
46718,1.664063,5.75,7.738281,-0.357422,-0.054687,0.117188,0.1604,0.16333,0.321655,0.918762,down
46723,1.703125,5.636719,7.734375,-0.175781,-0.177734,0.089844,0.1604,0.163696,0.321106,0.918884,down
46728,1.738281,5.636719,7.707031,-0.080078,-0.210937,0.078125,0.1604,0.163696,0.321106,0.918884,down
46733,1.738281,5.636719,7.667969,-0.080078,-0.210937,0.078125,0.160461,0.164673,0.320557,0.918884,down
46739,1.894531,5.75,7.394531,-0.080078,-0.210937,0.078125,0.160461,0.164673,0.320557,0.918884,down
46746,1.96875,5.75,7.394531,0.171875,-0.285156,0.046875,0.160461,0.164673,0.320557,0.918884,down
46751,2.199219,5.75,7.246094,0.173828,-0.304688,0.054687,0.160461,0.164673,0.320557,0.918884,down
46756,2.238281,5.75,7.085937,0.173828,-0.304688,0.054687,0.160645,0.16748,0.321472,0.91803,down
46761,2.277344,5.75,6.898437,0.173828,-0.304688,0.054687,0.160767,0.168274,0.321777,0.917786,down
46767,2.316406,5.828125,6.785156,0.169922,-0.269531,0.019531,0.16095,0.169556,0.322327,0.917297,down
46772,2.46875,5.941406,6.707031,0.169922,-0.269531,0.019531,0.161133,0.170166,0.322571,0.917053,down
46777,2.542969,5.980469,6.628906,0.169922,-0.269531,0.019531,0.161133,0.170166,0.322571,0.917053,down
46782,2.542969,6.058594,6.515625,0.095703,-0.142578,-0.039063,0.161133,0.170166,0.322571,0.917053,down
46787,2.507813,6.25,6.359375,0.095703,-0.142578,-0.039063,0.161499,0.171082,0.322998,0.916687,down
46792,2.542969,6.324219,6.363281,0.123047,-0.050781,-0.070312,0.161621,0.171326,0.323181,0.916565,down
46797,2.507813,6.363281,6.359375,0.123047,-0.050781,-0.070312,0.161804,0.171448,0.323486,0.916382,down
46802,2.507813,6.4375,6.359375,0.123047,-0.050781,-0.070312,0.161987,0.171509,0.323853,0.916199,down
46807,2.429688,6.554687,6.359375,0.203125,0.078125,-0.111328,0.161987,0.171509,0.323853,0.916199,down
46812,2.238281,6.78125,6.476562,0.203125,0.078125,-0.111328,0.162231,0.171326,0.324768,0.915894,down
46817,2.160156,6.820312,6.550781,0.1875,0.134766,-0.136719,0.162415,0.171021,0.325378,0.91571,down
46822,2.007813,6.941406,6.589844,0.1875,0.134766,-0.136719,0.162537,0.170715,0.325989,0.915527,down
46827,1.816406,7.019531,6.667969,0.1875,0.134766,-0.136719,0.16272,0.169983,0.327026,0.915283,down
46832,1.738281,7.128906,6.78125,0.1875,0.134766,-0.136719,0.16272,0.169983,0.327026,0.915283,down
46837,1.703125,7.207031,6.898437,0.128906,0.132812,-0.078125,0.162781,0.169312,0.32782,0.9151,down
46842,1.625,7.246094,6.898437,0.048828,0.101563,-0.046875,0.162781,0.169312,0.32782,0.9151,down
46848,1.585938,7.320312,7.050781,0.009766,0.066406,-0.025391,0.162781,0.169006,0.328064,0.915039,down
46853,1.625,7.324219,7.089844,0.009766,0.066406,-0.025391,0.162842,0.168579,0.328247,0.915039,down
46858,1.664063,7.28125,7.089844,0.009766,0.066406,-0.025391,0.162842,0.168457,0.328247,0.9151,down
46863,1.738281,7.285156,7.050781,0.009766,0.066406,-0.025391,0.162903,0.168335,0.328125,0.9151,down
46868,1.777344,7.203125,6.972656,-0.080078,0.015625,-0.019531,0.162964,0.168213,0.328003,0.915161,down
46874,1.816406,7.128906,7.011719,-0.080078,0.015625,-0.019531,0.163025,0.168152,0.327881,0.915222,down
46879,1.855469,7.058594,6.9375,-0.080078,0.015625,-0.019531,0.163086,0.168091,0.327759,0.915283,down
46884,1.855469,7.058594,6.9375,-0.083984,0.019531,0.013672,0.163086,0.16803,0.327576,0.915344,down
46890,1.894531,6.9375,6.898437,-0.083984,0.019531,0.013672,0.163086,0.16803,0.327576,0.915344,down
46895,1.929688,6.859375,6.859375,-0.103516,0.041016,0.029297,0.163086,0.16803,0.327576,0.915344,down
46900,1.929688,6.710937,6.863281,-0.103516,0.041016,0.029297,0.162964,0.167725,0.327026,0.915588,down
46905,1.894531,6.671875,6.785156,-0.125,0.0625,0.041016,0.162964,0.167725,0.327026,0.915588,down
46910,1.929688,6.554687,6.824219,-0.134766,0.074219,0.044922,0.162964,0.167725,0.327026,0.915588,down
46915,1.894531,6.515625,6.902344,-0.134766,0.074219,0.044922,0.16272,0.167114,0.326233,0.916077,down
46921,1.894531,6.515625,6.902344,-0.128906,0.09375,0.033203,0.16272,0.167114,0.326233,0.916077,down
46926,1.894531,6.480469,6.902344,-0.130859,0.101563,0.023437,0.16272,0.167114,0.326233,0.916077,down
46932,1.816406,6.554687,6.96875,-0.126953,0.105469,0.019531,0.16272,0.167114,0.326233,0.916077,down
46937,1.816406,6.554687,7.050781,-0.126953,0.105469,0.019531,0.162415,0.166077,0.325317,0.916626,down
46942,1.855469,6.554687,7.050781,-0.119141,0.121094,0.003906,0.162415,0.166077,0.325317,0.916626,down
46947,1.816406,6.59375,7.089844,-0.125,0.128906,0.001953,0.162231,0.164978,0.324646,0.917114,down
46952,1.816406,6.554687,7.164062,-0.125,0.128906,0.001953,0.162231,0.164978,0.324646,0.917114,down
46957,1.777344,6.515625,7.167969,-0.125,0.128906,0.001953,0.16217,0.164612,0.324463,0.917236,down
46962,1.777344,6.480469,7.167969,-0.138672,0.15625,0.013672,0.16217,0.164612,0.324463,0.917236,down
46968,1.777344,6.480469,7.285156,-0.154297,0.158203,0.027344,0.16217,0.164612,0.324463,0.917236,down
46973,1.816406,6.480469,7.203125,-0.154297,0.158203,0.027344,0.161682,0.162842,0.323364,0.91803,down
46978,1.816406,6.441406,7.28125,-0.189453,0.162109,0.033203,0.16156,0.162415,0.322998,0.918213,down
46983,1.816406,6.402344,7.285156,-0.199219,0.183594,0.027344,0.16156,0.162415,0.322998,0.918213,down
46988,1.816406,6.363281,7.285156,-0.199219,0.183594,0.027344,0.161377,0.161499,0.322327,0.918701,down
46994,1.777344,6.363281,7.28125,-0.199219,0.183594,0.027344,0.161255,0.161011,0.321899,0.918945,down
46999,1.738281,6.363281,7.28125,-0.183594,0.185547,0.021484,0.161133,0.160522,0.321594,0.919128,down
47004,1.738281,6.363281,7.28125,-0.169922,0.171875,0.027344,0.161011,0.160034,0.321289,0.919373,down
47010,1.777344,6.324219,7.355469,-0.169922,0.171875,0.027344,0.160889,0.159607,0.320984,0.919556,down
47016,1.777344,6.289062,7.351562,-0.142578,0.15625,0.037109,0.160889,0.159607,0.320984,0.919556,down
47022,1.816406,6.289062,7.355469,-0.132812,0.15625,0.039063,0.160889,0.159607,0.320984,0.919556,down
47027,1.855469,6.289062,7.390625,-0.132812,0.15625,0.039063,0.160889,0.159607,0.320984,0.919556,down
47032,1.894531,6.324219,7.390625,-0.115234,0.140625,0.046875,0.160889,0.159607,0.320984,0.919556,down
47037,1.929688,6.324219,7.433594,-0.105469,0.134766,0.039063,0.159973,0.15741,0.319702,0.920593,down
47042,1.894531,6.324219,7.390625,-0.105469,0.134766,0.039063,0.159973,0.15741,0.319702,0.920593,down
47047,1.894531,6.363281,7.46875,-0.105469,0.134766,0.039063,0.159973,0.15741,0.319702,0.920593,down
47052,1.894531,6.363281,7.46875,-0.130859,0.146484,0.027344,0.159973,0.15741,0.319702,0.920593,down
47057,1.929688,6.363281,7.511719,-0.130859,0.146484,0.027344,0.159546,0.156311,0.319153,0.921021,down
47063,1.929688,6.363281,7.511719,-0.164062,0.152344,0.027344,0.159546,0.156311,0.319153,0.921021,down
47068,1.894531,6.363281,7.507812,-0.179687,0.167969,0.017578,0.159302,0.155518,0.318604,0.921387,down
47073,1.929688,6.25,7.546875,-0.179687,0.167969,0.017578,0.159119,0.154541,0.317871,0.921814,down
47078,1.894531,6.289062,7.507812,-0.179687,0.167969,0.017578,0.158997,0.154114,0.317566,0.921997,down
47084,1.777344,6.25,7.550781,-0.179687,0.167969,0.017578,0.158875,0.153625,0.317078,0.922302,down
47089,1.777344,6.25,7.585937,-0.203125,0.158203,0.03125,0.158752,0.153137,0.316711,0.922546,down
47094,1.777344,6.210937,7.664062,-0.203125,0.158203,0.03125,0.15863,0.152771,0.316284,0.922729,down
47100,1.738281,6.171875,7.667969,-0.203125,0.158203,0.03125,0.158569,0.152405,0.315918,0.922913,down
47105,1.703125,6.132812,7.664062,-0.171875,0.121094,0.035156,0.158569,0.152405,0.315918,0.922913,down
47111,1.738281,6.132812,7.703125,-0.152344,0.109375,0.03125,0.158569,0.152405,0.315918,0.922913,down
47117,1.738281,6.25,7.777344,-0.152344,0.109375,0.03125,0.158264,0.151489,0.315002,0.923462,down
47122,1.738281,6.210937,7.777344,-0.091797,0.072266,0.023437,0.158264,0.151489,0.315002,0.923462,down
47128,1.738281,6.25,7.777344,-0.066406,0.072266,0.007813,0.158081,0.150818,0.314575,0.923767,down
47133,1.703125,6.25,7.738281,-0.066406,0.072266,0.007813,0.15802,0.150635,0.314514,0.923828,down
47138,1.703125,6.25,7.703125,-0.066406,0.072266,0.007813,0.157959,0.150452,0.314453,0.923889,down
47143,1.703125,6.210937,7.664062,-0.041016,0.066406,0.003906,0.157959,0.150452,0.314453,0.923889,down
47148,1.703125,6.210937,7.625,-0.041016,0.066406,0.003906,0.157959,0.15033,0.314392,0.923889,down
47154,1.738281,6.210937,7.625,-0.041016,0.066406,0.003906,0.157837,0.149963,0.314331,0.924011,down
47159,1.738281,6.210937,7.625,-0.046875,0.068359,0.015625,0.157776,0.149719,0.31427,0.924072,down
47164,1.703125,6.132812,7.550781,-0.046875,0.068359,0.015625,0.157715,0.149597,0.314209,0.924133,down
47170,1.625,6.132812,7.507812,-0.046875,0.068359,0.015625,0.157654,0.149414,0.314087,0.924194,down
47175,1.664063,6.132812,7.507812,-0.056641,0.052734,0.011719,0.157654,0.149414,0.314087,0.924194,down
47180,1.703125,6.171875,7.511719,-0.033203,0.029297,0.013672,0.157654,0.149414,0.314087,0.924194,down
47185,1.703125,6.132812,7.585937,-0.017578,0.027344,-0.007813,0.157593,0.149048,0.313904,0.924316,down
47190,1.664063,6.132812,7.46875,-0.017578,0.027344,-0.007813,0.157593,0.149048,0.313904,0.924316,down
47196,1.664063,6.171875,7.472656,-0.007813,0.017578,-0.005859,0.157593,0.149048,0.313904,0.924316,down
47201,1.703125,6.171875,7.472656,0.001953,0.011719,-0.019531,0.157593,0.149048,0.313904,0.924316,down
47207,1.703125,6.25,7.550781,0.013672,0.003906,-0.013672,0.157593,0.149048,0.313904,0.924316,down
47213,1.703125,6.289062,7.550781,0.009766,0.009766,-0.009766,0.157593,0.149048,0.313904,0.924316,down
47218,1.703125,6.289062,7.585937,-0.005859,0.005859,-0.001953,0.157715,0.148743,0.314148,0.924316,down
47223,1.703125,6.25,7.585937,-0.005859,0.005859,-0.001953,0.157715,0.148682,0.314148,0.924316,down
47228,1.703125,6.289062,7.550781,-0.005859,0.005859,-0.001953,0.157715,0.148621,0.314087,0.924316,down
47233,1.703125,6.289062,7.585937,-0.005859,0.005859,-0.001953,0.157715,0.148621,0.314087,0.924316,down
47238,1.664063,6.25,7.550781,-0.068359,0.021484,-0.005859,0.157776,0.148499,0.313843,0.924438,down
47243,1.664063,6.210937,7.550781,-0.068359,0.021484,-0.005859,0.157776,0.148499,0.313843,0.924438,down
47248,1.703125,6.210937,7.550781,-0.085937,0.015625,-0.007813,0.157776,0.148499,0.313843,0.924438,down
47253,1.703125,6.171875,7.511719,-0.085937,0.015625,-0.007813,0.157898,0.148315,0.313477,0.924561,down
47259,1.664063,6.171875,7.472656,-0.085937,0.015625,-0.007813,0.157959,0.148132,0.313171,0.924683,down
77543,-4.007812,9.472656,0.882812,-0.326172,0.208984,-0.158203,0.281799,0.00592,0.684937,0.671875,down
77548,-4.007812,9.429688,0.882812,-0.353516,0.207031,-0.171875,0.281799,0.00592,0.684937,0.671875,down
77553,-4.042969,9.429688,0.882812,-0.376953,0.222656,-0.201172,0.281799,0.00592,0.684937,0.671875,down
77559,-4.042969,9.429688,0.84375,-0.388672,0.255859,-0.222656,0.281799,0.00592,0.684937,0.671875,down
77564,-4.082031,9.429688,0.84375,-0.392578,0.277344,-0.261719,0.281799,0.00592,0.684937,0.671875,down
77569,-4.082031,9.390625,0.882812,-0.392578,0.277344,-0.261719,0.281372,6.1e-05,0.682251,0.674805,down
77575,-4.082031,9.234375,0.882812,-0.392578,0.277344,-0.261719,0.281311,-0.002441,0.681335,0.675781,down
77580,-4.042969,9.199219,0.960937,-0.404297,0.287109,-0.304688,0.281311,-0.003723,0.680847,0.67627,down
77585,-3.96875,9.046875,1.0,-0.404297,0.287109,-0.304688,0.281311,-0.003723,0.680847,0.67627,down
77590,-4.007812,9.011719,0.960937,-0.404297,0.287109,-0.304688,0.281372,-0.005066,0.680298,0.676758,down
77595,-3.96875,8.933594,0.921875,-0.386719,0.277344,-0.369141,0.281372,-0.005066,0.680298,0.676758,down
77600,-3.890625,8.894531,1.0,-0.386719,0.277344,-0.369141,0.281677,-0.009094,0.678955,0.677979,down
77605,-3.816406,8.777344,1.035156,-0.386719,0.277344,-0.369141,0.281677,-0.009094,0.678955,0.677979,down
77610,-3.777344,8.699219,1.0,-0.386719,0.277344,-0.369141,0.282104,-0.011841,0.678162,0.678528,down
77615,-3.777344,8.628906,1.035156,-0.324219,0.300781,-0.488281,0.282104,-0.011841,0.678162,0.678528,down
77620,-3.738281,8.628906,0.960937,-0.306641,0.326172,-0.53125,0.28241,-0.013489,0.677734,0.678772,down
77625,-3.738281,8.546875,0.960937,-0.306641,0.326172,-0.53125,0.283081,-0.016724,0.677124,0.679016,down
77630,-3.660156,8.507813,0.921875,-0.306641,0.326172,-0.53125,0.283447,-0.018433,0.676819,0.679138,down
77635,-3.621094,8.589844,1.0,-0.306641,0.326172,-0.53125,0.283447,-0.018433,0.676819,0.679138,down
77640,-3.699219,8.738281,0.84375,-0.322266,0.396484,-0.689453,0.283447,-0.018433,0.676819,0.679138,down
77645,-3.777344,8.890625,0.882812,-0.322266,0.396484,-0.689453,0.285034,-0.025269,0.675903,0.679138,down
77650,-3.851563,9.15625,0.769531,-0.322266,0.396484,-0.689453,0.285583,-0.027405,0.67572,0.679077,down
77655,-4.007812,9.355469,0.84375,-0.337891,0.519531,-0.916016,0.285583,-0.027405,0.67572,0.679077,down
77660,-4.121094,9.734375,0.84375,-0.337891,0.519531,-0.916016,0.286255,-0.030273,0.675415,0.678955,down
77665,-4.234375,9.851563,0.882812,-0.337891,0.519531,-0.916016,0.287537,-0.035767,0.674805,0.678772,down
77670,-4.351562,9.773438,0.84375,-0.337891,0.519531,-0.916016,0.287537,-0.035767,0.674805,0.678772,down
77675,-4.425781,9.738281,0.882812,-0.462891,0.5625,-0.957031,0.288757,-0.041443,0.673889,0.678833,down
77680,-4.617187,9.542969,1.0,-0.462891,0.5625,-0.957031,0.289368,-0.044373,0.673218,0.679016,down
77685,-4.617187,9.542969,1.035156,-0.722656,0.658203,-1.097656,0.289368,-0.044373,0.673218,0.679016,down
77690,-4.695312,9.542969,1.074219,-0.722656,0.658203,-1.097656,0.290771,-0.051392,0.671448,0.679687,down
77695,-4.847656,9.582031,1.074219,-0.722656,0.658203,-1.097656,0.291626,-0.055542,0.670166,0.680237,down
77700,-4.964844,9.621094,1.074219,-0.722656,0.658203,-1.097656,0.292419,-0.059082,0.669006,0.680725,down
77705,-5.078125,9.699219,1.074219,-0.722656,0.658203,-1.097656,0.292419,-0.059082,0.669006,0.680725,down
77710,-5.195312,9.773438,1.113281,-1.103516,0.6875,-1.519531,0.292419,-0.059082,0.669006,0.680725,down
77715,-5.308594,9.699219,1.191406,-1.140625,0.6875,-1.646484,0.294617,-0.067871,0.665955,0.682007,down
77721,-5.308594,9.816406,1.265625,-1.140625,0.6875,-1.646484,0.297668,-0.07782,0.662354,0.683105,down
77726,-5.308594,10.039063,1.304688,-1.160156,0.767578,-1.880859,0.299255,-0.082886,0.660583,0.683533,down
77732,-5.5,10.277344,1.417969,-1.160156,0.767578,-1.880859,0.300903,-0.08783,0.658936,0.683838,down
77737,-5.921875,10.464844,1.304688,-1.160156,0.767578,-1.880859,0.300903,-0.08783,0.658936,0.683838,down
77742,-5.921875,10.464844,1.304688,-1.236328,0.888672,-2.072266,0.304504,-0.099609,0.654907,0.684387,down
77747,-6.304687,10.578125,1.152344,-1.236328,0.888672,-2.072266,0.306213,-0.105835,0.652588,0.684998,down
77752,-6.726562,10.691406,1.035156,-1.832031,0.976562,-2.248047,0.308044,-0.11261,0.649658,0.685791,down
77757,-7.148437,10.539063,1.0,-1.832031,0.976562,-2.248047,0.308044,-0.11261,0.649658,0.685791,down
77763,-7.261719,10.660156,1.035156,-2.222656,1.033203,-2.392578,0.308044,-0.11261,0.649658,0.685791,down
77769,-7.414062,10.882813,1.113281,-2.394531,1.013672,-2.447266,0.308044,-0.11261,0.649658,0.685791,down
77774,-7.761719,10.808594,1.265625,-2.394531,1.013672,-2.447266,0.315063,-0.141724,0.634583,0.691345,down
77780,-8.027344,11.074219,1.417969,-2.759766,1.009766,-2.533203,0.318726,-0.15802,0.624451,0.695374,down
77785,-8.566406,11.652344,1.878906,-2.759766,1.009766,-2.533203,0.318726,-0.15802,0.624451,0.695374,down
77790,-8.757813,11.914063,2.1875,-3.138672,0.867187,-2.404297,0.320435,-0.16626,0.618835,0.697632,down
77795,-9.175781,12.035156,2.339844,-3.255859,0.800781,-2.294922,0.321899,-0.173401,0.613586,0.69989,down
77800,-9.367188,12.03125,2.453125,-3.255859,0.800781,-2.294922,0.323364,-0.18158,0.607239,0.702637,down
77805,-10.058594,11.875,2.644531,-3.255859,0.800781,-2.294922,0.325562,-0.195679,0.594666,0.708618,down
77810,-10.328125,11.769531,2.722656,-3.255859,0.800781,-2.294922,0.325562,-0.195679,0.594666,0.708618,down
77815,-10.328125,11.769531,2.722656,-3.677734,0.441406,-1.769531,0.326355,-0.202209,0.587769,0.712097,down
77820,-10.558594,11.53125,2.953125,-3.742188,0.265625,-1.578125,0.326355,-0.202209,0.587769,0.712097,down
77825,-10.558594,11.1875,3.066406,-3.771484,0.072266,-1.380859,0.326355,-0.202209,0.587769,0.712097,down
77830,-10.558594,11.1875,3.066406,-3.771484,-0.09375,-1.166016,0.327576,-0.218689,0.565674,0.724487,down
77836,-10.515625,9.621094,3.949219,-3.736328,-0.226562,-0.957031,0.327454,-0.22699,0.550049,0.733948,down
77841,-10.4375,8.777344,4.101562,-3.736328,-0.226562,-0.957031,0.327026,-0.230225,0.542664,0.738586,down
77846,-10.519531,8.355469,4.175781,-3.736328,-0.226562,-0.957031,0.326416,-0.232483,0.536682,0.742554,down
77851,-10.25,7.972656,4.253906,-3.015625,-0.544922,-0.015625,0.326416,-0.232483,0.536682,0.742554,down
77856,-10.25,7.972656,4.253906,-2.609375,-0.626953,0.263672,0.324341,-0.235413,0.524475,0.75116,down
77862,-10.132813,7.667969,4.5625,-2.130859,-0.640625,0.556641,0.322998,-0.235596,0.519653,0.755066,down
77867,-10.097656,7.550781,4.714844,-2.130859,-0.640625,0.556641,0.32135,-0.234985,0.516052,0.758423,down
77872,-9.980469,7.511719,4.675781,-1.037109,-0.646484,1.216797,0.319458,-0.233521,0.513672,0.761292,down
77877,-9.832031,7.398437,4.5625,-1.037109,-0.646484,1.216797,0.317017,-0.230774,0.512451,0.763977,down
77882,-9.328125,6.976562,4.445312,-1.037109,-0.646484,1.216797,0.317017,-0.230774,0.512451,0.763977,down
77887,-9.066406,6.902344,4.253906,0.589844,-0.728516,2.253906,0.317017,-0.230774,0.512451,0.763977,down
77892,-8.792969,6.824219,4.101562,1.019531,-0.742187,2.595703,0.317017,-0.230774,0.512451,0.763977,down
77897,-8.179688,6.710937,3.910156,1.019531,-0.742187,2.595703,0.317017,-0.230774,0.512451,0.763977,down
77903,-7.839844,6.671875,3.792969,1.71875,-0.75,3.1875,0.317017,-0.230774,0.512451,0.763977,down
77908,-7.492187,6.632812,3.792969,1.964844,-0.755859,3.470703,0.317017,-0.230774,0.512451,0.763977,down
77913,-7.492187,6.632812,3.792969,1.964844,-0.755859,3.470703,0.317017,-0.230774,0.512451,0.763977,down
77918,-7.492187,6.632812,3.792969,2.132813,-0.730469,3.748047,0.285828,-0.182556,0.538757,0.771179,down
77923,-7.113281,6.863281,3.179688,2.132813,-0.730469,3.748047,0.285828,-0.182556,0.538757,0.771179,down
77928,-7.113281,6.863281,3.179688,2.306641,-0.640625,4.257812,0.273071,-0.165161,0.550476,0.771484,down
77933,-6.417969,6.558594,2.796875,2.306641,-0.640625,4.257812,0.266174,-0.15625,0.556274,0.771545,down
77940,-5.652344,6.25,2.722656,2.306641,-0.640625,4.257812,0.266174,-0.15625,0.556274,0.771545,down
77945,-5.269531,6.054687,2.644531,2.427734,-0.599609,4.896484,0.243225,-0.127502,0.574341,0.771179,down
77950,-4.886719,5.792969,2.605469,2.427734,-0.599609,4.896484,0.243225,-0.127502,0.574341,0.771179,down
77955,-4.542969,5.484375,2.414063,2.523438,-0.447266,5.082031,0.243225,-0.127502,0.574341,0.771179,down
77960,-4.542969,5.484375,2.414063,2.589844,-0.353516,5.15625,0.226379,-0.107971,0.586548,0.770081,down
77965,-3.890625,5.0625,1.992188,2.589844,-0.353516,5.15625,0.21759,-0.098328,0.592773,0.769165,down
77970,-3.585938,5.0625,1.726563,2.869141,-0.140625,5.382812,0.21759,-0.098328,0.592773,0.769165,down
77975,-3.585938,5.0625,1.726563,3.080078,-0.03125,5.515625,0.198486,-0.078491,0.60614,0.766174,down
77980,-2.550781,5.710937,0.691406,3.080078,-0.03125,5.515625,0.177551,-0.058289,0.620911,0.761292,down
77985,-2.207031,5.558594,0.5,3.080078,-0.03125,5.515625,0.177551,-0.058289,0.620911,0.761292,down
77990,-2.015625,5.59375,0.421875,3.716797,0.40625,5.923828,0.177551,-0.058289,0.620911,0.761292,down
77995,-2.015625,5.59375,0.421875,3.894531,0.572266,6.0625,0.154785,-0.038147,0.636719,0.754456,down
78000,-1.898438,5.632812,0.347656,3.894531,0.572266,6.0625,0.142639,-0.028137,0.644836,0.750366,down
78005,-1.746094,5.554687,0.386719,4.232422,0.851562,6.294922,0.142639,-0.028137,0.644836,0.750366,down
78010,-1.746094,5.554687,0.386719,4.396484,0.986328,6.34375,0.116638,-0.007935,0.661804,0.740479,down
78015,-0.902344,4.488281,0.691406,4.513672,1.136719,6.326172,0.116638,-0.007935,0.661804,0.740479,down
78020,-0.480469,3.71875,0.652344,4.513672,1.136719,6.326172,0.089355,0.011536,0.679016,0.728577,down
78025,-0.289063,3.605469,0.539062,4.513672,1.136719,6.326172,0.074585,0.021301,0.687988,0.721558,down
78030,-0.136719,3.535156,0.347656,4.513672,1.136719,6.326172,0.060303,0.030273,0.696472,0.714355,down
78035,-0.136719,3.535156,0.347656,4.830078,1.699219,5.988281,0.047058,0.038208,0.704285,0.707336,down
78040,0.324219,3.605469,-0.265625,4.960937,1.851563,5.875,0.03363,0.045654,0.712036,0.699829,down
78045,0.324219,3.605469,-0.265625,5.09375,1.962891,5.769531,0.03363,0.045654,0.712036,0.699829,down
78051,0.324219,3.605469,-0.265625,5.09375,1.962891,5.769531,0.005127,0.060303,0.728394,0.682495,down
78056,0.324219,3.605469,-0.265625,5.277344,2.160156,5.404297,0.023193,-0.073425,-0.74408,-0.663635,down
78061,0.78125,4.0625,-0.226562,5.277344,2.160156,5.404297,0.036926,-0.079346,-0.751526,-0.65387,down
78066,0.742187,3.761719,0.003906,5.277344,2.160156,5.404297,0.052002,-0.085388,-0.759583,-0.6427,down
78071,0.78125,3.261719,0.195312,5.333984,2.337891,4.878906,0.064331,-0.090027,-0.766052,-0.633179,down
78076,1.203125,2.878906,0.230469,5.333984,2.337891,4.878906,0.078369,-0.094788,-0.773254,-0.622009,down
78081,1.089844,2.757813,0.347656,5.333984,2.337891,4.878906,0.09082,-0.098633,-0.77948,-0.611877,down
78086,1.050781,2.496094,0.421875,5.162109,2.511719,4.25,0.09082,-0.098633,-0.77948,-0.611877,down
78091,1.203125,2.347656,0.539062,5.042969,2.523438,4.023437,0.104736,-0.102417,-0.786255,-0.600281,down
78096,1.203125,2.347656,0.539062,5.042969,2.523438,4.023437,0.11615,-0.105164,-0.791565,-0.590637,down
78102,1.320313,1.808594,1.035156,4.882812,2.505859,3.791016,0.127991,-0.107666,-0.796997,-0.580383,down
78107,1.394531,1.460938,1.304688,4.882812,2.505859,3.791016,0.139465,-0.109802,-0.801941,-0.570374,down
78113,1.394531,1.460938,1.304688,4.265625,2.421875,3.095703,0.161438,-0.112976,-0.810913,-0.551025,down
78118,0.707031,0.234375,2.535156,4.265625,2.421875,3.095703,0.171814,-0.113953,-0.814819,-0.541809,down
78124,0.550781,0.003906,2.722656,3.892578,2.3125,2.511719,0.171814,-0.113953,-0.814819,-0.541809,down
78129,0.324219,-0.492187,2.796875,3.738281,2.21875,2.205078,0.171814,-0.113953,-0.814819,-0.541809,down
78134,-0.097656,-1.105469,2.875,3.738281,2.21875,2.205078,0.198364,-0.114197,-0.82489,-0.516907,down
78139,-0.214844,-1.144531,2.984375,3.550781,1.861328,1.595703,0.198364,-0.114197,-0.82489,-0.516907,down
78144,-0.328125,-1.144531,3.183594,3.527344,1.589844,1.285156,0.198364,-0.114197,-0.82489,-0.516907,down
78150,-0.480469,-1.183594,3.261719,3.527344,1.589844,1.285156,0.217468,-0.111084,-0.834412,-0.49408,down
78155,-0.710937,-1.066406,3.222656,3.527344,1.589844,1.285156,0.217468,-0.111084,-0.834412,-0.49408,down
78160,-0.789062,-0.953125,3.101563,3.576172,1.074219,0.664062,0.217468,-0.111084,-0.834412,-0.49408,down
78165,-0.789062,-0.953125,3.101563,3.398438,0.480469,0.058594,0.228088,-0.10498,-0.845276,-0.471619,down
78170,-1.324219,-0.609375,3.140625,3.398438,0.480469,0.058594,0.228088,-0.10498,-0.845276,-0.471619,down
78175,-1.324219,-0.609375,3.140625,3.273438,0.123047,-0.257813,0.229675,-0.099915,-0.852844,-0.458191,down
78180,-2.089844,-0.644531,2.683594,3.273438,0.123047,-0.257813,0.229675,-0.099915,-0.852844,-0.458191,down
78185,-2.664063,-0.378906,2.644531,2.826172,-1.042969,-1.341797,0.229675,-0.099915,-0.852844,-0.458191,down
78190,-2.78125,-0.1875,2.644531,2.826172,-1.042969,-1.341797,0.22229,-0.090332,-0.86499,-0.440735,down
78195,-2.929688,0.121094,2.644531,2.25,-2.105469,-2.193359,0.22229,-0.090332,-0.86499,-0.440735,down
78201,-3.046875,0.695312,2.453125,1.90625,-2.683594,-2.671875,0.200012,-0.078918,-0.877014,-0.429687,down
78206,-3.621094,1.882813,1.765625,1.90625,-2.683594,-2.671875,0.188293,-0.074463,-0.880798,-0.42804,down
78211,-4.011719,2.113281,1.417969,1.90625,-2.683594,-2.671875,0.174805,-0.069885,-0.884094,-0.427734,down
78216,-4.539062,2.839844,1.152344,1.90625,-2.683594,-2.671875,0.174805,-0.069885,-0.884094,-0.427734,down
78221,-5.078125,6.171875,0.230469,-0.271484,-5.324219,-5.03125,0.174805,-0.069885,-0.884094,-0.427734,down
78227,-5.5,7.742187,-0.304688,-0.271484,-5.324219,-5.03125,0.117432,-0.052368,-0.891052,-0.435303,down
78232,-6.035156,9.199219,-1.148438,-0.271484,-5.324219,-5.03125,0.117432,-0.052368,-0.891052,-0.435303,down
78237,-6.726562,10.34375,-2.144531,-3.474609,-8.34375,-8.203125,0.09552,-0.046021,-0.891541,-0.440308,down
78242,-6.726562,10.34375,-2.144531,-3.474609,-8.34375,-8.203125,0.09552,-0.046021,-0.891541,-0.440308,down
78247,-9.484375,13.640625,-4.710937,-4.507812,-9.083984,-9.119141,0.09552,-0.046021,-0.891541,-0.440308,down
78252,-9.484375,13.640625,-4.710937,-6.820312,-10.033203,-11.044922,0.026917,0.007568,0.87616,0.481262,down
78258,-10.519531,16.664062,-6.625,-6.820312,-10.033203,-11.044922,0.064087,-0.006348,0.865784,0.496277,down
78264,-13.125,19.199219,-10.339844,-6.820312,-10.033203,-11.044922,0.101257,-0.02179,0.852905,0.511719,down
78270,-13.507813,22.457031,-11.261719,-9.595703,-10.302734,-13.681641,0.101257,-0.02179,0.852905,0.511719,down
78275,-13.507813,22.457031,-11.261719,-10.234375,-10.466797,-14.095703,0.179016,-0.05835,0.817505,0.544312,down
78280,-17.183594,24.027344,-9.152344,-10.234375,-10.466797,-14.095703,0.179016,-0.05835,0.817505,0.544312,down
78285,-17.183594,24.027344,-9.152344,-10.630859,-9.533203,-15.054688,0.256531,-0.099915,0.770935,0.574402,down
78290,-19.480469,24.25,-8.3125,-10.630859,-9.533203,-15.054688,0.256531,-0.099915,0.770935,0.574402,down
78295,-19.480469,24.25,-8.3125,-10.400391,-8.476563,-15.216797,0.325378,-0.146301,0.719299,0.59613,down
78301,-22.699219,23.21875,-8.769531,-10.400391,-8.476563,-15.216797,0.325378,-0.146301,0.719299,0.59613,down
78306,-20.824219,24.25,-8.3125,-9.201172,-5.625,-13.34375,0.325378,-0.146301,0.719299,0.59613,down
78311,-18.332031,24.976562,-6.929687,-9.201172,-5.625,-13.34375,0.410278,-0.21936,0.635742,0.615967,down
78316,-13.851563,24.027344,-1.988281,-7.871094,-5.435547,-12.021484,0.410278,-0.21936,0.635742,0.615967,down
78321,-13.851563,24.027344,-1.988281,-6.472656,-4.853516,-10.369141,0.455017,-0.25708,0.584534,0.620605,down
78326,-13.46875,21.347656,0.269531,-6.472656,-4.853516,-10.369141,0.471802,-0.270508,0.564453,0.620972,down
78331,-13.46875,21.347656,0.269531,-3.980469,-2.720703,-6.384766,0.484558,-0.281067,0.548523,0.620728,down
78336,-13.429688,13.527344,2.914063,-3.980469,-2.720703,-6.384766,0.484558,-0.281067,0.548523,0.620728,down
78342,-15.386719,8.316406,2.875,-2.783203,-1.806641,-4.394531,0.50293,-0.296997,0.523987,0.619934,down
78347,-14.769531,4.335937,3.640625,-2.783203,-1.806641,-4.394531,0.504883,-0.297058,0.522339,0.61969,down
78352,-14.464844,3.757813,3.71875,-2.783203,-1.806641,-4.394531,0.505737,-0.295044,0.523499,0.618958,down
78357,-13.738281,3.683594,3.832031,2.693359,0.080078,1.126953,0.506165,-0.29071,0.52771,0.617126,down
78363,-12.589844,5.789062,3.027344,2.693359,0.080078,1.126953,0.506042,-0.2854,0.533936,0.614258,down
78368,-12.472656,8.089844,1.839844,2.693359,0.080078,1.126953,0.505554,-0.279602,0.541748,0.610535,down
78373,-12.351563,8.777344,1.457031,4.871094,1.333984,1.996094,0.504333,-0.272644,0.551941,0.60553,down
78379,-12.046875,9.390625,1.34375,4.886719,1.582031,2.117188,0.504333,-0.272644,0.551941,0.60553,down
78384,-11.941406,10.5,1.304688,4.955078,1.755859,2.167969,0.504333,-0.272644,0.551941,0.60553,down
78390,-12.046875,11.039063,1.035156,5.384766,1.904297,2.050781,0.504333,-0.272644,0.551941,0.60553,down
78395,-12.046875,11.039063,1.035156,5.917969,1.886719,1.820313,0.495605,-0.245361,0.596313,0.581848,down
78401,-12.203125,11.496094,0.730469,6.074219,1.605469,1.5625,0.495605,-0.245361,0.596313,0.581848,down
78407,-11.667969,11.613281,1.113281,5.724609,1.115234,1.322266,0.493469,-0.230225,0.619263,0.565674,down
78412,-11.667969,11.613281,1.113281,3.773438,0.136719,1.0,0.493469,-0.230225,0.619263,0.565674,down
78417,-11.363281,11.230469,1.574219,3.773438,0.136719,1.0,0.494202,-0.21106,0.640259,0.548889,down
78423,-9.332031,8.507813,1.917969,3.773438,0.136719,1.0,0.494385,-0.207336,0.642578,0.547424,down
78428,-8.789063,7.4375,2.109375,-0.539062,-0.589844,0.730469,0.494385,-0.207336,0.642578,0.547424,down
78433,-8.410156,6.59375,1.917969,-1.789063,-0.71875,0.683594,0.494385,-0.207336,0.642578,0.547424,down
78438,-8.066406,5.867187,1.648438,-2.876953,-0.84375,0.662109,0.494385,-0.207336,0.642578,0.547424,down
78444,-7.453125,4.640625,1.765625,-2.876953,-0.84375,0.662109,0.491699,-0.207092,0.631226,0.562927,down
78450,-7.148437,4.296875,1.609375,-4.589844,-1.089844,0.626953,0.491699,-0.207092,0.631226,0.562927,down
78455,-6.453125,3.683594,1.34375,-5.023437,-1.185547,0.570312,0.491699,-0.207092,0.631226,0.562927,down
78461,-6.191406,3.375,1.226563,-5.183594,-1.363281,0.492187,0.491699,-0.207092,0.631226,0.562927,down
78467,-5.964844,3.109375,1.152344,-5.183594,-1.363281,0.492187,0.485352,-0.220337,0.598572,0.598022,down
78472,-5.730469,2.839844,1.074219,-4.115234,-1.365234,0.427734,0.485352,-0.220337,0.598572,0.598022,down
78477,-5.539062,2.535156,1.113281,-4.115234,-1.365234,0.427734,0.482666,-0.226379,0.581055,0.614929,down
78482,-5.269531,2.035156,1.226563,-3.066406,-1.207031,0.396484,0.481873,-0.228088,0.57428,0.621277,down
78487,-5.269531,2.035156,1.226563,-3.066406,-1.207031,0.396484,0.481873,-0.228088,0.57428,0.621277,down
78492,-5.265625,1.996094,1.191406,-0.677734,-0.6875,0.328125,0.481873,-0.228088,0.57428,0.621277,down
78497,-5.265625,1.996094,1.191406,0.207031,-0.449219,0.279297,0.481567,-0.227539,0.565735,0.629517,down
78502,-5.464844,2.226563,1.265625,0.207031,-0.449219,0.279297,0.481934,-0.225891,0.566406,0.629211,down
78507,-5.691406,2.496094,1.191406,0.207031,-0.449219,0.279297,0.482971,-0.22168,0.571045,0.625732,down
78512,-6.035156,3.183594,1.074219,0.207031,-0.449219,0.279297,0.483459,-0.219482,0.574036,0.623352,down
78517,-6.109375,3.53125,1.113281,0.207031,-0.449219,0.279297,0.483887,-0.217041,0.577759,0.620422,down
78522,-6.191406,3.796875,1.265625,1.623047,0.3125,0.208984,0.483887,-0.217041,0.577759,0.620422,down
78527,-6.417969,4.335937,1.648438,1.623047,0.3125,0.208984,0.484131,-0.215149,0.58075,0.618103,down
78532,-6.574219,4.5625,1.839844,1.623047,0.3125,0.208984,0.483521,-0.212708,0.585693,0.614807,down
78537,-6.769531,4.679687,1.878906,1.623047,0.3125,0.208984,0.483521,-0.212708,0.585693,0.614807,down
78542,-6.878906,4.679687,1.878906,0.519531,0.595703,0.386719,0.48114,-0.211975,0.589355,0.613342,down
78547,-7.21875,4.679687,1.800781,0.519531,0.595703,0.386719,0.479553,-0.211975,0.590759,0.61322,down
78552,-7.339844,4.71875,1.992188,0.189453,0.560547,0.556641,0.479553,-0.211975,0.590759,0.61322,down
78557,-7.457031,4.71875,2.109375,0.189453,0.560547,0.556641,0.478149,-0.211853,0.591919,0.613281,down
78562,-7.601562,4.792969,2.1875,0.306641,0.539062,0.59375,0.474915,-0.210999,0.594971,0.613159,down
78567,-7.957031,4.984375,2.1875,0.306641,0.539062,0.59375,0.473572,-0.210266,0.596619,0.612854,down
78572,-8.101563,5.023437,2.1875,0.306641,0.539062,0.59375,0.47229,-0.209229,0.598572,0.612305,down
78577,-8.144531,5.0625,2.148438,0.306641,0.539062,0.59375,0.47229,-0.209229,0.598572,0.612305,down
78582,-8.21875,5.175781,2.1875,0.919922,0.371094,0.580078,0.470337,-0.206543,0.602783,0.610535,down
78587,-8.300781,5.253906,2.109375,0.919922,0.371094,0.580078,0.469543,-0.204834,0.605286,0.609253,down
78592,-8.378906,5.253906,2.070313,1.056641,0.21875,0.412109,0.469543,-0.204834,0.605286,0.609253,down
78597,-8.378906,5.328125,2.03125,0.990234,0.158203,0.349609,0.469116,-0.20343,0.607178,0.608154,down
78603,-8.378906,5.484375,1.992188,0.990234,0.158203,0.349609,0.468506,-0.2005,0.611023,0.605774,down
78608,-8.339844,5.523437,1.992188,0.990234,0.158203,0.349609,0.468323,-0.19928,0.612427,0.604858,down
78613,-8.335938,5.558594,1.957031,0.398438,0.011719,0.197266,0.468201,-0.198364,0.613342,0.604309,down
78619,-8.261719,5.636719,1.839844,0.119141,-0.033203,0.158203,0.468079,-0.197815,0.613831,0.604126,down
78624,-8.144531,5.558594,1.726563,0.119141,-0.033203,0.158203,0.468079,-0.197815,0.613831,0.604126,down
78629,-8.105469,5.484375,1.765625,-0.369141,-0.105469,0.117188,0.468079,-0.197815,0.613831,0.604126,down
78634,-8.027344,5.445312,1.765625,-0.523437,-0.101563,0.09375,0.468079,-0.197815,0.613831,0.604126,down
78639,-7.988281,5.367187,1.648438,-0.59375,-0.095703,0.080078,0.468079,-0.197815,0.613831,0.604126,down
78644,-7.917969,5.136719,1.574219,-0.59375,-0.095703,0.080078,0.468079,-0.197815,0.613831,0.604126,down
78650,-7.917969,5.101562,1.574219,-0.544922,-0.076172,0.060547,0.468079,-0.197815,0.613831,0.604126,down
78655,-7.878906,4.984375,1.535156,-0.445312,-0.070312,0.0625,0.468079,-0.197815,0.613831,0.604126,down
78660,-7.839844,4.871094,1.609375,-0.445312,-0.070312,0.0625,0.468079,-0.197815,0.613831,0.604126,down
78666,-7.796875,4.792969,1.648438,-0.445312,-0.070312,0.0625,0.466125,-0.199768,0.608093,0.61084,down
78672,-7.839844,4.792969,1.609375,-0.087891,-0.011719,0.042969,0.465881,-0.199829,0.607849,0.611206,down
78677,-7.796875,4.871094,1.574219,0.037109,0.046875,0.041016,0.465881,-0.199829,0.607849,0.611206,down
78682,-7.761719,4.871094,1.574219,0.037109,0.046875,0.041016,0.465698,-0.199829,0.60791,0.611206,down
78687,-7.835937,4.910156,1.535156,0.132812,0.103516,0.056641,0.465576,-0.199768,0.608093,0.611145,down
78692,-7.914062,4.945312,1.535156,0.132812,0.103516,0.056641,0.465393,-0.199707,0.608459,0.611023,down
78697,-7.917969,5.023437,1.6875,0.132812,0.103516,0.056641,0.465027,-0.199524,0.609253,0.610535,down
78702,-7.957031,4.984375,1.726563,0.132812,0.103516,0.056641,0.465027,-0.199524,0.609253,0.610535,down
78707,-7.953125,5.0625,1.6875,0.189453,0.148437,0.070312,0.464539,-0.19928,0.610291,0.609924,down
78712,-7.957031,5.175781,1.726563,0.189453,0.148437,0.070312,0.464539,-0.19928,0.610291,0.609924,down
78717,-7.914062,5.214844,1.726563,0.298828,0.171875,0.107422,0.464539,-0.19928,0.610291,0.609924,down
78722,-7.914062,5.214844,1.726563,0.298828,0.171875,0.107422,0.463928,-0.198914,0.611633,0.609192,down
78728,-7.953125,5.367187,1.648438,0.298828,0.171875,0.107422,0.463318,-0.198242,0.613342,0.608154,down
78734,-7.984375,5.445312,1.574219,0.298828,0.171875,0.107422,0.463074,-0.197876,0.614258,0.607605,down
78739,-7.984375,5.597656,1.648438,0.515625,0.183594,0.164062,0.462708,-0.197266,0.615356,0.606873,down
78746,-7.984375,5.597656,1.648438,0.535156,0.191406,0.171875,0.462708,-0.197266,0.615356,0.606873,down
78751,-7.988281,5.636719,1.535156,0.535156,0.191406,0.171875,0.462158,-0.196106,0.617554,0.605469,down
78757,-7.984375,5.675781,1.535156,0.53125,0.1875,0.1875,0.462158,-0.196106,0.617554,0.605469,down
78763,-7.957031,5.789062,1.535156,0.507812,0.177734,0.195312,0.462158,-0.196106,0.617554,0.605469,down
78769,-7.957031,5.828125,1.496094,0.507812,0.177734,0.195312,0.460815,-0.193726,0.621887,0.602844,down
78774,-7.957031,5.789062,1.417969,0.382813,0.175781,0.181641,0.460449,-0.193237,0.622742,0.602295,down
78779,-7.984375,5.789062,1.382813,0.324219,0.181641,0.173828,0.460449,-0.193237,0.622742,0.602295,down
78785,-7.953125,5.714844,1.457031,0.324219,0.181641,0.173828,0.459656,-0.192444,0.62439,0.601501,down
78790,-7.917969,5.675781,1.496094,0.324219,0.181641,0.173828,0.459656,-0.192444,0.62439,0.601501,down
78796,-7.957031,5.675781,1.496094,0.160156,0.160156,0.125,0.459656,-0.192444,0.62439,0.601501,down
78801,-7.953125,5.636719,1.457031,0.128906,0.166016,0.109375,0.459656,-0.192444,0.62439,0.601501,down
78807,-8.027344,5.523437,1.496094,0.128906,0.166016,0.109375,0.457947,-0.191833,0.62677,0.600525,down
78812,-7.953125,5.445312,1.535156,0.128906,0.166016,0.109375,0.457947,-0.191833,0.62677,0.600525,down
78817,-8.023438,5.484375,1.574219,0.087891,0.126953,0.003906,0.457947,-0.191833,0.62677,0.600525,down
78822,-8.023438,5.523437,1.609375,0.087891,0.126953,0.003906,0.457581,-0.192017,0.62738,0.600098,down
78827,-8.027344,5.597656,1.609375,0.087891,0.126953,0.003906,0.45752,-0.192139,0.627625,0.599854,down
78833,-7.988281,5.675781,1.609375,0.119141,0.074219,-0.101563,0.45752,-0.192139,0.627625,0.599854,down
78838,-7.988281,5.75,1.609375,0.119141,0.074219,-0.101563,0.457642,-0.192505,0.628296,0.598938,down
78843,-7.953125,5.828125,1.574219,0.119141,0.074219,-0.101563,0.457825,-0.192627,0.62854,0.598572,down
78848,-7.957031,5.828125,1.535156,0.123047,0.023437,-0.09375,0.457825,-0.192627,0.62854,0.598572,down
78853,-7.957031,5.789062,1.535156,0.123047,0.023437,-0.09375,0.45813,-0.192688,0.628845,0.597961,down
78859,-7.917969,5.828125,1.535156,0.123047,0.023437,-0.09375,0.458252,-0.192749,0.628967,0.597717,down
78864,-7.917969,5.867187,1.496094,0.082031,-0.007813,-0.076172,0.458252,-0.192749,0.628967,0.597717,down
78869,-7.917969,5.867187,1.496094,0.058594,-0.013672,-0.076172,0.458252,-0.192749,0.628967,0.597717,down
78874,-7.917969,5.828125,1.457031,0.048828,-0.021484,-0.074219,0.45874,-0.19281,0.62915,0.597107,down
78880,-7.957031,5.90625,1.417969,0.048828,-0.021484,-0.074219,0.458923,-0.19281,0.62915,0.596985,down
78886,-7.953125,5.941406,1.417969,0.025391,-0.013672,-0.072266,0.458923,-0.19281,0.62915,0.596985,down
78891,-7.953125,5.941406,1.417969,0.037109,-0.005859,-0.060547,0.458923,-0.19281,0.62915,0.596985,down
78896,-7.914062,5.941406,1.382813,0.037109,-0.005859,-0.060547,0.45929,-0.192993,0.629211,0.596558,down
78901,-7.914062,5.941406,1.382813,0.039063,0.013672,-0.054687,0.45929,-0.192993,0.629211,0.596558,down
78906,-7.953125,5.980469,1.382813,0.046875,0.025391,-0.054687,0.45929,-0.192993,0.629211,0.596558,down
78911,-7.914062,5.980469,1.382813,0.046875,0.025391,-0.054687,0.459473,-0.193176,0.629456,0.59613,down
78917,-7.914062,5.941406,1.382813,0.046875,0.025391,-0.054687,0.459473,-0.193237,0.6297,0.595825,down
78922,-7.957031,5.90625,1.457031,0.046875,0.025391,-0.054687,0.459473,-0.193237,0.6297,0.595825,down
78927,-7.957031,5.867187,1.417969,0.064453,0.066406,-0.023437,0.459473,-0.193237,0.6297,0.595825,down
78932,-7.984375,5.828125,1.417969,0.064453,0.066406,-0.023437,0.459412,-0.193359,0.630005,0.59552,down
