timestamp,ax,ay,az,gx,gy,gz,qw,qx,qy,qz,label
466,3.019531,5.375,7.71875,-0.175781,0.275391,-0.140625,1.0,0.0,0.0,0.0,down
471,2.90625,5.410156,7.683594,-0.162109,0.267578,-0.146484,1.0,0.0,0.0,0.0,down
477,2.40625,5.949219,7.867187,-0.162109,0.267578,-0.146484,0.852356,0.336792,0.002808,0.400024,down
482,0.796875,6.023437,8.371094,-0.162109,0.267578,-0.146484,0.852356,0.336792,0.002808,0.400024,down
487,3.136719,6.90625,8.789063,-0.107422,0.103516,-0.048828,0.852661,0.335999,0.003174,0.400024,down
492,1.640625,3.804688,7.988281,-0.107422,0.103516,-0.048828,0.852661,0.335999,0.003174,0.400024,down
497,2.945313,5.027344,8.144531,-0.107422,0.103516,-0.048828,0.852905,0.335449,0.002991,0.399963,down
502,2.753906,5.71875,7.449219,0.013672,0.021484,-0.03125,0.852905,0.335449,0.002991,0.399963,down
507,2.789063,5.335937,7.410156,0.013672,0.021484,-0.03125,0.852966,0.33551,0.003052,0.399902,down
512,2.90625,5.335937,7.527344,0.013672,0.021484,-0.03125,0.853027,0.335327,0.003052,0.399902,down
517,2.867188,5.410156,7.488281,0.013672,0.021484,-0.03125,0.853149,0.335083,0.002991,0.399841,down
523,2.90625,5.488281,7.527344,-0.076172,0.080078,-0.017578,0.853149,0.335083,0.002991,0.399841,down
528,2.90625,5.488281,7.527344,-0.078125,0.089844,-0.003906,0.853455,0.33429,0.003174,0.399902,down
534,2.828125,5.566406,7.484375,-0.078125,0.089844,-0.003906,0.853516,0.333923,0.003235,0.399963,down
539,2.828125,5.640625,7.640625,-0.115234,0.082031,0.015625,0.853516,0.333923,0.003235,0.399963,down
545,2.753906,5.527344,7.722656,-0.089844,0.076172,0.019531,0.853516,0.333923,0.003235,0.399963,down
551,2.714844,5.449219,7.71875,-0.082031,0.050781,0.027344,0.853516,0.333923,0.003235,0.399963,down
556,2.675781,5.375,7.683594,-0.099609,0.027344,0.03125,0.853516,0.333923,0.003235,0.399963,down
562,2.789063,5.375,7.757812,-0.091797,0.009766,0.033203,0.853516,0.333923,0.003235,0.399963,down
568,2.828125,5.296875,7.722656,-0.087891,-0.005859,0.037109,0.853882,0.332214,0.002991,0.400635,down
573,2.828125,5.296875,7.679687,-0.085937,-0.015625,0.03125,0.853882,0.332214,0.002991,0.400635,down
578,2.867188,5.296875,7.722656,-0.085937,-0.015625,0.03125,0.853943,0.331909,0.002686,0.400757,down
583,2.828125,5.296875,7.722656,-0.085937,-0.015625,0.03125,0.854004,0.331787,0.002563,0.400757,down
588,2.828125,5.335937,7.683594,-0.060547,-0.015625,0.013672,0.854004,0.331665,0.002441,0.400818,down
593,2.789063,5.296875,7.640625,-0.060547,-0.015625,0.015625,0.854065,0.331543,0.002258,0.400818,down
598,2.789063,5.375,7.757812,-0.060547,-0.015625,0.015625,0.854065,0.331421,0.002136,0.400879,down
603,2.789063,5.449219,7.640625,-0.060547,-0.015625,0.015625,0.854126,0.33136,0.001953,0.400879,down
608,2.828125,5.335937,7.601562,-0.056641,-0.03125,0.021484,0.854126,0.33136,0.001953,0.400879,down
613,2.867188,5.410156,7.601562,-0.054687,-0.021484,0.027344,0.854126,0.331238,0.00177,0.40094,down
618,2.867188,5.449219,7.640625,-0.054687,-0.021484,0.027344,0.854187,0.331055,0.001526,0.401001,down
623,2.828125,5.410156,7.644531,-0.054687,-0.021484,0.027344,0.854187,0.330933,0.001404,0.401123,down
628,2.789063,5.375,7.644531,-0.052734,0.003906,0.048828,0.854187,0.330933,0.001404,0.401123,down
633,2.753906,5.410156,7.640625,-0.052734,0.003906,0.048828,0.854187,0.330811,0.001282,0.401184,down
639,2.828125,5.257812,7.683594,-0.052734,0.003906,0.048828,0.854187,0.330566,0.001099,0.401428,down
644,2.828125,5.335937,7.601562,-0.066406,-0.001953,0.058594,0.854126,0.330383,0.000977,0.40155,down
650,2.789063,5.527344,7.683594,-0.056641,0.0,0.056641,0.854126,0.330261,0.000793,0.401672,down
656,2.90625,5.335937,7.644531,-0.056641,0.0,0.056641,0.854126,0.330139,0.000671,0.401855,down
661,2.867188,5.335937,7.527344,-0.058594,0.003906,0.060547,0.854126,0.330139,0.000671,0.401855,down
667,2.90625,5.296875,7.640625,-0.054687,0.009766,0.0625,0.854126,0.330139,0.000671,0.401855,down
672,2.828125,5.335937,7.683594,-0.046875,0.019531,0.052734,0.854126,0.330139,0.000671,0.401855,down
677,2.789063,5.335937,7.757812,-0.046875,0.019531,0.052734,0.854065,0.32959,0.000305,0.402405,down
683,2.828125,5.296875,7.828125,-0.042969,0.015625,0.056641,0.854065,0.32959,0.000305,0.402405,down
688,2.828125,5.296875,7.828125,-0.03125,0.009766,0.046875,0.854004,0.329346,6.1e-05,0.402771,down
693,2.828125,5.296875,7.90625,-0.03125,0.009766,0.046875,0.853943,0.329346,-6.1e-05,0.402893,down
698,2.789063,5.21875,7.871094,-0.009766,-0.025391,0.058594,0.853943,0.329346,-6.1e-05,0.402893,down
703,2.789063,5.21875,7.757812,-0.009766,-0.025391,0.058594,0.853821,0.329346,-0.000305,0.403076,down
708,2.828125,5.183594,7.71875,-0.009766,-0.025391,0.058594,0.85376,0.329407,-0.000427,0.403198,down
713,2.867188,5.183594,7.71875,-0.009766,-0.025391,0.058594,0.853699,0.329407,-0.00061,0.40332,down
718,2.828125,5.21875,7.71875,0.013672,-0.033203,0.042969,0.853699,0.329407,-0.00061,0.40332,down
723,2.828125,5.257812,7.683594,0.013672,-0.033203,0.042969,0.853577,0.329529,-0.000793,0.403442,down
728,2.828125,5.296875,7.679687,0.013672,-0.033203,0.042969,0.853516,0.329651,-0.000854,0.403503,down
733,2.867188,5.296875,7.640625,0.023437,-0.007813,0.035156,0.853516,0.329651,-0.000854,0.403503,down
738,2.867188,5.335937,7.644531,0.023437,-0.007813,0.035156,0.853455,0.329712,-0.000916,0.403625,down
743,2.867188,5.335937,7.601562,0.021484,0.0,0.025391,0.853394,0.329773,-0.000977,0.403748,down
749,2.867188,5.335937,7.5625,0.013672,0.001953,0.03125,0.853333,0.329834,-0.000977,0.403809,down
754,2.90625,5.410156,7.644531,0.009766,0.001953,0.039063,0.853271,0.329834,-0.000977,0.40387,down
759,2.90625,5.410156,7.644531,-0.001953,0.009766,0.052734,0.85321,0.329834,-0.001038,0.403992,down
764,2.867188,5.375,7.683594,-0.001953,0.015625,0.060547,0.853149,0.329773,-0.001099,0.404114,down
770,2.90625,5.375,7.644531,-0.001953,0.015625,0.060547,0.853088,0.329773,-0.001099,0.404297,down
776,2.867188,5.375,7.71875,0.0,0.023437,0.087891,0.853088,0.329773,-0.001099,0.404297,down
782,2.789063,5.296875,7.722656,0.001953,0.023437,0.103516,0.853088,0.329773,-0.001099,0.404297,down
788,2.714844,5.335937,7.679687,0.029297,0.029297,0.119141,0.853088,0.329773,-0.001099,0.404297,down
793,2.789063,5.335937,7.71875,0.039063,0.033203,0.138672,0.852661,0.329712,-0.001282,0.405273,down
798,2.753906,5.375,7.679687,0.041016,0.035156,0.144531,0.852478,0.329712,-0.001282,0.40564,down
804,2.753906,5.449219,7.5625,0.041016,0.035156,0.144531,0.852173,0.329834,-0.001343,0.40625,down
809,2.753906,5.410156,7.605469,0.025391,0.042969,0.154297,0.851929,0.329834,-0.001404,0.406677,down
814,2.789063,5.449219,7.566406,0.009766,0.037109,0.150391,0.851746,0.329834,-0.001404,0.407043,down
820,2.945313,5.375,7.640625,0.009766,0.037109,0.150391,0.851624,0.329773,-0.001465,0.407349,down
825,2.945313,5.296875,7.644531,-0.023437,0.019531,0.121094,0.851501,0.329712,-0.001526,0.407654,down
830,3.058594,5.21875,7.683594,-0.042969,0.013672,0.103516,0.851501,0.329712,-0.001526,0.407654,down
836,3.058594,5.183594,7.683594,-0.046875,0.0,0.089844,0.851501,0.329712,-0.001526,0.407654,down
841,3.097656,5.183594,7.679687,-0.052734,-0.005859,0.078125,0.851501,0.329712,-0.001526,0.407654,down
846,3.058594,5.183594,7.757812,-0.054687,-0.007813,0.080078,0.851501,0.329712,-0.001526,0.407654,down
851,3.019531,5.21875,7.71875,-0.046875,-0.011719,0.074219,0.851501,0.329712,-0.001526,0.407654,down
856,3.019531,5.144531,7.71875,-0.046875,-0.011719,0.074219,0.851501,0.329712,-0.001526,0.407654,down
862,3.019531,5.144531,7.757812,-0.046875,-0.011719,0.074219,0.851196,0.329041,-0.002502,0.408936,down
868,3.019531,5.21875,7.71875,-0.017578,-0.011719,0.080078,0.851074,0.328918,-0.002747,0.409302,down
873,2.980469,5.335937,7.605469,-0.017578,-0.011719,0.080078,0.850952,0.328918,-0.002869,0.409424,down
878,2.980469,5.296875,7.601562,-0.001953,-0.003906,0.072266,0.850952,0.328918,-0.002869,0.409424,down
883,2.980469,5.335937,7.566406,-0.001953,-0.003906,0.072266,0.850891,0.328918,-0.00293,0.409607,down
888,2.945313,5.375,7.40625,-0.011719,0.009766,0.050781,0.850891,0.328918,-0.00293,0.409607,down
893,3.019531,5.375,7.488281,-0.011719,0.009766,0.050781,0.85083,0.328796,-0.003052,0.409851,down
898,2.980469,5.410156,7.484375,-0.017578,0.039063,0.009766,0.85083,0.328735,-0.003052,0.409912,down
903,2.980469,5.410156,7.566406,-0.017578,0.039063,0.009766,0.850769,0.328674,-0.003052,0.409973,down
909,2.945313,5.410156,7.605469,-0.017578,0.039063,0.009766,0.85083,0.328491,-0.00293,0.410095,down
914,3.019531,5.335937,7.601562,-0.027344,0.037109,0.007813,0.85083,0.32843,-0.00293,0.410156,down
919,3.058594,5.296875,7.640625,-0.021484,0.046875,0.021484,0.85083,0.328308,-0.002869,0.410217,down
925,3.019531,5.21875,7.71875,-0.021484,0.046875,0.021484,0.85083,0.328186,-0.002808,0.410339,down
931,3.019531,5.183594,7.71875,-0.021484,0.046875,0.021484,0.85083,0.328125,-0.002747,0.4104,down
936,2.945313,5.183594,7.828125,0.015625,0.0625,0.009766,0.85083,0.328125,-0.002747,0.4104,down
941,2.945313,5.144531,7.828125,0.027344,0.066406,0.007813,0.85083,0.328125,-0.002747,0.4104,down
946,2.753906,5.144531,7.789062,0.027344,0.066406,0.007813,0.85083,0.328125,-0.002747,0.4104,down
951,2.867188,5.183594,7.792969,0.035156,0.068359,-0.009766,0.85083,0.328125,-0.002747,0.4104,down
956,2.789063,5.257812,7.792969,0.042969,0.068359,-0.019531,0.85083,0.328125,-0.002747,0.4104,down
962,2.714844,5.296875,7.683594,0.042969,0.068359,-0.019531,0.850647,0.328064,-0.001831,0.410767,down
968,2.597656,5.566406,7.683594,0.042969,0.068359,-0.019531,0.850708,0.328003,-0.001465,0.410767,down
973,2.675781,5.566406,7.640625,0.042969,0.068359,-0.019531,0.850708,0.328003,-0.001465,0.410767,down
978,2.753906,5.601562,7.679687,-0.007813,0.068359,0.001953,0.850708,0.32782,-0.001221,0.410889,down
983,2.636719,5.566406,7.527344,-0.007813,0.068359,0.001953,0.850708,0.32782,-0.001221,0.410889,down
988,2.675781,5.527344,7.527344,-0.007813,0.068359,0.001953,0.850708,0.327637,-0.001099,0.411072,down
994,2.714844,5.410156,7.484375,-0.058594,0.097656,0.037109,0.850708,0.327209,-0.000854,0.411377,down
999,2.675781,5.410156,7.601562,-0.058594,0.097656,0.037109,0.850708,0.326965,-0.000671,0.41156,down
1005,2.636719,5.257812,7.679687,-0.058594,0.097656,0.037109,0.850769,0.326721,-0.000488,0.411682,down
1011,2.597656,5.296875,7.832031,0.001953,0.166016,0.017578,0.850769,0.326477,-0.000122,0.411865,down
1016,2.597656,5.335937,7.867187,0.001953,0.166016,0.017578,0.850708,0.326355,0.000183,0.412048,down
1022,2.523438,5.296875,7.867187,0.001953,0.166016,0.017578,0.850708,0.326355,0.000183,0.412048,down
1027,2.597656,5.257812,7.949219,0.025391,0.146484,0.017578,0.850708,0.326355,0.000183,0.412048,down
1032,2.523438,5.21875,7.871094,0.039063,0.140625,0.009766,0.850708,0.326355,0.000183,0.412048,down
1038,2.636719,5.21875,7.867187,0.039063,0.140625,0.009766,0.850708,0.326355,0.000183,0.412048,down
1043,2.523438,5.105469,7.761719,0.060547,0.128906,0.0,0.850708,0.326355,0.000183,0.412048,down
1048,2.753906,5.144531,7.789062,0.074219,0.121094,-0.023437,0.850708,0.326355,0.000183,0.412048,down
1053,2.597656,5.144531,7.722656,0.074219,0.121094,-0.023437,0.850403,0.325989,0.002319,0.412964,down
1058,2.675781,5.257812,7.792969,0.074219,0.121094,-0.023437,0.850403,0.325989,0.002686,0.412964,down
1064,2.636719,5.375,7.789062,0.087891,0.132812,-0.046875,0.850403,0.325989,0.002686,0.412964,down
1069,2.675781,5.410156,7.757812,0.078125,0.134766,-0.041016,0.850403,0.325989,0.002686,0.412964,down
1074,2.5625,5.335937,7.679687,0.078125,0.134766,-0.041016,0.850281,0.32605,0.004272,0.413147,down
1079,2.714844,5.335937,7.761719,0.078125,0.134766,-0.041016,0.850281,0.32605,0.004272,0.413147,down
1084,2.675781,5.488281,7.757812,0.058594,0.171875,0.021484,0.850281,0.32605,0.004272,0.413147,down
1089,2.484375,5.527344,7.71875,0.058594,0.171875,0.021484,0.850098,0.325867,0.005371,0.413574,down
1094,2.484375,5.488281,7.644531,0.058594,0.171875,0.021484,0.850037,0.325684,0.005676,0.413879,down
1099,2.5625,5.410156,7.640625,-0.0625,0.175781,0.074219,0.850037,0.325684,0.005676,0.413879,down
1104,2.5625,5.296875,7.683594,-0.0625,0.175781,0.074219,0.849976,0.325073,0.006165,0.41449,down
1110,2.714844,5.296875,7.792969,-0.0625,0.175781,0.074219,0.849976,0.324768,0.006348,0.414795,down
1115,2.753906,5.144531,7.828125,-0.076172,0.146484,0.064453,0.849976,0.324402,0.006531,0.415039,down
1120,2.867188,5.144531,7.871094,-0.054687,0.144531,0.052734,0.849976,0.324402,0.006531,0.415039,down
1125,2.980469,5.183594,7.949219,-0.027344,0.142578,0.029297,0.849976,0.324402,0.006531,0.415039,down
1130,2.789063,5.257812,7.871094,-0.027344,0.142578,0.029297,0.849915,0.323669,0.007202,0.41571,down
1135,2.828125,5.144531,7.832031,0.009766,0.140625,-0.027344,0.849976,0.323486,0.007507,0.415771,down
1140,2.945313,5.257812,7.90625,0.025391,0.138672,-0.052734,0.849976,0.323364,0.007874,0.415833,down
1145,2.714844,5.257812,7.984375,0.021484,0.132812,-0.085937,0.850037,0.323303,0.008179,0.415771,down
1151,2.5625,5.335937,7.761719,0.021484,0.132812,-0.085937,0.850098,0.323242,0.008545,0.41571,down
1157,2.714844,5.144531,7.679687,0.054687,0.128906,-0.126953,0.850098,0.323242,0.008545,0.41571,down
1162,2.597656,5.335937,7.679687,0.050781,0.134766,-0.132812,0.850098,0.323242,0.008545,0.41571,down
1168,2.636719,5.21875,7.605469,0.056641,0.144531,-0.146484,0.850098,0.323242,0.008545,0.41571,down
1174,2.753906,5.21875,7.605469,0.087891,0.150391,-0.144531,0.850098,0.323242,0.008545,0.41571,down
1179,2.636719,5.21875,7.484375,0.087891,0.150391,-0.144531,0.850525,0.323059,0.010803,0.414856,down
1184,2.597656,5.183594,7.40625,0.027344,0.134766,-0.058594,0.850586,0.323059,0.011292,0.414673,down
1189,2.828125,5.066406,7.296875,0.027344,0.134766,-0.058594,0.850647,0.322876,0.011963,0.414673,down
1194,2.828125,5.105469,7.261719,-0.052734,0.107422,0.089844,0.850647,0.322876,0.011963,0.414673,down
1199,3.097656,5.027344,7.105469,-0.052734,0.107422,0.089844,0.850586,0.322449,0.012146,0.415222,down
1204,3.402344,5.144531,7.101562,-0.162109,0.109375,0.261719,0.850586,0.322449,0.012146,0.415222,down
1209,3.671875,4.953125,7.222656,-0.162109,0.109375,0.261719,0.850403,0.322021,0.012024,0.415833,down
1214,3.941406,5.296875,7.335937,-0.189453,0.109375,0.347656,0.850403,0.322021,0.012024,0.415833,down
1219,3.941406,5.296875,7.335937,-0.189453,0.109375,0.347656,0.849731,0.320618,0.011169,0.418335,down
1224,4.132812,5.375,7.527344,-0.189453,0.109375,0.347656,0.849731,0.320618,0.011169,0.418335,down
1229,4.207031,5.449219,7.640625,-0.164062,0.056641,0.304688,0.849731,0.320618,0.011169,0.418335,down
1234,3.824219,5.144531,7.722656,-0.164062,0.056641,0.304688,0.849304,0.319702,0.010498,0.420044,down
1239,3.558594,5.066406,7.867187,-0.056641,-0.003906,0.107422,0.849121,0.319336,0.010193,0.420593,down
1244,3.328125,5.144531,7.832031,-0.056641,-0.003906,0.107422,0.848999,0.319153,0.01001,0.421021,down
1249,2.945313,5.296875,7.71875,-0.056641,-0.003906,0.107422,0.848938,0.319092,0.009888,0.421143,down
1254,2.867188,5.335937,7.71875,-0.056641,-0.003906,0.107422,0.848938,0.319153,0.009827,0.421082,down
1259,2.675781,5.449219,7.828125,0.095703,0.007813,-0.085937,0.848938,0.319275,0.009827,0.420959,down
1264,2.523438,5.410156,7.910156,0.095703,0.007813,-0.085937,0.848999,0.319458,0.009949,0.420837,down
1269,2.445313,5.449219,7.945312,0.095703,0.007813,-0.085937,0.848999,0.319641,0.010132,0.420654,down
1274,2.332031,5.488281,8.027344,0.095703,0.007813,-0.085937,0.848999,0.319824,0.010315,0.420532,down
1279,2.292969,5.449219,8.066406,0.013672,0.015625,-0.085937,0.848999,0.319824,0.010315,0.420532,down
1284,2.214844,5.410156,8.101563,0.013672,0.015625,-0.085937,0.84906,0.319946,0.01062,0.420227,down
1290,2.214844,5.410156,8.101563,-0.023437,-0.009766,-0.099609,0.849304,0.319885,0.010742,0.419861,down
1295,2.253906,5.257812,8.171875,-0.021484,-0.033203,-0.085937,0.849426,0.319885,0.010742,0.419617,down
1301,2.484375,5.21875,8.023438,-0.021484,-0.033203,-0.085937,0.849487,0.319885,0.010681,0.419434,down
1306,2.636719,5.066406,7.945312,0.0,-0.027344,-0.095703,0.849609,0.319885,0.010681,0.41925,down
1311,2.789063,5.066406,7.90625,0.0,-0.027344,-0.095703,0.84967,0.319885,0.010742,0.419006,down
1318,2.828125,5.027344,7.910156,0.037109,-0.005859,-0.125,0.84967,0.319885,0.010742,0.419006,down
1323,2.867188,5.066406,7.828125,0.046875,0.003906,-0.140625,0.84967,0.319885,0.010742,0.419006,down
1329,2.945313,5.144531,7.828125,0.046875,0.003906,-0.140625,0.850098,0.320251,0.011292,0.417847,down
1334,2.945313,5.144531,7.789062,0.046875,0.003906,-0.140625,0.850098,0.320251,0.011292,0.417847,down
1339,2.90625,5.105469,7.828125,0.060547,0.009766,-0.181641,0.850403,0.320496,0.011658,0.417114,down
1344,2.789063,5.066406,7.789062,0.060547,0.009766,-0.181641,0.850403,0.320496,0.011658,0.417114,down
1349,2.714844,5.066406,7.792969,0.070312,-0.015625,-0.208984,0.850403,0.320496,0.011658,0.417114,down
1354,2.675781,5.066406,7.789062,0.070312,-0.015625,-0.208984,0.850708,0.320801,0.012146,0.41626,down
1359,2.714844,4.992187,7.761719,0.070312,-0.015625,-0.208984,0.850891,0.320923,0.012268,0.415771,down
1364,2.675781,4.953125,7.757812,0.070312,-0.015625,-0.208984,0.851074,0.321045,0.01239,0.415283,down
1369,2.675781,4.953125,7.71875,0.054687,-0.072266,-0.257813,0.851257,0.321167,0.012512,0.414795,down
1374,2.714844,5.027344,7.679687,0.054687,-0.072266,-0.257813,0.851501,0.32135,0.012573,0.414185,down
1380,2.597656,5.105469,7.683594,0.054687,-0.072266,-0.257813,0.851929,0.321716,0.012756,0.412964,down
1385,2.636719,5.144531,7.679687,0.060547,-0.082031,-0.296875,0.852173,0.321899,0.012878,0.412292,down
1390,2.5625,5.105469,7.683594,0.0625,-0.085937,-0.302734,0.852478,0.322144,0.013,0.41156,down
1395,2.597656,5.21875,7.679687,0.0625,-0.085937,-0.302734,0.852722,0.322327,0.013062,0.410828,down
1400,2.523438,5.296875,7.640625,0.0625,-0.085937,-0.302734,0.852966,0.32251,0.013123,0.410156,down
1405,2.597656,5.296875,7.71875,0.056641,-0.083984,-0.302734,0.853271,0.322754,0.013245,0.409424,down
1411,2.675781,5.375,7.71875,0.056641,-0.083984,-0.302734,0.853516,0.322937,0.013306,0.408691,down
1417,2.753906,5.375,7.722656,0.056641,-0.083984,-0.302734,0.85376,0.32312,0.013428,0.40802,down
1422,2.828125,5.375,7.792969,0.046875,-0.0625,-0.298828,0.85376,0.32312,0.013428,0.40802,down
1428,2.753906,5.257812,7.867187,0.046875,-0.042969,-0.304688,0.85376,0.32312,0.013428,0.40802,down
1434,2.714844,5.257812,7.949219,0.074219,-0.03125,-0.308594,0.854858,0.323792,0.01416,0.405273,down
1439,2.714844,5.144531,7.984375,0.074219,-0.03125,-0.308594,0.854858,0.323792,0.01416,0.405273,down
1444,2.714844,5.105469,8.066406,0.148437,-0.007813,-0.322266,0.854858,0.323792,0.01416,0.405273,down
1449,2.675781,5.066406,8.214844,0.199219,0.005859,-0.324219,0.855347,0.324829,0.015381,0.403198,down
1454,2.675781,5.144531,8.140625,0.199219,0.005859,-0.324219,0.855347,0.324829,0.015381,0.403198,down
1459,2.753906,5.21875,7.949219,0.199219,0.005859,-0.324219,0.855469,0.325439,0.015991,0.402466,down
1465,2.714844,5.488281,7.867187,0.376953,0.125,-0.363281,0.855469,0.325439,0.015991,0.402466,down
1470,2.523438,5.679687,7.828125,0.376953,0.125,-0.363281,0.855652,0.327332,0.018433,0.400452,down
1475,2.253906,5.988281,7.90625,0.376953,0.125,-0.363281,0.855774,0.328003,0.019653,0.399658,down
1480,2.179688,5.832031,8.140625,0.388672,0.214844,-0.400391,0.855774,0.328003,0.019653,0.399658,down
1485,2.0625,6.101562,8.144531,0.388672,0.214844,-0.400391,0.855896,0.329163,0.021851,0.398315,down
1490,1.792969,6.253906,8.027344,0.388672,0.214844,-0.400391,0.855957,0.329712,0.022949,0.397644,down
1495,1.527344,6.253906,8.027344,0.388672,0.214844,-0.400391,0.856079,0.330261,0.024231,0.39679,down
1500,1.449219,6.0625,8.140625,0.371094,0.240234,-0.46875,0.856079,0.330261,0.024231,0.39679,down
1505,1.375,5.796875,8.484375,0.371094,0.240234,-0.46875,0.856323,0.331421,0.026672,0.395203,down
1511,0.722656,5.601562,9.710938,0.371094,0.240234,-0.46875,0.856262,0.332336,0.028076,0.39447,down
1516,0.761719,5.988281,9.902344,0.96875,0.201172,-0.417969,0.856262,0.332336,0.028076,0.39447,down
1521,0.570312,6.332031,10.246094,1.222656,0.138672,-0.353516,0.856262,0.332336,0.028076,0.39447,down
1527,0.339844,7.328125,9.980469,1.222656,0.138672,-0.353516,0.854614,0.338745,0.033142,0.392212,down
1532,0.339844,7.824219,9.976563,1.529297,-0.064453,-0.171875,0.854614,0.338745,0.033142,0.392212,down
1537,0.453125,7.941406,9.898438,1.556641,-0.160156,-0.078125,0.854614,0.338745,0.033142,0.392212,down
1542,0.992187,8.132813,9.480469,1.607422,-0.25,-0.058594,0.854614,0.338745,0.033142,0.392212,down
1547,1.21875,8.285156,9.359375,1.568359,-0.318359,-0.087891,0.849731,0.3526,0.038269,0.390137,down
1552,1.375,8.9375,9.253906,1.484375,-0.357422,-0.130859,0.849731,0.3526,0.038269,0.390137,down
1558,1.601563,9.550781,9.019531,1.390625,-0.396484,-0.123047,0.849731,0.3526,0.038269,0.390137,down
1564,1.640625,9.359375,8.753906,1.390625,-0.396484,-0.123047,0.846375,0.362732,0.040283,0.387939,down
1570,1.757813,9.246094,8.753906,0.910156,-0.451172,-0.166016,0.846375,0.362732,0.040283,0.387939,down
1575,1.792969,8.972656,8.597656,0.8125,-0.421875,-0.185547,0.844727,0.368103,0.04071,0.386353,down
1580,1.792969,9.085938,8.484375,0.8125,-0.421875,-0.185547,0.843628,0.372437,0.040833,0.384644,down
1585,1.792969,9.164063,8.367188,0.777344,-0.304688,-0.115234,0.843628,0.372437,0.040833,0.384644,down
1590,1.679688,9.203125,8.292969,0.777344,-0.304688,-0.115234,0.843018,0.374512,0.041016,0.383972,down
1595,1.640625,9.085938,8.214844,0.748047,-0.263672,-0.044922,0.843018,0.374512,0.041016,0.383972,down
1601,1.71875,9.050781,7.871094,0.748047,-0.263672,-0.044922,0.841064,0.379761,0.041382,0.382935,down
1606,1.71875,9.050781,7.871094,0.681641,-0.226562,0.201172,0.840332,0.38147,0.041382,0.382935,down
1611,1.601563,8.820313,7.640625,0.648437,-0.205078,0.277344,0.839355,0.38324,0.041321,0.38324,down
1617,1.832031,8.398438,7.144531,0.648437,-0.205078,0.277344,0.838562,0.384583,0.041199,0.383606,down
1622,1.792969,8.359375,6.988281,0.662109,-0.095703,0.416016,0.838562,0.384583,0.041199,0.383606,down
1627,1.792969,8.320313,6.796875,0.669922,-0.021484,0.453125,0.836548,0.387634,0.04126,0.38501,down
1632,1.832031,8.175781,6.761719,0.669922,-0.021484,0.453125,0.835266,0.389221,0.041443,0.386108,down
1637,1.601563,7.820312,6.53125,0.669922,-0.021484,0.453125,0.835266,0.389221,0.041443,0.386108,down
1643,1.640625,7.671875,6.53125,0.652344,0.201172,0.560547,0.835266,0.389221,0.041443,0.386108,down
1649,1.679688,7.554687,6.492187,0.628906,0.269531,0.595703,0.835266,0.389221,0.041443,0.386108,down
1654,1.71875,7.332031,6.570312,0.628906,0.269531,0.595703,0.835266,0.389221,0.041443,0.386108,down
1659,1.640625,7.132812,6.570312,0.628906,0.269531,0.595703,0.829163,0.395081,0.044128,0.392944,down
1664,1.679688,7.136719,6.492187,0.677734,0.486328,0.634766,0.829163,0.395081,0.044128,0.392944,down
1670,1.640625,7.058594,6.570312,0.626953,0.535156,0.644531,0.829163,0.395081,0.044128,0.392944,down
1675,1.601563,7.019531,6.644531,0.626953,0.535156,0.644531,0.825317,0.397644,0.047119,0.398071,down
1680,1.527344,6.988281,6.722656,0.464844,0.601562,0.664062,0.822876,0.39856,0.049194,0.401978,down
1685,1.527344,6.871094,6.722656,0.425781,0.611328,0.71875,0.821716,0.398926,0.05011,0.403931,down
1690,1.449219,6.675781,6.878906,0.425781,0.611328,0.71875,0.821716,0.398926,0.05011,0.403931,down
1695,1.566406,6.5625,6.875,0.40625,0.552734,0.685547,0.820312,0.399292,0.051208,0.40625,down
1700,1.601563,6.445312,6.839844,0.40625,0.552734,0.685547,0.819153,0.399658,0.052002,0.408081,down
1705,1.679688,6.445312,6.835937,0.369141,0.488281,0.664062,0.817993,0.399963,0.052795,0.409973,down
1711,1.949219,6.253906,6.757812,0.369141,0.488281,0.664062,0.815857,0.400635,0.05426,0.413452,down
1716,1.984375,6.0625,6.683594,0.408203,0.482422,0.623047,0.814636,0.401062,0.054993,0.415283,down
1721,2.101563,5.949219,6.53125,0.408203,0.482422,0.623047,0.813477,0.401489,0.055908,0.417053,down
1727,2.140625,6.0625,6.414062,0.408203,0.482422,0.623047,0.8125,0.401917,0.056763,0.418396,down
1732,2.140625,6.023437,6.339844,0.443359,0.546875,0.462891,0.811462,0.402344,0.057861,0.419922,down
1737,2.140625,6.140625,6.222656,0.421875,0.564453,0.421875,0.810486,0.40271,0.05896,0.421265,down
1743,2.40625,6.25,6.222656,0.421875,0.564453,0.421875,0.80957,0.402893,0.06012,0.422607,down
1748,2.371094,6.140625,6.191406,0.316406,0.617187,0.394531,0.80957,0.402893,0.06012,0.422607,down
1754,2.332031,6.179687,6.148437,0.365234,0.662109,0.369141,0.80957,0.402893,0.06012,0.422607,down
1760,2.445313,6.289062,6.109375,0.392578,0.697266,0.359375,0.80957,0.402893,0.06012,0.422607,down
1765,2.292969,6.332031,6.070312,0.392578,0.697266,0.359375,0.806091,0.403259,0.065552,0.428101,down
1770,2.292969,6.289062,6.109375,0.390625,0.833984,0.332031,0.805237,0.40332,0.0672,0.429504,down
1776,2.0625,6.371094,6.222656,0.361328,0.851562,0.351563,0.80426,0.403259,0.069092,0.431091,down
1782,1.910156,6.367187,6.300781,0.361328,0.851562,0.351563,0.802551,0.402954,0.072388,0.43396,down
1787,1.910156,6.367187,6.300781,0.251953,0.820312,0.400391,0.801697,0.40271,0.073975,0.435486,down
1792,1.949219,6.292969,6.335937,0.251953,0.820312,0.400391,0.800842,0.402344,0.075439,0.437134,down
1797,2.140625,6.101562,6.414062,0.251953,0.820312,0.400391,0.800842,0.402344,0.075439,0.437134,down
1802,2.214844,6.101562,6.339844,0.105469,0.716797,0.445312,0.800842,0.402344,0.075439,0.437134,down
1807,2.292969,5.988281,6.261719,0.101563,0.699219,0.441406,0.798584,0.400879,0.078918,0.441956,down
1812,2.332031,5.871094,6.222656,0.087891,0.695312,0.419922,0.798584,0.400879,0.078918,0.441956,down
1817,2.445313,5.832031,5.996094,0.087891,0.695312,0.419922,0.798584,0.400879,0.078918,0.441956,down
1822,2.445313,5.832031,5.996094,0.140625,0.734375,0.378906,0.798584,0.400879,0.078918,0.441956,down
1827,2.371094,5.90625,5.800781,0.140625,0.734375,0.378906,0.798584,0.400879,0.078918,0.441956,down
1833,2.5625,5.867187,5.609375,0.158203,0.769531,0.273438,0.798584,0.400879,0.078918,0.441956,down
1839,2.636719,5.828125,5.574219,0.121094,0.791016,0.240234,0.798584,0.400879,0.078918,0.441956,down
1844,2.636719,5.757812,5.457031,0.128906,0.835937,0.199219,0.798584,0.400879,0.078918,0.441956,down
1849,2.5625,5.800781,5.34375,0.195312,0.890625,0.179687,0.798584,0.400879,0.078918,0.441956,down
1854,2.253906,6.101562,5.34375,0.195312,0.890625,0.179687,0.798584,0.400879,0.078918,0.441956,down
1859,2.101563,6.105469,5.265625,0.195312,0.890625,0.179687,0.775146,0.391663,0.107971,0.483826,down
1864,2.140625,6.140625,5.226562,0.324219,0.994141,0.082031,0.775146,0.391663,0.107971,0.483826,down
1870,2.332031,6.214844,5.226562,0.339844,1.005859,0.056641,0.773132,0.389954,0.114746,0.486877,down
1875,2.371094,6.289062,5.304687,0.339844,1.005859,0.056641,0.773132,0.389954,0.114746,0.486877,down
1880,2.484375,6.253906,5.304687,0.296875,1.076172,0.076172,0.773132,0.389954,0.114746,0.486877,down
1885,2.523438,6.210937,5.34375,0.296875,1.076172,0.076172,0.771729,0.388733,0.119385,0.488953,down
1890,2.636719,6.292969,5.34375,0.296875,1.117188,0.138672,0.771729,0.388733,0.119385,0.488953,down
1895,2.636719,6.292969,5.34375,0.253906,1.148438,0.205078,0.770142,0.387146,0.124146,0.491455,down
1900,2.753906,6.292969,5.535156,0.253906,1.148438,0.205078,0.769287,0.38623,0.126404,0.492981,down
1905,2.753906,6.292969,5.535156,0.158203,1.210938,0.324219,0.768372,0.385193,0.128723,0.49469,down
1910,2.828125,6.144531,5.648437,0.158203,1.210938,0.324219,0.767395,0.384033,0.130859,0.49646,down
1915,2.753906,5.988281,5.535156,-0.060547,1.273438,0.455078,0.767395,0.384033,0.130859,0.49646,down
1920,2.675781,5.828125,5.496094,-0.060547,1.273438,0.455078,0.765503,0.381165,0.13501,0.500488,down
1925,2.867188,5.71875,5.800781,-0.060547,1.273438,0.455078,0.764526,0.379456,0.136963,0.502747,down
1930,2.828125,5.601562,5.800781,-0.148437,1.240234,0.488281,0.764526,0.379456,0.136963,0.502747,down
1936,2.90625,5.679687,5.839844,-0.164062,1.220703,0.480469,0.761841,0.374329,0.14209,0.509155,down
1941,2.828125,6.023437,6.035156,-0.164062,1.220703,0.480469,0.761108,0.372681,0.143677,0.511047,down
1946,2.675781,6.140625,5.957031,-0.164062,1.220703,0.480469,0.760376,0.371033,0.145325,0.512817,down
1951,2.636719,6.183594,5.957031,-0.191406,1.146484,0.238281,0.760376,0.371033,0.145325,0.512817,down
1956,2.675781,6.179687,5.917969,-0.1875,1.117188,0.146484,0.759766,0.369141,0.147156,0.514648,down
1961,2.828125,6.253906,6.109375,-0.1875,1.117188,0.146484,0.758911,0.365845,0.150513,0.517273,down
1966,2.90625,6.289062,6.1875,-0.115234,1.035156,-0.058594,0.758911,0.365845,0.150513,0.517273,down
1971,2.945313,6.292969,6.1875,-0.115234,1.035156,-0.058594,0.758423,0.362671,0.154297,0.519043,down
1976,2.753906,6.292969,6.070312,0.041016,1.044922,-0.216797,0.758423,0.362671,0.154297,0.519043,down
1982,2.523438,6.371094,5.992187,0.041016,1.044922,-0.216797,0.758118,0.359924,0.158691,0.520081,down
1987,2.523438,6.371094,5.992187,0.201172,1.035156,-0.3125,0.757935,0.358765,0.161194,0.520447,down
1992,2.484375,6.40625,6.070312,0.257813,0.998047,-0.330078,0.75769,0.357605,0.164001,0.520691,down
1998,2.945313,6.710937,6.300781,0.257813,0.998047,-0.330078,0.757507,0.356812,0.166199,0.520752,down
2004,3.058594,6.828125,6.339844,0.314453,1.005859,-0.369141,0.757507,0.356812,0.166199,0.520752,down
2009,3.210938,6.910156,6.414062,0.332031,1.033203,-0.386719,0.757507,0.356812,0.166199,0.520752,down
2015,3.402344,7.054687,6.53125,0.402344,1.142578,-0.410156,0.757507,0.356812,0.166199,0.520752,down
2020,3.328125,7.210937,6.605469,0.402344,1.142578,-0.410156,0.756531,0.353271,0.177307,0.520996,down
2026,3.136719,7.398437,6.605469,0.462891,1.230469,-0.398438,0.756531,0.353271,0.177307,0.520996,down
2031,2.40625,7.859375,6.453125,0.515625,1.326172,-0.388672,0.756531,0.353271,0.177307,0.520996,down
2036,2.101563,7.898437,6.378906,0.515625,1.326172,-0.388672,0.754517,0.348938,0.190918,0.521973,down
2041,1.792969,7.898437,6.339844,0.162109,1.347656,-0.220703,0.754517,0.348938,0.190918,0.521973,down
2046,1.601563,7.9375,6.492187,0.162109,1.347656,-0.220703,0.754028,0.347412,0.19397,0.522583,down
2051,1.449219,7.863281,6.796875,0.060547,1.246094,-0.115234,0.75354,0.345825,0.196716,0.523315,down
2056,1.449219,7.824219,6.914062,-0.023437,1.140625,-0.023437,0.753052,0.34436,0.198914,0.52417,down
2061,1.449219,7.824219,6.914062,-0.09375,1.029297,0.072266,0.752563,0.342834,0.200867,0.525208,down
2066,1.449219,7.824219,6.914062,-0.09375,1.029297,0.072266,0.751465,0.339844,0.203674,0.527527,down
2071,1.949219,7.292969,6.835937,-0.09375,1.029297,0.072266,0.751465,0.339844,0.203674,0.527527,down
2076,2.140625,7.09375,6.761719,-0.333984,0.794922,0.230469,0.750916,0.338135,0.204895,0.528931,down
2081,2.371094,6.867187,6.644531,-0.333984,0.794922,0.230469,0.750122,0.335083,0.206604,0.531372,down
2086,2.636719,6.671875,6.570312,-0.333984,0.794922,0.230469,0.750122,0.335083,0.206604,0.531372,down
2091,2.714844,6.636719,6.679687,-0.333984,0.794922,0.230469,0.749268,0.331909,0.208679,0.533752,down
2096,2.828125,6.5625,6.601562,-0.333984,0.794922,0.230469,0.749268,0.331909,0.208679,0.533752,down
2101,2.945313,6.484375,6.644531,-0.226562,0.960937,0.042969,0.748535,0.328613,0.211487,0.535706,down
2106,3.058594,6.40625,6.457031,-0.226562,0.960937,0.042969,0.748535,0.328613,0.211487,0.535706,down
2111,3.097656,6.371094,6.378906,-0.052734,1.341797,-0.195312,0.748535,0.328613,0.211487,0.535706,down
2116,3.136719,6.332031,6.378906,-0.052734,1.341797,-0.195312,0.747681,0.324707,0.216064,0.537415,down
2122,2.867188,6.597656,6.53125,-0.052734,1.341797,-0.195312,0.746765,0.320435,0.222229,0.538757,down
2127,2.332031,7.171875,6.605469,-0.052734,1.341797,-0.195312,0.746277,0.318359,0.225708,0.539307,down
2132,1.335938,7.519531,6.492187,-0.052734,1.341797,-0.195312,0.745544,0.315735,0.230103,0.539856,down
2137,0.835937,7.367187,6.300781,0.220703,2.189453,-0.597656,0.745544,0.315735,0.230103,0.539856,down
2142,0.300781,7.398437,6.339844,0.220703,2.189453,-0.597656,0.744263,0.31012,0.239563,0.540833,down
2148,-0.925781,7.632812,6.605469,0.220703,2.189453,-0.597656,0.743652,0.30719,0.244385,0.541199,down
2153,-1.230469,7.480469,6.722656,0.148437,1.921875,-0.566406,0.743652,0.30719,0.244385,0.541199,down
2159,-1.269531,7.019531,7.066406,0.083984,1.703125,-0.492187,0.743652,0.30719,0.244385,0.541199,down
2165,-1.230469,6.945312,7.378906,0.035156,1.447266,-0.375,0.743652,0.30719,0.244385,0.541199,down
2170,-1.039063,7.058594,7.722656,0.025391,1.208984,-0.246094,0.743652,0.30719,0.244385,0.541199,down
2176,-0.542969,7.136719,7.949219,0.039063,1.027344,-0.130859,0.743652,0.30719,0.244385,0.541199,down
2181,-0.390625,7.058594,7.867187,0.039063,1.027344,-0.130859,0.739929,0.293579,0.264771,0.544312,down
2186,-0.234375,6.984375,7.761719,0.039063,1.027344,-0.130859,0.739929,0.293579,0.264771,0.544312,down
2191,-0.234375,6.984375,7.761719,0.060547,0.8125,0.072266,0.739258,0.292664,0.266235,0.544922,down
2196,0.03125,6.984375,7.601562,0.085937,0.777344,0.089844,0.739258,0.292664,0.266235,0.544922,down
2201,0.605469,7.019531,7.605469,0.085937,0.777344,0.089844,0.737854,0.290894,0.269287,0.546265,down
2206,0.683594,7.019531,7.601562,0.109375,0.867187,0.044922,0.737854,0.290894,0.269287,0.546265,down
2211,0.644531,7.019531,7.527344,0.103516,0.957031,-0.005859,0.735657,0.287781,0.274719,0.548218,down
2216,0.222656,6.984375,7.339844,0.103516,0.957031,-0.005859,0.735657,0.287781,0.274719,0.548218,down
2221,-0.082031,6.984375,7.183594,0.091797,1.324219,-0.117188,0.734802,0.286194,0.277161,0.54895,down
2226,-0.503906,7.019531,7.027344,0.091797,1.324219,-0.117188,0.734009,0.284546,0.279602,0.549622,down
2231,-1.269531,7.371094,6.875,0.091797,1.324219,-0.117188,0.733215,0.282837,0.282288,0.550232,down
2236,-1.539063,7.292969,6.835937,0.091797,1.324219,-0.117188,0.732422,0.281006,0.285034,0.550842,down
2241,-1.730469,7.214844,6.761719,0.001953,1.382813,-0.298828,0.732422,0.281006,0.285034,0.550842,down
2246,-1.882813,7.171875,6.875,0.001953,1.382813,-0.298828,0.730896,0.276733,0.290955,0.55188,down
2251,-1.882813,7.171875,6.875,-0.162109,1.164063,-0.347656,0.730408,0.274658,0.293518,0.552246,down
2256,-1.960938,6.789062,7.296875,-0.162109,1.164063,-0.347656,0.730042,0.272705,0.295532,0.552551,down
2262,-2.074219,6.636719,7.261719,-0.220703,1.050781,-0.369141,0.730042,0.272705,0.295532,0.552551,down
2267,-2.1875,6.371094,7.183594,-0.220703,1.050781,-0.369141,0.729553,0.266235,0.301392,0.553223,down
2272,-2.304688,5.910156,7.066406,-0.220703,1.050781,-0.369141,0.729492,0.264465,0.302856,0.553345,down
2277,-2.34375,5.871094,7.144531,-0.220703,1.050781,-0.369141,0.729431,0.262817,0.304199,0.553467,down
2283,-2.226563,5.832031,7.257812,-0.220703,1.050781,-0.369141,0.729431,0.261414,0.305298,0.553528,down
2288,-2.074219,5.832031,7.179687,-0.220703,1.050781,-0.369141,0.729431,0.260376,0.30603,0.553589,down
2293,-1.996094,5.832031,7.0625,-0.203125,0.388672,-0.164062,0.729431,0.260376,0.30603,0.553589,down
2298,-1.921875,5.832031,6.984375,-0.210937,0.335938,-0.146484,0.729431,0.260376,0.30603,0.553589,down
2303,-1.804688,5.832031,6.917969,-0.216797,0.310547,-0.142578,0.729431,0.260376,0.30603,0.553589,down
2309,-1.730469,5.796875,6.835937,-0.216797,0.310547,-0.142578,0.729736,0.25647,0.3078,0.554016,down
2315,-1.691406,5.796875,6.800781,-0.132812,0.345703,-0.195312,0.729736,0.25647,0.3078,0.554016,down
2321,-1.652344,5.757812,6.601562,-0.085937,0.382813,-0.240234,0.729736,0.25647,0.3078,0.554016,down
2326,-1.652344,5.679687,6.640625,-0.085937,0.382813,-0.240234,0.730103,0.252869,0.310608,0.553589,down
2331,-1.578125,5.601562,6.683594,-0.074219,0.554687,-0.353516,0.730103,0.252869,0.310608,0.553589,down
2336,-1.578125,5.527344,6.644531,-0.074219,0.554687,-0.353516,0.730225,0.25177,0.311646,0.553406,down
2341,-1.804688,5.601562,6.296875,0.154297,0.679687,-0.421875,0.730225,0.25177,0.311646,0.553406,down
2346,-2.074219,5.796875,6.300781,0.154297,0.679687,-0.421875,0.730164,0.249939,0.314941,0.55249,down
2352,-2.378906,6.0625,6.300781,0.324219,0.769531,-0.619141,0.730164,0.249939,0.314941,0.55249,down
2357,-2.878906,6.179687,6.261719,0.324219,0.769531,-0.619141,0.730042,0.247498,0.321838,0.549744,down
2362,-3.070313,6.253906,6.300781,0.324219,0.769531,-0.619141,0.730286,0.246094,0.323364,0.549133,down
2367,-3.03125,6.253906,6.496094,-0.199219,0.617187,-0.589844,0.730713,0.244324,0.324768,0.548523,down
2373,-3.03125,6.371094,6.722656,-0.199219,0.617187,-0.589844,0.731079,0.242859,0.325867,0.548035,down
2378,-2.878906,6.597656,6.875,-0.199219,0.617187,-0.589844,0.731567,0.241333,0.326843,0.547485,down
2383,-2.957031,6.5625,6.953125,-0.25,0.421875,-0.511719,0.731567,0.241333,0.326843,0.547485,down
2389,-2.878906,6.5625,7.0625,-0.335938,0.332031,-0.482422,0.732544,0.238525,0.328247,0.54657,down
2394,-2.6875,6.292969,7.300781,-0.400391,0.257813,-0.464844,0.732544,0.238525,0.328247,0.54657,down
2399,-2.535156,6.292969,7.257812,-0.396484,0.189453,-0.429687,0.732544,0.238525,0.328247,0.54657,down
2406,-2.378906,6.292969,7.257812,-0.318359,0.138672,-0.416016,0.732544,0.238525,0.328247,0.54657,down
2411,-2.378906,6.292969,7.257812,-0.216797,0.113281,-0.388672,0.735107,0.233459,0.328735,0.545044,down
2416,-2.304688,6.214844,6.957031,-0.216797,0.113281,-0.388672,0.735107,0.233459,0.328735,0.545044,down
2421,-2.304688,6.214844,6.957031,-0.126953,0.09375,-0.375,0.736145,0.232117,0.329102,0.543945,down
2426,-2.1875,6.023437,6.535156,0.046875,0.039063,-0.361328,0.736572,0.231689,0.329346,0.543396,down
2431,-2.152344,5.988281,6.300781,0.046875,0.039063,-0.361328,0.737061,0.231384,0.329651,0.542725,down
2436,-2.152344,5.988281,6.257812,0.046875,0.039063,-0.361328,0.737427,0.231201,0.330017,0.542053,down
2442,-2.152344,6.0625,6.191406,0.263672,0.050781,-0.355469,0.737427,0.231201,0.330017,0.542053,down
2447,-2.152344,6.101562,6.148437,0.263672,0.050781,-0.355469,0.738403,0.231445,0.331726,0.539551,down
2452,-2.1875,6.179687,6.070312,0.263672,0.050781,-0.355469,0.738586,0.231689,0.332458,0.538757,down
2457,-2.226563,6.292969,5.992187,0.298828,0.087891,-0.322266,0.738586,0.231689,0.332458,0.538757,down
2462,-2.304688,6.371094,6.070312,0.242187,0.097656,-0.296875,0.738831,0.231934,0.333252,0.537903,down
2467,-2.304688,6.40625,6.03125,0.242187,0.097656,-0.296875,0.739136,0.232056,0.334534,0.53656,down
2472,-2.34375,6.488281,6.03125,0.242187,0.097656,-0.296875,0.739319,0.231934,0.334961,0.536072,down
2477,-2.496094,6.5625,6.03125,-0.066406,0.125,-0.212891,0.739319,0.231934,0.334961,0.536072,down
2482,-2.417969,6.488281,6.148437,-0.066406,0.125,-0.212891,0.739563,0.231567,0.335327,0.535706,down
2487,-2.457031,6.449219,6.222656,-0.066406,0.125,-0.212891,0.740112,0.230286,0.335327,0.535522,down
2492,-2.417969,6.371094,6.300781,-0.066406,0.125,-0.212891,0.740417,0.229248,0.335022,0.535706,down
2497,-2.417969,6.292969,6.375,-0.558594,0.103516,-0.089844,0.740417,0.229248,0.335022,0.535706,down
2502,-2.378906,6.179687,6.535156,-0.558594,0.103516,-0.089844,0.740784,0.228027,0.334473,0.536011,down
2507,-2.34375,6.101562,6.644531,-0.558594,0.103516,-0.089844,0.741516,0.225464,0.333374,0.536865,down
2512,-2.417969,6.0625,6.757812,-0.558594,0.103516,-0.089844,0.741516,0.225464,0.333374,0.536865,down
2517,-2.457031,6.101562,6.757812,-0.603516,0.15625,-0.072266,0.742126,0.222656,0.332336,0.537781,down
2522,-2.609375,5.949219,6.835937,-0.603516,0.15625,-0.072266,0.742432,0.221313,0.331909,0.538208,down
2527,-2.609375,6.023437,6.953125,-0.603516,0.15625,-0.072266,0.742676,0.220093,0.331543,0.538574,down
2532,-2.570313,5.988281,7.027344,-0.603516,0.15625,-0.072266,0.742676,0.220093,0.331543,0.538574,down
2537,-2.648438,5.988281,7.023437,-0.419922,0.189453,-0.134766,0.743225,0.217773,0.331177,0.539001,down
2542,-2.765625,5.910156,7.023437,-0.419922,0.189453,-0.134766,0.74353,0.216675,0.331116,0.539062,down
2547,-2.765625,5.910156,7.066406,-0.271484,0.15625,-0.208984,0.74353,0.216675,0.331116,0.539062,down
2552,-2.800781,5.949219,7.0625,-0.228516,0.146484,-0.232422,0.743774,0.21582,0.331116,0.539062,down
2558,-2.992188,5.949219,7.0625,-0.228516,0.146484,-0.232422,0.744446,0.214233,0.331177,0.538757,down
2564,-3.070313,5.988281,7.0625,-0.228516,0.146484,-0.232422,0.744812,0.21344,0.331238,0.538452,down
2569,-3.183594,6.023437,7.027344,-0.179687,0.023437,-0.289063,0.745239,0.21283,0.331177,0.538147,down
2576,-3.109375,6.101562,7.140625,-0.171875,-0.039063,-0.300781,0.745239,0.21283,0.331177,0.538147,down
2582,-3.03125,6.140625,7.144531,-0.179687,-0.087891,-0.310547,0.746887,0.211365,0.330566,0.536865,down
2587,-2.917969,6.179687,7.105469,-0.179687,-0.087891,-0.310547,0.746887,0.211365,0.330566,0.536865,down
2592,-2.765625,6.179687,7.183594,-0.162109,-0.164062,-0.322266,0.746887,0.211365,0.330566,0.536865,down
2597,-2.6875,6.214844,7.144531,-0.162109,-0.164062,-0.322266,0.74823,0.210632,0.329773,0.535767,down
2602,-2.609375,6.292969,7.179687,-0.066406,-0.15625,-0.378906,0.748962,0.210327,0.329407,0.535034,down
2607,-2.648438,6.371094,7.105469,-0.066406,-0.15625,-0.378906,0.749634,0.210083,0.329163,0.534363,down
2613,-2.726563,6.445312,7.0625,-0.066406,-0.15625,-0.378906,0.750916,0.209717,0.328918,0.532898,down
2619,-2.765625,6.523437,7.027344,-0.066406,-0.15625,-0.378906,0.751648,0.209473,0.328857,0.531982,down
2624,-2.839844,6.597656,7.027344,-0.017578,-0.095703,-0.394531,0.752197,0.20929,0.328857,0.531311,down
2629,-2.917969,6.5625,6.988281,-0.033203,-0.099609,-0.376953,0.752808,0.209045,0.328796,0.530579,down
2634,-2.992188,6.523437,6.953125,-0.033203,-0.099609,-0.376953,0.753418,0.208801,0.328674,0.529846,down
2639,-2.992188,6.523437,6.988281,-0.089844,-0.154297,-0.357422,0.753418,0.208801,0.328674,0.529846,down
2644,-2.957031,6.445312,6.953125,-0.101563,-0.1875,-0.34375,0.753418,0.208801,0.328674,0.529846,down
2649,-2.839844,6.371094,6.835937,-0.101563,-0.1875,-0.34375,0.755371,0.208069,0.327759,0.527893,down
2655,-2.839844,6.253906,6.800781,-0.138672,-0.246094,-0.324219,0.755371,0.208069,0.327759,0.527893,down
2660,-2.765625,6.179687,6.800781,-0.140625,-0.28125,-0.324219,0.755371,0.208069,0.327759,0.527893,down
2666,-2.6875,6.140625,6.761719,-0.140625,-0.28125,-0.324219,0.757629,0.20752,0.326111,0.525879,down
2671,-2.6875,6.0625,6.644531,-0.101563,-0.320313,-0.333984,0.757629,0.20752,0.326111,0.525879,down
2677,-2.648438,6.023437,6.601562,-0.009766,-0.353516,-0.351563,0.757629,0.20752,0.326111,0.525879,down
2682,-2.570313,6.101562,6.683594,-0.009766,-0.353516,-0.351563,0.759827,0.207581,0.324402,0.523804,down
2687,-2.535156,6.140625,6.605469,-0.009766,-0.353516,-0.351563,0.76062,0.207825,0.323853,0.522888,down
2692,-2.570313,6.179687,6.640625,-0.009766,-0.353516,-0.351563,0.761292,0.208069,0.323425,0.522034,down
2698,-2.609375,6.214844,6.605469,0.113281,-0.345703,-0.376953,0.762817,0.208801,0.322693,0.519958,down
2703,-2.609375,6.332031,6.605469,0.113281,-0.345703,-0.376953,0.763489,0.209167,0.32251,0.518982,down
2709,-2.648438,6.484375,6.71875,0.113281,-0.345703,-0.376953,0.764099,0.209534,0.322327,0.518066,down
2714,-2.6875,6.5625,6.644531,0.142578,-0.251953,-0.371094,0.764709,0.209839,0.322144,0.51709,down
2719,-2.6875,6.5625,6.71875,0.142578,-0.251953,-0.371094,0.765381,0.210083,0.322021,0.516113,down
2724,-2.765625,6.597656,6.839844,0.142578,-0.251953,-0.371094,0.765381,0.210083,0.322021,0.516113,down
2729,-2.839844,6.636719,6.800781,-0.052734,-0.183594,-0.369141,0.765381,0.210083,0.322021,0.516113,down
2735,-2.992188,6.636719,6.878906,-0.105469,-0.169922,-0.359375,0.765381,0.210083,0.322021,0.516113,down
2740,-3.109375,6.597656,6.984375,-0.105469,-0.169922,-0.359375,0.767944,0.209534,0.320984,0.513123,down
2746,-3.148438,6.5625,7.066406,-0.195312,-0.191406,-0.347656,0.767944,0.209534,0.320984,0.513123,down
2751,-3.148438,6.597656,7.105469,-0.214844,-0.210937,-0.34375,0.767944,0.209534,0.320984,0.513123,down
2757,-3.070313,6.523437,7.140625,-0.220703,-0.228516,-0.341797,0.767944,0.209534,0.320984,0.513123,down
2762,-3.03125,6.484375,7.21875,-0.220703,-0.228516,-0.341797,0.770874,0.207886,0.318909,0.510742,down
2767,-3.03125,6.484375,7.257812,-0.191406,-0.25,-0.353516,0.770874,0.207886,0.318909,0.510742,down
2773,-3.070313,6.445312,7.21875,-0.128906,-0.251953,-0.367188,0.770874,0.207886,0.318909,0.510742,down
2778,-3.070313,6.445312,7.21875,-0.128906,-0.251953,-0.367188,0.773865,0.207092,0.317017,0.507629,down
2783,-3.109375,6.445312,7.179687,-0.128906,-0.251953,-0.367188,0.774475,0.207153,0.316833,0.506836,down
2788,-3.109375,6.484375,7.144531,0.166016,-0.265625,-0.433594,0.774475,0.207153,0.316833,0.506836,down
2793,-3.03125,6.5625,7.105469,0.166016,-0.265625,-0.433594,0.775208,0.207458,0.31665,0.505676,down
2799,-2.957031,6.5625,6.988281,0.166016,-0.265625,-0.433594,0.77655,0.208191,0.316528,0.503479,down
2805,-2.878906,6.5625,7.0625,0.212891,-0.267578,-0.455078,0.77655,0.208191,0.316528,0.503479,down
2810,-2.839844,6.597656,6.875,0.226562,-0.257813,-0.457031,0.77655,0.208191,0.316528,0.503479,down
2815,-2.878906,6.636719,6.875,0.224609,-0.238281,-0.470703,0.77655,0.208191,0.316528,0.503479,down
2820,-2.765625,6.636719,6.839844,0.199219,-0.226562,-0.460937,0.77655,0.208191,0.316528,0.503479,down
2826,-2.839844,6.597656,6.835937,0.169922,-0.197266,-0.466797,0.77655,0.208191,0.316528,0.503479,down
2831,-2.878906,6.5625,6.683594,0.148437,-0.173828,-0.457031,0.77655,0.208191,0.316528,0.503479,down
2836,-2.839844,6.597656,6.757812,0.130859,-0.15625,-0.449219,0.77655,0.208191,0.316528,0.503479,down
2841,-2.917969,6.445312,6.835937,0.099609,-0.142578,-0.445312,0.77655,0.208191,0.316528,0.503479,down
2846,-2.765625,6.671875,6.605469,0.101563,-0.117188,-0.4375,0.77655,0.208191,0.316528,0.503479,down
2851,-2.648438,6.179687,6.683594,0.101563,-0.117188,-0.4375,0.77655,0.208191,0.316528,0.503479,down
2856,-3.03125,6.675781,6.453125,0.101563,-0.117188,-0.4375,0.783569,0.210327,0.316833,0.491333,down
2861,-3.03125,6.523437,6.71875,0.125,-0.140625,-0.414062,0.783569,0.210327,0.316833,0.491333,down
2866,-2.726563,6.101562,6.835937,0.125,-0.140625,-0.414062,0.784668,0.21051,0.317017,0.48938,down
2872,-3.03125,6.449219,6.414062,0.125,-0.140625,-0.414062,0.785767,0.21051,0.3172,0.487488,down
2877,-2.800781,6.371094,6.605469,0.125,-0.140625,-0.414062,0.785767,0.21051,0.3172,0.487488,down
2882,-2.765625,6.371094,6.605469,0.179687,-0.169922,-0.408203,0.785767,0.21051,0.3172,0.487488,down
2887,-2.765625,6.292969,6.570312,0.179687,-0.169922,-0.408203,0.786804,0.210999,0.317383,0.485413,down
2892,-2.765625,6.292969,6.570312,0.179687,-0.169922,-0.408203,0.787354,0.211304,0.317566,0.484314,down
2897,-2.765625,6.292969,6.570312,0.212891,-0.130859,-0.396484,0.787842,0.211548,0.317749,0.483337,down
2902,-2.726563,6.253906,6.601562,0.212891,-0.130859,-0.396484,0.788269,0.211792,0.317932,0.482361,down
2907,-2.800781,6.253906,6.535156,0.212891,-0.130859,-0.396484,0.788757,0.211975,0.318176,0.481384,down
2912,-2.800781,6.253906,6.570312,0.212891,-0.130859,-0.396484,0.788757,0.211975,0.318176,0.481384,down
2918,-2.800781,6.253906,6.570312,0.191406,-0.085937,-0.371094,0.789978,0.212463,0.318848,0.478638,down
2923,-2.800781,6.214844,6.605469,0.191406,-0.085937,-0.371094,0.790405,0.212708,0.319092,0.477661,down
2928,-2.800781,6.214844,6.570312,0.216797,-0.054687,-0.349609,0.790405,0.212708,0.319092,0.477661,down
2933,-2.800781,6.179687,6.53125,0.232422,-0.037109,-0.328125,0.790771,0.212891,0.319336,0.476868,down
2939,-2.765625,6.214844,6.535156,0.232422,-0.037109,-0.328125,0.791382,0.213379,0.320129,0.475098,down
2944,-2.839844,6.253906,6.492187,0.232422,-0.037109,-0.328125,0.791687,0.213623,0.320618,0.474121,down
2949,-2.992188,6.253906,6.570312,0.232422,-0.037109,-0.328125,0.79187,0.213806,0.321045,0.47345,down
2954,-3.03125,6.292969,6.535156,0.25,0.052734,-0.310547,0.792053,0.21405,0.321594,0.472656,down
2960,-3.148438,6.371094,6.570312,0.25,0.052734,-0.310547,0.792236,0.214233,0.322144,0.471863,down
2966,-3.183594,6.40625,6.644531,0.220703,0.046875,-0.273438,0.792236,0.214233,0.322144,0.471863,down
2971,-3.109375,6.40625,6.683594,0.203125,0.035156,-0.255859,0.792236,0.214233,0.322144,0.471863,down
2976,-3.03125,6.445312,6.679687,0.183594,0.035156,-0.246094,0.792236,0.214233,0.322144,0.471863,down
2981,-2.992188,6.332031,6.679687,0.152344,0.035156,-0.222656,0.792236,0.214233,0.322144,0.471863,down
2986,-2.917969,6.292969,6.71875,0.136719,0.046875,-0.21875,0.792236,0.214233,0.322144,0.471863,down
2991,-2.917969,6.332031,6.757812,0.115234,0.070312,-0.208984,0.792236,0.214233,0.322144,0.471863,down
2996,-2.878906,6.292969,6.800781,0.115234,0.070312,-0.208984,0.792236,0.214233,0.322144,0.471863,down
3002,-2.917969,6.292969,6.757812,0.115234,0.070312,-0.208984,0.793396,0.214722,0.325378,0.467468,down
3008,-2.878906,6.332031,6.800781,0.09375,0.179687,-0.166016,0.793396,0.214722,0.325378,0.467468,down
3013,-2.878906,6.332031,6.800781,0.09375,0.179687,-0.166016,0.793457,0.214294,0.326904,0.466492,down
3018,-2.878906,6.292969,6.800781,0.09375,0.179687,-0.166016,0.793457,0.214294,0.326904,0.466492,down
3023,-2.839844,6.214844,6.875,0.050781,0.273438,-0.140625,0.793457,0.214294,0.326904,0.466492,down
3028,-2.839844,6.253906,6.914062,0.050781,0.273438,-0.140625,0.793274,0.213318,0.328857,0.465881,down
3033,-2.800781,6.214844,6.917969,0.050781,0.273438,-0.140625,0.793152,0.212952,0.329651,0.465759,down
3038,-2.839844,6.179687,6.796875,0.050781,0.273438,-0.140625,0.793152,0.212952,0.329651,0.465759,down
3043,-2.878906,6.140625,6.917969,0.074219,0.394531,-0.142578,0.793152,0.212952,0.329651,0.465759,down
3048,-2.957031,6.214844,6.988281,0.074219,0.394531,-0.142578,0.792786,0.212097,0.33136,0.465454,down
3054,-3.070313,6.214844,6.988281,0.074219,0.427734,-0.132812,0.792358,0.211182,0.333313,0.465271,down
3059,-3.148438,6.214844,6.917969,0.060547,0.451172,-0.128906,0.792114,0.210571,0.334473,0.465149,down
3064,-3.261719,6.253906,7.027344,0.060547,0.451172,-0.128906,0.791809,0.210083,0.335449,0.465149,down
3069,-3.222656,6.253906,7.101562,0.060547,0.451172,-0.128906,0.791626,0.209656,0.336182,0.465149,down
3074,-3.222656,6.179687,7.179687,-0.005859,0.345703,-0.064453,0.791382,0.209106,0.336975,0.46521,down
3080,-3.148438,6.179687,7.21875,-0.005859,0.345703,-0.064453,0.791199,0.208679,0.337585,0.465271,down
3085,-3.070313,6.101562,7.21875,-0.005859,0.345703,-0.064453,0.791016,0.208252,0.338196,0.465393,down
3090,-2.992188,6.0625,7.222656,-0.019531,0.296875,-0.011719,0.790771,0.207825,0.338745,0.465515,down
3097,-2.917969,6.0625,7.21875,-0.001953,0.291016,-0.001953,0.790771,0.207825,0.338745,0.465515,down
3102,-2.878906,6.0625,7.257812,0.023437,0.310547,0.007813,0.790771,0.207825,0.338745,0.465515,down
3107,-2.917969,6.101562,7.183594,0.023437,0.310547,0.007813,0.790039,0.206787,0.340454,0.466003,down
3112,-2.878906,6.0625,7.300781,0.021484,0.320313,0.019531,0.790039,0.206787,0.340454,0.466003,down
3118,-2.878906,6.101562,7.257812,0.041016,0.341797,0.009766,0.790039,0.206787,0.340454,0.466003,down
3123,-2.839844,6.023437,7.296875,0.013672,0.376953,0.001953,0.789124,0.205811,0.342468,0.466553,down
3128,-2.878906,6.023437,7.296875,0.005859,0.375,0.007813,0.788757,0.205444,0.343201,0.466736,down
3133,-2.878906,6.023437,7.296875,-0.013672,0.392578,0.007813,0.788452,0.205017,0.343872,0.466919,down
3138,-2.878906,5.949219,7.296875,-0.013672,0.392578,0.007813,0.788086,0.204529,0.344727,0.467163,down
3144,-2.839844,5.910156,7.335937,-0.050781,0.427734,0.005859,0.787781,0.204041,0.345398,0.467407,down
3149,-2.839844,5.832031,7.257812,-0.050781,0.427734,0.005859,0.787048,0.202881,0.346924,0.467957,down
3155,-2.839844,5.832031,7.335937,-0.050781,0.427734,0.005859,0.786743,0.202209,0.347656,0.468262,down
3161,-2.992188,5.832031,7.378906,-0.050781,0.427734,0.005859,0.786438,0.201477,0.34845,0.468567,down
3166,-3.070313,5.757812,7.375,-0.097656,0.5,-0.023437,0.786438,0.201477,0.34845,0.468567,down
3171,-3.183594,5.796875,7.335937,-0.117188,0.517578,-0.03125,0.786438,0.201477,0.34845,0.468567,down
3176,-3.339844,5.757812,7.335937,-0.117188,0.517578,-0.03125,0.786438,0.201477,0.34845,0.468567,down
3182,-3.414063,5.757812,7.339844,-0.068359,0.482422,-0.054687,0.786438,0.201477,0.34845,0.468567,down
3187,-3.492188,5.71875,7.339844,-0.054687,0.449219,-0.046875,0.786438,0.201477,0.34845,0.468567,down
3192,-3.566406,5.832031,7.410156,-0.019531,0.394531,-0.050781,0.786438,0.201477,0.34845,0.468567,down
3197,-3.644531,5.910156,7.484375,-0.019531,0.394531,-0.050781,0.786438,0.201477,0.34845,0.468567,down
3203,-3.722656,5.949219,7.484375,-0.019531,0.394531,-0.050781,0.783936,0.195984,0.355042,0.470154,down
3208,-3.722656,6.0625,7.488281,0.097656,0.183594,-0.044922,0.783936,0.195984,0.355042,0.470154,down
3214,-3.644531,6.0625,7.523437,0.09375,0.113281,-0.046875,0.783508,0.195618,0.35614,0.470093,down
3219,-3.566406,6.0625,7.488281,0.09375,0.113281,-0.046875,0.783325,0.195618,0.356873,0.469849,down
3224,-3.53125,6.101562,7.484375,0.09375,0.113281,-0.046875,0.783325,0.19574,0.357056,0.469727,down
3229,-3.53125,6.0625,7.449219,0.089844,-0.013672,-0.044922,0.783325,0.195862,0.357117,0.469543,down
3234,-3.414063,6.0625,7.378906,0.089844,-0.013672,-0.044922,0.783386,0.196045,0.357239,0.46936,down
3239,-3.339844,6.0625,7.335937,0.074219,-0.037109,-0.064453,0.783386,0.196045,0.357239,0.46936,down
3244,-3.300781,6.0625,7.296875,0.074219,-0.037109,-0.064453,0.783508,0.196289,0.3573,0.468994,down
3250,-3.300781,6.023437,7.21875,0.074219,-0.037109,-0.064453,0.783569,0.196411,0.3573,0.468811,down
3255,-3.222656,6.0625,7.144531,0.072266,-0.013672,-0.070312,0.78363,0.196472,0.357361,0.468567,down
3261,-3.222656,6.023437,7.140625,0.0625,0.003906,-0.080078,0.783691,0.196533,0.357422,0.468384,down
3266,-3.261719,6.0625,7.101562,0.0625,0.003906,-0.080078,0.783752,0.196594,0.357544,0.468201,down
3271,-3.375,6.0625,7.105469,0.080078,0.048828,-0.087891,0.783752,0.196594,0.357544,0.468201,down
3277,-3.453125,6.140625,7.0625,0.113281,0.068359,-0.103516,0.783752,0.196594,0.357544,0.468201,down
3282,-3.722656,6.179687,6.878906,0.132812,0.076172,-0.101563,0.783752,0.196594,0.357544,0.468201,down
3287,-3.796875,6.214844,6.835937,0.132812,0.068359,-0.091797,0.783752,0.196594,0.357544,0.468201,down
3292,-3.761719,6.253906,6.914062,0.142578,0.003906,-0.072266,0.783752,0.196594,0.357544,0.468201,down
3297,-3.683594,6.332031,6.984375,0.154297,-0.064453,-0.054687,0.783752,0.196594,0.357544,0.468201,down
3302,-3.53125,6.292969,6.878906,0.154297,-0.064453,-0.054687,0.783936,0.19751,0.35907,0.466431,down
3307,-3.492188,6.214844,6.839844,0.109375,-0.123047,-0.029297,0.783936,0.19751,0.35907,0.466431,down
3312,-3.453125,6.179687,6.835937,0.078125,-0.152344,-0.019531,0.783936,0.19751,0.35907,0.466431,down
3317,-3.339844,6.101562,6.800781,0.048828,-0.158203,-0.005859,0.783936,0.19751,0.35907,0.466431,down
3323,-3.339844,6.0625,6.71875,0.048828,-0.158203,-0.005859,0.784546,0.199036,0.357971,0.465576,down
3328,-3.339844,6.023437,6.640625,0.048828,-0.158203,-0.005859,0.784546,0.199036,0.357971,0.465576,down
3334,-3.300781,6.101562,6.722656,0.042969,-0.171875,0.017578,0.78479,0.199585,0.357361,0.465393,down
3340,-3.300781,6.140625,6.683594,0.042969,-0.171875,0.017578,0.784851,0.199829,0.357056,0.465393,down
3345,-3.261719,6.101562,6.71875,0.021484,-0.109375,0.044922,0.784912,0.200012,0.356812,0.465393,down
3350,-3.222656,6.101562,6.644531,0.021484,-0.109375,0.044922,0.784973,0.200195,0.356567,0.465454,down
3355,-3.300781,6.0625,6.679687,0.023437,-0.046875,0.060547,0.784912,0.200378,0.356445,0.465515,down
3361,-3.339844,6.0625,6.644531,0.023437,-0.046875,0.060547,0.784912,0.2005,0.356384,0.465576,down
3367,-3.375,6.101562,6.570312,0.046875,0.009766,0.054687,0.784912,0.2005,0.356384,0.465576,down
3372,-3.453125,6.101562,6.605469,0.029297,0.023437,0.054687,0.784912,0.2005,0.356384,0.465576,down
3378,-3.53125,6.0625,6.496094,0.029297,0.023437,0.054687,0.784912,0.2005,0.356384,0.465576,down
3383,-3.53125,6.140625,6.574219,-0.056641,0.023437,0.078125,0.784912,0.2005,0.356384,0.465576,down
3388,-3.492188,6.0625,6.605469,-0.056641,0.023437,0.078125,0.784424,0.200806,0.356384,0.466187,down
3393,-3.53125,6.101562,6.722656,-0.072266,0.015625,0.091797,0.784424,0.200806,0.356384,0.466187,down
3398,-3.566406,6.0625,6.683594,-0.072266,0.015625,0.091797,0.784302,0.200562,0.35614,0.466736,down
3404,-3.566406,6.0625,6.683594,-0.132812,0.03125,0.089844,0.784302,0.200562,0.35614,0.466736,down
3409,-3.644531,6.0625,6.679687,-0.132812,0.03125,0.089844,0.784119,0.199951,0.355652,0.467651,down
3414,-3.644531,6.101562,6.796875,-0.132812,0.03125,0.089844,0.784058,0.199768,0.355469,0.467957,down
3419,-3.605469,6.179687,6.796875,-0.132812,0.03125,0.089844,0.784058,0.199768,0.355469,0.467957,down
3424,-3.644531,6.140625,6.875,-0.138672,0.029297,0.095703,0.783936,0.19928,0.355103,0.468689,down
3429,-3.605469,6.140625,6.878906,-0.115234,0.050781,0.103516,0.783936,0.19928,0.355103,0.468689,down
3434,-3.566406,6.214844,6.914062,-0.111328,0.078125,0.103516,0.783813,0.199097,0.35498,0.468994,down
3439,-3.566406,6.179687,6.957031,-0.111328,0.078125,0.103516,0.783691,0.198853,0.354858,0.46936,down
3445,-3.644531,6.253906,6.917969,-0.111328,0.078125,0.103516,0.783386,0.198425,0.354858,0.470093,down
3450,-3.605469,6.253906,6.988281,-0.111328,0.078125,0.103516,0.783203,0.198181,0.354919,0.470398,down
3455,-3.605469,6.253906,6.988281,-0.091797,0.167969,0.095703,0.78302,0.197937,0.355103,0.470825,down
3460,-3.644531,6.292969,6.984375,-0.103516,0.191406,0.097656,0.782776,0.197571,0.355225,0.471191,down
3466,-3.683594,6.214844,6.957031,-0.103516,0.191406,0.097656,0.782593,0.197266,0.355408,0.471558,down
3471,-3.683594,6.214844,6.957031,-0.152344,0.214844,0.09375,0.782349,0.196716,0.355591,0.471985,down
3476,-3.761719,6.140625,6.878906,-0.152344,0.214844,0.09375,0.782166,0.196289,0.355774,0.472412,down
3481,-3.761719,6.101562,6.914062,-0.152344,0.214844,0.09375,0.781921,0.195679,0.355957,0.4729,down
3486,-3.835938,6.0625,6.917969,-0.152344,0.214844,0.09375,0.781921,0.195679,0.355957,0.4729,down
3492,-3.835938,6.0625,6.839844,-0.171875,0.1875,0.101563,0.781921,0.195679,0.355957,0.4729,down
3498,-3.953125,6.023437,6.835937,-0.166016,0.150391,0.111328,0.781921,0.195679,0.355957,0.4729,down
3504,-3.914063,6.023437,6.800781,-0.166016,0.150391,0.111328,0.781006,0.193604,0.35614,0.475037,down
3509,-3.914063,6.023437,6.835937,-0.166016,0.150391,0.111328,0.781006,0.193604,0.35614,0.475037,down
3514,-3.835938,5.949219,6.835937,-0.130859,0.015625,0.128906,0.780823,0.193237,0.355713,0.47583,down
3519,-3.722656,5.910156,6.757812,-0.130859,0.015625,0.128906,0.780823,0.193237,0.355713,0.47583,down
3524,-3.644531,5.871094,6.761719,-0.103516,-0.074219,0.136719,0.780762,0.193176,0.355408,0.476196,down
3529,-3.605469,5.910156,6.71875,-0.103516,-0.074219,0.136719,0.780701,0.193115,0.354736,0.476868,down
3534,-3.492188,5.871094,6.679687,-0.103516,-0.074219,0.136719,0.780701,0.193115,0.354736,0.476868,down
3539,-3.453125,5.832031,6.640625,-0.103516,-0.074219,0.136719,0.78064,0.193115,0.35437,0.477173,down
3544,-3.414063,5.832031,6.605469,-0.103516,-0.054687,0.105469,0.78064,0.193115,0.354065,0.477478,down
3549,-3.414063,5.796875,6.574219,-0.103516,-0.054687,0.105469,0.780579,0.192993,0.353455,0.478027,down
3554,-3.375,5.832031,6.496094,-0.103516,-0.054687,0.105469,0.780579,0.192993,0.353455,0.478027,down
3559,-3.414063,5.796875,6.492187,-0.103516,-0.054687,0.105469,0.780518,0.192749,0.352966,0.478516,down
3564,-3.453125,5.832031,6.457031,-0.103516,-0.054687,0.105469,0.780518,0.192749,0.352966,0.478516,down
3569,-3.414063,5.796875,6.453125,-0.091797,0.039063,0.048828,0.780518,0.192749,0.352966,0.478516,down
3575,-3.453125,5.832031,6.457031,-0.091797,0.039063,0.048828,0.780457,0.1922,0.352661,0.479126,down
3580,-3.492188,5.871094,6.457031,-0.078125,0.066406,0.021484,0.780396,0.191956,0.352661,0.479309,down
3585,-3.53125,5.871094,6.417969,-0.070312,0.074219,0.013672,0.780334,0.191772,0.352661,0.479492,down
3591,-3.53125,5.910156,6.378906,-0.070312,0.074219,0.013672,0.780334,0.191589,0.352722,0.479553,down
3596,-3.605469,5.988281,6.414062,-0.070312,0.074219,0.013672,0.780273,0.191345,0.352722,0.479675,down
3601,-3.644531,6.0625,6.378906,-0.035156,0.056641,0.007813,0.780273,0.191345,0.352722,0.479675,down
3606,-3.683594,6.0625,6.378906,-0.037109,0.056641,0.0,0.780273,0.191345,0.352722,0.479675,down
3611,-3.761719,6.179687,6.339844,-0.037109,0.056641,0.0,0.780212,0.190918,0.352844,0.479919,down
3616,-3.796875,6.179687,6.1875,-0.037109,0.056641,0.0,0.780212,0.190918,0.352844,0.479919,down
3621,-3.722656,6.253906,6.257812,-0.060547,-0.035156,0.017578,0.780212,0.190918,0.352844,0.479919,down
3627,-3.605469,6.328125,6.261719,-0.078125,-0.068359,0.035156,0.780212,0.190918,0.352844,0.479919,down
3632,-3.566406,6.328125,6.222656,-0.089844,-0.070312,0.039063,0.780334,0.190613,0.352173,0.480286,down
3637,-3.492188,6.371094,6.222656,-0.099609,-0.060547,0.037109,0.780334,0.190613,0.352173,0.480286,down
3643,-3.53125,6.332031,6.222656,-0.103516,-0.060547,0.037109,0.780334,0.190613,0.352173,0.480286,down
3649,-3.492188,6.410156,6.222656,-0.083984,-0.039063,0.044922,0.780334,0.190613,0.352173,0.480286,down
3654,-3.492188,6.488281,6.1875,-0.083984,-0.039063,0.044922,0.780579,0.190186,0.351074,0.480896,down
3660,-3.453125,6.566406,6.148437,-0.083984,-0.017578,0.048828,0.780579,0.190002,0.350708,0.481201,down
3665,-3.414063,6.636719,6.222656,-0.083984,-0.017578,0.048828,0.780579,0.189819,0.350586,0.481445,down
3671,-3.453125,6.753906,6.1875,-0.083984,-0.017578,0.048828,0.780518,0.189575,0.350525,0.481628,down
3676,-3.453125,6.714844,6.1875,-0.136719,0.097656,0.076172,0.780396,0.18927,0.350464,0.481934,down
3681,-3.453125,6.714844,6.222656,-0.132812,0.107422,0.091797,0.780334,0.188904,0.350464,0.4823,down
3687,-3.453125,6.714844,6.1875,-0.132812,0.107422,0.091797,0.780151,0.188599,0.350464,0.482666,down
3692,-3.453125,6.753906,6.1875,-0.136719,0.128906,0.113281,0.779968,0.188232,0.350464,0.483093,down
3698,-3.453125,6.714844,6.222656,-0.142578,0.121094,0.134766,0.779968,0.188232,0.350464,0.483093,down
3704,-3.453125,6.714844,6.1875,-0.142578,0.121094,0.134766,0.779968,0.188232,0.350464,0.483093,down
3709,-3.414063,6.671875,6.222656,-0.166016,0.132812,0.177734,0.779968,0.188232,0.350464,0.483093,down
3714,-3.375,6.636719,6.222656,-0.175781,0.140625,0.183594,0.77887,0.186584,0.350281,0.485657,down
3719,-3.339844,6.566406,6.1875,-0.175781,0.140625,0.183594,0.77887,0.186584,0.350281,0.485657,down
3724,-3.300781,6.5625,6.1875,-0.175781,0.140625,0.183594,0.778503,0.186218,0.350281,0.486328,down
3729,-3.261719,6.5625,6.148437,-0.140625,0.181641,0.216797,0.778503,0.186218,0.350281,0.486328,down
3735,-3.261719,6.5625,6.109375,-0.126953,0.205078,0.228516,0.778503,0.186218,0.350281,0.486328,down
3740,-3.261719,6.527344,6.109375,-0.126953,0.205078,0.228516,0.776917,0.184937,0.35083,0.489014,down
3745,-3.300781,6.566406,6.109375,-0.056641,0.28125,0.232422,0.776917,0.184937,0.35083,0.489014,down
3750,-3.339844,6.597656,6.109375,-0.056641,0.28125,0.232422,0.776428,0.184692,0.351135,0.489624,down
3755,-3.339844,6.671875,6.109375,-0.046875,0.296875,0.234375,0.775452,0.184204,0.351868,0.490845,down
3760,-3.375,6.671875,6.1875,-0.023437,0.339844,0.253906,0.774841,0.18396,0.352356,0.491577,down
3765,-3.375,6.710937,6.148437,-0.037109,0.363281,0.251953,0.774841,0.18396,0.352356,0.491577,down
3770,-3.375,6.714844,6.1875,-0.037109,0.363281,0.251953,0.773682,0.18335,0.353333,0.49292,down
3776,-3.53125,6.789062,6.300781,-0.037109,0.363281,0.251953,0.77301,0.183044,0.353882,0.493652,down
3781,-3.566406,6.792969,6.300781,-0.056641,0.398438,0.291016,0.772339,0.182678,0.354431,0.494446,down
3786,-3.644531,6.789062,6.414062,-0.076172,0.388672,0.302734,0.772339,0.182678,0.354431,0.494446,down
3791,-3.644531,6.867187,6.414062,-0.076172,0.388672,0.302734,0.772339,0.182678,0.354431,0.494446,down
3797,-3.566406,6.792969,6.453125,-0.076172,0.388672,0.302734,0.770264,0.181519,0.355835,0.497131,down
3803,-3.605469,6.792969,6.53125,-0.146484,0.373047,0.335938,0.770264,0.181519,0.355835,0.497131,down
3808,-3.605469,6.792969,6.644531,-0.138672,0.357422,0.345703,0.770264,0.181519,0.355835,0.497131,down
3813,-3.566406,6.714844,6.71875,-0.138672,0.357422,0.345703,0.76825,0.180298,0.356873,0.499878,down
3818,-3.605469,6.753906,6.757812,-0.080078,0.367188,0.353516,0.76825,0.180298,0.356873,0.499878,down
3823,-3.605469,6.792969,6.683594,-0.03125,0.392578,0.349609,0.76825,0.180298,0.356873,0.499878,down
3828,-3.644531,6.792969,6.722656,-0.03125,0.392578,0.349609,0.765991,0.179443,0.358337,0.502625,down
3834,-3.644531,7.058594,6.914062,-0.03125,0.392578,0.349609,0.765991,0.179443,0.358337,0.502625,down
3840,-3.644531,7.132812,6.914062,0.191406,0.441406,0.375,0.763245,0.179626,0.36084,0.504944,down
3845,-3.722656,7.332031,6.988281,0.191406,0.441406,0.375,0.762207,0.179993,0.361938,0.505676,down
3850,-3.722656,7.4375,7.066406,0.191406,0.441406,0.375,0.762207,0.179993,0.361938,0.505676,down
3855,-3.722656,7.4375,7.066406,0.410156,0.478516,0.400391,0.761108,0.18042,0.363098,0.506287,down
3860,-3.722656,7.476562,7.066406,0.492187,0.490234,0.40625,0.761108,0.18042,0.363098,0.506287,down
3865,-3.683594,7.59375,6.914062,0.546875,0.5,0.414062,0.758728,0.181763,0.365845,0.507385,down
3870,-3.644531,7.59375,6.875,0.582031,0.501953,0.421875,0.756226,0.183411,0.368774,0.508423,down
3875,-3.644531,7.558594,6.683594,0.582031,0.501953,0.421875,0.756226,0.183411,0.368774,0.508423,down
3880,-3.566406,7.59375,6.605469,0.626953,0.53125,0.439453,0.756226,0.183411,0.368774,0.508423,down
3885,-3.414063,7.59375,6.53125,0.626953,0.53125,0.439453,0.752014,0.186218,0.373718,0.51001,down
3890,-3.414063,7.519531,6.414062,0.626953,0.53125,0.439453,0.752014,0.186218,0.373718,0.51001,down
3895,-3.339844,7.4375,6.261719,0.607422,0.632812,0.511719,0.752014,0.186218,0.373718,0.51001,down
3900,-3.300781,7.371094,6.222656,0.607422,0.632812,0.511719,0.747559,0.18866,0.378662,0.512024,down
3905,-3.148438,7.4375,6.109375,0.607422,0.632812,0.511719,0.74585,0.189514,0.380554,0.512817,down
8576,-3.375,9.207031,1.820313,-0.017578,0.0,-0.021484,0.369812,0.087402,0.637146,0.670532,down
8581,-3.339844,9.207031,1.78125,-0.017578,0.0,-0.021484,0.369873,0.087341,0.637146,0.670532,down
8586,-3.339844,9.167969,1.742188,-0.019531,0.001953,-0.003906,0.369873,0.087341,0.637146,0.670532,down
8591,-3.300781,9.164063,1.78125,-0.019531,0.001953,-0.003906,0.369873,0.08728,0.637085,0.670654,down
8596,-3.300781,9.128906,1.820313,-0.019531,0.001953,-0.003906,0.369873,0.08728,0.637024,0.670654,down
8601,-3.300781,9.125,1.78125,-0.019531,0.001953,-0.003906,0.369873,0.087219,0.636963,0.670715,down
8606,-3.300781,9.085938,1.742188,-0.017578,0.009766,0.013672,0.369873,0.087219,0.636963,0.670715,down
8611,-3.261719,9.089844,1.742188,-0.013672,0.007813,0.005859,0.369812,0.087158,0.636963,0.670776,down
8616,-3.261719,9.046875,1.78125,-0.013672,0.007813,0.005859,0.369812,0.087158,0.636963,0.670776,down
8622,-3.261719,9.046875,1.78125,-0.013672,0.007813,0.005859,0.369812,0.087158,0.636902,0.670776,down
8627,-3.261719,9.011719,1.742188,-0.001953,0.019531,0.005859,0.369751,0.087097,0.636963,0.670837,down
8632,-3.222656,8.9375,1.742188,-0.001953,0.019531,0.005859,0.369751,0.087097,0.636963,0.670837,down
8638,-3.261719,8.902344,1.742188,-0.001953,0.019531,0.005859,0.36969,0.087097,0.636963,0.670837,down
8643,-3.300781,8.898438,1.742188,-0.005859,0.019531,0.007813,0.369629,0.087036,0.636963,0.670898,down
8649,-3.222656,8.863281,1.703125,-0.007813,0.019531,0.009766,0.369629,0.087036,0.636963,0.670898,down
8655,-3.261719,8.902344,1.742188,-0.007813,0.019531,0.009766,0.369629,0.087036,0.636963,0.670898,down
8660,-3.222656,8.902344,1.703125,-0.021484,0.025391,0.013672,0.369629,0.087036,0.636963,0.670898,down
8665,-3.261719,8.863281,1.703125,-0.03125,0.017578,0.015625,0.369385,0.086853,0.636902,0.671082,down
8670,-3.261719,8.785156,1.664063,-0.03125,0.017578,0.015625,0.369385,0.086853,0.636902,0.671082,down
8675,-3.222656,8.746094,1.664063,-0.03125,0.017578,0.015625,0.369324,0.086853,0.636902,0.671143,down
8680,-3.222656,8.746094,1.664063,-0.011719,0.027344,0.007813,0.369324,0.086853,0.636902,0.671143,down
8686,-3.222656,8.707031,1.664063,-0.013672,0.03125,-0.003906,0.369324,0.086853,0.636902,0.671143,down
8692,-3.222656,8.707031,1.664063,-0.003906,0.042969,0.0,0.36908,0.086548,0.636963,0.671265,down
8697,-3.148438,8.707031,1.628906,-0.013672,0.046875,0.001953,0.369019,0.086487,0.636902,0.671326,down
8702,-3.222656,8.667969,1.550781,-0.013672,0.046875,0.001953,0.368958,0.086426,0.636902,0.671387,down
8709,-3.183594,8.628906,1.628906,-0.013672,0.046875,0.001953,0.368835,0.086304,0.636902,0.671448,down
8714,-3.148438,8.585938,1.550781,-0.011719,0.083984,-0.023437,0.368835,0.086304,0.636902,0.671448,down
8719,-3.148438,8.625,1.550781,-0.009766,0.085937,-0.023437,0.368835,0.086304,0.636902,0.671448,down
8725,-3.183594,8.589844,1.472656,-0.023437,0.111328,-0.042969,0.368835,0.086304,0.636902,0.671448,down
8730,-3.183594,8.558594,1.472656,-0.023437,0.111328,-0.042969,0.368469,0.08551,0.636963,0.671692,down
8736,-3.148438,8.558594,1.511719,-0.03125,0.121094,-0.054687,0.368469,0.08551,0.636963,0.671692,down
8741,-3.148438,8.519531,1.472656,-0.03125,0.121094,-0.054687,0.368103,0.084656,0.637085,0.671875,down
8746,-3.148438,8.554688,1.433594,-0.03125,0.121094,-0.054687,0.367981,0.084351,0.637146,0.671936,down
8751,-3.148438,8.589844,1.472656,-0.03125,0.121094,-0.054687,0.367981,0.084351,0.637146,0.671936,down
8756,-3.183594,8.554688,1.398438,-0.021484,0.164062,-0.074219,0.367981,0.084351,0.637146,0.671936,down
8761,-3.148438,8.625,1.433594,-0.015625,0.169922,-0.076172,0.367737,0.083618,0.637329,0.672058,down
8767,-3.183594,8.707031,1.472656,-0.015625,0.169922,-0.076172,0.367371,0.082825,0.637512,0.672058,down
8773,-3.222656,8.746094,1.433594,-0.013672,0.189453,-0.078125,0.367249,0.082397,0.637695,0.672119,down
8779,-3.222656,8.746094,1.398438,-0.013672,0.189453,-0.078125,0.367004,0.081909,0.637878,0.672119,down
8785,-3.222656,8.746094,1.433594,-0.013672,0.216797,-0.078125,0.367004,0.081909,0.637878,0.672119,down
8790,-3.261719,8.746094,1.398438,-0.023437,0.226562,-0.083984,0.367004,0.081909,0.637878,0.672119,down
8796,-3.222656,8.785156,1.433594,-0.013672,0.234375,-0.089844,0.367004,0.081909,0.637878,0.672119,down
8801,-3.222656,8.78125,1.472656,-0.013672,0.234375,-0.089844,0.365845,0.079346,0.638733,0.672241,down
8806,-3.261719,8.742188,1.472656,-0.048828,0.279297,-0.101563,0.365845,0.079346,0.638733,0.672241,down
8811,-3.261719,8.820313,1.433594,-0.048828,0.279297,-0.101563,0.36554,0.078674,0.638916,0.672302,down
8817,-3.300781,8.78125,1.433594,-0.048828,0.279297,-0.101563,0.36499,0.077332,0.639282,0.672363,down
8822,-3.300781,8.78125,1.433594,-0.050781,0.3125,-0.109375,0.364685,0.076599,0.639465,0.672424,down
8827,-3.300781,8.785156,1.472656,-0.044922,0.322266,-0.121094,0.36438,0.075745,0.639709,0.672485,down
8832,-3.300781,8.742188,1.550781,-0.044922,0.322266,-0.121094,0.364014,0.074951,0.639954,0.672546,down
8838,-3.339844,8.667969,1.550781,-0.044922,0.322266,-0.121094,0.363708,0.07428,0.640198,0.672546,down
8843,-3.339844,8.667969,1.550781,-0.021484,0.361328,-0.128906,0.363342,0.073425,0.640503,0.672546,down
8848,-3.339844,8.703125,1.472656,-0.021484,0.361328,-0.128906,0.362976,0.072632,0.640808,0.672546,down
8854,-3.414063,8.859375,1.550781,-0.021484,0.361328,-0.128906,0.36261,0.071777,0.641235,0.672485,down
8859,-3.492188,8.972656,1.628906,0.058594,0.390625,-0.158203,0.36261,0.071777,0.641235,0.672485,down
8864,-3.53125,9.085938,1.664063,0.058594,0.402344,-0.164062,0.36261,0.071777,0.641235,0.672485,down
8870,-3.644531,9.246094,1.589844,0.042969,0.427734,-0.177734,0.36261,0.071777,0.641235,0.672485,down
8876,-3.722656,9.285156,1.550781,0.009766,0.458984,-0.208984,0.36261,0.071777,0.641235,0.672485,down
8881,-3.722656,9.363281,1.550781,0.009766,0.458984,-0.208984,0.360229,0.06604,0.644043,0.671631,down
8886,-3.722656,9.472656,1.550781,0.009766,0.458984,-0.208984,0.359863,0.064941,0.644409,0.67157,down
8891,-3.683594,9.625,1.664063,-0.058594,0.423828,-0.257813,0.359863,0.064941,0.644409,0.67157,down
8896,-3.683594,9.703125,1.742188,-0.058594,0.423828,-0.257813,0.359619,0.063721,0.644836,0.671448,down
8901,-3.722656,9.707031,1.703125,-0.234375,0.46875,-0.316406,0.359619,0.063721,0.644836,0.671448,down
8907,-3.761719,9.703125,1.628906,-0.234375,0.46875,-0.316406,0.359009,0.059631,0.645203,0.671753,down
8912,-3.761719,9.777344,1.589844,-0.388672,0.5,-0.402344,0.358887,0.0578,0.645142,0.672058,down
8917,-3.796875,9.851563,1.589844,-0.462891,0.519531,-0.453125,0.358826,0.055725,0.644897,0.672485,down
8923,-3.796875,9.96875,1.628906,-0.462891,0.519531,-0.453125,0.358826,0.053894,0.644653,0.672913,down
8928,-3.914063,10.277344,1.550781,-0.462891,0.519531,-0.453125,0.358887,0.051575,0.644226,0.673462,down
8935,-4.027344,10.390625,1.628906,-0.712891,0.603516,-0.621094,0.358887,0.051575,0.644226,0.673462,down
8941,-4.179687,10.582031,1.628906,-0.792969,0.636719,-0.685547,0.358887,0.051575,0.644226,0.673462,down
8947,-4.257812,10.695313,1.664063,-0.923828,0.708984,-0.800781,0.358887,0.051575,0.644226,0.673462,down
8952,-4.371094,10.894531,1.703125,-0.923828,0.708984,-0.800781,0.360046,0.036438,0.640503,0.677307,down
8957,-4.640625,11.273438,1.664063,-0.923828,0.708984,-0.800781,0.360413,0.032715,0.639465,0.678345,down
8962,-4.792969,11.542969,1.703125,-0.923828,0.708984,-0.800781,0.360779,0.029358,0.638367,0.67926,down
8967,-4.949219,11.84375,1.78125,-1.326172,0.792969,-0.957031,0.361267,0.025024,0.636841,0.680603,down
8972,-5.101562,12.148438,1.894531,-1.476563,0.796875,-0.953125,0.361694,0.020752,0.635193,0.682068,down
8978,-5.675781,13.074219,2.355469,-1.476563,0.796875,-0.953125,0.362061,0.017029,0.633545,0.683533,down
8983,-5.90625,13.304688,2.429688,-1.746094,0.867187,-0.912109,0.362366,0.012512,0.63147,0.685425,down
8988,-6.058594,13.417969,2.507813,-1.927734,0.910156,-0.876953,0.362366,0.012512,0.63147,0.685425,down
8993,-6.25,13.417969,2.585938,-1.927734,0.910156,-0.876953,0.362549,0.002808,0.626282,0.690186,down
8998,-6.554687,13.304688,2.585938,-1.927734,0.910156,-0.876953,0.362549,0.002808,0.626282,0.690186,down
9003,-6.671875,13.308594,2.699219,-2.431641,1.023438,-0.683594,0.362549,0.002808,0.626282,0.690186,down
9008,-6.746094,13.269531,2.96875,-2.546875,0.980469,-0.583984,0.362549,0.002808,0.626282,0.690186,down
9013,-6.863281,13.148438,3.199219,-2.539063,0.953125,-0.476562,0.36084,-0.016479,0.613342,0.702393,down
9019,-7.09375,12.648438,3.65625,-2.539063,0.953125,-0.476562,0.359985,-0.020996,0.609741,0.705811,down
9024,-7.09375,12.648438,3.65625,-2.455078,0.980469,-0.228516,0.359985,-0.020996,0.609741,0.705811,down
9030,-7.324219,12.382813,3.734375,-2.455078,0.980469,-0.228516,0.358826,-0.025513,0.606079,0.709412,down
9035,-7.359375,12.078125,3.808594,-2.455078,0.980469,-0.228516,0.358826,-0.025513,0.606079,0.709412,down
9040,-7.359375,12.078125,3.808594,-2.318359,0.742187,0.279297,0.354187,-0.036377,0.596008,0.719727,down
9045,-7.359375,11.464844,4.347656,-2.318359,0.742187,0.279297,0.354187,-0.036377,0.596008,0.719727,down
9051,-7.515625,11.542969,4.230469,-1.226563,0.712891,0.501953,0.354187,-0.036377,0.596008,0.719727,down
9056,-7.476562,11.617188,4.347656,-0.431641,0.558594,0.771484,0.354187,-0.036377,0.596008,0.719727,down
9061,-7.4375,11.699219,4.230469,-0.431641,0.558594,0.771484,0.345886,-0.042725,0.58905,0.729065,down
9066,-7.589844,12.078125,4.386719,-0.185547,0.492187,0.910156,0.345886,-0.042725,0.58905,0.729065,down
9071,-7.515625,11.84375,4.269531,-0.185547,0.492187,0.910156,0.340942,-0.042175,0.589111,0.731384,down
9076,-7.398437,12.382813,3.734375,-0.185547,0.492187,0.910156,0.338074,-0.041321,0.589355,0.732544,down
9082,-7.246094,12.191406,4.308594,-0.177734,0.328125,1.5,0.338074,-0.041321,0.589355,0.732544,down
9087,-7.09375,11.84375,3.503906,0.158203,0.378906,1.619141,0.332031,-0.038818,0.589539,0.735291,down
9092,-7.09375,11.695313,3.273438,0.158203,0.378906,1.619141,0.324707,-0.034851,0.590942,0.737671,down
9097,-6.9375,11.578125,3.464844,0.396484,0.169922,1.945313,0.324707,-0.034851,0.590942,0.737671,down
9102,-6.824219,11.425781,3.617188,0.396484,0.169922,1.945313,0.317078,-0.029236,0.592896,0.739685,down
9107,-6.671875,11.234375,3.65625,0.396484,0.169922,1.945313,0.31311,-0.026245,0.593689,0.740845,down
9112,-6.363281,10.621094,3.425781,0.345703,0.162109,2.505859,0.31311,-0.026245,0.593689,0.740845,down
9117,-6.289062,10.199219,3.042969,0.439453,0.107422,2.708984,0.307983,-0.022339,0.594604,0.742371,down
9122,-6.097656,10.15625,2.699219,0.439453,0.107422,2.708984,0.297913,-0.01416,0.596313,0.7453,down
9128,-5.789062,9.816406,3.007813,0.439453,0.107422,2.708984,0.292419,-0.009338,0.596985,0.746948,down
9133,-5.636719,9.546875,2.699219,0.908203,-0.019531,3.1875,0.286743,-0.00415,0.598267,0.74823,down
9139,-5.445312,9.394531,2.585938,1.251953,-0.007813,3.324219,0.286743,-0.00415,0.598267,0.74823,down
9144,-5.140625,9.089844,2.46875,1.251953,-0.007813,3.324219,0.286743,-0.00415,0.598267,0.74823,down
9149,-4.792969,8.625,2.46875,1.414063,-0.023437,3.453125,0.286743,-0.00415,0.598267,0.74823,down
9154,-4.792969,8.625,2.46875,1.441406,-0.003906,3.578125,0.260803,0.020386,0.607971,0.749634,down
9160,-4.144531,7.519531,2.085938,1.441406,-0.003906,3.578125,0.253357,0.027222,0.610718,0.749695,down
9166,-2.957031,6.527344,1.664063,1.742188,0.179687,4.021484,0.245728,0.033997,0.613586,0.749695,down
9172,-2.726563,6.523437,1.320313,2.125,0.332031,4.160156,0.22821,0.048523,0.621155,0.748108,down
9177,-2.34375,6.523437,1.089844,2.125,0.332031,4.160156,0.219055,0.055725,0.62561,0.746704,down
9182,-2.113281,6.523437,1.089844,2.125,0.332031,4.160156,0.219055,0.055725,0.62561,0.746704,down
9187,-1.84375,6.449219,1.089844,2.933594,0.804687,4.582031,0.219055,0.055725,0.62561,0.746704,down
9193,-1.539063,5.949219,0.976562,2.933594,0.804687,4.582031,0.188171,0.078064,0.640686,0.740295,down
9199,-1.269531,5.0625,0.859375,2.933594,0.804687,4.582031,0.178162,0.084534,0.645447,0.737915,down
9204,-1.269531,5.0625,0.859375,3.234375,1.183594,4.726562,0.166687,0.091614,0.65094,0.734924,down
9209,-1.269531,5.0625,0.859375,3.345703,1.269531,4.744141,0.155334,0.098389,0.65625,0.731812,down
9214,-1.078125,4.722656,0.785156,3.345703,1.269531,4.744141,0.155334,0.098389,0.65625,0.731812,down
9219,-0.695312,4.257812,0.9375,3.460938,1.34375,4.759766,0.155334,0.098389,0.65625,0.731812,down
9224,-0.695312,4.257812,0.9375,3.667969,1.421875,4.695312,0.119812,0.118286,0.672974,0.720276,down
9229,-0.234375,3.382813,1.167969,3.667969,1.421875,4.695312,0.10791,0.124512,0.678528,0.71582,down
9234,-0.003906,3.386719,0.746094,3.667969,1.421875,4.695312,0.10791,0.124512,0.678528,0.71582,down
9240,-0.003906,3.347656,0.632812,3.806641,1.751953,4.611328,0.10791,0.124512,0.678528,0.71582,down
9246,-0.003906,3.347656,0.632812,3.820313,1.851563,4.541016,0.070496,0.142212,0.695374,0.700928,down
9251,0.148437,3.152344,0.554687,3.851563,1.880859,4.445312,0.070496,0.142212,0.695374,0.700928,down
9256,0.148437,3.152344,0.554687,3.869141,1.921875,4.320312,0.045837,0.152222,0.705933,0.690247,down
9261,0.414062,3.003906,0.746094,3.869141,1.921875,4.320312,0.033264,0.156921,0.711243,0.684387,down
9266,0.414062,3.003906,0.746094,3.800781,1.994141,4.044922,0.021362,0.161072,0.716187,0.678711,down
9271,0.605469,2.617188,1.089844,3.800781,1.994141,4.044922,0.009644,0.164978,0.720947,0.672974,down
9277,0.722656,2.617188,0.976562,3.548828,2.019531,3.578125,0.009644,0.164978,0.720947,0.672974,down
9282,0.644531,2.542969,0.9375,3.548828,2.019531,3.578125,0.024231,-0.174744,-0.73407,-0.655762,down
9287,0.570312,2.195313,1.015625,3.548828,2.019531,3.578125,0.024231,-0.174744,-0.73407,-0.655762,down
9292,0.683594,1.921875,1.167969,3.548828,2.019531,3.578125,0.024231,-0.174744,-0.73407,-0.655762,down
9297,0.683594,1.921875,1.167969,3.335938,1.939453,3.216797,0.044983,-0.179749,-0.741821,-0.644531,down
9302,0.835937,1.390625,1.550781,3.251953,1.876953,2.859375,0.044983,-0.179749,-0.741821,-0.644531,down
9307,0.953125,0.816406,1.742188,3.251953,1.876953,2.859375,0.064209,-0.183533,-0.749146,-0.633179,down
9312,0.835937,0.816406,1.78125,3.269531,1.816406,2.484375,0.08197,-0.186035,-0.75647,-0.621643,down
9317,0.835937,0.816406,1.96875,3.25,1.650391,2.095703,0.08197,-0.186035,-0.75647,-0.621643,down
9322,0.875,0.625,2.390625,3.25,1.650391,2.095703,0.090698,-0.186951,-0.760376,-0.615356,down
9328,0.835937,0.46875,2.511719,3.244141,1.527344,1.880859,0.104858,-0.187866,-0.767517,-0.603821,down
9333,0.722656,0.546875,2.511719,3.201172,1.345703,1.451172,0.112061,-0.187866,-0.771606,-0.59729,down
9338,0.414062,0.585937,2.316406,3.201172,1.345703,1.451172,0.118225,-0.187622,-0.775452,-0.591187,down
9343,0.1875,0.546875,2.046875,3.201172,1.345703,1.451172,0.122925,-0.187134,-0.778809,-0.585937,down
9348,0.1875,0.546875,2.046875,3.201172,1.345703,1.451172,0.122925,-0.187134,-0.778809,-0.585937,down
9353,0.148437,0.546875,2.085938,2.900391,0.820312,0.753906,0.122925,-0.187134,-0.778809,-0.585937,down
9358,-0.3125,0.625,2.128906,2.636719,0.621094,0.511719,0.130981,-0.185852,-0.785889,-0.575012,down
9363,-0.3125,0.625,2.128906,2.636719,0.621094,0.511719,0.130981,-0.185852,-0.785889,-0.575012,down
9368,-0.3125,0.625,2.128906,2.574219,0.482422,0.222656,0.137207,-0.182007,-0.796631,-0.559875,down
9373,-0.886719,1.121094,1.207031,2.574219,0.482422,0.222656,0.13739,-0.180298,-0.800354,-0.555054,down
9379,-1.421875,2.082031,1.089844,2.574219,0.482422,0.222656,0.136719,-0.178406,-0.804016,-0.550537,down
9385,-1.578125,2.078125,0.976562,2.013672,-0.671875,-1.199219,0.13501,-0.17627,-0.807678,-0.546265,down
9390,-1.691406,2.078125,0.824219,1.740234,-0.921875,-1.476563,0.13501,-0.17627,-0.807678,-0.546265,down
9397,-1.996094,2.382813,0.707031,1.511719,-1.179688,-1.746094,0.13501,-0.17627,-0.807678,-0.546265,down
9402,-2.074219,2.265625,0.746094,1.109375,-1.724609,-2.302734,0.13501,-0.17627,-0.807678,-0.546265,down
9407,-2.226563,2.226563,0.746094,0.960937,-1.978516,-2.617188,0.118774,-0.166504,-0.820435,-0.533936,down
9412,-2.613281,2.539063,0.402344,0.960937,-1.978516,-2.617188,0.11145,-0.16333,-0.823608,-0.531555,down
9418,-2.800781,2.691406,0.402344,0.541016,-2.542969,-3.267578,0.104126,-0.160339,-0.826355,-0.529724,down
9423,-2.996094,2.652344,0.476562,0.541016,-2.542969,-3.267578,0.085144,-0.153137,-0.831543,-0.527039,down
9428,-2.996094,2.652344,0.476562,0.052734,-3.113281,-4.033203,0.074524,-0.149231,-0.833679,-0.526428,down
9433,-3.839844,1.3125,0.171875,0.052734,-3.113281,-4.033203,0.074524,-0.149231,-0.833679,-0.526428,down
9438,-3.839844,1.3125,0.171875,-0.087891,-3.431641,-4.511719,0.062195,-0.144653,-0.835754,-0.526001,down
9443,-3.839844,1.3125,0.171875,-0.087891,-3.431641,-4.511719,0.032532,-0.133545,-0.839478,-0.525757,down
9448,-4.945312,4.261719,-0.171875,-0.087891,-3.431641,-4.511719,0.032532,-0.133545,-0.839478,-0.525757,down
9453,-5.371094,5.21875,-0.902344,-0.902344,-5.132812,-6.951172,0.032532,-0.133545,-0.839478,-0.525757,down
9458,-5.941406,6.675781,-1.78125,-0.902344,-5.132812,-6.951172,0.027466,0.110352,0.842468,0.526611,down
9463,-6.632812,8.742188,-2.546875,-1.623047,-6.662109,-8.509766,0.051331,0.10144,0.842163,0.527161,down
9468,-7.859375,15.0625,-4.042969,-1.623047,-6.662109,-8.509766,0.051331,0.10144,0.842163,0.527161,down
9474,-8.546875,19.695312,-7.375,-1.623047,-6.662109,-8.509766,0.106262,0.08252,0.837708,0.529297,down
9479,-9.3125,20.777344,-9.097656,-4.314453,-8.990234,-10.996094,0.138794,0.071106,0.832275,0.532043,down
9485,-9.3125,20.777344,-9.097656,-5.867187,-9.572266,-11.927734,0.175049,0.057434,0.823425,0.536682,down
9490,-10.15625,22.191406,-12.046875,-5.867187,-9.572266,-11.927734,0.175049,0.057434,0.823425,0.536682,down
9496,-10.15625,22.191406,-12.046875,-7.541016,-9.837891,-12.90625,0.250244,0.023987,0.795654,0.551147,down
9501,-9.351563,22.191406,-13.351563,-7.541016,-9.837891,-12.90625,0.250244,0.023987,0.795654,0.551147,down
9506,-11.039063,19.085937,-3.125,-11.802734,-11.757813,-13.744141,0.250244,0.023987,0.795654,0.551147,down
9511,-12.953125,9.242188,-3.046875,-16.585937,-11.673828,-14.064453,0.372192,-0.040955,0.713623,0.592102,down
9516,-16.519531,5.144531,-1.707031,-16.585937,-11.673828,-14.064453,0.408813,-0.068298,0.687073,0.596741,down
9521,-20.464844,4.722656,-2.472656,-16.585937,-11.673828,-14.064453,0.44165,-0.093201,0.666565,0.593262,down
9526,-24.101562,8.78125,-3.007813,-16.585937,-11.673828,-14.064453,0.44165,-0.093201,0.666565,0.593262,down
9531,-25.976562,12.765625,-1.285156,-2.759766,-6.275391,-14.056641,0.50116,-0.127869,0.635132,0.573669,down
9537,-25.976562,12.765625,-1.285156,-0.787109,-6.976562,-11.183594,0.528137,-0.138489,0.620728,0.562744,down
9542,-20.84375,21.808594,-0.289063,-0.787109,-6.976562,-11.183594,0.528137,-0.138489,0.620728,0.562744,down
9547,-17.894531,25.488281,-3.160156,0.042969,-6.050781,-9.171875,0.572266,-0.149353,0.598022,0.540894,down
9552,-18.429687,24.449219,-2.28125,2.140625,-3.785156,-5.046875,0.572266,-0.149353,0.598022,0.540894,down
9558,-16.4375,22.652344,-3.046875,4.529297,-1.910156,-1.171875,0.60083,-0.14679,0.588867,0.520264,down
9563,-19.355469,18.167969,-2.128906,4.529297,-1.910156,-1.171875,0.612854,-0.133301,0.592224,0.505859,down
9568,-14.257813,15.753906,0.210937,4.529297,-1.910156,-1.171875,0.612854,-0.133301,0.592224,0.505859,down
9573,-13.601563,12.804688,5.878906,1.460938,-0.636719,1.341797,0.61438,-0.127502,0.593994,0.503418,down
9578,-12.230469,9.855469,3.007813,1.460938,-0.636719,1.341797,0.612793,-0.123535,0.596191,0.503723,down
9583,-12.230469,9.855469,3.007813,1.460938,-0.636719,1.341797,0.612793,-0.123535,0.596191,0.503723,down
9588,-14.144531,7.976562,-0.289063,0.71875,2.167969,1.650391,0.604004,-0.120056,0.604126,0.505798,down
9593,-10.921875,8.628906,3.503906,0.71875,2.167969,1.650391,0.594482,-0.12207,0.606812,0.513306,down
9598,-10.304688,8.972656,2.46875,0.71875,2.167969,1.650391,0.590515,-0.124023,0.606628,0.517578,down
9603,-9.351563,9.433594,1.855469,0.214844,1.412109,1.03125,0.590515,-0.124023,0.606628,0.517578,down
9608,-8.929688,9.363281,0.132812,0.214844,1.412109,1.03125,0.583679,-0.123718,0.611877,0.519287,down
9613,-9.660156,9.433594,0.019531,0.214844,1.412109,1.03125,0.582153,-0.120728,0.616028,0.516785,down
9618,-7.78125,9.167969,1.511719,3.3125,0.494141,0.632812,0.581238,-0.115662,0.621399,0.512451,down
9623,-7.820312,8.667969,2.125,3.3125,0.494141,0.632812,0.581238,-0.115662,0.621399,0.512451,down
9628,-7.398437,8.132813,1.855469,4.158203,0.476562,0.291016,0.581238,-0.115662,0.621399,0.512451,down
9633,-6.9375,6.828125,1.089844,4.158203,0.476562,0.291016,0.580872,-0.09845,0.638428,0.495239,down
9638,-6.898437,6.40625,1.742188,2.982422,-0.117188,0.304688,0.580872,-0.09845,0.638428,0.495239,down
9643,-6.824219,6.140625,2.621094,2.982422,-0.117188,0.304688,0.581787,-0.089111,0.645447,0.486816,down
9648,-5.9375,5.488281,3.464844,2.982422,-0.117188,0.304688,0.581787,-0.089111,0.645447,0.486816,down
9653,-5.9375,5.488281,3.464844,2.982422,-0.117188,0.304688,0.581787,-0.089111,0.645447,0.486816,down
9658,-5.710937,5.144531,3.847656,-0.978516,0.060547,0.310547,0.581787,-0.089111,0.645447,0.486816,down
9663,-5.710937,5.144531,3.847656,-2.435547,0.240234,0.496094,0.581787,-0.089111,0.645447,0.486816,down
9669,-5.675781,4.070312,3.273438,-2.435547,0.240234,0.496094,0.577759,-0.094482,0.639954,0.497803,down
9674,-5.636719,3.496094,3.464844,-2.574219,0.316406,0.636719,0.575623,-0.098083,0.636841,0.503418,down
9680,-5.714844,3.726563,2.585938,-2.574219,0.316406,0.636719,0.573975,-0.100525,0.634888,0.507324,down
9686,-6.359375,3.765625,2.546875,-2.048828,0.269531,0.59375,0.573975,-0.100525,0.634888,0.507324,down
9691,-6.25,3.457031,2.355469,-1.998047,0.113281,0.558594,0.573975,-0.100525,0.634888,0.507324,down
9696,-6.132812,3.917969,2.316406,-1.724609,-0.095703,0.572266,0.573975,-0.100525,0.634888,0.507324,down
9702,-5.980469,4.03125,2.546875,-1.724609,-0.095703,0.572266,0.56842,-0.108276,0.62616,0.522583,down
9707,-6.554687,3.917969,2.660156,-1.724609,-0.095703,0.572266,0.567688,-0.108826,0.624329,0.525513,down
9712,-6.710937,3.996094,2.316406,-1.724609,-0.095703,0.572266,0.566833,-0.108826,0.623169,0.527771,down
9717,-7.015625,4.070312,1.894531,0.261719,-0.013672,0.619141,0.566833,-0.108826,0.623169,0.527771,down
9723,-7.28125,3.957031,1.78125,0.261719,-0.013672,0.619141,0.56543,-0.106201,0.623901,0.528931,down
9728,-7.4375,4.03125,1.894531,1.46875,-0.103516,0.429687,0.56543,-0.106201,0.623901,0.528931,down
9733,-7.476562,4.414062,1.78125,1.46875,-0.103516,0.429687,0.564819,-0.100952,0.627319,0.52655,down
9739,-7.480469,4.953125,2.011719,1.46875,-0.103516,0.429687,0.565125,-0.095642,0.630554,0.523315,down
9744,-7.4375,5.027344,2.203125,1.007813,-0.197266,0.238281,0.56543,-0.09314,0.631897,0.52179,down
9750,-7.546875,5.144531,1.933594,1.007813,-0.197266,0.238281,0.565613,-0.091614,0.632812,0.520813,down
9756,-7.667969,5.21875,1.550781,0.509766,-0.044922,0.191406,0.565613,-0.091614,0.632812,0.520813,down
9762,-7.742187,5.21875,1.472656,0.306641,-0.015625,0.175781,0.565613,-0.091614,0.632812,0.520813,down
9767,-7.863281,5.449219,1.472656,0.248047,-0.027344,0.171875,0.565613,-0.091614,0.632812,0.520813,down
9773,-8.007813,5.566406,1.628906,0.226562,-0.042969,0.164062,0.565613,-0.091614,0.632812,0.520813,down
9778,-8.167969,5.679687,1.703125,0.226562,-0.042969,0.164062,0.565125,-0.086853,0.635376,0.518982,down
9783,-8.316406,5.796875,1.703125,0.224609,-0.064453,0.128906,0.565125,-0.086853,0.635376,0.518982,down
9788,-8.46875,5.910156,1.664063,0.224609,-0.064453,0.128906,0.565125,-0.086304,0.63562,0.518799,down
9793,-8.628906,5.910156,1.820313,0.205078,-0.087891,0.123047,0.565125,-0.086304,0.63562,0.518799,down
9799,-8.625,5.988281,1.78125,0.205078,-0.087891,0.123047,0.565369,-0.084229,0.636414,0.517944,down
9804,-8.703125,6.023437,1.855469,0.472656,-0.169922,0.085937,0.565552,-0.083374,0.63678,0.517456,down
9809,-8.546875,6.292969,1.855469,0.472656,-0.169922,0.085937,0.565857,-0.082275,0.637146,0.516785,down
9815,-8.625,6.101562,1.933594,0.472656,-0.169922,0.085937,0.566101,-0.08136,0.637512,0.516235,down
9820,-8.46875,5.910156,2.164063,0.279297,-0.177734,0.089844,0.566101,-0.08136,0.637512,0.516235,down
9827,-8.429688,5.832031,1.820313,0.246094,-0.115234,0.099609,0.566101,-0.08136,0.637512,0.516235,down
9832,-8.351563,5.832031,1.664063,0.246094,-0.115234,0.099609,0.566101,-0.08136,0.637512,0.516235,down
9838,-8.167969,5.71875,2.046875,-0.289063,-0.111328,0.132812,0.566101,-0.08136,0.637512,0.516235,down
9843,-8.164063,5.410156,2.125,-0.289063,-0.111328,0.132812,0.566711,-0.078796,0.637085,0.516479,down
9848,-8.164063,5.488281,1.550781,-0.091797,-0.056641,0.113281,0.566711,-0.078796,0.637085,0.516479,down
9853,-8.046875,5.375,1.511719,-0.091797,-0.056641,0.113281,0.566589,-0.078796,0.636902,0.516846,down
9858,-7.929687,5.375,1.703125,0.039063,-0.052734,0.119141,0.566589,-0.078796,0.636902,0.516846,down
9863,-7.859375,5.335937,1.628906,0.039063,-0.052734,0.119141,0.566467,-0.078369,0.636658,0.517334,down
9869,-7.859375,5.375,1.511719,0.039063,-0.052734,0.119141,0.566284,-0.077698,0.636902,0.517273,down
9874,-7.824219,5.375,1.511719,0.222656,0.03125,0.105469,0.566162,-0.077271,0.637268,0.51709,down
9879,-7.78125,5.375,1.511719,0.300781,0.044922,0.115234,0.565979,-0.076782,0.637695,0.516785,down
9885,-7.824219,5.410156,1.472656,0.34375,0.046875,0.121094,0.565857,-0.076294,0.638123,0.516479,down
9891,-7.824219,5.527344,1.472656,0.34375,0.046875,0.121094,0.565857,-0.076294,0.638123,0.516479,down
9897,-7.824219,5.527344,1.511719,0.326172,0.037109,0.109375,0.565552,-0.075073,0.639221,0.515625,down
9902,-7.820312,5.566406,1.511719,0.271484,0.03125,0.097656,0.565552,-0.075073,0.639221,0.515625,down
9907,-7.820312,5.566406,1.511719,0.193359,0.023437,0.099609,0.565552,-0.075073,0.639221,0.515625,down
9913,-7.820312,5.566406,1.511719,0.046875,0.011719,0.087891,0.565552,-0.075073,0.639221,0.515625,down
9918,-7.746094,5.527344,1.550781,0.046875,0.011719,0.087891,0.565063,-0.073547,0.640442,0.514893,down
9923,-7.703125,5.527344,1.472656,0.046875,0.011719,0.087891,0.564941,-0.073425,0.640503,0.514954,down
9929,-7.664062,5.527344,1.511719,-0.087891,0.009766,0.09375,0.564941,-0.073425,0.640503,0.514954,down
9934,-7.546875,5.449219,1.511719,-0.087891,0.009766,0.09375,0.564453,-0.073242,0.640381,0.515625,down
9939,-7.585937,5.375,1.511719,-0.087891,0.009766,0.09375,0.56427,-0.073303,0.640381,0.515869,down
9944,-7.476562,5.183594,1.550781,-0.064453,0.044922,0.113281,0.564026,-0.073242,0.640381,0.516174,down
9950,-7.398437,5.144531,1.589844,-0.064453,0.044922,0.113281,0.563843,-0.073242,0.640381,0.516357,down
9955,-7.441406,5.144531,1.589844,0.017578,0.068359,0.113281,0.563843,-0.073242,0.640381,0.516357,down
9960,-7.480469,5.21875,1.589844,0.017578,0.068359,0.113281,0.563843,-0.073242,0.640381,0.516357,down
9965,-7.480469,5.257812,1.628906,0.130859,0.085937,0.101563,0.563843,-0.073242,0.640381,0.516357,down
9970,-7.515625,5.335937,1.628906,0.173828,0.109375,0.097656,0.563843,-0.073242,0.640381,0.516357,down
9976,-7.589844,5.449219,1.628906,0.173828,0.109375,0.097656,0.562561,-0.072327,0.641785,0.516174,down
9982,-7.589844,5.566406,1.589844,0.224609,0.138672,0.083984,0.562561,-0.072327,0.641785,0.516174,down
9987,-7.703125,5.601562,1.628906,0.212891,0.152344,0.056641,0.562561,-0.072327,0.641785,0.516174,down
9992,-7.703125,5.757812,1.589844,0.189453,0.140625,0.046875,0.562561,-0.072327,0.641785,0.516174,down
9997,-7.707031,5.796875,1.628906,0.15625,0.146484,0.019531,0.562561,-0.072327,0.641785,0.516174,down
10003,-7.78125,5.832031,1.628906,0.089844,0.150391,0.007813,0.562561,-0.072327,0.641785,0.516174,down
10009,-7.746094,5.832031,1.550781,0.035156,0.150391,-0.007813,0.562561,-0.072327,0.641785,0.516174,down
10014,-7.78125,5.832031,1.589844,0.035156,0.150391,-0.007813,0.560547,-0.072205,0.644775,0.514648,down
10019,-7.820312,5.871094,1.664063,-0.080078,0.109375,-0.033203,0.560547,-0.072205,0.644775,0.514648,down
10024,-7.820312,5.871094,1.703125,-0.080078,0.109375,-0.033203,0.560242,-0.072876,0.644836,0.514709,down
10029,-7.824219,5.796875,1.78125,-0.080078,0.109375,-0.033203,0.560181,-0.073181,0.644836,0.514832,down
10034,-7.742187,5.71875,1.820313,-0.080078,0.109375,-0.033203,0.560059,-0.073486,0.644775,0.514954,down
10039,-7.785156,5.757812,1.742188,-0.109375,0.044922,-0.021484,0.560059,-0.073486,0.644775,0.514954,down
10044,-7.785156,5.71875,1.742188,-0.109375,0.044922,-0.021484,0.559937,-0.073975,0.644653,0.515198,down
10049,-7.78125,5.679687,1.78125,-0.109375,0.044922,-0.021484,0.559875,-0.074158,0.644653,0.515259,down
10054,-7.78125,5.679687,1.703125,-0.109375,0.044922,-0.021484,0.559875,-0.074158,0.644653,0.515259,down
10059,-7.863281,5.71875,1.664063,0.009766,0.044922,0.027344,0.559875,-0.074158,0.644653,0.515259,down
10064,-7.863281,5.757812,1.664063,0.009766,0.044922,0.027344,0.559509,-0.07428,0.644897,0.51532,down
10069,-7.824219,5.796875,1.742188,0.009766,0.044922,0.027344,0.559387,-0.07428,0.64502,0.515259,down
10074,-7.820312,5.757812,1.703125,0.009766,0.044922,0.027344,0.559387,-0.07428,0.64502,0.515259,down
10079,-7.820312,5.832031,1.664063,0.064453,0.082031,0.027344,0.559082,-0.07428,0.645447,0.515076,down
10084,-7.898437,5.832031,1.628906,0.064453,0.082031,0.027344,0.559082,-0.07428,0.645447,0.515076,down
10089,-7.859375,5.832031,1.628906,0.074219,0.105469,0.029297,0.559082,-0.07428,0.645447,0.515076,down
10094,-7.902344,5.871094,1.664063,0.074219,0.105469,0.029297,0.558655,-0.074219,0.645996,0.514832,down
10099,-7.898437,5.949219,1.664063,0.074219,0.105469,0.029297,0.558289,-0.074219,0.646545,0.514587,down
10104,-7.898437,5.949219,1.664063,0.044922,0.113281,0.013672,0.558289,-0.074219,0.646545,0.514587,down
10109,-7.929687,5.988281,1.664063,0.044922,0.113281,0.013672,0.558105,-0.07428,0.646729,0.514526,down
10114,-7.898437,5.949219,1.664063,0.029297,0.097656,0.009766,0.557739,-0.074463,0.647156,0.514404,down
10119,-7.929687,5.949219,1.589844,0.029297,0.097656,0.009766,0.557739,-0.074463,0.647156,0.514404,down
10124,-7.902344,5.949219,1.628906,-0.019531,0.068359,0.005859,0.557556,-0.074585,0.647278,0.514343,down
10129,-7.929687,5.910156,1.664063,-0.019531,0.068359,0.005859,0.557373,-0.074768,0.647461,0.514404,down
10134,-7.902344,5.910156,1.703125,-0.041016,0.03125,0.007813,0.557373,-0.074768,0.647461,0.514404,down
10139,-7.902344,5.832031,1.664063,-0.041016,0.03125,0.007813,0.55719,-0.074951,0.647461,0.514526,down
10144,-7.863281,5.757812,1.664063,-0.070312,0.015625,0.009766,0.55719,-0.074951,0.647461,0.514526,down
10149,-7.859375,5.757812,1.628906,-0.070312,0.015625,0.009766,0.557129,-0.075073,0.6474,0.514587,down
10154,-7.820312,5.757812,1.664063,-0.078125,0.003906,0.009766,0.557129,-0.075073,0.6474,0.514587,down
10159,-7.820312,5.757812,1.664063,-0.078125,0.003906,0.009766,0.557007,-0.075317,0.647217,0.514954,down
10164,-7.78125,5.71875,1.628906,-0.078125,0.003906,0.009766,0.557007,-0.075317,0.647217,0.514954,down
10169,-7.746094,5.71875,1.550781,-0.050781,0.011719,0.009766,0.556946,-0.0755,0.647156,0.515076,down
10175,-7.746094,5.679687,1.511719,-0.050781,0.011719,0.009766,0.556885,-0.0755,0.647156,0.515137,down
10180,-7.707031,5.71875,1.550781,-0.050781,0.011719,0.009766,0.556824,-0.0755,0.647156,0.515198,down
10185,-7.707031,5.71875,1.550781,0.007813,0.041016,0.037109,0.556702,-0.0755,0.647217,0.515198,down
10191,-7.746094,5.679687,1.472656,0.007813,0.041016,0.037109,0.55658,-0.0755,0.647339,0.515198,down
10196,-7.746094,5.679687,1.511719,0.007813,0.041016,0.037109,0.556458,-0.0755,0.647461,0.515198,down
10202,-7.667969,5.71875,1.433594,0.037109,0.080078,0.046875,0.556458,-0.0755,0.647461,0.515198,down
10208,-7.664062,5.679687,1.433594,0.048828,0.091797,0.058594,0.556458,-0.0755,0.647461,0.515198,down
10213,-7.707031,5.640625,1.511719,0.042969,0.105469,0.056641,0.555847,-0.075378,0.64801,0.515198,down
10218,-7.667969,5.640625,1.511719,0.042969,0.105469,0.056641,0.555603,-0.075378,0.648254,0.515137,down
10224,-7.625,5.601562,1.472656,0.041016,0.138672,0.044922,0.555603,-0.075378,0.648254,0.515137,down
10229,-7.667969,5.601562,1.398438,0.041016,0.138672,0.044922,0.55481,-0.075439,0.649048,0.515015,down
10234,-7.707031,5.527344,1.398438,0.044922,0.117188,0.035156,0.55481,-0.075439,0.649048,0.515015,down
10239,-7.664062,5.527344,1.511719,0.044922,0.117188,0.035156,0.554504,-0.0755,0.649353,0.514954,down
10244,-7.664062,5.566406,1.550781,0.048828,0.105469,0.009766,0.554504,-0.0755,0.649353,0.514954,down
10250,-7.707031,5.640625,1.472656,0.048828,0.105469,0.009766,0.554138,-0.075562,0.64978,0.514832,down
10255,-7.707031,5.640625,1.472656,0.039063,0.091797,-0.013672,0.553955,-0.075623,0.649963,0.514709,down
10260,-7.703125,5.679687,1.433594,0.039063,0.091797,-0.013672,0.553833,-0.075745,0.650146,0.514587,down
10265,-7.746094,5.832031,1.550781,0.03125,0.041016,-0.023437,0.553833,-0.075745,0.650269,0.514526,down
