timestamp,ax,ay,az,gx,gy,gz,qw,qx,qy,qz,label
669367,7.257812,4.746094,-4.347656,0.173828,-0.019531,0.095703,0.277466,-0.327148,-0.79187,-0.434631,down
669372,7.257812,4.746094,-4.347656,0.171875,-0.015625,0.111328,0.277466,-0.327148,-0.79187,-0.434631,down
669377,7.257812,4.746094,-4.386719,0.171875,-0.015625,0.111328,0.277954,-0.327393,-0.792114,-0.433716,down
669383,7.179687,4.746094,-4.308594,0.171875,-0.015625,0.111328,0.278198,-0.327637,-0.792358,-0.432922,down
669388,7.183594,4.707031,-4.386719,0.171875,-0.015625,0.111328,0.278198,-0.327637,-0.792358,-0.432922,down
669393,7.222656,4.746094,-4.425781,0.144531,-0.066406,0.099609,0.278381,-0.328003,-0.792603,-0.432129,down
669398,7.179687,4.785156,-4.425781,0.144531,-0.066406,0.099609,0.278381,-0.328003,-0.792603,-0.432129,down
669403,7.183594,4.785156,-4.503906,0.144531,-0.066406,0.099609,0.278442,-0.328125,-0.792725,-0.431702,down
669409,7.140625,4.785156,-4.578125,0.150391,-0.070312,0.064453,0.278503,-0.328308,-0.793091,-0.430908,down
669414,7.21875,4.824219,-4.65625,0.150391,-0.070312,0.064453,0.278503,-0.328369,-0.793213,-0.430542,down
669420,7.21875,4.746094,-4.695312,0.150391,-0.070312,0.064453,0.278503,-0.328491,-0.793396,-0.430237,down
669425,7.300781,4.707031,-4.730469,0.107422,-0.046875,0.029297,0.278503,-0.328491,-0.793518,-0.429932,down
669431,7.257812,4.671875,-4.769531,0.109375,-0.021484,0.035156,0.278503,-0.328491,-0.793518,-0.429932,down
669437,7.296875,4.632812,-4.769531,0.115234,0.013672,0.044922,0.278503,-0.328491,-0.793518,-0.429932,down
669442,7.328125,4.632812,-4.769531,0.109375,0.023437,0.066406,0.278503,-0.328491,-0.793518,-0.429932,down
669447,7.296875,4.59375,-4.65625,0.132812,0.035156,0.091797,0.278503,-0.328491,-0.793518,-0.429932,down
669452,7.296875,4.632812,-4.617187,0.158203,0.027344,0.117188,0.278503,-0.328491,-0.793518,-0.429932,down
669457,7.257812,4.671875,-4.539062,0.158203,0.027344,0.117188,0.279785,-0.328735,-0.793945,-0.428162,down
669463,7.183594,4.671875,-4.617187,0.310547,0.044922,0.181641,0.279785,-0.328735,-0.793945,-0.428162,down
669468,7.140625,4.707031,-4.65625,0.326172,0.027344,0.203125,0.28064,-0.328918,-0.794189,-0.427002,down
669473,7.105469,4.671875,-4.695312,0.326172,0.027344,0.203125,0.281189,-0.329041,-0.794312,-0.42627,down
669478,7.101562,4.671875,-4.769531,0.378906,0.011719,0.208984,0.281189,-0.329041,-0.794312,-0.42627,down
669484,7.179687,4.632812,-4.65625,0.423828,-0.025391,0.214844,0.281189,-0.329041,-0.794312,-0.42627,down
669489,7.183594,4.59375,-4.695312,0.423828,-0.025391,0.214844,0.283325,-0.329712,-0.795471,-0.422241,down
669494,7.261719,4.515625,-4.730469,0.460937,-0.060547,0.193359,0.283325,-0.329712,-0.795471,-0.422241,down
669499,7.257812,4.554687,-4.769531,0.460937,-0.060547,0.193359,0.284241,-0.329956,-0.796143,-0.420105,down
669504,7.296875,4.515625,-4.847656,0.416016,-0.076172,0.169922,0.284241,-0.329956,-0.796143,-0.420105,down
669509,7.300781,4.59375,-4.847656,0.416016,-0.076172,0.169922,0.284973,-0.3302,-0.796875,-0.418091,down
669514,7.300781,4.59375,-4.847656,0.388672,-0.089844,0.158203,0.284973,-0.3302,-0.796875,-0.418091,down
669519,7.261719,4.554687,-4.886719,0.388672,-0.089844,0.158203,0.285583,-0.330444,-0.797485,-0.416199,down
669525,7.296875,4.515625,-4.886719,0.388672,-0.089844,0.158203,0.285889,-0.330566,-0.797791,-0.415405,down
669530,7.410156,4.480469,-4.960937,0.285156,-0.054687,0.164062,0.286194,-0.33075,-0.797974,-0.414612,down
669535,7.367187,4.402344,-5.0,0.253906,-0.025391,0.169922,0.286194,-0.33075,-0.797974,-0.414612,down
669540,7.367187,4.363281,-4.960937,0.253906,-0.025391,0.169922,0.286804,-0.331116,-0.798279,-0.41333,down
669546,7.40625,4.324219,-4.921875,0.253906,-0.025391,0.169922,0.287231,-0.33136,-0.79834,-0.41272,down
669551,7.371094,4.289062,-4.886719,0.230469,0.0625,0.224609,0.287231,-0.33136,-0.79834,-0.41272,down
669556,7.410156,4.210937,-4.847656,0.248047,0.082031,0.244141,0.287231,-0.33136,-0.79834,-0.41272,down
669561,7.328125,4.132812,-4.808594,0.248047,0.082031,0.244141,0.289001,-0.332031,-0.79834,-0.41095,down
669567,7.371094,4.132812,-4.847656,0.277344,0.130859,0.244141,0.289001,-0.332031,-0.79834,-0.41095,down
669572,7.332031,4.09375,-4.886719,0.287109,0.125,0.248047,0.289001,-0.332031,-0.79834,-0.41095,down
669577,7.410156,4.09375,-4.847656,0.304688,0.117188,0.246094,0.289001,-0.332031,-0.79834,-0.41095,down
669583,7.410156,4.132812,-4.847656,0.355469,0.089844,0.248047,0.289001,-0.332031,-0.79834,-0.41095,down
669589,7.410156,4.171875,-4.769531,0.40625,0.072266,0.232422,0.293396,-0.332825,-0.798706,-0.406433,down
669594,7.410156,4.210937,-4.730469,0.513672,0.050781,0.199219,0.293396,-0.332825,-0.798706,-0.406433,down
669599,7.410156,4.210937,-4.730469,0.554687,0.041016,0.201172,0.294189,-0.332825,-0.799011,-0.405273,down
669604,7.449219,4.25,-4.808594,0.554687,0.041016,0.201172,0.295715,-0.332764,-0.799744,-0.402832,down
669609,7.40625,4.289062,-4.808594,0.554687,0.041016,0.201172,0.295715,-0.332764,-0.799744,-0.402832,down
669614,7.484375,4.25,-4.808594,0.554687,0.041016,0.201172,0.296997,-0.332642,-0.800476,-0.400452,down
669619,7.449219,4.25,-4.808594,0.529297,-0.013672,0.173828,0.296997,-0.332642,-0.800476,-0.400452,down
669624,7.445312,4.289062,-4.847656,0.529297,-0.013672,0.173828,0.297668,-0.332581,-0.800903,-0.39917,down
669629,7.488281,4.25,-4.921875,0.482422,-0.007813,0.181641,0.297668,-0.332581,-0.800903,-0.39917,down
669634,7.488281,4.25,-4.921875,0.482422,-0.007813,0.181641,0.299255,-0.332703,-0.801819,-0.396057,down
669639,7.488281,4.058594,-4.886719,0.482422,-0.007813,0.181641,0.299255,-0.332703,-0.801819,-0.396057,down
669644,7.484375,3.980469,-4.886719,0.294922,0.003906,0.203125,0.300232,-0.333069,-0.802002,-0.394592,down
669649,7.5625,3.789063,-4.921875,0.294922,0.003906,0.203125,0.300659,-0.333313,-0.802063,-0.394043,down
669654,7.566406,3.789063,-4.960937,0.294922,0.003906,0.203125,0.301147,-0.333618,-0.802002,-0.393494,down
669659,7.566406,3.675781,-4.960937,0.294922,0.003906,0.203125,0.301147,-0.333618,-0.802002,-0.393494,down
669664,7.566406,3.675781,-4.960937,0.150391,0.03125,0.226562,0.301941,-0.334167,-0.80188,-0.392639,down
669669,7.5625,3.675781,-4.886719,0.150391,0.03125,0.226562,0.302429,-0.334412,-0.801819,-0.39209,down
669674,7.5625,3.675781,-4.847656,0.275391,0.085937,0.238281,0.302429,-0.334412,-0.801819,-0.39209,down
669679,7.5625,3.710938,-4.847656,0.275391,0.085937,0.238281,0.303711,-0.334839,-0.801819,-0.390808,down
669684,7.566406,3.710938,-4.960937,0.275391,0.085937,0.238281,0.303711,-0.334839,-0.801819,-0.390808,down
669689,7.527344,3.75,-4.921875,0.275391,0.085937,0.238281,0.305603,-0.3349,-0.802002,-0.388855,down
669694,7.527344,3.710938,-4.921875,0.275391,0.085937,0.238281,0.305603,-0.3349,-0.802002,-0.388855,down
669699,7.527344,3.675781,-4.847656,0.607422,0.166016,0.259766,0.305603,-0.3349,-0.802002,-0.388855,down
669704,7.527344,3.636719,-4.808594,0.607422,0.166016,0.259766,0.308716,-0.334656,-0.802673,-0.385315,down
669709,7.566406,3.636719,-4.695312,0.607422,0.166016,0.259766,0.309937,-0.334473,-0.802979,-0.383789,down
669714,7.484375,3.675781,-4.617187,0.607422,0.166016,0.259766,0.309937,-0.334473,-0.802979,-0.383789,down
669719,7.484375,3.675781,-4.617187,0.722656,0.144531,0.244141,0.309937,-0.334473,-0.802979,-0.383789,down
669724,7.488281,3.597656,-4.578125,0.722656,0.144531,0.244141,0.312134,-0.334106,-0.80365,-0.38092,down
669729,7.488281,3.597656,-4.578125,0.710937,0.148437,0.242187,0.313293,-0.333923,-0.803955,-0.379395,down
669734,7.523437,3.558594,-4.617187,0.710937,0.148437,0.242187,0.314392,-0.33374,-0.804321,-0.37793,down
669739,7.445312,3.597656,-4.578125,0.677734,0.134766,0.212891,0.315491,-0.333496,-0.804687,-0.376465,down
669745,7.445312,3.597656,-4.578125,0.644531,0.115234,0.208984,0.316467,-0.333252,-0.805054,-0.375061,down
669750,7.40625,3.636719,-4.503906,0.626953,0.107422,0.201172,0.318298,-0.332886,-0.805725,-0.372437,down
669755,7.40625,3.484375,-4.539062,0.626953,0.107422,0.201172,0.318298,-0.332886,-0.805725,-0.372437,down
669760,7.371094,3.445313,-4.617187,0.626953,0.107422,0.201172,0.319946,-0.332458,-0.806213,-0.370239,down
669765,7.328125,3.445313,-4.695312,0.492187,0.099609,0.119141,0.320801,-0.332214,-0.806519,-0.36908,down
669771,7.445312,3.328125,-4.847656,0.492187,0.099609,0.119141,0.321533,-0.33197,-0.806824,-0.368103,down
669776,7.40625,3.445313,-4.886719,0.492187,0.099609,0.119141,0.322144,-0.331726,-0.807007,-0.36731,down
669781,7.566406,3.484375,-4.960937,0.412109,0.175781,0.076172,0.322876,-0.331421,-0.80719,-0.366577,down
669786,7.5625,3.558594,-4.921875,0.382813,0.208984,0.050781,0.322876,-0.331421,-0.80719,-0.366577,down
669791,7.605469,3.636719,-4.886719,0.378906,0.236328,0.046875,0.322876,-0.331421,-0.80719,-0.366577,down
669796,7.644531,3.636719,-5.0,0.378906,0.236328,0.046875,0.322876,-0.331421,-0.80719,-0.366577,down
669801,7.640625,3.675781,-5.039062,0.380859,0.244141,0.052734,0.322876,-0.331421,-0.80719,-0.366577,down
669806,7.679687,3.710938,-5.078125,0.392578,0.242187,0.068359,0.322876,-0.331421,-0.80719,-0.366577,down
669813,7.714844,3.75,-5.191406,0.359375,0.259766,0.0625,0.322876,-0.331421,-0.80719,-0.366577,down
669819,7.714844,3.75,-5.304687,0.339844,0.277344,0.087891,0.322876,-0.331421,-0.80719,-0.366577,down
669824,7.710937,3.675781,-5.382812,0.292969,0.287109,0.111328,0.322876,-0.331421,-0.80719,-0.366577,down
669829,7.792969,3.597656,-5.269531,0.292969,0.287109,0.111328,0.33075,-0.327942,-0.8078,-0.361267,down
669834,7.871094,3.558594,-5.230469,0.292969,0.287109,0.111328,0.331665,-0.327698,-0.807739,-0.360779,down
669839,7.832031,3.519531,-5.191406,0.236328,0.273438,0.123047,0.331665,-0.327698,-0.807739,-0.360779,down
669845,7.871094,3.445313,-5.269531,0.240234,0.302734,0.121094,0.334412,-0.327026,-0.807373,-0.35968,down
669851,7.714844,3.40625,-4.921875,0.240234,0.302734,0.121094,0.335327,-0.326721,-0.807251,-0.359314,down
669856,7.753906,3.367188,-4.886719,0.308594,0.330078,0.041016,0.336304,-0.326294,-0.807251,-0.358887,down
669861,7.753906,3.367188,-4.886719,0.314453,0.363281,0.005859,0.33728,-0.325806,-0.80719,-0.358521,down
669867,7.640625,3.40625,-4.808594,0.341797,0.382813,-0.037109,0.33728,-0.325806,-0.80719,-0.358521,down
669873,7.644531,3.484375,-4.695312,0.330078,0.376953,-0.068359,0.33728,-0.325806,-0.80719,-0.358521,down
669879,7.605469,3.519531,-4.617187,0.310547,0.355469,-0.111328,0.33728,-0.325806,-0.80719,-0.358521,down
669884,7.605469,3.519531,-4.617187,0.302734,0.347656,-0.140625,0.33728,-0.325806,-0.80719,-0.358521,down
669889,7.566406,3.558594,-4.617187,0.302734,0.347656,-0.140625,0.341919,-0.32196,-0.807373,-0.357178,down
669894,7.523437,3.558594,-4.617187,0.302734,0.347656,-0.140625,0.342651,-0.320984,-0.807495,-0.357117,down
669900,7.605469,3.519531,-4.65625,0.011719,0.304688,-0.238281,0.342651,-0.320984,-0.807495,-0.357117,down
669905,7.601562,3.636719,-4.617187,0.011719,0.304688,-0.238281,0.344116,-0.318604,-0.807373,-0.358093,down
669910,7.644531,3.597656,-4.65625,-0.167969,0.287109,-0.248047,0.344116,-0.318604,-0.807373,-0.358093,down
669915,7.640625,3.519531,-4.65625,-0.167969,0.287109,-0.248047,0.344543,-0.317383,-0.806946,-0.359741,down
669921,7.753906,3.328125,-4.464844,-0.167969,0.287109,-0.248047,0.344604,-0.316956,-0.806641,-0.360779,down
669926,7.75,3.328125,-4.539062,-0.167969,0.287109,-0.248047,0.344666,-0.316589,-0.806274,-0.361816,down
669931,7.683594,3.292969,-4.578125,-0.386719,0.287109,-0.220703,0.344666,-0.316589,-0.806274,-0.361816,down
669936,7.679687,3.175781,-4.539062,-0.386719,0.275391,-0.207031,0.344666,-0.316589,-0.806274,-0.361816,down
669941,7.710937,3.136719,-4.386719,-0.386719,0.275391,-0.207031,0.344849,-0.315491,-0.805054,-0.365295,down
669949,7.640625,3.175781,-4.117187,-0.386719,0.275391,-0.207031,0.344849,-0.315491,-0.805054,-0.365295,down
669955,7.484375,3.214844,-4.003906,-0.085937,0.251953,-0.226562,0.344849,-0.315491,-0.805054,-0.365295,down
669960,7.40625,3.253906,-4.042969,0.119141,0.3125,-0.259766,0.345459,-0.313843,-0.804443,-0.367432,down
669966,7.300781,3.328125,-4.003906,0.119141,0.3125,-0.259766,0.346436,-0.312073,-0.804504,-0.367859,down
669972,7.21875,3.367188,-3.851563,0.261719,0.302734,-0.300781,0.346436,-0.312073,-0.804504,-0.367859,down
669977,7.144531,3.328125,-3.660156,0.261719,0.302734,-0.300781,0.347534,-0.309875,-0.804932,-0.367798,down
669982,7.0625,3.328125,-3.542969,0.294922,0.253906,-0.349609,0.347961,-0.308716,-0.805237,-0.367737,down
669988,7.027344,3.367188,-3.542969,0.259766,0.240234,-0.378906,0.347961,-0.308716,-0.805237,-0.367737,down
669993,6.988281,3.367188,-3.582031,0.259766,0.240234,-0.378906,0.348633,-0.306274,-0.805847,-0.367737,down
669998,6.945312,3.367188,-3.542969,0.259766,0.240234,-0.378906,0.348633,-0.306274,-0.805847,-0.367737,down
670003,6.910156,3.367188,-3.507813,0.0,0.132812,-0.455078,0.348633,-0.306274,-0.805847,-0.367737,down
670008,6.910156,3.40625,-3.46875,-0.091797,0.070312,-0.470703,0.348633,-0.306274,-0.805847,-0.367737,down
670013,6.910156,3.367188,-3.3125,-0.091797,0.070312,-0.470703,0.348145,-0.302185,-0.806763,-0.36969,down
670018,6.839844,3.367188,-3.390625,-0.091797,0.070312,-0.470703,0.347534,-0.301331,-0.806946,-0.370544,down
670023,6.800781,3.292969,-3.429688,-0.294922,-0.035156,-0.525391,0.347534,-0.301331,-0.806946,-0.370544,down
670028,6.761719,3.40625,-3.390625,-0.294922,-0.035156,-0.525391,0.345947,-0.299866,-0.807251,-0.372559,down
670033,6.722656,3.367188,-3.199219,-0.294922,-0.035156,-0.525391,0.345947,-0.299866,-0.807251,-0.372559,down
670038,6.683594,3.40625,-3.121094,-0.294922,-0.035156,-0.525391,0.343933,-0.298462,-0.807678,-0.374634,down
670043,6.71875,3.40625,-3.085938,-0.302734,-0.228516,-0.603516,0.343933,-0.298462,-0.807678,-0.374634,down
670048,6.679687,3.445313,-3.160156,-0.302734,-0.228516,-0.603516,0.341431,-0.296997,-0.80835,-0.376587,down
670053,6.605469,3.445313,-3.351563,-0.302734,-0.228516,-0.603516,0.341431,-0.296997,-0.80835,-0.376587,down
670058,6.5625,3.519531,-3.507813,-0.302734,-0.228516,-0.603516,0.338623,-0.29541,-0.809326,-0.378296,down
670063,6.566406,3.636719,-3.46875,-0.3125,-0.457031,-0.693359,0.338623,-0.29541,-0.809326,-0.378296,down
670068,6.5625,3.675781,-3.507813,-0.3125,-0.457031,-0.693359,0.338623,-0.29541,-0.809326,-0.378296,down
670074,6.566406,3.75,-3.699219,-0.3125,-0.457031,-0.693359,0.332825,-0.293396,-0.811096,-0.381104,down
670080,6.5625,3.789063,-3.851563,-0.433594,-0.763672,-0.775391,0.332825,-0.293396,-0.811096,-0.381104,down
670085,6.601562,3.867188,-4.082031,-0.433594,-0.763672,-0.775391,0.325317,-0.29187,-0.813293,-0.384033,down
670090,6.566406,3.867188,-4.234375,-0.433594,-0.763672,-0.775391,0.322388,-0.291443,-0.814148,-0.385132,down
670095,6.601562,3.902344,-4.347656,-0.433594,-0.763672,-0.775391,0.322388,-0.291443,-0.814148,-0.385132,down
670100,6.644531,3.941406,-4.425781,-0.568359,-0.923828,-0.763672,0.322388,-0.291443,-0.814148,-0.385132,down
670105,6.644531,3.902344,-4.386719,-0.568359,-0.923828,-0.763672,0.313721,-0.29071,-0.816284,-0.388306,down
670110,6.644531,3.902344,-4.347656,-0.488281,-0.962891,-0.732422,0.313721,-0.29071,-0.816284,-0.388306,down
670115,6.601562,3.867188,-4.347656,-0.488281,-0.962891,-0.732422,0.307373,-0.290283,-0.817932,-0.390137,down
670120,6.566406,3.828125,-4.308594,-0.488281,-0.962891,-0.732422,0.307373,-0.290283,-0.817932,-0.390137,down
670125,6.566406,3.828125,-4.308594,-0.375,-0.984375,-0.734375,0.304626,-0.2901,-0.818726,-0.390747,down
670130,6.492187,3.828125,-4.347656,-0.375,-0.984375,-0.734375,0.301697,-0.289795,-0.819702,-0.391296,down
670135,6.492187,3.828125,-4.347656,-0.1875,-1.007813,-0.789062,0.298645,-0.289368,-0.82074,-0.391724,down
670140,6.492187,3.828125,-4.347656,-0.1875,-1.007813,-0.789062,0.295715,-0.28894,-0.821838,-0.391968,down
670145,6.300781,4.25,-4.730469,-0.1875,-1.007813,-0.789062,0.292786,-0.288452,-0.822998,-0.392151,down
670151,6.335937,4.324219,-4.769531,-0.109375,-1.064453,-0.830078,0.286133,-0.28717,-0.825684,-0.392334,down
670156,6.335937,4.59375,-4.847656,-0.109375,-1.064453,-0.830078,0.283081,-0.286621,-0.826904,-0.392334,down
670161,6.296875,4.707031,-4.960937,-0.109375,-1.064453,-0.830078,0.279968,-0.286072,-0.828125,-0.392395,down
670166,6.179687,4.863281,-5.0,-0.1875,-1.216797,-0.939453,0.276123,-0.2854,-0.82959,-0.392578,down
670172,6.113281,5.089844,-5.269531,-0.1875,-1.216797,-0.939453,0.2724,-0.28479,-0.830872,-0.392822,down
670177,6.074219,5.246094,-5.574219,-0.1875,-1.216797,-0.939453,0.269104,-0.284241,-0.83197,-0.39325,down
670182,6.109375,5.246094,-5.691406,-0.472656,-1.279297,-1.033203,0.265198,-0.28363,-0.83313,-0.39386,down
670189,6.070312,5.28125,-5.765625,-0.542969,-1.3125,-1.056641,0.265198,-0.28363,-0.83313,-0.39386,down
670194,6.222656,5.398437,-5.804687,-0.689453,-1.417969,-1.095703,0.265198,-0.28363,-0.83313,-0.39386,down
670199,6.296875,5.511719,-5.84375,-0.689453,-1.417969,-1.095703,0.252502,-0.282104,-0.836243,-0.396729,down
670205,6.375,5.550781,-5.917969,-0.744141,-1.449219,-1.117188,0.252502,-0.282104,-0.836243,-0.396729,down
670210,6.378906,5.667969,-6.226562,-0.808594,-1.431641,-1.134766,0.252502,-0.282104,-0.836243,-0.396729,down
670215,6.335937,5.703125,-6.457031,-0.808594,-1.431641,-1.134766,0.233276,-0.280273,-0.839661,-0.402466,down
670220,6.261719,5.742187,-6.609375,-0.808594,-1.431641,-1.134766,0.228882,-0.279846,-0.840271,-0.404053,down
670225,6.335937,5.894531,-6.761719,-0.808594,-1.431641,-1.134766,0.228882,-0.279846,-0.840271,-0.404053,down
670230,6.300781,6.242187,-6.796875,-0.9375,-1.478516,-1.148438,0.228882,-0.279846,-0.840271,-0.404053,down
670235,6.335937,6.277344,-6.796875,-0.738281,-1.599609,-1.138672,0.219116,-0.279053,-0.841614,-0.407166,down
670240,6.335937,6.277344,-6.796875,-0.642578,-1.658203,-1.111328,0.213745,-0.278687,-0.842529,-0.408447,down
670245,6.144531,6.277344,-6.570312,-0.642578,-1.658203,-1.111328,0.209106,-0.278381,-0.843384,-0.409302,down
670250,6.144531,6.277344,-6.570312,-0.642578,-1.658203,-1.111328,0.199036,-0.277649,-0.84552,-0.410339,down
670255,6.070312,6.164062,-6.71875,-0.642578,-1.658203,-1.111328,0.199036,-0.277649,-0.84552,-0.410339,down
670260,6.03125,6.125,-6.878906,-0.236328,-1.554688,-1.154297,0.199036,-0.277649,-0.84552,-0.410339,down
670265,6.03125,6.125,-6.878906,-0.236328,-1.554688,-1.154297,0.189331,-0.276428,-0.848022,-0.410583,down
670270,5.878906,6.507812,-7.414062,-0.236328,-1.554688,-1.154297,0.189331,-0.276428,-0.848022,-0.410583,down
670275,5.761719,6.699219,-7.640625,-0.160156,-1.423828,-1.099609,0.189331,-0.276428,-0.848022,-0.410583,down
670280,5.761719,6.699219,-7.640625,-0.160156,-1.423828,-1.099609,0.189331,-0.276428,-0.848022,-0.410583,down
670285,5.800781,7.160156,-7.722656,-0.283203,-1.300781,-1.013672,0.168396,-0.272705,-0.853638,-0.410645,down
670290,5.878906,7.199219,-7.523437,-0.556641,-1.080078,-0.910156,0.168396,-0.272705,-0.853638,-0.410645,down
670295,5.800781,7.160156,-7.417969,-0.697266,-0.935547,-0.878906,0.164307,-0.272034,-0.854248,-0.411377,down
670300,5.761719,7.046875,-7.457031,-0.697266,-0.935547,-0.878906,0.160767,-0.271423,-0.854614,-0.412415,down
670305,5.6875,6.96875,-7.375,-0.697266,-0.935547,-0.878906,0.157654,-0.270813,-0.854797,-0.413696,down
670310,5.609375,6.855469,-7.300781,-0.697266,-0.935547,-0.878906,0.154114,-0.27002,-0.854736,-0.415649,down
670315,5.496094,6.664062,-7.21875,-0.697266,-0.935547,-0.878906,0.151367,-0.269409,-0.854492,-0.417542,down
670320,5.457031,6.625,-7.03125,-1.097656,-0.59375,-0.794922,0.148437,-0.268738,-0.854126,-0.4198,down
670325,5.265625,6.355469,-6.53125,-1.097656,-0.59375,-0.794922,0.145813,-0.268127,-0.85376,-0.421814,down
670331,5.148437,6.242187,-6.339844,-1.007813,-0.566406,-0.78125,0.140198,-0.266663,-0.853027,-0.426086,down
670336,4.921875,5.859375,-5.726562,-1.007813,-0.566406,-0.78125,0.137634,-0.26593,-0.852905,-0.427673,down
670341,4.804687,5.625,-5.535156,-0.558594,-0.666016,-0.816406,0.137634,-0.26593,-0.852905,-0.427673,down
670346,4.691406,5.546875,-5.230469,-0.558594,-0.666016,-0.816406,0.132141,-0.264221,-0.853271,-0.429687,down
670352,4.460937,5.703125,-4.347656,-0.558594,-0.666016,-0.816406,0.129272,-0.263306,-0.853882,-0.429871,down
670358,4.039062,5.664062,-3.8125,-0.558594,-0.666016,-0.816406,0.126526,-0.26239,-0.854736,-0.429565,down
670363,3.847656,5.78125,-3.890625,0.210937,-1.048828,-1.056641,0.126526,-0.26239,-0.854736,-0.429565,down
670369,3.769531,5.589844,-4.234375,0.248047,-1.029297,-1.121094,0.126526,-0.26239,-0.854736,-0.429565,down
670375,3.578125,5.933594,-5.191406,0.080078,-0.984375,-1.089844,0.126526,-0.26239,-0.854736,-0.429565,down
670380,3.347656,6.007812,-5.460937,0.080078,-0.984375,-1.089844,0.11377,-0.257202,-0.859558,-0.426758,down
670385,3.121094,6.429687,-5.230469,-0.210937,-1.203125,-1.039063,0.11377,-0.257202,-0.859558,-0.426758,down
670390,3.539063,6.128906,-5.078125,-0.210937,-1.203125,-1.039063,0.106812,-0.254944,-0.861389,-0.426147,down
670396,3.65625,6.433594,-4.695312,-0.210937,-1.203125,-1.039063,0.09845,-0.253235,-0.862305,-0.427307,down
670401,3.386719,6.316406,-4.847656,-0.210937,-1.203125,-1.039063,0.09845,-0.253235,-0.862305,-0.427307,down
670406,3.386719,6.316406,-4.847656,-1.089844,-1.070313,-1.080078,0.094238,-0.252319,-0.862244,-0.428894,down
670411,3.347656,6.050781,-5.34375,-1.417969,-1.052734,-1.142578,0.090332,-0.251465,-0.861877,-0.430969,down
670416,3.347656,6.050781,-5.34375,-1.681641,-1.101563,-1.201172,0.085876,-0.250488,-0.861206,-0.433899,down
670421,3.425781,6.011719,-5.039062,-1.902344,-1.117188,-1.269531,0.085876,-0.250488,-0.861206,-0.433899,down
670426,3.425781,6.011719,-5.039062,-2.066406,-1.060547,-1.349609,0.070923,-0.246704,-0.857788,-0.445312,down
670431,3.234375,5.894531,-4.847656,-2.066406,-1.060547,-1.349609,0.065918,-0.244934,-0.856567,-0.449402,down
670436,3.082031,5.707031,-4.695312,-2.066406,-1.060547,-1.349609,0.060059,-0.242737,-0.855286,-0.453796,down
670441,2.8125,5.96875,-4.234375,-2.066406,-1.060547,-1.349609,0.060059,-0.242737,-0.855286,-0.453796,down
670446,2.621094,5.859375,-3.699219,-1.732422,-1.121094,-1.857422,0.060059,-0.242737,-0.855286,-0.453796,down
670451,2.621094,5.859375,-3.699219,-1.732422,-1.121094,-1.857422,0.042969,-0.23468,-0.853699,-0.462952,down
670456,2.390625,6.085937,-4.347656,-1.210938,-1.123047,-2.285156,0.037354,-0.231506,-0.853638,-0.465088,down
670461,2.238281,6.3125,-5.113281,-1.181641,-1.015625,-2.298828,0.037354,-0.231506,-0.853638,-0.465088,down
670466,1.894531,7.8125,-6.378906,-1.181641,-1.015625,-2.298828,0.026794,-0.224731,-0.853577,-0.469177,down
670471,1.742188,8.347656,-6.53125,-1.181641,-1.015625,-2.298828,0.020752,-0.220825,-0.853394,-0.47168,down
670476,1.855469,8.464844,-6.226562,-1.503906,-1.056641,-2.201172,0.020752,-0.220825,-0.853394,-0.47168,down
670481,2.007813,8.5,-5.726562,-1.503906,-1.056641,-2.201172,0.01001,-0.214294,-0.852356,-0.476929,down
670486,1.96875,8.425781,-5.269531,-1.503906,-1.056641,-2.201172,0.01001,-0.214294,-0.852356,-0.476929,down
670491,1.96875,8.425781,-5.269531,-2.001953,-0.78125,-2.167969,0.004639,-0.210815,-0.851318,-0.480469,down
670496,2.007813,8.308594,-5.496094,-2.001953,-0.78125,-2.167969,0.000549,0.207092,0.849792,0.484741,down
670501,1.855469,7.460937,-5.613281,-2.785156,-0.53125,-2.246094,0.00592,0.202942,0.847717,0.490051,down
670506,1.855469,7.460937,-5.613281,-3.166016,-0.404297,-2.298828,0.011108,0.198669,0.845215,0.495972,down
670512,1.625,6.8125,-5.382812,-3.578125,-0.164062,-2.408203,0.011108,0.198669,0.845215,0.495972,down
670517,1.625,6.8125,-5.382812,-3.650391,-0.058594,-2.46875,0.011108,0.198669,0.845215,0.495972,down
670522,1.625,6.929687,-5.191406,-3.650391,-0.058594,-2.46875,0.031616,0.178406,0.831787,0.524658,down
670528,1.320313,7.960937,-4.617187,-3.650391,-0.058594,-2.46875,0.036377,0.172791,0.828491,0.531494,down
670534,1.050781,8.15625,-4.234375,-2.890625,0.015625,-2.697266,0.036377,0.172791,0.828491,0.531494,down
670540,0.820312,8.578125,-3.507813,-2.890625,0.015625,-2.697266,0.050598,0.155151,0.820984,0.547119,down
670545,0.820312,8.578125,-3.507813,-2.890625,0.015625,-2.697266,0.050598,0.155151,0.820984,0.547119,down
670550,0.554687,8.621094,-3.351563,-1.679688,-0.117188,-2.765625,0.050598,0.155151,0.820984,0.547119,down
670555,0.554687,8.621094,-3.351563,-1.431641,-0.238281,-2.755859,0.060059,0.143677,0.818298,0.553284,down
670560,0.015625,9.0,-3.390625,-1.431641,-0.238281,-2.755859,0.060059,0.143677,0.818298,0.553284,down
670566,0.09375,9.152344,-3.351563,-1.111328,-0.527344,-2.703125,0.070129,0.133118,0.816528,0.557312,down
670571,-0.023437,9.34375,-3.238281,-1.089844,-0.646484,-2.685547,0.080872,0.123474,0.81488,0.560547,down
670576,0.015625,9.191406,-3.160156,-1.089844,-0.646484,-2.685547,0.086975,0.118286,0.813477,0.562744,down
670581,0.015625,9.148438,-3.238281,-1.089844,-0.646484,-2.685547,0.086975,0.118286,0.813477,0.562744,down
670586,-0.097656,9.152344,-3.390625,-1.804688,-0.662109,-2.583984,0.097717,0.108948,0.809509,0.568542,down
670592,-0.367188,8.925781,-3.507813,-1.804688,-0.662109,-2.583984,0.102661,0.10437,0.806885,0.572266,down
670597,-0.175781,8.726563,-3.507813,-1.804688,-0.662109,-2.583984,0.108093,0.099121,0.803467,0.576965,down
670602,-0.136719,8.730469,-3.46875,-2.666016,-0.337891,-2.230469,0.11261,0.094604,0.800293,0.581299,down
670608,-0.558594,8.769531,-3.46875,-2.666016,-0.337891,-2.230469,0.11676,0.090149,0.796997,0.585693,down
670613,-0.902344,8.578125,-3.351563,-2.666016,-0.337891,-2.230469,0.11676,0.090149,0.796997,0.585693,down
670618,-0.789062,8.6875,-3.277344,-2.228516,-0.089844,-1.970703,0.11676,0.090149,0.796997,0.585693,down
670623,-0.789062,8.6875,-3.277344,-1.769531,-0.066406,-1.910156,0.127869,0.076721,0.787781,0.597656,down
670628,-0.863281,9.148438,-2.511719,-1.181641,-0.083984,-1.886719,0.131042,0.072693,0.785889,0.599915,down
670633,-0.863281,9.148438,-2.511719,-1.181641,-0.083984,-1.886719,0.131042,0.072693,0.785889,0.599915,down
670638,-1.171875,9.53125,-2.394531,-0.517578,0.017578,-1.900391,0.131042,0.072693,0.785889,0.599915,down
670643,-1.171875,9.53125,-2.394531,0.162109,0.025391,-1.886719,0.139709,0.061462,0.78595,0.599121,down
670649,-2.050781,10.339844,-2.089844,0.162109,0.025391,-1.886719,0.1427,0.058289,0.787598,0.596558,down
670654,-1.9375,10.414063,-2.011719,1.484375,-0.361328,-1.810547,0.1427,0.058289,0.787598,0.596558,down
670659,-2.089844,10.335938,-1.972656,1.697266,-0.478516,-1.806641,0.1427,0.058289,0.787598,0.596558,down
670664,-2.207031,10.296875,-1.933594,1.753906,-0.59375,-1.796875,0.1427,0.058289,0.787598,0.596558,down
670669,-2.511719,10.296875,-1.898438,1.654297,-0.720703,-1.791016,0.1427,0.058289,0.787598,0.596558,down
670674,-2.664063,10.414063,-1.898438,1.386719,-0.853516,-1.794922,0.1427,0.058289,0.787598,0.596558,down
670679,-2.742188,10.492188,-1.933594,0.992187,-0.953125,-1.791016,0.1427,0.058289,0.787598,0.596558,down
670684,-2.816406,10.535156,-2.050781,0.992187,-0.953125,-1.791016,0.168945,0.043701,0.801758,0.571655,down
670689,-2.972656,10.457031,-2.164063,0.033203,-1.052734,-1.814453,0.168945,0.043701,0.801758,0.571655,down
670694,-3.085938,10.496094,-2.320313,-0.380859,-1.113281,-1.826172,0.168945,0.043701,0.801758,0.571655,down
670700,-3.164063,10.417969,-2.472656,-0.380859,-1.113281,-1.826172,0.183289,0.037109,0.800232,0.569824,down
670706,-3.238281,10.417969,-2.816406,-0.380859,-1.113281,-1.826172,0.193481,0.032043,0.796753,0.571655,down
670711,-3.277344,10.496094,-2.855469,-0.380859,-1.113281,-1.826172,0.193481,0.032043,0.796753,0.571655,down
670716,-3.355469,10.53125,-2.855469,-1.291016,-1.246094,-1.996094,0.204407,0.026306,0.792114,0.574524,down
670722,-3.507813,10.574219,-3.007813,-1.291016,-1.246094,-1.996094,0.204407,0.026306,0.792114,0.574524,down
670727,-3.507813,10.574219,-3.007813,-1.302734,-1.140625,-2.177734,0.209778,0.023254,0.789734,0.57605,down
670732,-3.507813,10.535156,-3.199219,-1.302734,-1.140625,-2.177734,0.209778,0.023254,0.789734,0.57605,down
670737,-3.699219,10.679688,-3.351563,-1.253906,-1.107422,-2.21875,0.220764,0.016541,0.784912,0.578735,down
670742,-3.699219,10.679688,-3.351563,-1.253906,-1.107422,-2.21875,0.220764,0.016541,0.784912,0.578735,down
670747,-3.8125,10.644531,-3.277344,-1.123047,-1.044922,-2.294922,0.236938,0.005859,0.778198,0.581543,down
670752,-4.121094,10.53125,-3.277344,-1.123047,-1.044922,-2.294922,0.242798,0.001404,0.775696,0.58252,down
670757,-4.195312,10.375,-3.238281,-1.123047,-1.044922,-2.294922,0.247253,-0.002197,0.773743,0.583313,down
670762,-4.351562,10.226563,-3.199219,-1.330078,-0.736328,-2.447266,0.252747,-0.006958,0.771118,0.584412,down
670767,-4.351562,10.226563,-3.199219,-1.408203,-0.710937,-2.505859,0.257263,-0.011169,0.768799,0.585388,down
670772,-4.582031,9.878906,-2.472656,-1.408203,-0.710937,-2.505859,0.262634,-0.016296,0.76593,0.586609,down
670777,-4.734375,9.878906,-2.203125,-1.408203,-0.710937,-2.505859,0.267151,-0.020813,0.763428,0.587708,down
670782,-4.886719,9.726563,-2.011719,-1.578125,-0.587891,-2.650391,0.2724,-0.026306,0.760376,0.588989,down
670788,-5.039062,9.996094,-1.78125,-1.578125,-0.587891,-2.650391,0.277039,-0.031311,0.757568,0.59021,down
670793,-5.117187,10.226563,-1.398438,-1.578125,-0.587891,-2.650391,0.277039,-0.031311,0.757568,0.59021,down
670798,-5.15625,10.300781,-1.167969,-1.552734,-0.697266,-2.564453,0.277039,-0.031311,0.757568,0.59021,down
670803,-5.15625,10.300781,-1.167969,-1.496094,-0.734375,-2.476563,0.291809,-0.046326,0.748474,0.593689,down
670808,-5.15625,10.300781,-1.167969,-1.4375,-0.769531,-2.341797,0.29657,-0.05072,0.745483,0.594727,down
670813,-5.117187,10.261719,-0.824219,-1.4375,-0.769531,-2.341797,0.29657,-0.05072,0.745483,0.594727,down
670818,-5.191406,10.257813,-0.671875,-1.363281,-0.785156,-2.197266,0.29657,-0.05072,0.745483,0.594727,down
670823,-5.191406,10.257813,-0.671875,-1.271484,-0.845703,-1.875,0.309875,-0.061951,0.736755,0.597778,down
670828,-5.382812,10.191406,-0.632812,-1.271484,-0.845703,-1.875,0.314026,-0.065002,0.733887,0.598816,down
670833,-5.578125,10.191406,-0.632812,-1.271484,-0.845703,-1.875,0.317871,-0.067505,0.731079,0.599915,down
670838,-5.613281,10.109375,-0.710937,-1.216797,-0.925781,-1.400391,0.317871,-0.067505,0.731079,0.599915,down
670843,-5.613281,10.109375,-0.710937,-1.253906,-0.925781,-1.269531,0.325073,-0.071899,0.725403,0.602417,down
670849,-5.730469,9.996094,-0.710937,-1.253906,-0.925781,-1.269531,0.328308,-0.07373,0.722534,0.603882,down
670854,-5.804687,9.917969,-0.785156,-1.349609,-0.876953,-1.048828,0.328308,-0.07373,0.722534,0.603882,down
670860,-5.84375,9.878906,-0.824219,-1.429688,-0.830078,-0.976562,0.328308,-0.07373,0.722534,0.603882,down
670865,-5.996094,9.769531,-1.015625,-1.429688,-0.830078,-0.976562,0.336792,-0.078857,0.71344,0.609375,down
670870,-6.035156,9.691406,-1.167969,-1.429688,-0.830078,-0.976562,0.33905,-0.080627,0.710327,0.611511,down
670875,-6.113281,9.648438,-1.132813,-1.642578,-0.587891,-0.8125,0.33905,-0.080627,0.710327,0.611511,down
670880,-6.1875,9.648438,-1.09375,-1.642578,-0.587891,-0.8125,0.342957,-0.084473,0.703979,0.616211,down
670885,-6.152344,9.53125,-0.902344,-1.642578,-0.587891,-0.8125,0.342957,-0.084473,0.703979,0.616211,down
670891,-6.1875,9.421875,-0.863281,-1.642578,-0.587891,-0.8125,0.345886,-0.088623,0.697693,0.621094,down
670897,-6.265625,9.382813,-0.710937,-1.755859,-0.251953,-0.648437,0.347961,-0.09314,0.691406,0.626282,down
670902,-6.34375,9.074219,-0.519531,-1.755859,-0.251953,-0.648437,0.347961,-0.09314,0.691406,0.626282,down
670907,-6.34375,9.074219,-0.519531,-1.753906,-0.09375,-0.585937,0.348694,-0.095459,0.688416,0.628784,down
670912,-6.378906,8.882813,-0.441406,-1.753906,-0.09375,-0.585937,0.349304,-0.097839,0.685547,0.631226,down
670917,-6.535156,8.652344,-0.097656,-1.695313,0.019531,-0.541016,0.349731,-0.100342,0.682617,0.633789,down
670922,-6.535156,8.652344,-0.097656,-1.695313,0.019531,-0.541016,0.349731,-0.100342,0.682617,0.633789,down
670927,-6.726562,8.765625,0.210937,-1.671875,0.048828,-0.521484,0.350403,-0.105225,0.677063,0.63855,down
670933,-6.800781,8.886719,0.515625,-1.671875,0.048828,-0.521484,0.35083,-0.110229,0.67157,0.64325,down
670939,-6.992187,9.039063,0.707031,-1.671875,0.048828,-0.521484,0.350952,-0.112244,0.669312,0.645203,down
670944,-7.109375,9.113281,0.707031,-1.509766,0.083984,-0.388672,0.350952,-0.112244,0.669312,0.645203,down
670950,-7.222656,9.191406,0.785156,-1.488281,0.050781,-0.34375,0.350952,-0.112244,0.669312,0.645203,down
670955,-7.222656,9.269531,0.859375,-1.488281,0.050781,-0.34375,0.351074,-0.118347,0.661743,0.651794,down
670960,-7.222656,9.265625,0.976562,-1.501953,-0.0625,-0.230469,0.351074,-0.118347,0.661743,0.651794,down
670965,-7.261719,9.304688,0.976562,-1.517578,-0.111328,-0.173828,0.351074,-0.118347,0.661743,0.651794,down
670970,-7.222656,9.230469,0.976562,-1.576172,-0.171875,-0.123047,0.351074,-0.118347,0.661743,0.651794,down
670976,-7.148437,9.074219,1.015625,-1.576172,-0.171875,-0.123047,0.351074,-0.118347,0.661743,0.651794,down
670981,-7.070312,8.960938,1.015625,-1.693359,-0.255859,-0.009766,0.351074,-0.118347,0.661743,0.651794,down
670987,-6.957031,8.882813,1.050781,-1.767578,-0.294922,0.041016,0.350647,-0.127075,0.641785,0.670105,down
670992,-6.839844,8.648438,1.167969,-1.767578,-0.294922,0.041016,0.350403,-0.127991,0.638428,0.673279,down
670997,-6.800781,8.539063,1.128906,-1.941406,-0.345703,0.185547,0.350403,-0.127991,0.638428,0.673279,down
671002,-6.800781,8.425781,1.128906,-1.941406,-0.345703,0.185547,0.349976,-0.128906,0.634521,0.676941,down
671007,-6.878906,8.304688,1.167969,-1.986328,-0.332031,0.226562,0.349976,-0.128906,0.634521,0.676941,down
671012,-6.878906,8.195313,1.207031,-1.986328,-0.332031,0.226562,0.348206,-0.131226,0.623779,0.687317,down
671017,-6.917969,8.121094,1.207031,-1.972656,-0.291016,0.337891,0.348206,-0.131226,0.623779,0.687317,down
671022,-6.878906,8.078125,1.242188,-1.972656,-0.291016,0.337891,0.347473,-0.131958,0.620117,0.690857,down
671027,-6.878906,8.039063,1.398438,-1.972656,-0.291016,0.337891,0.346619,-0.132568,0.616821,0.694092,down
671032,-6.878906,7.964844,1.550781,-1.886719,-0.263672,0.416016,0.345764,-0.133118,0.613525,0.697327,down
671037,-6.878906,7.964844,1.550781,-1.886719,-0.263672,0.416016,0.345764,-0.133118,0.613525,0.697327,down
671042,-6.839844,7.886719,1.703125,-1.720703,-0.214844,0.525391,0.345764,-0.133118,0.613525,0.697327,down
671047,-6.839844,7.886719,1.703125,-1.617188,-0.183594,0.597656,0.342346,-0.134155,0.604187,0.706909,down
671052,-6.648437,7.738281,1.972656,-1.617188,-0.183594,0.597656,0.340942,-0.134216,0.601562,0.709839,down
671057,-6.535156,7.65625,2.011719,-1.617188,-0.183594,0.597656,0.337463,-0.133728,0.596802,0.715576,down
671062,-6.457031,7.660156,2.164063,-1.617188,-0.183594,0.597656,0.337463,-0.133728,0.596802,0.715576,down
671067,-6.378906,7.660156,2.164063,-1.617188,-0.183594,0.597656,0.333374,-0.132446,0.593567,0.720398,down
671072,-6.457031,7.738281,2.125,-1.617188,-0.183594,0.597656,0.333374,-0.132446,0.593567,0.720398,down
671077,-6.457031,7.738281,2.203125,-0.791016,0.064453,1.181641,0.328552,-0.130493,0.591675,0.724487,down
671082,-6.535156,7.886719,2.164063,-0.791016,0.064453,1.181641,0.328552,-0.130493,0.591675,0.724487,down
671087,-6.496094,7.964844,2.164063,-0.373047,0.177734,1.46875,0.328552,-0.130493,0.591675,0.724487,down
671092,-6.457031,8.039063,2.203125,-0.373047,0.177734,1.46875,0.32251,-0.127625,0.591003,0.728271,down
671098,-6.304687,7.925781,2.238281,-0.373047,0.177734,1.46875,0.31604,-0.124207,0.59137,0.731445,down
671104,-6.1875,7.921875,2.164063,-0.373047,0.177734,1.46875,0.312744,-0.122498,0.591797,0.732788,down
671111,-6.074219,8.078125,2.046875,-0.373047,0.177734,1.46875,0.308838,-0.120422,0.592529,0.734192,down
671117,-5.996094,8.121094,2.011719,0.044922,0.435547,1.931641,0.308838,-0.120422,0.592529,0.734192,down
671122,-5.769531,8.121094,2.011719,0.021484,0.474609,1.980469,0.300842,-0.116333,0.594299,0.736755,down
671127,-5.730469,8.117188,2.011719,0.021484,0.474609,1.980469,0.291992,-0.112122,0.596252,0.73938,down
671132,-5.804687,8.199219,1.972656,0.021484,0.474609,1.980469,0.291992,-0.112122,0.596252,0.73938,down
671137,-5.769531,8.234375,1.894531,-0.076172,0.65625,2.091797,0.287048,-0.109985,0.59729,0.740784,down
671142,-5.769531,8.269531,1.894531,-0.076172,0.65625,2.091797,0.282654,-0.108215,0.598145,0.742065,down
671147,-5.730469,8.304688,1.894531,-0.126953,0.707031,2.128906,0.277405,-0.106262,0.59906,0.743591,down
671152,-5.613281,8.34375,1.933594,-0.126953,0.707031,2.128906,0.272095,-0.10437,0.599915,0.745056,down
671157,-5.613281,8.386719,2.011719,-0.126953,0.707031,2.128906,0.261902,-0.100891,0.601501,0.747925,down
671162,-5.5,8.464844,2.046875,-0.126953,0.707031,2.128906,0.261902,-0.100891,0.601501,0.747925,down
671167,-5.5,8.464844,2.046875,-0.115234,0.767578,2.183594,0.256714,-0.099121,0.602295,0.749329,down
671172,-5.191406,8.503906,2.164063,-0.097656,0.765625,2.203125,0.251648,-0.097412,0.603088,0.750671,down
671177,-5.191406,8.503906,2.164063,-0.105469,0.744141,2.232422,0.246399,-0.09552,0.603882,0.752014,down
671182,-5.0,8.460938,2.238281,-0.105469,0.744141,2.232422,0.240845,-0.093567,0.604736,0.753357,down
671187,-5.0,8.460938,2.238281,-0.085937,0.753906,2.300781,0.235474,-0.091614,0.60553,0.7547,down
671192,-5.0,8.460938,2.238281,-0.085937,0.753906,2.300781,0.224243,-0.087463,0.607117,0.757324,down
671197,-4.464844,8.15625,2.355469,-0.085937,0.753906,2.300781,0.224243,-0.087463,0.607117,0.757324,down
671202,-4.3125,8.0,2.316406,-0.160156,0.722656,2.378906,0.224243,-0.087463,0.607117,0.757324,down
671208,-4.003906,7.777344,2.316406,-0.160156,0.722656,2.378906,0.207214,-0.080933,0.609009,0.761292,down
671214,-3.890625,7.617187,2.355469,-0.160156,0.722656,2.378906,0.201172,-0.078552,0.609497,0.762817,down
671220,-3.699219,7.539062,2.316406,-0.220703,0.703125,2.431641,0.195251,-0.076233,0.609985,0.764221,down
671225,-3.621094,7.429687,2.238281,-0.240234,0.695312,2.435547,0.195251,-0.076233,0.609985,0.764221,down
671231,-3.621094,7.460937,2.164063,-0.279297,0.701172,2.435547,0.195251,-0.076233,0.609985,0.764221,down
671237,-3.621094,7.460937,2.277344,-0.339844,0.703125,2.433594,0.195251,-0.076233,0.609985,0.764221,down
671242,-3.585938,7.429687,2.203125,-0.390625,0.720703,2.410156,0.195251,-0.076233,0.609985,0.764221,down
671247,-3.585938,7.429687,2.203125,-0.390625,0.720703,2.410156,0.195251,-0.076233,0.609985,0.764221,down
671252,-3.585938,7.429687,2.203125,-0.425781,0.728516,2.378906,0.160889,-0.063293,0.610535,0.772888,down
671257,-3.585938,7.429687,2.203125,-0.470703,0.748047,2.3125,0.155212,-0.061401,0.610291,0.774353,down
671262,-3.316406,7.238281,2.203125,-0.470703,0.748047,2.3125,0.149597,-0.059509,0.610046,0.775818,down
671267,-2.894531,7.273437,2.433594,-0.470703,0.748047,2.3125,0.143799,-0.057556,0.609802,0.777283,down
671273,-2.742188,7.355469,2.507813,-0.34375,0.708984,2.316406,0.132019,-0.053284,0.609619,0.779785,down
671278,-2.550781,7.433594,2.546875,-0.34375,0.708984,2.316406,0.126343,-0.051147,0.609741,0.780762,down
671283,-2.550781,7.578125,2.585938,-0.34375,0.708984,2.316406,0.120972,-0.049011,0.610046,0.781555,down
671289,-2.398438,7.699219,2.777344,-0.34375,0.708984,2.316406,0.115051,-0.046509,0.610535,0.782227,down
671296,-2.320313,7.695312,2.777344,0.166016,0.625,2.703125,0.115051,-0.046509,0.610535,0.782227,down
671301,-2.207031,7.777344,2.777344,0.166016,0.625,2.703125,0.102417,-0.040527,0.612122,0.78302,down
671306,-2.128906,7.699219,2.699219,0.365234,0.589844,2.958984,0.102417,-0.040527,0.612122,0.78302,down
671311,-2.050781,7.738281,2.699219,0.460937,0.566406,3.091797,0.102417,-0.040527,0.612122,0.78302,down
671316,-1.898438,7.773437,2.660156,0.460937,0.566406,3.091797,0.08197,-0.029602,0.615845,0.78302,down
671321,-1.746094,7.855469,2.546875,0.460937,0.566406,3.091797,0.08197,-0.029602,0.615845,0.78302,down
671326,-1.746094,7.855469,2.546875,0.787109,0.527344,3.474609,0.067383,-0.021057,0.61908,0.782104,down
671331,-1.667969,7.921875,2.507813,0.900391,0.539062,3.580078,0.067383,-0.021057,0.61908,0.782104,down
671337,-1.667969,7.921875,2.507813,0.998047,0.523437,3.658203,0.051758,-0.011719,0.623108,0.780334,down
671342,-1.09375,7.886719,2.203125,0.998047,0.523437,3.658203,0.051758,-0.011719,0.623108,0.780334,down
671347,-1.09375,7.886719,2.203125,1.103516,0.558594,3.810547,0.035461,-0.00177,0.627502,0.777832,down
671353,-0.671875,8.082031,1.742188,1.103516,0.558594,3.810547,0.018555,0.008423,0.632019,0.774658,down
671358,-0.328125,8.160156,1.628906,1.248047,0.570312,3.951172,0.009338,0.014038,0.634521,0.772766,down
671364,-0.023437,8.269531,1.398438,1.248047,0.570312,3.951172,0.001404,0.018799,0.636597,0.770935,down
671369,0.09375,8.347656,1.320313,1.248047,0.570312,3.951172,0.008545,-0.024719,-0.639282,-0.768555,down
671375,0.4375,8.539063,1.242188,1.248047,0.570312,3.951172,0.008545,-0.024719,-0.639282,-0.768555,down
671380,0.589844,8.542969,1.207031,1.484375,0.681641,4.212891,0.008545,-0.024719,-0.639282,-0.768555,down
671385,0.589844,8.542969,1.207031,1.574219,0.689453,4.316406,0.034729,-0.039917,-0.646179,-0.761353,down
671390,0.859375,8.386719,1.28125,1.574219,0.689453,4.316406,0.034729,-0.039917,-0.646179,-0.761353,down
671395,0.859375,8.386719,1.28125,1.716797,0.775391,4.527344,0.044617,-0.045654,-0.648804,-0.758301,down
671400,0.9375,8.347656,1.320313,1.716797,0.775391,4.527344,0.054443,-0.051208,-0.651306,-0.755127,down
671405,1.242188,7.960937,1.398438,1.816406,0.878906,4.652344,0.075012,-0.062683,-0.656433,-0.748047,down
671410,1.742188,7.433594,1.128906,1.816406,0.878906,4.652344,0.085449,-0.068237,-0.658875,-0.744263,down
671415,1.855469,7.234375,1.128906,1.908203,1.009766,4.734375,0.085449,-0.068237,-0.658875,-0.744263,down
671421,2.085938,7.199219,1.015625,1.982422,1.076172,4.744141,0.085449,-0.068237,-0.658875,-0.744263,down
671426,2.316406,7.234375,0.9375,2.074219,1.123047,4.755859,0.085449,-0.068237,-0.658875,-0.744263,down
671431,2.738281,7.199219,1.050781,2.074219,1.123047,4.755859,0.085449,-0.068237,-0.658875,-0.744263,down
671437,2.890625,7.429687,1.089844,2.074219,1.123047,4.755859,0.140686,-0.095093,-0.671509,-0.721252,down
671443,3.003906,7.503906,1.089844,2.525391,1.199219,4.710937,0.162354,-0.104553,-0.677246,-0.710022,down
671448,3.273438,7.460937,0.9375,2.525391,1.199219,4.710937,0.162354,-0.104553,-0.677246,-0.710022,down
671453,3.273438,7.460937,0.9375,2.943359,1.275391,4.675781,0.17334,-0.109009,-0.68042,-0.703613,down
671458,3.425781,7.621094,0.824219,2.943359,1.275391,4.675781,0.184814,-0.113525,-0.68396,-0.696533,down
671463,3.503906,7.542969,0.785156,3.259766,1.197266,4.705078,0.184814,-0.113525,-0.68396,-0.696533,down
671468,3.503906,7.542969,0.785156,3.378906,1.152344,4.703125,0.206848,-0.122314,-0.691162,-0.68158,down
671473,3.695313,7.394531,0.785156,3.458984,1.119141,4.681641,0.228821,-0.131104,-0.698608,-0.6651,down
671478,3.925781,6.695312,0.824219,3.476563,1.056641,4.603516,0.228821,-0.131104,-0.698608,-0.6651,down
671483,4.230469,6.089844,0.859375,3.476563,1.056641,4.603516,0.240601,-0.135864,-0.702576,-0.655762,down
671488,4.230469,6.089844,0.859375,3.386719,1.035156,4.550781,0.250183,-0.139709,-0.705688,-0.64801,down
671493,4.460937,5.890625,0.746094,3.386719,1.035156,4.550781,0.260376,-0.143921,-0.708801,-0.639648,down
671498,4.652344,5.480469,0.554687,3.224609,0.992187,4.410156,0.27063,-0.148132,-0.711731,-0.631042,down
671503,4.652344,5.480469,0.554687,3.134766,0.976562,4.3125,0.27063,-0.148132,-0.711731,-0.631042,down
671509,4.957031,5.015625,0.441406,3.134766,0.976562,4.3125,0.299255,-0.159912,-0.719055,-0.606506,down
671516,5.453125,5.089844,0.441406,3.134766,0.976562,4.3125,0.299255,-0.159912,-0.719055,-0.606506,down
671522,5.492187,5.015625,0.59375,2.949219,0.773437,3.9375,0.299255,-0.159912,-0.719055,-0.606506,down
671527,5.53125,5.054687,0.632812,2.966797,0.710937,3.820313,0.299255,-0.159912,-0.719055,-0.606506,down
671533,5.492187,4.671875,0.707031,3.027344,0.675781,3.728516,0.299255,-0.159912,-0.719055,-0.606506,down
671538,5.574219,4.480469,0.667969,3.027344,0.675781,3.728516,0.348938,-0.180908,-0.732056,-0.556458,down
671543,5.496094,4.210937,0.632812,3.027344,0.675781,3.728516,0.348938,-0.180908,-0.732056,-0.556458,down
671548,5.496094,4.210937,0.632812,2.964844,0.515625,3.386719,0.355469,-0.183594,-0.733948,-0.548828,down
671553,5.378906,4.019531,0.59375,2.921875,0.427734,3.25,0.355469,-0.183594,-0.733948,-0.548828,down
671558,5.304687,3.867188,0.824219,2.921875,0.427734,3.25,0.355469,-0.183594,-0.733948,-0.548828,down
671563,5.304687,3.867188,0.824219,2.800781,0.142578,2.927734,0.374268,-0.191772,-0.740234,-0.524658,down
671568,5.304687,3.292969,1.128906,2.800781,0.142578,2.927734,0.384155,-0.196899,-0.744385,-0.509521,down
671573,5.339844,3.214844,1.015625,2.800781,0.142578,2.927734,0.384155,-0.196899,-0.744385,-0.509521,down
671578,5.339844,3.214844,0.859375,2.193359,-0.335938,2.269531,0.388672,-0.199585,-0.746521,-0.50177,down
671583,5.304687,3.253906,0.785156,2.193359,-0.335938,2.269531,0.392151,-0.202087,-0.748413,-0.495178,down
671588,5.269531,3.328125,0.707031,2.193359,-0.335938,2.269531,0.395081,-0.20459,-0.750305,-0.488953,down
671594,5.265625,3.445313,0.59375,2.193359,-0.335938,2.269531,0.399353,-0.209778,-0.754333,-0.47699,down
671599,5.375,3.597656,0.402344,1.636719,-0.951172,1.621094,0.400574,-0.21228,-0.756287,-0.47168,down
671604,5.378906,3.828125,0.25,1.521484,-1.103516,1.460938,0.401306,-0.214905,-0.758423,-0.466431,down
671610,5.535156,4.09375,-0.402344,1.521484,-1.103516,1.460938,0.401489,-0.217102,-0.760254,-0.46228,down
671616,5.574219,4.171875,-0.710937,1.140625,-1.298828,1.123047,0.401489,-0.217102,-0.760254,-0.46228,down
671621,5.757812,4.171875,-0.976562,0.921875,-1.404297,0.957031,0.401489,-0.217102,-0.760254,-0.46228,down
671626,5.835937,3.867188,-1.398438,0.921875,-1.404297,0.957031,0.398926,-0.224731,-0.766235,-0.450806,down
671631,5.992187,3.867188,-1.550781,0.494141,-1.582031,0.654297,0.398926,-0.224731,-0.766235,-0.450806,down
671636,6.109375,3.867188,-1.78125,0.302734,-1.601563,0.496094,0.398926,-0.224731,-0.766235,-0.450806,down
671642,6.21875,3.710938,-2.125,0.302734,-1.601563,0.496094,0.392456,-0.232117,-0.77124,-0.444153,down
671647,6.179687,3.710938,-2.355469,0.302734,-1.601563,0.496094,0.392456,-0.232117,-0.77124,-0.444153,down
671652,6.179687,3.710938,-2.355469,-0.054687,-1.634766,0.236328,0.386536,-0.236816,-0.774109,-0.441895,down
671657,6.179687,3.710938,-2.355469,-0.300781,-1.736328,0.025391,0.383179,-0.239075,-0.775391,-0.441345,down
671663,6.375,3.789063,-2.625,-0.300781,-1.736328,0.025391,0.379639,-0.241211,-0.776733,-0.440918,down
671668,6.414062,3.675781,-2.703125,-0.300781,-1.736328,0.025391,0.375793,-0.243286,-0.778076,-0.440674,down
671674,6.375,3.675781,-2.777344,-0.296875,-1.716797,-0.283203,0.367859,-0.246582,-0.781067,-0.440186,down
671679,6.261719,3.636719,-2.738281,-0.296875,-1.716797,-0.283203,0.363953,-0.247803,-0.782715,-0.439941,down
671684,6.222656,3.75,-2.855469,-0.296875,-1.716797,-0.283203,0.360046,-0.248718,-0.784424,-0.439514,down
671689,6.140625,3.789063,-2.855469,0.085937,-1.826172,-0.681641,0.355408,-0.249512,-0.786682,-0.438843,down
671695,5.992187,4.019531,-2.738281,0.085937,-1.826172,-0.681641,0.351074,-0.25,-0.788879,-0.438049,down
671700,5.839844,4.289062,-2.546875,0.085937,-1.826172,-0.681641,0.346863,-0.250244,-0.791199,-0.437134,down
671705,5.839844,4.289062,-2.546875,0.324219,-2.082031,-0.960937,0.341919,-0.250366,-0.793884,-0.436035,down
671711,5.796875,4.515625,-2.777344,0.324219,-2.082031,-0.960937,0.336914,-0.250366,-0.796631,-0.434937,down
671717,5.761719,4.632812,-3.046875,0.222656,-2.123047,-1.089844,0.336914,-0.250366,-0.796631,-0.434937,down
671722,5.757812,5.015625,-3.734375,0.222656,-2.123047,-1.089844,0.336914,-0.250366,-0.796631,-0.434937,down
671727,5.757812,5.089844,-4.082031,-0.072266,-2.205078,-1.15625,0.336914,-0.250366,-0.796631,-0.434937,down
671733,5.839844,5.359375,-4.464844,-0.257813,-2.277344,-1.175781,0.336914,-0.250366,-0.796631,-0.434937,down
671738,5.953125,5.4375,-4.695312,-0.257813,-2.277344,-1.175781,0.308594,-0.250916,-0.80896,-0.432861,down
671743,5.996094,5.359375,-4.847656,-0.669922,-2.320313,-1.191406,0.308594,-0.250916,-0.80896,-0.432861,down
671748,5.996094,5.359375,-4.847656,-0.849609,-2.291016,-1.205078,0.295776,-0.252075,-0.812561,-0.434448,down
671753,5.953125,5.167969,-5.191406,-0.986328,-2.263672,-1.230469,0.295776,-0.252075,-0.812561,-0.434448,down
671758,5.953125,5.167969,-5.191406,-1.054688,-2.242188,-1.261719,0.282776,-0.253418,-0.815247,-0.437317,down
671763,5.835937,5.015625,-5.113281,-1.054688,-2.242188,-1.261719,0.276001,-0.253967,-0.816467,-0.438904,down
671768,5.835937,5.015625,-5.113281,-0.931641,-2.220703,-1.384766,0.269409,-0.254333,-0.817749,-0.44043,down
671773,5.339844,4.863281,-4.617187,-0.931641,-2.220703,-1.384766,0.256042,-0.254211,-0.820862,-0.44281,down
671778,5.226562,4.976562,-4.539062,-0.931641,-2.220703,-1.384766,0.256042,-0.254211,-0.820862,-0.44281,down
671783,5.035156,5.167969,-4.539062,-0.271484,-2.140625,-1.869141,0.256042,-0.254211,-0.820862,-0.44281,down
671788,4.84375,5.402344,-4.539062,-0.271484,-2.140625,-1.869141,0.242615,-0.252563,-0.824768,-0.44397,down
671793,4.726562,6.007812,-4.503906,-0.271484,-2.140625,-1.869141,0.236023,-0.251038,-0.827026,-0.444214,down
671799,4.652344,6.511719,-4.425781,0.0625,-2.183594,-2.130859,0.221802,-0.246948,-0.832458,-0.443665,down
671804,4.5,6.773437,-4.425781,0.224609,-2.421875,-2.289063,0.214539,-0.244751,-0.835327,-0.442993,down
671810,4.421875,7.3125,-4.960937,0.224609,-2.421875,-2.289063,0.207397,-0.242615,-0.838074,-0.442444,down
671815,4.308594,7.277344,-5.421875,-0.125,-2.357422,-2.351563,0.19989,-0.240356,-0.840698,-0.4422,down
671820,4.230469,7.121094,-5.996094,-0.441406,-2.271484,-2.332031,0.19989,-0.240356,-0.840698,-0.4422,down
671825,4.191406,6.894531,-6.570312,-0.441406,-2.271484,-2.332031,0.19989,-0.240356,-0.840698,-0.4422,down
671830,4.269531,6.699219,-6.996094,-0.830078,-2.248047,-2.287109,0.184448,-0.236023,-0.844666,-0.443665,down
671835,4.269531,6.699219,-6.996094,-1.181641,-2.300781,-2.197266,0.176636,-0.234253,-0.845886,-0.445435,down
671841,4.269531,6.699219,-6.996094,-1.181641,-2.300781,-2.197266,0.160156,-0.231873,-0.847046,-0.450623,down
671846,4.613281,6.394531,-6.609375,-1.820313,-2.335938,-1.972656,0.160156,-0.231873,-0.847046,-0.450623,down
671852,4.382812,6.277344,-6.109375,-1.820313,-2.335938,-1.972656,0.143677,-0.230042,-0.847046,-0.457092,down
671858,3.960938,6.316406,-5.726562,-1.660156,-2.046875,-2.013672,0.143677,-0.230042,-0.847046,-0.457092,down
671863,3.578125,6.355469,-5.535156,-1.660156,-2.046875,-2.013672,0.128418,-0.227234,-0.847046,-0.463074,down
671868,3.273438,6.625,-5.191406,-1.660156,-2.046875,-2.013672,0.12146,-0.225159,-0.847534,-0.465027,down
671874,2.964844,7.078125,-4.695312,-0.378906,-1.763672,-2.330078,0.107971,-0.219543,-0.850342,-0.465942,down
671879,2.429688,7.8125,-4.042969,-0.378906,-1.763672,-2.330078,0.101318,-0.216248,-0.852661,-0.464661,down
671884,2.046875,8.121094,-3.925781,-0.378906,-1.763672,-2.330078,0.094604,-0.212708,-0.85553,-0.462524,down
671889,1.742188,8.347656,-3.851563,-0.378906,-1.763672,-2.330078,0.094604,-0.212708,-0.85553,-0.462524,down
671894,1.664063,8.421875,-4.003906,1.123047,-2.166016,-2.751953,0.079956,-0.205383,-0.861877,-0.456726,down
671899,1.550781,8.160156,-4.921875,1.123047,-2.166016,-2.751953,0.071411,-0.201721,-0.865173,-0.453552,down
671904,1.472656,7.882812,-5.496094,1.123047,-2.166016,-2.751953,0.071411,-0.201721,-0.865173,-0.453552,down
671909,1.472656,7.882812,-5.496094,0.453125,-2.597656,-2.556641,0.06427,-0.199158,-0.867371,-0.451538,down
671914,1.625,7.921875,-5.996094,-0.166016,-2.675781,-2.40625,0.06427,-0.199158,-0.867371,-0.451538,down
671919,1.96875,7.5,-6.53125,-0.166016,-2.675781,-2.40625,0.06427,-0.199158,-0.867371,-0.451538,down
671924,2.160156,6.96875,-6.878906,-1.740234,-2.4375,-2.0625,0.038513,-0.192871,-0.870239,-0.451599,down
671930,2.238281,6.96875,-6.878906,-1.740234,-2.4375,-2.0625,0.020325,-0.189392,-0.868591,-0.45752,down
671936,1.933594,7.117187,-6.683594,-1.740234,-2.4375,-2.0625,0.01355,-0.187988,-0.867432,-0.46051,down
671941,1.664063,7.046875,-6.492187,-1.988281,-1.912109,-1.951172,0.01355,-0.187988,-0.867432,-0.46051,down
671946,1.433594,7.160156,-6.339844,-1.660156,-1.730469,-2.0,0.001282,0.184021,0.864746,0.467224,down
671952,1.089844,7.394531,-6.074219,-1.125,-1.625,-2.085938,0.001282,0.184021,0.864746,0.467224,down
671958,0.398438,7.621094,-5.039062,-1.125,-1.625,-2.085938,0.001282,0.184021,0.864746,0.467224,down
671964,0.09375,7.851562,-4.695312,0.59375,-1.613281,-2.333984,0.001282,0.184021,0.864746,0.467224,down
671969,-0.480469,8.460938,-4.769531,0.59375,-1.613281,-2.333984,0.026611,0.172791,0.866028,0.468445,down
671974,-0.632812,8.730469,-5.113281,0.59375,-1.613281,-2.333984,0.039063,0.16626,0.869934,0.462646,down
671979,-0.710937,8.847656,-5.652344,0.988281,-1.773438,-2.320313,0.039063,0.16626,0.869934,0.462646,down
671984,-0.824219,8.882813,-6.226562,0.988281,-1.773438,-2.320313,0.045044,0.16333,0.871887,0.459473,down
671989,-0.632812,9.074219,-6.878906,0.708984,-1.839844,-2.201172,0.045044,0.16333,0.871887,0.459473,down
671995,-0.097656,8.804688,-7.414062,0.283203,-1.935547,-2.056641,0.057312,0.158264,0.874634,0.45459,down
672000,-0.097656,8.804688,-7.414062,-0.208984,-1.970703,-1.921875,0.063782,0.156128,0.875183,0.453491,down
672005,0.4375,8.6875,-7.453125,-0.208984,-1.970703,-1.921875,0.07019,0.154175,0.875061,0.453369,down
672010,0.4375,8.6875,-7.453125,-0.974609,-1.666016,-1.744141,0.076538,0.1521,0.874512,0.454102,down
672016,-0.023437,8.6875,-8.140625,-0.974609,-1.666016,-1.744141,0.087463,0.147461,0.872559,0.45752,down
672022,-0.214844,8.765625,-8.140625,-0.974609,-1.666016,-1.744141,0.093079,0.144409,0.871216,0.459839,down
672028,-0.40625,8.769531,-7.414062,-0.974609,-1.666016,-1.744141,0.097229,0.142029,0.8703,0.461487,down
672034,-0.597656,8.765625,-6.800781,-0.488281,-0.947266,-1.716797,0.097229,0.142029,0.8703,0.461487,down
672039,-1.132813,8.617188,-6.109375,-0.488281,-0.947266,-1.716797,0.106262,0.136536,0.868958,0.463684,down
672044,-1.324219,8.542969,-5.804687,-0.488281,-0.947266,-1.716797,0.110657,0.133484,0.869019,0.46344,down
672049,-1.515625,8.539063,-5.535156,0.572266,-0.974609,-1.855469,0.114258,0.13092,0.869446,0.462402,down
672054,-1.667969,8.503906,-5.34375,0.572266,-0.974609,-1.855469,0.118713,0.127808,0.870422,0.460449,down
672060,-1.9375,8.652344,-5.191406,0.572266,-0.974609,-1.855469,0.127075,0.122437,0.872498,0.455627,down
672065,-2.011719,8.847656,-5.382812,0.572266,-0.974609,-1.855469,0.13147,0.119751,0.873474,0.453247,down
672070,-2.011719,9.113281,-5.574219,0.367188,-1.21875,-2.027344,0.136597,0.116638,0.874268,0.450989,down
672075,-1.746094,9.265625,-6.339844,0.367188,-1.21875,-2.027344,0.141602,0.113586,0.874634,0.449524,down
672080,-1.515625,9.265625,-6.648437,0.367188,-1.21875,-2.027344,0.146057,0.110779,0.874451,0.449158,down
672085,-1.402344,9.113281,-6.914062,-0.910156,-1.042969,-1.802734,0.151062,0.107483,0.873718,0.449768,down
672090,-1.402344,9.113281,-6.914062,-0.910156,-1.042969,-1.802734,0.151062,0.107483,0.873718,0.449768,down
672095,-1.324219,8.808594,-7.105469,-1.109375,-0.888672,-1.691406,0.151062,0.107483,0.873718,0.449768,down
672100,-1.707031,8.234375,-7.453125,-1.117188,-0.740234,-1.599609,0.159058,0.10144,0.871582,0.452515,down
672105,-1.707031,8.234375,-7.453125,-1.117188,-0.740234,-1.599609,0.159058,0.10144,0.871582,0.452515,down
672110,-1.707031,8.234375,-7.453125,-1.078125,-0.662109,-1.546875,0.16925,0.092468,0.868408,0.456787,down
672116,-2.550781,8.726563,-5.882812,-1.078125,-0.662109,-1.546875,0.172241,0.089661,0.867737,0.457458,down
672122,-2.703125,8.808594,-5.496094,-0.138672,-0.478516,-1.482422,0.172241,0.089661,0.867737,0.457458,down
672127,-2.894531,8.847656,-5.191406,0.25,-0.472656,-1.533203,0.177917,0.084106,0.867676,0.456543,down
672132,-3.203125,8.617188,-4.65625,0.542969,-0.511719,-1.59375,0.177917,0.084106,0.867676,0.456543,down
672138,-3.277344,8.386719,-4.386719,0.722656,-0.611328,-1.660156,0.177917,0.084106,0.867676,0.456543,down
672143,-3.394531,8.308594,-4.15625,0.820312,-0.748047,-1.744141,0.177917,0.084106,0.867676,0.456543,down
672149,-3.546875,8.421875,-3.773438,0.785156,-0.904297,-1.835938,0.177917,0.084106,0.867676,0.456543,down
672155,-3.621094,8.621094,-3.8125,0.572266,-1.046875,-1.919922,0.199463,0.067932,0.871582,0.442627,down
672160,-3.660156,8.648438,-3.851563,-0.361328,-1.234375,-2.044922,0.204468,0.064697,0.871216,0.441589,down
672165,-3.621094,8.578125,-4.117187,-0.361328,-1.234375,-2.044922,0.209167,0.061584,0.870239,0.441772,down
672170,-3.429688,8.542969,-4.960937,-0.361328,-1.234375,-2.044922,0.214294,0.058044,0.86853,0.443176,down
672176,-3.355469,8.582031,-5.652344,-0.361328,-1.234375,-2.044922,0.21991,0.054077,0.866089,0.445679,down
672181,-3.394531,8.542969,-5.765625,-1.919922,-1.251953,-1.753906,0.224487,0.050842,0.86377,0.448242,down
672186,-3.394531,8.542969,-5.765625,-2.003906,-1.181641,-1.644531,0.229248,0.047424,0.861084,0.451355,down
672191,-3.699219,8.464844,-5.996094,-2.003906,-1.181641,-1.644531,0.229248,0.047424,0.861084,0.451355,down
672196,-3.699219,8.464844,-5.996094,-1.988281,-1.095703,-1.560547,0.233826,0.044067,0.858276,0.454651,down
672201,-3.96875,8.347656,-6.074219,-1.988281,-1.095703,-1.560547,0.238037,0.040894,0.855713,0.457703,down
672206,-4.042969,8.382813,-5.535156,-1.988281,-1.095703,-1.560547,0.238037,0.040894,0.855713,0.457703,down
672211,-4.3125,8.464844,-4.921875,-0.859375,-0.935547,-1.435547,0.238037,0.040894,0.855713,0.457703,down
672216,-4.503906,8.5,-4.65625,-0.447266,-0.849609,-1.457031,0.238037,0.040894,0.855713,0.457703,down
672222,-4.617187,8.539063,-4.464844,-0.136719,-0.826172,-1.498047,0.238037,0.040894,0.855713,0.457703,down
672227,-4.808594,8.5,-3.8125,-0.136719,-0.826172,-1.498047,0.26062,0.025574,0.846924,0.462708,down
672234,-4.964844,8.464844,-3.582031,0.230469,-0.9375,-1.558594,0.26062,0.025574,0.846924,0.462708,down
672240,-5.191406,8.464844,-3.160156,0.263672,-1.029297,-1.578125,0.26062,0.025574,0.846924,0.462708,down
672245,-5.269531,8.460938,-3.007813,0.263672,-1.029297,-1.578125,0.2771,0.017212,0.845093,0.456848,down
672250,-5.308594,8.304688,-2.816406,-0.507812,-1.412109,-1.609375,0.2771,0.017212,0.845093,0.456848,down
672255,-5.421875,8.238281,-2.703125,-0.507812,-1.412109,-1.609375,0.286865,0.012878,0.84198,0.456726,down
672260,-5.5,8.15625,-2.625,-0.507812,-1.412109,-1.609375,0.291687,0.010681,0.839844,0.457764,down
672265,-5.652344,8.0,-2.664063,-0.507812,-1.412109,-1.609375,0.297424,0.008057,0.836853,0.459534,down
672270,-5.804687,7.925781,-2.777344,-1.646484,-1.890625,-1.621094,0.297424,0.008057,0.836853,0.459534,down
672275,-5.960937,7.738281,-2.894531,-1.646484,-1.890625,-1.621094,0.303345,0.005493,0.833618,0.461609,down
672281,-5.960937,7.660156,-3.3125,-1.646484,-1.890625,-1.621094,0.31488,0.000977,0.826904,0.465942,down
672286,-5.960937,7.660156,-3.3125,-1.646484,-1.890625,-1.621094,0.31488,0.000977,0.826904,0.465942,down
672291,-5.996094,7.621094,-3.507813,-1.40625,-2.136719,-1.546875,0.320984,-0.00116,0.823364,0.468018,down
672296,-5.882812,7.695312,-3.542969,-1.40625,-2.136719,-1.546875,0.320984,-0.00116,0.823364,0.468018,down
672301,-5.882812,7.695312,-3.542969,-1.40625,-2.136719,-1.546875,0.320984,-0.00116,0.823364,0.468018,down
672307,-5.804687,8.039063,-3.699219,-0.898437,-2.041016,-1.507813,0.345337,-0.00769,0.810852,0.472412,down
672313,-5.804687,8.160156,-3.46875,-0.519531,-1.814453,-1.511719,0.345337,-0.00769,0.810852,0.472412,down
672319,-5.84375,8.117188,-3.3125,-0.457031,-1.728516,-1.523438,0.345337,-0.00769,0.810852,0.472412,down
672324,-5.921875,8.042969,-3.160156,-0.484375,-1.644531,-1.523438,0.345337,-0.00769,0.810852,0.472412,down
672330,-6.035156,7.964844,-3.085938,-0.582031,-1.560547,-1.529297,0.371216,-0.015503,0.799866,0.471375,down
672335,-6.304687,7.617187,-2.777344,-0.582031,-1.560547,-1.529297,0.376465,-0.017761,0.797119,0.471802,down
672340,-6.417969,7.464844,-2.703125,-1.193359,-1.458984,-1.478516,0.376465,-0.017761,0.797119,0.471802,down
672345,-6.535156,7.3125,-2.664063,-1.193359,-1.458984,-1.478516,0.385437,-0.022339,0.791504,0.473755,down
672350,-6.609375,7.238281,-2.546875,-1.193359,-1.458984,-1.478516,0.389832,-0.024841,0.78833,0.475342,down
672355,-6.839844,7.195312,-2.433594,-1.546875,-1.441406,-1.376953,0.389832,-0.024841,0.78833,0.475342,down
672360,-6.917969,7.050781,-2.433594,-1.546875,-1.441406,-1.376953,0.394592,-0.027588,0.784729,0.477234,down
672365,-6.957031,6.972656,-2.355469,-1.462891,-1.431641,-1.306641,0.394592,-0.027588,0.784729,0.477234,down
672370,-7.109375,6.929687,-2.28125,-1.462891,-1.431641,-1.306641,0.402954,-0.032288,0.778259,0.480591,down
672375,-7.070312,7.007812,-2.242188,-1.291016,-1.429688,-1.267578,0.407104,-0.034424,0.775085,0.482056,down
672380,-7.070312,7.007812,-2.242188,-1.0625,-1.404297,-1.251953,0.411255,-0.036316,0.772095,0.483154,down
672385,-7.414062,6.929687,-2.203125,-1.0625,-1.404297,-1.251953,0.415283,-0.038025,0.76947,0.483765,down
672390,-7.414062,6.929687,-2.203125,-0.556641,-1.375,-1.246094,0.419495,-0.03949,0.767029,0.483948,down
672396,-7.566406,6.96875,-1.933594,-0.097656,-1.386719,-1.263672,0.419495,-0.03949,0.767029,0.483948,down
672401,-7.601562,7.273437,-1.859375,0.068359,-1.378906,-1.289063,0.419495,-0.03949,0.767029,0.483948,down
672406,-7.71875,7.429687,-1.859375,0.068359,-1.378906,-1.289063,0.436096,-0.04303,0.759888,0.480103,down
672411,-7.839844,7.503906,-1.933594,0.068359,-1.378906,-1.289063,0.44043,-0.043701,0.758484,0.478394,down
672416,-7.835937,7.621094,-2.011719,0.136719,-1.378906,-1.328125,0.445068,-0.044495,0.756836,0.476562,down
672421,-7.757812,7.882812,-2.203125,0.136719,-1.378906,-1.328125,0.449402,-0.045288,0.755188,0.475098,down
672426,-7.644531,8.042969,-2.242188,0.136719,-1.378906,-1.328125,0.453003,-0.046082,0.753601,0.47406,down
672431,-7.644531,8.003906,-2.203125,-0.400391,-1.322266,-1.294922,0.457458,-0.047424,0.751343,0.473206,down
672437,-7.453125,7.960937,-2.050781,-0.400391,-1.322266,-1.294922,0.461426,-0.04895,0.749084,0.472839,down
672442,-7.53125,7.503906,-1.972656,-0.400391,-1.322266,-1.294922,0.464722,-0.050537,0.746948,0.472839,down
672447,-7.5625,7.199219,-1.898438,-1.003906,-1.091797,-1.296875,0.464722,-0.050537,0.746948,0.472839,down
672452,-7.640625,6.96875,-1.742188,-1.123047,-1.044922,-1.310547,0.464722,-0.050537,0.746948,0.472839,down
672459,-7.679687,6.664062,-1.359375,-1.222656,-1.001953,-1.330078,0.464722,-0.050537,0.746948,0.472839,down
672465,-7.722656,6.472656,-1.246094,-1.257813,-0.972656,-1.335938,0.464722,-0.050537,0.746948,0.472839,down
672470,-7.800781,6.316406,-1.054688,-1.271484,-0.962891,-1.339844,0.464722,-0.050537,0.746948,0.472839,down
672475,-7.957031,6.125,-0.671875,-1.271484,-0.962891,-1.339844,0.48468,-0.066284,0.730103,0.477112,down
672480,-7.957031,6.125,-0.671875,-1.271484,-0.962891,-1.339844,0.491028,-0.071655,0.724487,0.478455,down
672485,-8.144531,6.242187,-0.441406,-1.271484,-0.962891,-1.339844,0.491028,-0.071655,0.724487,0.478455,down
672490,-8.144531,6.242187,-0.441406,-0.984375,-1.068359,-1.322266,0.494507,-0.074219,0.721558,0.478882,down
672495,-8.371094,6.355469,-0.328125,-0.890625,-1.121094,-1.300781,0.497742,-0.076294,0.718933,0.479126,down
672500,-8.371094,6.355469,-0.328125,-0.830078,-1.177734,-1.285156,0.50116,-0.078308,0.716248,0.479309,down
672506,-8.335938,6.316406,-0.328125,-0.830078,-1.177734,-1.285156,0.504761,-0.0802,0.71344,0.47937,down
672512,-8.339844,6.277344,-0.210937,-0.761719,-1.289063,-1.234375,0.511902,-0.083435,0.707886,0.479431,down
672518,-8.261719,6.203125,-0.210937,-0.761719,-1.289063,-1.234375,0.515625,-0.085022,0.704956,0.479553,down
672524,-8.339844,6.085937,-0.210937,-0.837891,-1.335938,-1.185547,0.515625,-0.085022,0.704956,0.479553,down
672529,-8.296875,6.011719,-0.171875,-0.896484,-1.332031,-1.183594,0.515625,-0.085022,0.704956,0.479553,down
672534,-8.222656,5.933594,-0.058594,-0.896484,-1.332031,-1.183594,0.515625,-0.085022,0.704956,0.479553,down
672540,-8.140625,5.933594,-0.058594,-1.126953,-1.244141,-1.164063,0.515625,-0.085022,0.704956,0.479553,down
672545,-8.179688,5.894531,-0.058594,-1.126953,-1.244141,-1.164063,0.536438,-0.095825,0.685913,0.482239,down
672550,-8.144531,5.820312,-0.019531,-1.236328,-1.146484,-1.162109,0.536438,-0.095825,0.685913,0.482239,down
672556,-8.179688,5.703125,0.09375,-1.253906,-1.095703,-1.171875,0.53949,-0.098022,0.682678,0.483032,down
672561,-8.296875,5.628906,0.171875,-1.253906,-1.095703,-1.171875,0.545715,-0.102905,0.675781,0.48468,down
672566,-8.296875,5.550781,0.25,-1.236328,-1.023438,-1.208984,0.548706,-0.105469,0.672424,0.485413,down
672572,-8.523438,5.320312,0.515625,-1.236328,-1.023438,-1.208984,0.551331,-0.107727,0.669495,0.486023,down
672578,-8.640625,5.359375,0.707031,-1.201172,-1.005859,-1.265625,0.551331,-0.107727,0.669495,0.486023,down
672583,-8.722656,5.398437,0.9375,-1.158203,-1.046875,-1.292969,0.551331,-0.107727,0.669495,0.486023,down
672588,-8.90625,5.894531,1.128906,-1.158203,-1.046875,-1.292969,0.560181,-0.115295,0.65979,0.487427,down
672594,-8.910156,6.085937,1.242188,-1.111328,-1.191406,-1.267578,0.560181,-0.115295,0.65979,0.487427,down
672599,-8.90625,6.316406,1.359375,-1.105469,-1.314453,-1.183594,0.560181,-0.115295,0.65979,0.487427,down
672604,-8.867188,6.472656,1.398438,-1.105469,-1.314453,-1.183594,0.569946,-0.12146,0.64917,0.488892,down
672609,-8.871094,6.472656,1.472656,-1.105469,-1.314453,-1.183594,0.569946,-0.12146,0.64917,0.488892,down
672614,-8.828125,6.507812,1.589844,-1.210938,-1.509766,-0.869141,0.576111,-0.124023,0.641418,0.491211,down
672620,-8.828125,6.507812,1.589844,-1.447266,-1.640625,-0.541016,0.578979,-0.125,0.637207,0.493042,down
672625,-8.5625,6.277344,1.742188,-1.447266,-1.640625,-0.541016,0.578979,-0.125,0.637207,0.493042,down
672630,-8.335938,6.050781,1.703125,-1.626953,-1.664063,-0.427734,0.584351,-0.127075,0.627991,0.498047,down
672636,-8.257813,5.742187,1.78125,-2.121094,-1.660156,-0.330078,0.589172,-0.13031,0.617187,0.504944,down
672642,-8.105469,4.824219,2.046875,-2.121094,-1.660156,-0.330078,0.591187,-0.132324,0.611938,0.508484,down
672647,-8.105469,4.824219,2.046875,-2.869141,-1.611328,-0.441406,0.593323,-0.13501,0.605713,0.512695,down
672653,-8.140625,3.941406,2.011719,-2.869141,-1.611328,-0.441406,0.595276,-0.138062,0.599426,0.516968,down
672658,-8.023438,2.945313,1.972656,-3.253906,-1.519531,-0.583984,0.595276,-0.138062,0.599426,0.516968,down
672663,-7.953125,2.792969,2.046875,-3.294922,-1.486328,-0.644531,0.595276,-0.138062,0.599426,0.516968,down
672669,-7.953125,2.679688,2.164063,-3.214844,-1.472656,-0.6875,0.595276,-0.138062,0.599426,0.516968,down
672674,-7.875,2.371094,2.316406,-3.070313,-1.443359,-0.707031,0.595276,-0.138062,0.599426,0.516968,down
672680,-7.988281,2.371094,2.355469,-2.472656,-1.326172,-0.634766,0.595276,-0.138062,0.599426,0.516968,down
672685,-8.144531,2.5625,2.46875,-2.472656,-1.326172,-0.634766,0.606262,-0.159851,0.560364,0.541138,down
672690,-8.144531,2.5625,2.46875,-2.058594,-1.279297,-0.564453,0.608032,-0.162476,0.554932,0.544006,down
672695,-8.300781,2.832031,2.585938,-1.603516,-1.222656,-0.507812,0.608032,-0.162476,0.554932,0.544006,down
672700,-8.300781,2.832031,2.585938,-1.148438,-1.128906,-0.496094,0.61145,-0.165466,0.546509,0.547791,down
672705,-8.679688,3.597656,2.890625,-1.148438,-1.128906,-0.496094,0.613281,-0.166077,0.543213,0.548767,down
672710,-8.679688,3.597656,2.890625,-0.429687,-1.039063,-0.492187,0.615112,-0.166199,0.540649,0.549255,down
672716,-8.722656,4.632812,3.007813,-0.201172,-1.013672,-0.474609,0.619019,-0.165344,0.536499,0.549194,down
672721,-8.605469,4.863281,3.007813,0.033203,-0.951172,-0.435547,0.619019,-0.165344,0.536499,0.549194,down
672726,-8.523438,4.976562,3.082031,0.033203,-0.951172,-0.435547,0.622742,-0.16394,0.533203,0.548645,down
672731,-8.566406,4.898437,3.425781,0.033203,-0.951172,-0.435547,0.624512,-0.163269,0.531494,0.548462,down
672736,-8.601563,4.785156,3.65625,0.033203,-0.951172,-0.435547,0.626221,-0.162903,0.52948,0.548584,down
672741,-8.683594,4.554687,3.964844,0.033203,-0.951172,-0.435547,0.626221,-0.162903,0.52948,0.548584,down
672746,-8.640625,4.289062,4.003906,-1.009766,-0.742187,-0.314453,0.626221,-0.162903,0.52948,0.548584,down
672751,-8.722656,3.867188,4.003906,-1.009766,-0.742187,-0.314453,0.629456,-0.164856,0.522278,0.551208,down
672756,-8.644531,3.636719,4.003906,-1.365234,-0.712891,-0.298828,0.629456,-0.164856,0.522278,0.551208,down
672761,-8.644531,3.445313,4.003906,-1.402344,-0.708984,-0.306641,0.630371,-0.166504,0.518921,0.552856,down
672766,-8.488281,3.292969,4.003906,-1.402344,-0.708984,-0.306641,0.631836,-0.169617,0.512695,0.555969,down
672771,-8.410156,3.214844,4.003906,-1.402344,-0.708984,-0.306641,0.632568,-0.171082,0.509827,0.557373,down
672776,-8.21875,3.101563,3.964844,-1.402344,-0.708984,-0.306641,0.632568,-0.171082,0.509827,0.557373,down
672781,-8.183594,3.0625,3.964844,-1.042969,-0.636719,-0.300781,0.634155,-0.17334,0.504639,0.559631,down
672786,-8.222656,3.253906,3.925781,-1.042969,-0.636719,-0.300781,0.634155,-0.17334,0.504639,0.559631,down
672791,-8.257813,3.519531,3.925781,-0.486328,-0.591797,-0.285156,0.635986,-0.174011,0.50116,0.560425,down
672796,-8.222656,3.558594,3.964844,-0.042969,-0.541016,-0.300781,0.635986,-0.174011,0.50116,0.560425,down
672801,-8.183594,3.867188,4.039062,-0.042969,-0.541016,-0.300781,0.637146,-0.173828,0.499817,0.560364,down
672806,-8.179688,3.902344,4.003906,-0.042969,-0.541016,-0.300781,0.639282,-0.172974,0.498108,0.559753,down
672811,-8.105469,3.941406,4.039062,0.052734,-0.478516,-0.271484,0.639282,-0.172974,0.498108,0.559753,down
672816,-8.027344,3.902344,4.039062,-0.039063,-0.453125,-0.253906,0.640442,-0.172485,0.497192,0.559387,down
672822,-7.914062,3.675781,4.195312,-0.039063,-0.453125,-0.253906,0.642151,-0.171997,0.495422,0.559082,down
672828,-7.984375,3.253906,4.347656,-0.039063,-0.453125,-0.253906,0.642761,-0.172119,0.494385,0.559265,down
672834,-7.984375,3.023438,4.308594,-0.517578,-0.324219,-0.179687,0.642761,-0.172119,0.494385,0.559265,down
672840,-7.953125,2.753906,4.308594,-0.638672,-0.289063,-0.183594,0.642761,-0.172119,0.494385,0.559265,down
672845,-7.957031,2.714844,4.386719,-0.695312,-0.279297,-0.189453,0.642761,-0.172119,0.494385,0.559265,down
672850,-7.953125,2.792969,4.308594,-0.679687,-0.253906,-0.199219,0.642761,-0.172119,0.494385,0.559265,down
672856,-7.953125,2.90625,4.195312,-0.607422,-0.230469,-0.193359,0.642761,-0.172119,0.494385,0.559265,down
672861,-7.984375,2.945313,4.230469,-0.607422,-0.230469,-0.193359,0.645264,-0.177551,0.485291,0.562683,down
672866,-8.0625,3.0625,4.230469,-0.070312,-0.195312,-0.164062,0.645264,-0.177551,0.485291,0.562683,down
672871,-8.140625,3.136719,4.308594,0.107422,-0.208984,-0.160156,0.64563,-0.177734,0.48468,0.562683,down
672877,-8.21875,3.484375,4.5,0.107422,-0.208984,-0.160156,0.646667,-0.177307,0.484131,0.562134,down
672882,-8.261719,3.597656,4.460937,0.269531,-0.216797,-0.171875,0.647339,-0.176758,0.48407,0.561584,down
672888,-8.21875,3.675781,4.539062,0.269531,-0.216797,-0.171875,0.647888,-0.17627,0.484009,0.561157,down
672895,-8.183594,3.710938,4.578125,0.269531,-0.216797,-0.171875,0.64856,-0.17572,0.483826,0.56073,down
672901,-8.066406,3.558594,4.691406,0.269531,-0.216797,-0.171875,0.64856,-0.17572,0.483826,0.56073,down
672906,-7.988281,3.484375,4.691406,-0.203125,-0.248047,-0.052734,0.64856,-0.17572,0.483826,0.56073,down
672911,-7.835937,3.292969,4.613281,-0.203125,-0.248047,-0.052734,0.649902,-0.174927,0.482605,0.560425,down
672916,-7.722656,3.175781,4.578125,-0.203125,-0.248047,-0.052734,0.650146,-0.17511,0.48175,0.560852,down
672921,-7.722656,3.023438,4.539062,-0.589844,-0.123047,0.064453,0.650146,-0.17511,0.48175,0.560852,down
672926,-7.683594,2.871094,4.460937,-0.589844,-0.123047,0.064453,0.650085,-0.176208,0.479797,0.562256,down
672932,-7.640625,2.601563,4.386719,-0.589844,-0.123047,0.064453,0.649475,-0.177612,0.478088,0.563965,down
672937,-7.683594,2.449219,4.421875,-0.445312,0.029297,0.125,0.649048,-0.178345,0.477356,0.564819,down
672943,-7.683594,2.296875,4.421875,-0.445312,0.029297,0.125,0.648621,-0.178894,0.47699,0.565491,down
672948,-7.679687,2.257813,4.386719,-0.095703,0.109375,0.117188,0.648315,-0.179138,0.476929,0.565796,down
672953,-7.679687,2.332031,4.347656,-0.095703,0.109375,0.117188,0.64801,-0.179199,0.477173,0.565918,down
672960,-7.757812,2.296875,4.421875,0.308594,0.199219,0.085937,0.64801,-0.179199,0.477173,0.565918,down
672965,-7.839844,2.257813,4.421875,0.492187,0.228516,0.074219,0.64801,-0.179199,0.477173,0.565918,down
672971,-7.914062,2.332031,4.613281,0.492187,0.228516,0.074219,0.6474,-0.177185,0.481323,0.563782,down
672976,-7.875,2.488281,4.613281,0.492187,0.228516,0.074219,0.6474,-0.177185,0.481323,0.563782,down
672981,-7.953125,2.601563,4.613281,0.753906,0.269531,-0.003906,0.6474,-0.175476,0.484314,0.561707,down
672986,-7.957031,2.90625,4.613281,0.753906,0.269531,-0.003906,0.6474,-0.174744,0.485779,0.560669,down
672991,-7.984375,3.023438,4.652344,0.753906,0.269531,-0.003906,0.6474,-0.174072,0.487244,0.559631,down
672996,-8.023438,3.136719,4.652344,0.753906,0.269531,-0.003906,0.6474,-0.174072,0.487244,0.559631,down
673002,-8.101563,3.292969,4.691406,0.607422,0.283203,-0.017578,0.6474,-0.174072,0.487244,0.559631,down
673008,-8.101563,3.292969,4.691406,0.607422,0.283203,-0.017578,0.647095,-0.172546,0.490967,0.557129,down
673013,-8.140625,3.445313,4.769531,0.330078,0.236328,0.005859,0.646973,-0.172241,0.492004,0.556519,down
673019,-8.144531,3.367188,4.652344,0.242187,0.224609,0.017578,0.646973,-0.172241,0.492004,0.556519,down
673024,-8.144531,3.367188,4.652344,0.169922,0.199219,0.03125,0.646545,-0.172058,0.493347,0.555786,down
673029,-8.144531,3.367188,4.613281,0.169922,0.199219,0.03125,0.646362,-0.172058,0.493896,0.555603,down
673034,-8.105469,3.292969,4.613281,0.050781,0.154297,0.054687,0.646362,-0.172058,0.493896,0.555603,down
673039,-8.066406,3.292969,4.613281,0.003906,0.144531,0.072266,0.646362,-0.172058,0.493896,0.555603,down
673044,-8.105469,3.101563,4.539062,0.003906,0.144531,0.072266,0.646362,-0.172058,0.493896,0.555603,down
673050,-8.105469,3.0625,4.578125,-0.072266,0.132812,0.101563,0.646362,-0.172058,0.493896,0.555603,down
673055,-8.101563,2.984375,4.578125,-0.107422,0.132812,0.115234,0.646362,-0.172058,0.493896,0.555603,down
673061,-8.105469,2.792969,4.539062,-0.107422,0.132812,0.115234,0.644104,-0.173157,0.495422,0.556519,down
673066,-8.105469,2.753906,4.539062,-0.107422,0.132812,0.115234,0.644104,-0.173157,0.495422,0.556519,down
673071,-8.066406,2.753906,4.539062,-0.083984,0.128906,0.105469,0.643433,-0.173523,0.495728,0.556885,down
673076,-8.066406,2.753906,4.5,-0.083984,0.128906,0.105469,0.643433,-0.173523,0.495728,0.556885,down
673081,-8.066406,2.792969,4.460937,0.041016,0.132812,0.082031,0.643127,-0.173645,0.495911,0.557007,down
673086,-8.066406,2.832031,4.539062,0.041016,0.132812,0.082031,0.642883,-0.173706,0.496216,0.557068,down
673091,-8.105469,2.871094,4.5,0.041016,0.132812,0.082031,0.642639,-0.173706,0.496521,0.557068,down
673096,-8.101563,2.90625,4.539062,0.041016,0.132812,0.082031,0.642212,-0.173462,0.497375,0.556824,down
673101,-8.144531,2.90625,4.539062,0.041016,0.132812,0.082031,0.642212,-0.173462,0.497375,0.556824,down
673106,-8.105469,2.945313,4.578125,0.164062,0.121094,0.046875,0.642212,-0.173462,0.497375,0.556824,down
673111,-8.140625,3.0625,4.539062,0.164062,0.121094,0.046875,0.641907,-0.173096,0.498291,0.556519,down
673116,-8.105469,3.101563,4.578125,0.164062,0.121094,0.046875,0.641724,-0.172974,0.498779,0.556335,down
