timestamp,ax,ay,az,gx,gy,gz,qw,qx,qy,qz,label
466247,7.574219,5.796875,-2.742188,-0.007813,-0.177734,-0.298828,0.374451,-0.184631,-0.769043,-0.484009,down
466252,7.570312,5.910156,-2.742188,-0.007813,-0.177734,-0.298828,0.372925,-0.183838,-0.769714,-0.484436,down
466257,7.613281,5.875,-2.777344,-0.007813,-0.177734,-0.298828,0.372314,-0.183411,-0.769958,-0.484619,down
466262,7.613281,5.875,-2.664063,0.048828,-0.109375,-0.285156,0.372314,-0.183411,-0.769958,-0.484619,down
466268,7.613281,5.910156,-2.550781,0.048828,-0.109375,-0.285156,0.371155,-0.182434,-0.770569,-0.484924,down
466273,7.613281,5.910156,-2.550781,0.041016,-0.121094,-0.291016,0.370544,-0.182007,-0.770874,-0.485046,down
466278,7.574219,5.988281,-2.472656,0.027344,-0.132812,-0.291016,0.369873,-0.181458,-0.77124,-0.485229,down
466284,7.496094,6.027344,-2.359375,0.027344,-0.132812,-0.291016,0.369263,-0.181091,-0.771484,-0.485413,down
466290,7.457031,6.066406,-2.320313,-0.013672,-0.179687,-0.277344,0.369263,-0.181091,-0.771484,-0.485413,down
466295,7.414062,6.027344,-2.320313,-0.029297,-0.177734,-0.271484,0.369263,-0.181091,-0.771484,-0.485413,down
466300,7.414062,5.949219,-2.28125,-0.044922,-0.175781,-0.267578,0.369263,-0.181091,-0.771484,-0.485413,down
466306,7.414062,5.796875,-2.28125,-0.044922,-0.175781,-0.267578,0.369263,-0.181091,-0.771484,-0.485413,down
466311,7.382812,5.757812,-2.242188,-0.042969,-0.201172,-0.259766,0.369263,-0.181091,-0.771484,-0.485413,down
466317,7.386719,5.875,-2.320313,-0.056641,-0.191406,-0.25,0.364197,-0.179138,-0.773254,-0.487183,down
466322,7.347656,5.875,-2.320313,-0.056641,-0.191406,-0.25,0.363403,-0.178955,-0.773499,-0.487427,down
466327,7.34375,5.910156,-2.359375,-0.042969,-0.181641,-0.203125,0.363403,-0.178955,-0.773499,-0.487427,down
466332,7.308594,5.875,-2.433594,-0.042969,-0.181641,-0.203125,0.362183,-0.17865,-0.773926,-0.487854,down
466337,7.308594,5.875,-2.433594,-0.042969,-0.181641,-0.203125,0.361633,-0.178467,-0.774109,-0.488037,down
466342,7.304687,5.910156,-2.472656,0.009766,-0.103516,-0.164062,0.361633,-0.178467,-0.774109,-0.488037,down
466347,7.265625,5.835937,-2.472656,0.009766,-0.103516,-0.164062,0.361084,-0.178284,-0.774292,-0.488159,down
466352,7.269531,5.796875,-2.472656,0.064453,-0.078125,-0.152344,0.361084,-0.178284,-0.774292,-0.488159,down
466357,7.230469,5.796875,-2.394531,0.064453,-0.078125,-0.152344,0.360046,-0.17749,-0.774902,-0.48822,down
466362,7.226562,5.910156,-2.359375,0.064453,-0.078125,-0.152344,0.359802,-0.177063,-0.775269,-0.488037,down
466367,7.1875,5.949219,-2.320313,0.181641,-0.056641,-0.154297,0.359802,-0.177063,-0.775269,-0.488037,down
466372,7.191406,5.949219,-2.359375,0.199219,-0.083984,-0.150391,0.359558,-0.176697,-0.775574,-0.487854,down
466377,7.226562,6.027344,-2.28125,0.199219,-0.083984,-0.150391,0.359009,-0.175964,-0.776306,-0.487305,down
466382,7.148437,6.066406,-2.28125,0.208984,-0.103516,-0.142578,0.359009,-0.175964,-0.776306,-0.487305,down
466387,7.1875,6.101562,-2.28125,0.201172,-0.09375,-0.146484,0.358704,-0.175537,-0.776794,-0.487,down
466392,7.148437,6.066406,-2.28125,0.201172,-0.09375,-0.146484,0.358398,-0.175171,-0.777161,-0.486694,down
466398,7.109375,6.140625,-2.359375,0.201172,-0.09375,-0.146484,0.357727,-0.1745,-0.777954,-0.486206,down
466403,7.191406,6.21875,-2.472656,0.115234,-0.146484,-0.167969,0.357239,-0.174194,-0.77832,-0.486023,down
466408,7.191406,6.257812,-2.472656,0.115234,-0.146484,-0.167969,0.356689,-0.173889,-0.778687,-0.485962,down
466413,7.148437,6.292969,-2.511719,0.115234,-0.146484,-0.167969,0.356201,-0.173706,-0.778931,-0.485962,down
466419,7.1875,6.332031,-2.585938,0.115234,-0.146484,-0.167969,0.355591,-0.173462,-0.779236,-0.486084,down
466424,7.113281,6.257812,-2.664063,-0.068359,-0.130859,-0.195312,0.355042,-0.173279,-0.779358,-0.486328,down
466430,7.152344,6.257812,-2.664063,-0.068359,-0.130859,-0.195312,0.354431,-0.173096,-0.77948,-0.486633,down
466435,7.113281,6.292969,-2.585938,-0.144531,-0.152344,-0.222656,0.354431,-0.173096,-0.77948,-0.486633,down
466441,7.070312,6.257812,-2.585938,-0.144531,-0.166016,-0.230469,0.354431,-0.173096,-0.77948,-0.486633,down
466447,7.113281,6.140625,-2.472656,-0.150391,-0.166016,-0.238281,0.354431,-0.173096,-0.77948,-0.486633,down
466452,7.074219,6.066406,-2.394531,-0.162109,-0.162109,-0.234375,0.351624,-0.172424,-0.779785,-0.488403,down
466457,7.070312,5.988281,-2.359375,-0.162109,-0.162109,-0.234375,0.350159,-0.172119,-0.779907,-0.48938,down
466462,7.03125,5.949219,-2.359375,-0.162109,-0.162109,-0.234375,0.350159,-0.172119,-0.779907,-0.48938,down
466467,7.0,5.988281,-2.359375,-0.162109,-0.162109,-0.234375,0.349426,-0.171936,-0.779968,-0.489868,down
466472,6.960937,5.949219,-2.320313,-0.162109,-0.162109,-0.234375,0.348694,-0.171753,-0.78009,-0.490234,down
466478,6.964844,5.988281,-2.320313,-0.097656,-0.175781,-0.222656,0.347351,-0.171387,-0.780334,-0.490967,down
466484,6.882812,5.988281,-2.242188,-0.097656,-0.175781,-0.222656,0.346741,-0.171204,-0.780518,-0.491211,down
466489,6.886719,5.949219,-2.28125,-0.074219,-0.164062,-0.197266,0.346069,-0.171021,-0.78064,-0.491516,down
466494,6.882812,5.988281,-2.242188,-0.048828,-0.173828,-0.183594,0.345459,-0.170898,-0.780823,-0.49176,down
466499,6.886719,6.027344,-2.320313,-0.048828,-0.173828,-0.183594,0.344727,-0.170715,-0.781006,-0.491943,down
466504,6.882812,6.027344,-2.359375,-0.048828,-0.173828,-0.183594,0.344727,-0.170715,-0.781006,-0.491943,down
466510,6.886719,6.066406,-2.359375,-0.019531,-0.179687,-0.179687,0.344727,-0.170715,-0.781006,-0.491943,down
466515,6.84375,6.027344,-2.394531,-0.011719,-0.185547,-0.173828,0.344727,-0.170715,-0.781006,-0.491943,down
466520,6.84375,6.21875,-2.359375,-0.011719,-0.185547,-0.173828,0.344727,-0.170715,-0.781006,-0.491943,down
466526,6.84375,6.21875,-2.394531,-0.011719,-0.185547,-0.173828,0.341675,-0.170105,-0.782104,-0.492615,down
466531,6.925781,6.257812,-2.433594,0.003906,-0.224609,-0.136719,0.341675,-0.170105,-0.782104,-0.492615,down
466536,6.921875,6.332031,-2.472656,0.001953,-0.21875,-0.123047,0.341675,-0.170105,-0.782104,-0.492615,down
466541,6.925781,6.257812,-2.703125,0.001953,-0.21875,-0.123047,0.341675,-0.170105,-0.782104,-0.492615,down
466546,7.0,6.257812,-2.742188,0.001953,-0.21875,-0.123047,0.339233,-0.170105,-0.783081,-0.492737,down
466551,7.0,6.257812,-2.664063,-0.009766,-0.275391,-0.09375,0.339233,-0.170105,-0.783081,-0.492737,down
466557,7.0,6.257812,-2.742188,-0.011719,-0.277344,-0.09375,0.339233,-0.170105,-0.783081,-0.492737,down
466562,7.003906,6.292969,-2.816406,-0.011719,-0.277344,-0.09375,0.337219,-0.170532,-0.783813,-0.492798,down
466568,7.003906,6.292969,-2.855469,-0.025391,-0.261719,-0.09375,0.335815,-0.170837,-0.784302,-0.492859,down
466573,6.960937,6.257812,-2.933594,-0.060547,-0.25,-0.078125,0.335144,-0.170959,-0.784485,-0.492981,down
466578,7.0,6.292969,-2.933594,-0.060547,-0.25,-0.078125,0.334595,-0.171143,-0.784607,-0.493042,down
466583,7.003906,6.179687,-2.933594,-0.058594,-0.216797,-0.087891,0.333923,-0.171326,-0.78479,-0.493164,down
466588,6.964844,6.101562,-2.816406,-0.058594,-0.216797,-0.087891,0.333923,-0.171326,-0.78479,-0.493164,down
466593,6.960937,6.066406,-2.855469,-0.066406,-0.177734,-0.111328,0.333374,-0.171387,-0.784973,-0.493286,down
466599,6.921875,6.066406,-2.742188,-0.066406,-0.177734,-0.111328,0.332336,-0.171509,-0.785156,-0.493591,down
466604,6.886719,6.066406,-2.664063,-0.058594,-0.15625,-0.128906,0.332336,-0.171509,-0.785156,-0.493591,down
466610,6.847656,6.066406,-2.585938,-0.058594,-0.15625,-0.128906,0.331299,-0.171448,-0.7854,-0.493958,down
466615,6.84375,6.027344,-2.550781,-0.060547,-0.169922,-0.130859,0.33075,-0.171448,-0.785522,-0.49408,down
466621,6.847656,6.066406,-2.550781,-0.058594,-0.181641,-0.126953,0.33075,-0.171448,-0.785522,-0.49408,down
466627,6.882812,6.027344,-2.550781,-0.054687,-0.175781,-0.121094,0.33075,-0.171448,-0.785522,-0.49408,down
466632,6.882812,6.027344,-2.585938,-0.054687,-0.175781,-0.121094,0.329163,-0.171448,-0.78595,-0.494568,down
466638,6.84375,5.988281,-2.585938,-0.021484,-0.197266,-0.089844,0.329163,-0.171448,-0.78595,-0.494568,down
466643,6.925781,6.101562,-2.625,-0.021484,-0.197266,-0.089844,0.328125,-0.171509,-0.786255,-0.494751,down
466649,6.882812,6.21875,-2.703125,-0.021484,-0.197266,-0.089844,0.327087,-0.171692,-0.786621,-0.494751,down
466655,6.882812,6.292969,-2.777344,-0.001953,-0.207031,-0.056641,0.326599,-0.171814,-0.786804,-0.494751,down
466662,6.921875,6.292969,-2.855469,0.005859,-0.220703,-0.035156,0.326599,-0.171814,-0.786804,-0.494751,down
466668,6.921875,6.292969,-2.855469,0.033203,-0.236328,-0.029297,0.325073,-0.172363,-0.787476,-0.494446,down
466673,6.964844,6.257812,-2.855469,0.033203,-0.236328,-0.029297,0.325073,-0.172363,-0.787476,-0.494446,down
466678,6.960937,6.292969,-2.933594,0.058594,-0.230469,-0.011719,0.324158,-0.172729,-0.788025,-0.49408,down
466683,6.882812,6.140625,-2.972656,0.058594,-0.230469,-0.011719,0.323792,-0.172913,-0.788269,-0.493896,down
466688,6.886719,6.140625,-3.007813,0.052734,-0.183594,-0.015625,0.323792,-0.172913,-0.788269,-0.493896,down
466693,6.882812,6.179687,-2.972656,0.052734,-0.183594,-0.015625,0.323059,-0.173218,-0.788696,-0.493591,down
466698,6.882812,6.179687,-2.972656,0.052734,-0.183594,-0.015625,0.322693,-0.173279,-0.788879,-0.493469,down
466703,6.84375,6.21875,-2.933594,0.052734,-0.183594,-0.015625,0.322388,-0.17334,-0.789062,-0.493408,down
466708,6.84375,6.257812,-2.933594,0.052734,-0.183594,-0.015625,0.322388,-0.17334,-0.789062,-0.493408,down
466713,6.808594,6.292969,-2.933594,0.003906,-0.136719,-0.054687,0.322388,-0.17334,-0.789062,-0.493408,down
466718,6.808594,6.292969,-2.777344,0.003906,-0.136719,-0.054687,0.321716,-0.173462,-0.789307,-0.493286,down
466723,6.769531,6.292969,-2.777344,-0.037109,-0.136719,-0.054687,0.32135,-0.173584,-0.78949,-0.493286,down
466728,6.769531,6.21875,-2.742188,-0.037109,-0.136719,-0.054687,0.320984,-0.173645,-0.789551,-0.493347,down
466733,6.769531,6.21875,-2.777344,-0.0625,-0.144531,-0.048828,0.320618,-0.173706,-0.789673,-0.493469,down
466739,6.804687,6.257812,-2.816406,-0.0625,-0.144531,-0.048828,0.319824,-0.173889,-0.789734,-0.493713,down
466745,6.84375,6.371094,-2.933594,-0.0625,-0.144531,-0.048828,0.319397,-0.174011,-0.789795,-0.493835,down
466751,6.84375,6.410156,-2.933594,-0.089844,-0.167969,-0.042969,0.319397,-0.174011,-0.789795,-0.493835,down
466756,6.921875,6.484375,-3.085938,-0.089844,-0.167969,-0.042969,0.318542,-0.174377,-0.789917,-0.494141,down
466761,6.847656,6.523437,-3.164063,-0.099609,-0.166016,-0.03125,0.318542,-0.174377,-0.789917,-0.494141,down
466766,6.886719,6.523437,-3.164063,-0.109375,-0.154297,-0.033203,0.318542,-0.174377,-0.789917,-0.494141,down
466772,6.925781,6.5625,-3.277344,-0.109375,-0.154297,-0.033203,0.317261,-0.174927,-0.789917,-0.494751,down
466778,6.886719,6.410156,-3.355469,-0.109375,-0.154297,-0.033203,0.316528,-0.175354,-0.789856,-0.495117,down
466783,6.925781,6.449219,-3.316406,-0.109375,-0.154297,-0.033203,0.316528,-0.175354,-0.789856,-0.495117,down
466788,6.925781,6.484375,-3.199219,-0.082031,-0.119141,0.005859,0.315979,-0.17572,-0.789856,-0.495361,down
466794,6.886719,6.484375,-3.164063,-0.03125,-0.087891,0.039063,0.315796,-0.175903,-0.789856,-0.495361,down
466799,6.84375,6.410156,-3.085938,-0.029297,-0.070312,0.050781,0.315674,-0.176147,-0.789917,-0.495422,down
466805,6.847656,6.332031,-3.046875,-0.029297,-0.070312,0.050781,0.315552,-0.176331,-0.789917,-0.495361,down
466811,6.769531,6.292969,-2.933594,-0.029297,-0.070312,0.050781,0.315491,-0.176514,-0.789917,-0.4953,down
466817,6.726562,6.332031,-2.933594,0.023437,-0.060547,0.080078,0.315491,-0.176514,-0.789917,-0.4953,down
466823,6.730469,6.292969,-2.855469,0.041016,-0.060547,0.095703,0.31543,-0.177124,-0.790039,-0.494934,down
466828,6.730469,6.292969,-2.855469,0.041016,-0.060547,0.095703,0.31543,-0.177368,-0.7901,-0.49469,down
466833,6.691406,6.257812,-2.816406,0.041016,-0.060547,0.095703,0.31543,-0.177551,-0.790222,-0.494507,down
466838,6.691406,6.257812,-2.816406,0.041016,-0.060547,0.095703,0.31543,-0.177551,-0.790222,-0.494507,down
466843,6.6875,6.257812,-2.777344,0.0625,-0.070312,0.09375,0.31543,-0.177917,-0.790405,-0.49408,down
466848,6.691406,6.179687,-2.742188,0.0625,-0.070312,0.09375,0.31543,-0.177917,-0.790405,-0.49408,down
466853,6.648437,6.179687,-2.703125,0.025391,-0.066406,0.072266,0.315369,-0.178162,-0.790466,-0.493896,down
466858,6.648437,6.140625,-2.703125,0.025391,-0.066406,0.072266,0.315369,-0.178345,-0.790527,-0.493774,down
466863,6.648437,6.140625,-2.703125,0.007813,-0.072266,0.070312,0.315369,-0.178345,-0.790527,-0.493774,down
466868,6.613281,6.101562,-2.664063,0.007813,-0.072266,0.070312,0.315186,-0.178711,-0.790588,-0.493652,down
466873,6.613281,6.101562,-2.664063,0.007813,-0.072266,0.070312,0.315063,-0.179016,-0.790588,-0.493591,down
466878,6.582031,6.066406,-2.703125,-0.044922,-0.097656,0.054687,0.315063,-0.179016,-0.790588,-0.493591,down
466883,6.582031,6.066406,-2.703125,-0.044922,-0.097656,0.054687,0.314636,-0.179749,-0.790527,-0.493713,down
466888,6.613281,6.027344,-2.703125,-0.044922,-0.097656,0.054687,0.314636,-0.179749,-0.790527,-0.493713,down
466893,6.652344,6.027344,-2.777344,-0.076172,-0.095703,0.046875,0.314636,-0.179749,-0.790527,-0.493713,down
466898,6.691406,5.988281,-2.816406,-0.076172,-0.095703,0.046875,0.314331,-0.180298,-0.790466,-0.493896,down
466903,6.691406,5.988281,-2.816406,-0.076172,-0.095703,0.046875,0.313965,-0.180786,-0.790344,-0.494019,down
466908,6.691406,5.988281,-2.816406,-0.076172,-0.095703,0.046875,0.313965,-0.180786,-0.790344,-0.494019,down
466913,6.730469,5.988281,-2.855469,-0.046875,-0.076172,0.027344,0.313965,-0.180786,-0.790344,-0.494019,down
466918,6.691406,5.988281,-2.855469,-0.046875,-0.076172,0.027344,0.31366,-0.181213,-0.790344,-0.494141,down
466923,6.6875,5.949219,-2.816406,-0.046875,-0.076172,0.027344,0.313477,-0.181396,-0.790283,-0.494202,down
466929,6.691406,5.949219,-2.777344,-0.023437,-0.070312,0.03125,0.313232,-0.181702,-0.790344,-0.494202,down
466934,6.691406,5.949219,-2.742188,0.013672,-0.076172,0.029297,0.313171,-0.181824,-0.790344,-0.494141,down
466940,6.652344,6.027344,-2.777344,0.013672,-0.076172,0.029297,0.313049,-0.181946,-0.790466,-0.494019,down
466946,6.648437,6.027344,-2.816406,0.046875,-0.09375,0.027344,0.313049,-0.181946,-0.790466,-0.494019,down
466951,6.6875,6.027344,-2.742188,0.052734,-0.107422,0.025391,0.312744,-0.18219,-0.79071,-0.493774,down
466956,6.652344,6.027344,-2.777344,0.052734,-0.107422,0.025391,0.312622,-0.182312,-0.790833,-0.493591,down
466961,6.6875,6.027344,-2.777344,0.072266,-0.119141,0.023437,0.312622,-0.182312,-0.790833,-0.493591,down
466967,6.6875,6.066406,-2.816406,0.070312,-0.128906,0.019531,0.312622,-0.182312,-0.790833,-0.493591,down
466972,6.652344,6.066406,-2.816406,0.070312,-0.128906,0.019531,0.312012,-0.182739,-0.791382,-0.492981,down
466978,6.652344,6.140625,-2.855469,0.070312,-0.128906,0.019531,0.311462,-0.182983,-0.791687,-0.492737,down
466983,6.652344,6.140625,-2.855469,0.070312,-0.128906,0.019531,0.311462,-0.182983,-0.791687,-0.492737,down
466988,6.613281,6.140625,-2.855469,0.003906,-0.160156,-0.03125,0.310791,-0.183228,-0.791931,-0.492615,down
466993,6.613281,6.101562,-2.933594,0.003906,-0.160156,-0.03125,0.310791,-0.183228,-0.791931,-0.492615,down
466998,6.582031,6.027344,-2.855469,0.003906,-0.160156,-0.03125,0.310364,-0.183411,-0.792053,-0.492615,down
467004,6.578125,5.988281,-2.894531,-0.056641,-0.164062,-0.052734,0.309509,-0.183655,-0.792236,-0.492798,down
467009,6.539062,5.910156,-2.894531,-0.056641,-0.164062,-0.052734,0.309143,-0.183777,-0.792297,-0.49292,down
467014,6.539062,5.949219,-2.855469,-0.056641,-0.164062,-0.052734,0.308838,-0.183838,-0.792297,-0.492981,down
467019,6.539062,5.949219,-2.855469,-0.035156,-0.132812,-0.058594,0.308411,-0.18396,-0.792419,-0.493103,down
467024,6.460937,5.910156,-2.742188,-0.035156,-0.132812,-0.058594,0.308411,-0.18396,-0.792419,-0.493103,down
467029,6.460937,5.875,-2.703125,-0.035156,-0.132812,-0.058594,0.3078,-0.184082,-0.792603,-0.493164,down
467034,6.460937,5.875,-2.742188,0.044922,-0.119141,-0.066406,0.3078,-0.184082,-0.792603,-0.493164,down
467039,6.34375,5.835937,-2.703125,0.044922,-0.119141,-0.066406,0.307434,-0.184082,-0.792786,-0.493103,down
467044,6.304687,5.796875,-2.625,0.076172,-0.132812,-0.0625,0.307434,-0.184082,-0.792786,-0.493103,down
467049,6.304687,5.796875,-2.625,0.148437,-0.154297,-0.09375,0.306824,-0.18396,-0.793213,-0.492798,down
467054,6.226562,5.683594,-2.550781,0.183594,-0.160156,-0.103516,0.306458,-0.183899,-0.793518,-0.492493,down
467060,6.117187,5.644531,-2.394531,0.183594,-0.160156,-0.103516,0.305786,-0.183594,-0.79425,-0.491882,down
467066,6.0,5.605469,-2.320313,0.183594,-0.160156,-0.103516,0.305359,-0.18335,-0.794739,-0.491516,down
467071,5.882812,5.527344,-2.242188,0.222656,-0.1875,-0.179687,0.305359,-0.18335,-0.794739,-0.491516,down
467076,5.847656,5.488281,-2.167969,0.201172,-0.193359,-0.208984,0.305359,-0.18335,-0.794739,-0.491516,down
467081,5.695312,5.488281,-2.167969,0.1875,-0.212891,-0.257813,0.305359,-0.18335,-0.794739,-0.491516,down
467087,5.617187,5.527344,-2.050781,0.154297,-0.234375,-0.300781,0.305359,-0.18335,-0.794739,-0.491516,down
467092,5.539062,5.527344,-2.050781,0.125,-0.246094,-0.347656,0.305359,-0.18335,-0.794739,-0.491516,down
467097,5.503906,5.5625,-2.089844,0.082031,-0.257813,-0.40625,0.305359,-0.18335,-0.794739,-0.491516,down
467102,5.390625,5.523437,-2.128906,0.082031,-0.257813,-0.40625,0.305359,-0.18335,-0.794739,-0.491516,down
467108,5.425781,5.605469,-2.089844,0.082031,-0.257813,-0.40625,0.299072,-0.17981,-0.798584,-0.490417,down
467113,5.425781,5.605469,-2.167969,-0.126953,-0.392578,-0.640625,0.299072,-0.17981,-0.798584,-0.490417,down
467118,5.351562,5.644531,-2.167969,-0.126953,-0.392578,-0.640625,0.296143,-0.178467,-0.799438,-0.491272,down
467123,5.3125,5.605469,-2.242188,-0.177734,-0.425781,-0.689453,0.294495,-0.177734,-0.799866,-0.491882,down
467128,5.3125,5.605469,-2.242188,-0.177734,-0.425781,-0.689453,0.294495,-0.177734,-0.799866,-0.491882,down
467133,5.273437,5.601562,-2.28125,-0.279297,-0.496094,-0.791016,0.294495,-0.177734,-0.799866,-0.491882,down
467138,5.273437,5.488281,-2.203125,-0.306641,-0.539062,-0.830078,0.28833,-0.175415,-0.800964,-0.494507,down
467143,5.160156,5.414062,-2.167969,-0.306641,-0.539062,-0.830078,0.286072,-0.174683,-0.801331,-0.495483,down
467148,5.121094,5.414062,-2.128906,-0.306641,-0.539062,-0.830078,0.283691,-0.173889,-0.801697,-0.496521,down
467153,5.082031,5.414062,-2.089844,-0.306641,-0.539062,-0.830078,0.280945,-0.172974,-0.802185,-0.497681,down
467159,4.929687,5.417969,-2.089844,-0.306641,-0.539062,-0.830078,0.275879,-0.171265,-0.803101,-0.499573,down
467164,4.851562,5.566406,-2.050781,-0.306641,-0.539062,-0.830078,0.275879,-0.171265,-0.803101,-0.499573,down
467169,4.777344,5.601562,-2.128906,-0.224609,-0.726562,-1.013672,0.270142,-0.16925,-0.804382,-0.501282,down
467175,4.738281,5.71875,-2.089844,-0.173828,-0.796875,-1.115234,0.267273,-0.168213,-0.805115,-0.502014,down
467180,4.621094,6.105469,-2.433594,-0.173828,-0.796875,-1.115234,0.263794,-0.166931,-0.805969,-0.502869,down
467185,4.585937,6.222656,-2.433594,-0.201172,-0.910156,-1.246094,0.263794,-0.166931,-0.805969,-0.502869,down
467190,4.621094,6.289062,-2.550781,-0.201172,-0.910156,-1.246094,0.25708,-0.164551,-0.807617,-0.504578,down
467196,4.46875,6.371094,-2.816406,-0.201172,-0.910156,-1.246094,0.253296,-0.163269,-0.808411,-0.505615,down
467202,4.46875,6.445312,-2.972656,-0.421875,-1.042969,-1.445313,0.253296,-0.163269,-0.808411,-0.505615,down
467207,4.394531,6.488281,-3.046875,-0.523437,-1.099609,-1.511719,0.253296,-0.163269,-0.808411,-0.505615,down
467213,4.394531,6.714844,-3.316406,-0.523437,-1.099609,-1.511719,0.253296,-0.163269,-0.808411,-0.505615,down
467219,4.394531,6.792969,-3.355469,-0.800781,-1.222656,-1.679688,0.253296,-0.163269,-0.808411,-0.505615,down
467224,4.238281,6.90625,-3.507813,-0.800781,-1.222656,-1.679688,0.231018,-0.156555,-0.811157,-0.513916,down
467229,4.203125,6.945312,-3.699219,-0.800781,-1.222656,-1.679688,0.220276,-0.153442,-0.811646,-0.518799,down
467234,4.046875,7.066406,-3.890625,-1.003906,-1.169922,-1.806641,0.220276,-0.153442,-0.811646,-0.518799,down
467239,3.972656,7.171875,-3.96875,-1.003906,-1.169922,-1.806641,0.216064,-0.1521,-0.811707,-0.520874,down
467244,3.972656,7.40625,-3.929688,-1.003906,-1.169922,-1.806641,0.205322,-0.148865,-0.811646,-0.526184,down
467249,3.933594,7.476562,-3.8125,-1.033203,-1.236328,-1.894531,0.205322,-0.148865,-0.811646,-0.526184,down
467254,3.972656,7.597656,-3.8125,-1.033203,-1.236328,-1.894531,0.19458,-0.145447,-0.811523,-0.531433,down
467259,3.972656,7.597656,-3.8125,-1.033203,-1.236328,-1.894531,0.19458,-0.145447,-0.811523,-0.531433,down
467264,3.703125,7.632812,-4.042969,-1.074219,-1.117188,-1.939453,0.189575,-0.143677,-0.81134,-0.533997,down
467269,3.703125,7.632812,-4.042969,-1.169922,-1.076172,-1.957031,0.184387,-0.141785,-0.811035,-0.536743,down
467275,3.628906,7.515625,-3.96875,-1.169922,-1.076172,-1.957031,0.179016,-0.139709,-0.810547,-0.539856,down
467280,3.550781,7.214844,-3.890625,-1.435547,-0.980469,-1.992188,0.173889,-0.137695,-0.809814,-0.543152,down
467285,3.511719,7.132812,-3.890625,-1.503906,-0.890625,-2.013672,0.163635,-0.13324,-0.8078,-0.550354,down
467291,3.359375,7.175781,-3.660156,-1.503906,-0.890625,-2.013672,0.158691,-0.13092,-0.80658,-0.554199,down
467296,3.28125,7.25,-3.621094,-1.707031,-0.714844,-2.119141,0.153625,-0.128296,-0.805176,-0.558228,down
467302,3.050781,7.480469,-3.546875,-1.707031,-0.714844,-2.119141,0.148804,-0.12561,-0.803711,-0.562195,down
467307,2.976563,7.597656,-3.507813,-1.644531,-0.607422,-2.216797,0.148804,-0.12561,-0.803711,-0.562195,down
467312,2.824219,7.75,-3.46875,-1.5625,-0.591797,-2.271484,0.148804,-0.12561,-0.803711,-0.562195,down
467317,2.667969,7.902344,-3.355469,-1.4375,-0.578125,-2.324219,0.148804,-0.12561,-0.803711,-0.562195,down
467323,2.324219,8.253906,-3.277344,-1.300781,-0.572266,-2.394531,0.148804,-0.12561,-0.803711,-0.562195,down
467328,2.132813,8.480469,-3.199219,-1.300781,-0.572266,-2.394531,0.124146,-0.109314,-0.797546,-0.580139,down
467334,1.75,8.824219,-3.046875,-1.056641,-0.634766,-2.539063,0.124146,-0.109314,-0.797546,-0.580139,down
467339,1.75,8.824219,-3.046875,-1.007813,-0.705078,-2.613281,0.124146,-0.109314,-0.797546,-0.580139,down
467345,1.597656,8.980469,-2.894531,-1.007813,-0.705078,-2.613281,0.113647,-0.101746,-0.796143,-0.585571,down
467350,1.289063,9.207031,-2.664063,-1.015625,-0.859375,-2.771484,0.095947,-0.089844,-0.79425,-0.593201,down
467355,1.289063,9.207031,-2.664063,-1.015625,-0.859375,-2.771484,0.095947,-0.089844,-0.79425,-0.593201,down
467360,0.601562,9.398438,-2.394531,-1.431641,-1.019531,-3.0625,0.095947,-0.089844,-0.79425,-0.593201,down
467365,0.449219,9.359375,-2.320313,-1.431641,-1.019531,-3.0625,0.07489,-0.076843,-0.790527,-0.602966,down
467370,0.21875,9.546875,-2.167969,-1.431641,-1.019531,-3.0625,0.067383,-0.072327,-0.788574,-0.606995,down
467375,0.371094,9.246094,-2.089844,-1.431641,-1.019531,-3.0625,0.060669,-0.06842,-0.786499,-0.610779,down
467380,0.601562,8.746094,-1.746094,-2.384766,-1.291016,-3.462891,0.051575,-0.063293,-0.783386,-0.61615,down
467385,0.484375,8.019531,-1.171875,-2.384766,-1.291016,-3.462891,0.044312,-0.059326,-0.78064,-0.620605,down
467390,-0.28125,8.941406,-1.054688,-2.623047,-1.107422,-3.648438,0.035889,-0.054321,-0.777161,-0.625916,down
467395,-1.160156,9.742188,-2.050781,-2.623047,-1.107422,-3.648438,0.027893,-0.049255,-0.773621,-0.631104,down
467400,-1.238281,9.625,-2.050781,-2.902344,-1.277344,-3.988281,0.018127,-0.043213,-0.769226,-0.637268,down
467405,-0.929687,10.355469,-1.324219,-2.902344,-1.277344,-3.988281,0.008789,-0.037781,-0.765015,-0.642822,down
467410,-1.199219,10.472656,-0.941406,-2.902344,-1.277344,-3.988281,0.000183,0.032776,0.760925,0.64801,down
467415,-1.507813,10.773438,-0.902344,-3.035156,-1.494141,-4.300781,0.011169,0.026611,0.755798,0.654175,down
467420,-1.507813,10.773438,-0.902344,-3.042969,-1.46875,-4.392578,0.020447,0.02124,0.751404,0.65918,down
467425,-2.347656,10.734375,-1.132813,-3.042969,-1.46875,-4.392578,0.020447,0.02124,0.751404,0.65918,down
467430,-2.347656,10.734375,-1.132813,-3.087891,-1.494141,-4.457031,0.030518,0.015259,0.746521,0.66449,down
467436,-2.695313,10.738281,-0.824219,-3.166016,-1.5625,-4.529297,0.030518,0.015259,0.746521,0.66449,down
467441,-2.960938,10.46875,-0.175781,-3.412109,-1.685547,-4.640625,0.062561,-0.002991,0.729797,0.680786,down
467446,-3.152344,10.355469,0.015625,-3.412109,-1.685547,-4.640625,0.073792,-0.009399,0.723328,0.686462,down
467452,-3.421875,10.046875,0.363281,-3.412109,-1.685547,-4.640625,0.084717,-0.015747,0.716675,0.692078,down
467457,-3.613281,9.851563,0.628906,-3.929688,-1.5625,-4.835937,0.095581,-0.022339,0.709473,0.697876,down
467462,-3.917969,9.585938,0.976562,-4.091797,-1.466797,-4.894531,0.095581,-0.022339,0.709473,0.697876,down
467467,-4.109375,9.320313,1.128906,-4.224609,-1.349609,-4.935547,0.095581,-0.022339,0.709473,0.697876,down
467472,-4.1875,9.058594,1.242188,-4.310547,-1.25,-4.988281,0.095581,-0.022339,0.709473,0.697876,down
467477,-4.1875,9.058594,1.242188,-4.326172,-1.150391,-5.025391,0.138794,-0.052063,0.676086,0.721741,down
467482,-4.378906,8.632813,1.585938,-4.326172,-1.150391,-5.025391,0.138794,-0.052063,0.676086,0.721741,down
467487,-4.378906,8.632813,1.585938,-4.167969,-0.917969,-5.066406,0.149048,-0.059998,0.667297,0.727295,down
467492,-4.457031,8.253906,1.816406,-4.167969,-0.917969,-5.066406,0.149048,-0.059998,0.667297,0.727295,down
467497,-5.144531,8.59375,2.390625,-3.710938,-0.664062,-5.037109,0.178833,-0.085083,0.641174,0.741394,down
467502,-5.835937,8.636719,3.160156,-3.710938,-0.664062,-5.037109,0.18866,-0.09375,0.632935,0.744995,down
467508,-6.140625,8.785156,3.464844,-3.113281,-0.525391,-4.939453,0.18866,-0.09375,0.632935,0.744995,down
467514,-6.371094,8.976563,3.65625,-2.822266,-0.416016,-4.873047,0.18866,-0.09375,0.632935,0.744995,down
467519,-6.371094,8.976563,3.65625,-2.535156,-0.365234,-4.802734,0.216064,-0.118469,0.611633,0.75177,down
467524,-6.90625,9.28125,3.925781,-2.535156,-0.365234,-4.802734,0.216064,-0.118469,0.611633,0.75177,down
467529,-7.097656,9.285156,4.078125,-2.109375,-0.375,-4.576172,0.216064,-0.118469,0.611633,0.75177,down
467534,-7.097656,9.285156,4.078125,-1.945313,-0.382813,-4.455078,0.241821,-0.141113,0.593933,0.754211,down
467540,-7.828125,9.511719,4.921875,-1.945313,-0.382813,-4.455078,0.249939,-0.147949,0.588623,0.754456,down
467545,-8.019531,9.589844,5.226562,-1.839844,-0.425781,-4.166016,0.265564,-0.161011,0.577759,0.754822,down
467550,-8.363281,9.746094,5.6875,-1.839844,-0.425781,-4.166016,0.265564,-0.161011,0.577759,0.754822,down
467555,-8.59375,9.785156,5.917969,-1.839844,-0.425781,-4.166016,0.280029,-0.173584,0.566223,0.755554,down
467560,-8.824219,9.742188,6.070312,-2.275391,-0.285156,-3.742188,0.280029,-0.173584,0.566223,0.755554,down
467565,-9.050781,9.667969,6.183594,-2.355469,-0.222656,-3.660156,0.28656,-0.17981,0.560181,0.756165,down
467570,-9.664063,9.550781,6.261719,-2.376953,-0.167969,-3.570313,0.293396,-0.186707,0.553406,0.756836,down
467576,-9.664063,9.550781,6.261719,-2.351563,-0.132812,-3.509766,0.304626,-0.198853,0.54126,0.758118,down
467581,-10.355469,9.664063,6.414062,-2.289063,-0.115234,-3.441406,0.310791,-0.205688,0.534363,0.758667,down
467586,-10.695313,9.894531,6.796875,-2.289063,-0.115234,-3.441406,0.316589,-0.212097,0.527893,0.759033,down
467592,-11.15625,10.164063,7.257812,-2.289063,-0.115234,-3.441406,0.321228,-0.217041,0.522949,0.759155,down
467597,-11.15625,10.164063,7.257812,-1.828125,-0.1875,-3.253906,0.327332,-0.223328,0.516541,0.759033,down
467602,-11.15625,10.164063,7.257812,-1.632813,-0.253906,-3.166016,0.332092,-0.227844,0.511902,0.758789,down
467608,-11.3125,10.433594,7.523437,-1.632813,-0.253906,-3.166016,0.337646,-0.232666,0.506775,0.758362,down
467613,-11.355469,10.203125,7.945312,-1.632813,-0.253906,-3.166016,0.337646,-0.232666,0.506775,0.758362,down
467618,-11.355469,10.203125,7.945312,-1.326172,-0.511719,-2.757813,0.347961,-0.240662,0.497375,0.757385,down
467624,-11.421875,9.742188,7.984375,-1.326172,-0.511719,-2.757813,0.347961,-0.240662,0.497375,0.757385,down
467630,-11.316406,9.589844,8.0625,-1.242188,-0.732422,-2.416016,0.362427,-0.249451,0.483643,0.756653,down
467635,-11.277344,9.398438,8.214844,-1.242188,-0.732422,-2.416016,0.362427,-0.249451,0.483643,0.756653,down
467640,-11.277344,9.320313,8.175781,-1.240234,-1.015625,-2.087891,0.371643,-0.253113,0.47406,0.757019,down
467646,-11.011719,9.015625,7.792969,-1.240234,-1.015625,-2.087891,0.375488,-0.254028,0.46991,0.757385,down
467651,-10.816406,8.898438,7.71875,-1.052734,-1.476563,-1.681641,0.375488,-0.254028,0.46991,0.757385,down
467656,-10.816406,8.898438,7.71875,-0.976562,-1.652344,-1.566406,0.384094,-0.254395,0.460876,0.758545,down
467661,-10.351563,8.667969,7.410156,-0.976562,-1.652344,-1.566406,0.388733,-0.253662,0.456116,0.759277,down
467667,-9.972656,8.402344,7.066406,-0.976562,-1.652344,-1.566406,0.3927,-0.252502,0.452209,0.759949,down
467672,-9.742188,8.285156,6.835937,-0.601562,-2.134766,-1.220703,0.3927,-0.252502,0.452209,0.759949,down
467677,-9.742188,8.285156,6.835937,-0.458984,-2.283203,-1.115234,0.401428,-0.248352,0.444031,0.761597,down
467682,-9.46875,8.25,6.335937,-0.458984,-2.283203,-1.115234,0.401428,-0.248352,0.444031,0.761597,down
467687,-9.46875,8.25,6.335937,-0.222656,-2.580078,-0.921875,0.405823,-0.245483,0.440308,0.76239,down
467692,-9.242188,8.210938,6.144531,-0.222656,-2.580078,-0.921875,0.405823,-0.245483,0.440308,0.76239,down
467697,-8.359375,7.671875,5.609375,-0.103516,-2.855469,-0.773437,0.419189,-0.233765,0.429321,0.765076,down
467704,-7.898437,7.175781,5.265625,-0.103516,-2.855469,-0.773437,0.419189,-0.233765,0.429321,0.765076,down
467709,-7.636719,6.90625,5.074219,-0.142578,-3.064453,-0.638672,0.419189,-0.233765,0.429321,0.765076,down
467715,-7.214844,6.523437,4.765625,-0.179687,-3.152344,-0.583984,0.419189,-0.233765,0.429321,0.765076,down
467720,-6.984375,6.449219,4.652344,-0.236328,-3.25,-0.556641,0.441162,-0.20813,0.409058,0.771179,down
467725,-6.671875,6.410156,4.5,-0.310547,-3.451172,-0.582031,0.441162,-0.20813,0.409058,0.771179,down
467730,-6.445312,6.410156,4.308594,-0.369141,-3.552734,-0.626953,0.446045,-0.201904,0.403931,0.772766,down
467736,-6.027344,6.257812,4.078125,-0.369141,-3.552734,-0.626953,0.454834,-0.190796,0.394287,0.775452,down
467741,-5.757812,6.21875,4.0,-0.515625,-3.78125,-0.787109,0.460388,-0.184021,0.387939,0.776978,down
467746,-5.453125,6.066406,3.886719,-0.558594,-3.865234,-0.867187,0.465332,-0.178101,0.382141,0.778259,down
467751,-4.992187,5.683594,3.578125,-0.558594,-3.865234,-0.867187,0.470703,-0.171875,0.375854,0.77948,down
467756,-4.722656,5.5625,3.351563,-0.558594,-3.865234,-0.867187,0.475403,-0.166504,0.3703,0.780518,down
467761,-4.722656,5.5625,3.351563,-0.558594,-3.865234,-0.867187,0.475403,-0.166504,0.3703,0.780518,down
467766,-4.53125,5.457031,3.195313,-0.660156,-4.119141,-1.015625,0.475403,-0.166504,0.3703,0.780518,down
467771,-3.765625,5.257812,2.890625,-0.685547,-4.191406,-1.039063,0.486206,-0.153992,0.357117,0.782532,down
467776,-3.765625,5.257812,2.890625,-0.685547,-4.191406,-1.039063,0.486206,-0.153992,0.357117,0.782532,down
467781,-3.460938,5.074219,2.660156,-0.722656,-4.308594,-1.074219,0.503052,-0.134033,0.335571,0.785095,down
467786,-3.230469,4.757812,2.546875,-0.722656,-4.308594,-1.074219,0.509094,-0.126709,0.327332,0.785889,down
467791,-3.078125,4.496094,2.355469,-0.722656,-4.308594,-1.074219,0.513916,-0.120911,0.320618,0.786438,down
467796,-2.886719,4.335937,2.199219,-0.908203,-4.433594,-1.169922,0.520203,-0.113403,0.311768,0.786987,down
467801,-2.886719,4.335937,2.199219,-0.916016,-4.476562,-1.203125,0.525024,-0.107544,0.304749,0.787292,down
467806,-2.539063,3.886719,2.125,-0.916016,-4.476562,-1.203125,0.531006,-0.100403,0.296082,0.787598,down
467811,-2.347656,3.730469,1.972656,-0.916016,-4.476562,-1.203125,0.536133,-0.094238,0.288696,0.787598,down
467816,-2.273438,3.613281,1.855469,-0.8125,-4.4375,-1.371094,0.542297,-0.086914,0.279907,0.787415,down
467821,-2.273438,3.613281,1.855469,-0.8125,-4.4375,-1.371094,0.542297,-0.086914,0.279907,0.787415,down
467826,-1.8125,3.460938,1.625,-0.753906,-4.441406,-1.404297,0.542297,-0.086914,0.279907,0.787415,down
467831,-1.8125,3.460938,1.625,-0.628906,-4.416016,-1.445313,0.553284,-0.073792,0.264771,0.786377,down
467836,-1.542969,3.308594,1.433594,-0.628906,-4.416016,-1.445313,0.558838,-0.067017,0.257324,0.785461,down
467842,-1.046875,2.5,1.011719,-0.365234,-4.269531,-1.492188,0.569946,-0.052979,0.243286,0.78302,down
467847,-0.546875,2.234375,0.746094,-0.365234,-4.269531,-1.492188,0.575256,-0.045959,0.236755,0.781616,down
467852,-0.394531,2.121094,0.628906,0.09375,-4.115234,-1.376953,0.575256,-0.045959,0.236755,0.781616,down
467857,-0.320313,2.003906,0.515625,0.332031,-4.015625,-1.324219,0.575256,-0.045959,0.236755,0.781616,down
467863,-0.089844,1.617188,0.246094,0.332031,-4.015625,-1.324219,0.590088,-0.023682,0.219727,0.776489,down
467868,-0.050781,1.621094,-0.019531,0.673828,-3.685547,-1.146484,0.590088,-0.023682,0.219727,0.776489,down
467873,-0.242187,1.894531,-0.25,0.863281,-3.509766,-1.050781,0.590088,-0.023682,0.219727,0.776489,down
467879,-0.242187,1.894531,-0.25,0.863281,-3.509766,-1.050781,0.602478,-0.000854,0.207825,0.77063,down
467884,0.179687,1.195313,-0.480469,0.863281,-3.509766,-1.050781,0.602478,-0.000854,0.207825,0.77063,down
467889,0.449219,1.128906,-0.289063,1.267578,-3.306641,-0.841797,0.608887,0.014648,0.202759,0.766785,down
467894,0.449219,1.128906,-0.289063,1.267578,-3.306641,-0.841797,0.608887,0.014648,0.202759,0.766785,down
467899,-0.164062,0.777344,0.132812,1.564453,-2.902344,-0.398438,0.608887,0.014648,0.202759,0.766785,down
467904,-0.433594,0.734375,-0.097656,1.564453,-2.902344,-0.398438,0.614807,0.036987,0.199341,0.762207,down
467909,-0.625,0.8125,-0.019531,1.78125,-2.033203,-0.162109,0.614807,0.036987,0.199341,0.762207,down
467914,-0.816406,0.929687,0.285156,1.78125,-2.033203,-0.162109,0.617126,0.050293,0.19989,0.759399,down
467920,-0.929687,0.972656,0.628906,2.771484,-1.691406,-0.314453,0.618164,0.057312,0.201172,0.75769,down
467925,-1.160156,1.851563,1.320313,2.771484,-1.691406,-0.314453,0.619202,0.064392,0.203369,0.755737,down
467931,-1.46875,2.273438,1.550781,3.167969,-1.527344,-0.412109,0.621277,0.080017,0.210693,0.750488,down
467936,-1.851563,3.148438,1.855469,3.167969,-1.527344,-0.412109,0.622253,0.087341,0.214905,0.747681,down
467942,-1.964844,3.992188,2.390625,3.167969,-1.527344,-0.412109,0.623291,0.09552,0.219604,0.744385,down
467947,-1.890625,4.230469,2.621094,3.458984,-1.511719,-0.582031,0.624268,0.102722,0.223572,0.741455,down
467952,-1.773438,4.453125,3.003906,3.458984,-1.511719,-0.582031,0.625305,0.110657,0.227661,0.738159,down
467957,-1.507813,4.757812,3.578125,3.458984,-1.511719,-0.582031,0.625305,0.110657,0.227661,0.738159,down
467962,-1.429688,4.757812,4.191406,3.046875,-1.46875,-0.539062,0.626282,0.118042,0.231201,0.735107,down
467967,-1.429688,4.757812,4.191406,2.746094,-1.242188,-0.486328,0.627808,0.130493,0.237732,0.729614,down
467972,-1.351563,4.53125,4.882812,2.746094,-1.242188,-0.486328,0.627808,0.130493,0.237732,0.729614,down
467977,-1.351563,4.53125,4.882812,1.294922,-0.244141,-0.306641,0.628235,0.134827,0.240479,0.727539,down
467983,-1.507813,3.957031,4.992187,1.294922,-0.244141,-0.306641,0.628784,0.139526,0.24469,0.724731,down
467989,-1.890625,3.382813,5.113281,0.392578,0.314453,-0.267578,0.628784,0.139526,0.24469,0.724731,down
467995,-2.15625,3.382813,5.113281,0.144531,0.527344,-0.28125,0.628784,0.139526,0.24469,0.724731,down
468000,-2.503906,3.535156,5.230469,0.027344,0.660156,-0.363281,0.628784,0.139526,0.24469,0.724731,down
468005,-2.808594,3.613281,5.378906,0.027344,0.660156,-0.363281,0.629456,0.137085,0.249817,0.7229,down
468011,-3.152344,3.84375,5.996094,0.027344,0.660156,-0.363281,0.630188,0.134521,0.252563,0.721741,down
468016,-3.382813,4.074219,6.183594,0.398438,0.568359,-0.638672,0.630188,0.134521,0.252563,0.721741,down
468021,-3.34375,4.722656,6.296875,0.398438,0.568359,-0.638672,0.630798,0.133606,0.254211,0.720825,down
468027,-3.191406,5.527344,6.917969,0.398438,0.568359,-0.638672,0.632263,0.132446,0.258789,0.71814,down
468032,-3.191406,5.527344,6.917969,1.125,0.792969,-1.025391,0.633301,0.13208,0.262512,0.715942,down
468037,-3.152344,5.910156,7.257812,1.357422,0.982422,-1.160156,0.634155,0.131775,0.266052,0.713928,down
468043,-3.230469,6.640625,7.71875,1.357422,0.982422,-1.160156,0.635071,0.131348,0.27063,0.711426,down
468048,-3.5,7.136719,8.710938,1.357422,0.982422,-1.160156,0.635986,0.130859,0.27594,0.70874,down
468054,-3.726563,7.175781,9.359375,1.607422,1.337891,-1.261719,0.635986,0.130859,0.27594,0.70874,down
468059,-3.957031,7.136719,9.746094,1.505859,1.447266,-1.242188,0.635986,0.130859,0.27594,0.70874,down
468065,-4.300781,7.136719,9.441406,1.505859,1.447266,-1.242188,0.635986,0.130859,0.27594,0.70874,down
468071,-4.722656,7.0625,9.210938,0.835937,1.298828,-0.904297,0.635986,0.130859,0.27594,0.70874,down
468076,-4.839844,7.0625,9.09375,0.835937,1.298828,-0.904297,0.63916,0.123535,0.304382,0.695374,down
468081,-4.839844,7.136719,9.175781,0.835937,1.298828,-0.904297,0.63916,0.123535,0.304382,0.695374,down
468086,-4.492187,7.214844,9.398438,0.439453,0.755859,-0.570312,0.639465,0.122375,0.306946,0.694214,down
468091,-4.492187,7.214844,9.398438,0.355469,0.380859,-0.308594,0.639465,0.122375,0.306946,0.694214,down
468096,-4.300781,7.097656,9.324219,0.355469,0.380859,-0.308594,0.639893,0.120972,0.310364,0.692505,down
468101,-3.957031,7.519531,8.597656,0.335938,0.234375,-0.220703,0.640015,0.120789,0.311523,0.691895,down
468106,-3.652344,8.019531,8.710938,0.324219,0.091797,-0.146484,0.640198,0.121216,0.313171,0.690918,down
468111,-3.382813,8.476563,8.9375,0.3125,0.070312,-0.144531,0.640198,0.121216,0.313171,0.690918,down
468116,-2.808594,8.898438,9.136719,0.3125,0.070312,-0.144531,0.640259,0.121582,0.313904,0.69043,down
468121,-2.695313,8.707031,9.097656,0.259766,0.228516,-0.203125,0.640442,0.121216,0.315735,0.689575,down
468126,-2.65625,8.515625,9.015625,0.259766,0.228516,-0.203125,0.640442,0.120239,0.317078,0.689087,down
468131,-2.769531,7.941406,8.9375,0.017578,0.769531,-0.345703,0.640442,0.120239,0.317078,0.689087,down
468137,-2.886719,7.636719,8.941406,0.017578,0.769531,-0.345703,0.640442,0.11731,0.319641,0.688416,down
468142,-3.039063,7.367187,9.054688,-0.314453,0.964844,-0.369141,0.640381,0.114868,0.321045,0.688232,down
468147,-3.191406,7.097656,9.171875,-0.523437,1.001953,-0.355469,0.64032,0.112122,0.322021,0.688293,down
468153,-3.421875,6.484375,9.558594,-0.523437,1.001953,-0.355469,0.640259,0.109497,0.322693,0.688416,down
468158,-3.574219,6.371094,9.671875,-0.761719,1.005859,-0.306641,0.640198,0.106384,0.323181,0.688782,down
468164,-3.691406,6.257812,9.78125,-0.751953,0.914062,-0.277344,0.640198,0.106384,0.323181,0.688782,down
468169,-3.421875,6.140625,9.820313,-0.621094,0.789062,-0.246094,0.640198,0.106384,0.323181,0.688782,down
468175,-3.152344,6.21875,9.976563,-0.423828,0.65625,-0.244141,0.640198,0.106384,0.323181,0.688782,down
468180,-3.039063,6.292969,10.058594,-0.164062,0.498047,-0.253906,0.640198,0.106384,0.323181,0.688782,down
468185,-3.078125,6.523437,9.742188,0.107422,0.394531,-0.283203,0.640198,0.106384,0.323181,0.688782,down
468190,-2.960938,7.023437,9.214844,0.591797,0.113281,-0.324219,0.640198,0.106384,0.323181,0.688782,down
468195,-2.808594,7.558594,9.015625,0.591797,0.113281,-0.324219,0.640564,0.095337,0.327759,0.687866,down
468201,-2.65625,8.058594,8.867188,0.789062,0.027344,-0.353516,0.640564,0.095337,0.327759,0.687866,down
468207,-2.539063,8.667969,8.867188,0.789062,0.027344,-0.353516,0.641663,0.097778,0.332153,0.684387,down
468212,-2.539063,8.9375,8.90625,0.789062,0.027344,-0.353516,0.642151,0.09845,0.333923,0.682983,down
468217,-2.503906,9.058594,8.980469,0.464844,0.265625,-0.429687,0.642517,0.098633,0.335266,0.681946,down
468223,-2.464844,8.976563,8.980469,0.464844,0.265625,-0.429687,0.642883,0.098206,0.336487,0.681091,down
468229,-2.847656,8.515625,9.175781,0.464844,0.265625,-0.429687,0.643188,0.097107,0.337341,0.680481,down
468234,-3.039063,8.171875,9.253906,-0.412109,0.5625,-0.337891,0.643188,0.097107,0.337341,0.680481,down
468239,-3.34375,7.863281,9.324219,-0.654297,0.611328,-0.28125,0.643188,0.097107,0.337341,0.680481,down
468244,-3.691406,7.519531,9.519531,-0.654297,0.611328,-0.28125,0.643188,0.097107,0.337341,0.680481,down
468249,-3.726563,7.328125,9.742188,-0.951172,0.460937,-0.115234,0.643188,0.097107,0.337341,0.680481,down
468254,-3.726563,7.175781,9.941406,-0.960937,0.349609,-0.068359,0.643188,0.097107,0.337341,0.680481,down
468259,-3.84375,7.136719,10.207031,-0.949219,0.228516,-0.03125,0.643188,0.097107,0.337341,0.680481,down
468264,-3.652344,7.023437,10.203125,-0.949219,0.228516,-0.03125,0.643188,0.097107,0.337341,0.680481,down
468270,-3.613281,6.90625,10.097656,-0.949219,0.228516,-0.03125,0.643921,0.081238,0.333008,0.684021,down
468276,-3.613281,6.945312,9.820313,-0.074219,-0.417969,-0.072266,0.643921,0.081238,0.333008,0.684021,down
468282,-3.269531,6.871094,9.558594,-0.074219,-0.417969,-0.072266,0.645081,0.081848,0.33075,0.68396,down
468287,-2.921875,6.753906,9.253906,0.236328,-0.707031,-0.050781,0.645691,0.083252,0.329956,0.683533,down
468293,-2.730469,6.5625,8.792969,0.236328,-0.707031,-0.050781,0.646362,0.084961,0.329224,0.683105,down
468299,-2.234375,6.371094,8.519531,0.255859,-0.888672,0.021484,0.646362,0.084961,0.329224,0.683105,down
468305,-2.117188,6.257812,8.289063,0.269531,-0.90625,0.042969,0.646362,0.084961,0.329224,0.683105,down
468310,-2.117188,6.027344,8.105469,0.212891,-0.888672,0.087891,0.646362,0.084961,0.329224,0.683105,down
468316,-2.117188,5.566406,7.984375,0.109375,-0.859375,0.146484,0.646362,0.084961,0.329224,0.683105,down
468321,-2.195313,5.453125,8.027344,-0.052734,-0.792969,0.228516,0.646362,0.084961,0.329224,0.683105,down
468326,-2.347656,5.296875,7.945312,-0.097656,-0.785156,0.271484,0.649231,0.095764,0.322754,0.682068,down
468331,-2.195313,5.183594,7.984375,-0.097656,-0.785156,0.271484,0.649414,0.09729,0.321228,0.682312,down
468337,-2.195313,5.222656,7.910156,-0.103516,-0.818359,0.300781,0.64978,0.10022,0.318176,0.682983,down
468343,-2.082031,5.261719,7.988281,-0.103516,-0.818359,0.300781,0.649902,0.101685,0.316833,0.683289,down
468349,-1.964844,5.414062,8.0625,-0.025391,-0.894531,0.285156,0.649902,0.101685,0.316833,0.683289,down
468354,-2.042969,5.488281,7.984375,-0.025391,-0.894531,0.285156,0.65033,0.105164,0.313782,0.683777,down
468360,-2.082031,5.644531,8.101563,0.060547,-0.900391,0.273438,0.65033,0.105164,0.313782,0.683777,down
468365,-2.195313,5.796875,8.132813,0.078125,-0.931641,0.285156,0.65033,0.105164,0.313782,0.683777,down
468370,-2.195313,5.796875,8.132813,0.058594,-0.972656,0.298828,0.651001,0.110901,0.309448,0.684204,down
468375,-2.042969,5.875,8.0625,0.058594,-0.972656,0.298828,0.651001,0.110901,0.309448,0.684204,down
468380,-1.890625,5.910156,8.066406,-0.080078,-1.087891,0.34375,0.651001,0.110901,0.309448,0.684204,down
468385,-1.660156,5.988281,7.949219,-0.080078,-1.087891,0.34375,0.651672,0.116821,0.303955,0.684998,down
468390,-1.734375,5.796875,7.984375,-0.080078,-1.087891,0.34375,0.651917,0.11853,0.301697,0.685486,down
468395,-1.621094,5.605469,8.105469,-0.080078,-1.087891,0.34375,0.652161,0.120117,0.299194,0.686096,down
468401,-1.621094,5.605469,8.105469,-0.484375,-1.09375,0.423828,0.652405,0.121521,0.29657,0.686768,down
468406,-1.390625,5.375,8.066406,-0.541016,-1.097656,0.419922,0.652649,0.122925,0.293823,0.6875,down
468411,-1.390625,5.375,8.066406,-0.5625,-1.091797,0.404297,0.652893,0.124146,0.291077,0.688171,down
468416,-1.316406,5.105469,7.722656,-0.5625,-1.091797,0.404297,0.653198,0.125488,0.288208,0.688843,down
468421,-1.316406,5.105469,7.722656,-0.453125,-1.078125,0.3125,0.653503,0.12677,0.285522,0.689392,down
468427,-0.664062,5.183594,7.261719,-0.384766,-1.039063,0.261719,0.654358,0.129517,0.28064,0.690125,down
468432,-0.472656,5.335937,7.21875,-0.257813,-0.931641,0.158203,0.654846,0.13092,0.278381,0.690308,down
468437,-0.433594,5.566406,7.144531,-0.257813,-0.931641,0.158203,0.655212,0.13208,0.276672,0.69043,down
468442,-0.164062,6.066406,7.300781,-0.257813,-0.931641,0.158203,0.655701,0.13324,0.275085,0.69043,down
468447,-0.320313,6.292969,7.5625,-0.107422,-0.589844,0.0625,0.656067,0.134277,0.273621,0.690369,down
468452,-0.472656,6.449219,7.867187,-0.050781,-0.462891,0.058594,0.656067,0.134277,0.273621,0.690369,down
468457,-0.738281,6.484375,8.175781,-0.050781,-0.462891,0.058594,0.656494,0.135803,0.271973,0.690369,down
468462,-1.160156,6.601562,8.597656,-0.050781,-0.462891,0.058594,0.656555,0.136414,0.271362,0.69043,down
468467,-1.890625,7.0625,9.4375,-0.056641,-0.4375,0.226562,0.656494,0.137268,0.270508,0.690674,down
468472,-2.003906,7.214844,9.824219,-0.134766,-0.578125,0.294922,0.656494,0.137268,0.270508,0.690674,down
468477,-1.964844,7.40625,10.167969,-0.134766,-0.578125,0.294922,0.656372,0.13916,0.268127,0.691284,down
468482,-1.851563,7.40625,10.207031,-0.134766,-0.578125,0.294922,0.656372,0.140381,0.266357,0.691772,down
468487,-1.316406,7.367187,9.898438,-0.134766,-0.578125,0.294922,0.656372,0.140381,0.266357,0.691772,down
468492,-0.894531,7.289062,9.632813,-0.388672,-1.023438,0.378906,0.656677,0.143188,0.261536,0.692749,down
468497,-0.472656,7.214844,9.519531,-0.486328,-1.029297,0.328125,0.656921,0.144409,0.258972,0.693237,down
468502,-0.28125,6.753906,9.214844,-0.486328,-1.029297,0.328125,0.657227,0.145752,0.256165,0.693726,down
468507,-0.28125,6.714844,9.015625,-0.427734,-0.945312,0.300781,0.657227,0.145752,0.256165,0.693726,down
468512,-0.164062,6.484375,9.175781,-0.427734,-0.945312,0.300781,0.657471,0.146912,0.253723,0.694153,down
468517,-0.164062,6.484375,8.976563,-0.427734,-0.945312,0.300781,0.657654,0.14801,0.251465,0.694519,down
468522,-0.355469,6.410156,8.976563,-0.363281,-0.845703,0.271484,0.65802,0.150024,0.247498,0.695129,down
468527,-0.472656,6.066406,9.292969,-0.240234,-0.748047,0.234375,0.65802,0.150024,0.247498,0.695129,down
468532,-0.777344,6.027344,9.398438,-0.240234,-0.748047,0.234375,0.658203,0.151184,0.245544,0.695435,down
468537,-0.894531,6.027344,9.359375,-0.240234,-0.748047,0.234375,0.658325,0.153687,0.242615,0.69574,down
468542,-1.007813,6.140625,9.4375,0.09375,-0.882812,0.251953,0.658325,0.153687,0.242615,0.69574,down
468547,-0.929687,6.257812,9.558594,0.158203,-0.964844,0.242187,0.658386,0.155518,0.241211,0.695801,down
468552,-0.703125,6.332031,9.097656,0.158203,-0.964844,0.242187,0.658569,0.159546,0.238525,0.695618,down
468557,-0.625,6.410156,8.910156,0.201172,-1.044922,0.173828,0.658569,0.159546,0.238525,0.695618,down
468562,-0.546875,6.449219,8.871094,0.201172,-1.044922,0.173828,0.658813,0.161926,0.237061,0.695374,down
468567,-0.433594,6.523437,8.90625,0.142578,-1.105469,0.089844,0.658813,0.161926,0.237061,0.695374,down
468572,-0.433594,6.523437,8.90625,0.142578,-1.105469,0.089844,0.659912,0.168457,0.232605,0.694336,down
468577,0.21875,6.332031,8.445313,0.142578,-1.105469,0.089844,0.659912,0.168457,0.232605,0.694336,down
468582,0.332031,6.066406,8.289063,-0.066406,-1.064453,-0.009766,0.661194,0.171997,0.228943,0.69342,down
468587,0.410156,5.488281,8.253906,-0.066406,-1.064453,-0.009766,0.661987,0.17334,0.227112,0.692932,down
468592,0.257813,5.375,8.171875,-0.066406,-1.064453,-0.009766,0.662842,0.174561,0.225281,0.692383,down
468597,0.179687,5.183594,8.210938,-0.066406,-1.064453,-0.009766,0.662842,0.174561,0.225281,0.692383,down
468602,0.101563,4.914062,8.292969,-0.154297,-0.8125,-0.177734,0.664429,0.176697,0.222351,0.691284,down
468607,0.066406,4.6875,8.515625,-0.154297,-0.8125,-0.177734,0.665283,0.177795,0.221069,0.690613,down
468612,-0.089844,4.761719,8.515625,0.023437,-0.769531,-0.244141,0.665283,0.177795,0.221069,0.690613,down
468617,-0.355469,4.800781,8.59375,0.023437,-0.769531,-0.244141,0.666931,0.180359,0.218872,0.689026,down
468622,-0.355469,4.800781,8.59375,0.023437,-0.769531,-0.244141,0.666931,0.180359,0.218872,0.689026,down
468627,-0.738281,4.914062,8.910156,0.023437,-0.769531,-0.244141,0.666931,0.180359,0.218872,0.689026,down
468632,-0.816406,5.375,8.519531,0.408203,-0.832031,-0.214844,0.668274,0.183716,0.217529,0.687256,down
468638,-0.816406,5.375,8.519531,0.447266,-0.914062,-0.179687,0.668945,0.185852,0.216919,0.686218,down
468643,-0.089844,5.757812,8.066406,0.447266,-0.914062,-0.179687,0.670105,0.190308,0.215454,0.684387,down
468649,0.332031,5.644531,7.523437,0.447266,-0.914062,-0.179687,0.670715,0.192383,0.214478,0.683472,down
468654,0.371094,5.566406,7.21875,0.125,-0.828125,-0.142578,0.670715,0.192383,0.214478,0.683472,down
468660,0.410156,5.453125,7.066406,0.021484,-0.732422,-0.146484,0.670715,0.192383,0.214478,0.683472,down
468665,0.449219,5.453125,7.183594,-0.123047,-0.648437,-0.154297,0.670715,0.192383,0.214478,0.683472,down
468670,0.371094,5.296875,7.101562,-0.28125,-0.537109,-0.160156,0.670715,0.192383,0.214478,0.683472,down
468676,0.066406,5.183594,7.144531,-0.382813,-0.408203,-0.166016,0.670715,0.192383,0.214478,0.683472,down
468682,-0.777344,5.144531,7.867187,-0.382813,-0.408203,-0.166016,0.67511,0.197083,0.206604,0.680176,down
468687,-1.351563,5.488281,8.292969,-0.382813,-0.408203,-0.166016,0.67511,0.197083,0.206604,0.680176,down
468693,-0.855469,5.453125,8.75,-0.275391,-0.308594,-0.082031,0.67511,0.197083,0.206604,0.680176,down
468699,-0.703125,5.261719,8.484375,-0.275391,-0.308594,-0.082031,0.676575,0.197449,0.203491,0.679626,down
468705,-0.664062,5.222656,8.289063,-0.292969,-0.509766,-0.083984,0.676575,0.197449,0.203491,0.679626,down
468710,-0.625,5.144531,8.171875,-0.242187,-0.539062,-0.091797,0.676575,0.197449,0.203491,0.679626,down
468715,-0.433594,5.566406,8.210938,-0.242187,-0.539062,-0.091797,0.678223,0.198914,0.199463,0.678711,down
468721,-0.394531,5.566406,8.25,-0.15625,-0.65625,-0.058594,0.678223,0.198914,0.199463,0.678711,down
468726,-0.433594,5.875,8.136719,-0.158203,-0.642578,-0.072266,0.678223,0.198914,0.199463,0.678711,down
468731,-0.355469,5.796875,8.292969,-0.207031,-0.623047,-0.037109,0.678223,0.198914,0.199463,0.678711,down
468736,-0.511719,5.644531,8.449219,-0.207031,-0.623047,-0.037109,0.680115,0.201843,0.194397,0.67749,down
468742,-0.777344,5.605469,8.519531,-0.310547,-0.589844,-0.033203,0.680115,0.201843,0.194397,0.67749,down
468747,-0.585937,5.105469,8.367188,-0.279297,-0.615234,-0.017578,0.681519,0.203552,0.190002,0.676758,down
468752,-0.816406,5.183594,8.25,-0.279297,-0.615234,-0.017578,0.681519,0.203552,0.190002,0.676758,down
468757,-0.472656,5.144531,8.632813,-0.279297,-0.615234,-0.017578,0.681946,0.204285,0.188599,0.676514,down
468762,-0.472656,5.105469,8.636719,-0.0625,-0.748047,0.003906,0.681946,0.204285,0.188599,0.676514,down
468767,-0.511719,4.914062,8.75,-0.0625,-0.748047,0.003906,0.682739,0.206299,0.18573,0.675903,down
468772,-0.433594,4.953125,8.671875,-0.0625,-0.748047,0.003906,0.683105,0.207703,0.184265,0.675476,down
468777,-0.433594,4.878906,8.632813,0.146484,-0.867187,0.025391,0.683105,0.207703,0.184265,0.675476,down
468782,-0.433594,4.878906,8.632813,0.146484,-0.867187,0.025391,0.683655,0.210876,0.181824,0.674622,down
468787,-0.011719,5.144531,8.519531,0.152344,-0.880859,-0.005859,0.684265,0.214355,0.179382,0.673523,down
468792,0.101563,5.488281,8.980469,0.105469,-0.943359,-0.054687,0.684265,0.214355,0.179382,0.673523,down
468797,0.484375,5.527344,8.558594,0.105469,-0.943359,-0.054687,0.684753,0.216309,0.177917,0.672852,down
468802,0.21875,5.222656,8.023438,0.003906,-0.853516,-0.076172,0.684753,0.216309,0.177917,0.672852,down
468807,0.101563,5.070312,7.988281,0.003906,-0.853516,-0.076172,0.685669,0.218994,0.175232,0.671692,down
468812,0.179687,4.953125,8.210938,0.003906,-0.853516,-0.076172,0.686279,0.219971,0.173645,0.671204,down
468818,0.066406,5.335937,8.519531,-0.175781,-0.582031,-0.0625,0.686279,0.219971,0.173645,0.671204,down
468823,-0.96875,5.105469,8.789063,-0.175781,-0.582031,-0.0625,0.687622,0.22229,0.169739,0.670044,down
468828,-0.816406,5.261719,8.597656,-0.175781,-0.582031,-0.0625,0.687988,0.223389,0.168396,0.669617,down
468833,-0.511719,5.296875,8.515625,0.015625,-0.810547,0.023437,0.687988,0.223389,0.168396,0.669617,down
468838,-0.511719,5.453125,8.449219,0.015625,-0.810547,0.023437,0.688599,0.226074,0.165833,0.668762,down
468844,0.410156,5.070312,8.289063,0.015625,-0.810547,0.023437,0.688904,0.227661,0.164612,0.668152,down
468849,0.410156,5.375,8.171875,0.175781,-0.896484,-0.091797,0.688904,0.227661,0.164612,0.668152,down
468854,0.292969,5.261719,8.210938,0.216797,-0.894531,-0.099609,0.688904,0.227661,0.164612,0.668152,down
468860,1.214844,5.375,8.445313,0.216797,-0.894531,-0.099609,0.690186,0.233032,0.161194,0.665894,down
468866,1.175781,5.453125,8.367188,0.087891,-0.900391,-0.166016,0.690186,0.233032,0.161194,0.665894,down
468871,1.328125,5.453125,8.367188,-0.097656,-0.861328,-0.148437,0.690186,0.233032,0.161194,0.665894,down
468877,1.097656,4.992187,8.292969,-0.234375,-0.806641,-0.103516,0.690186,0.233032,0.161194,0.665894,down
468883,0.714844,4.6875,8.328125,-0.337891,-0.695312,0.013672,0.690186,0.233032,0.161194,0.665894,down
468888,0.21875,4.609375,8.554688,-0.337891,-0.695312,0.013672,0.69342,0.23938,0.151672,0.662476,down
468893,0.523437,4.496094,8.515625,-0.337891,-0.695312,0.013672,0.69342,0.23938,0.151672,0.662476,down
468898,0.5625,4.609375,8.253906,-0.337891,-0.695312,0.013672,0.693665,0.240417,0.14978,0.662292,down
468903,0.5625,4.609375,8.253906,-0.205078,-0.90625,0.226562,0.693787,0.241455,0.14801,0.66217,down
468908,0.675781,4.992187,8.367188,-0.205078,-0.90625,0.226562,0.693787,0.242798,0.145996,0.662109,down
468913,0.792969,5.105469,8.367188,-0.041016,-0.892578,0.267578,0.693726,0.244263,0.144104,0.662048,down
468918,0.792969,5.105469,8.367188,0.027344,-0.884766,0.267578,0.693604,0.24585,0.142395,0.661987,down
468923,0.792969,5.105469,8.367188,0.027344,-0.884766,0.267578,0.693176,0.249451,0.139404,0.661743,down
468928,0.945312,5.453125,8.253906,0.089844,-0.822266,0.201172,0.693176,0.249451,0.139404,0.661743,down
468933,1.40625,5.335937,8.175781,0.089844,-0.822266,0.201172,0.692932,0.252686,0.136658,0.661316,down
468938,1.40625,5.070312,8.214844,-0.005859,-0.751953,0.164062,0.692932,0.252686,0.136658,0.661316,down
468943,1.175781,4.839844,8.371094,-0.005859,-0.751953,0.164062,0.692871,0.254211,0.135071,0.661072,down
468948,1.175781,5.03125,8.449219,-0.017578,-0.71875,0.134766,0.692871,0.254211,0.135071,0.661072,down
468954,1.328125,5.296875,8.488281,-0.017578,-0.71875,0.134766,0.692993,0.25769,0.131226,0.6604,down
468959,1.328125,5.296875,8.488281,-0.013672,-0.673828,0.078125,0.693054,0.258972,0.130005,0.660095,down
468964,1.445313,5.183594,8.671875,-0.046875,-0.630859,0.052734,0.693176,0.260071,0.128723,0.65979,down
468970,1.40625,5.03125,8.175781,-0.046875,-0.630859,0.052734,0.693298,0.260986,0.127686,0.659485,down
468976,1.480469,5.183594,8.253906,-0.025391,-0.587891,0.0,0.693298,0.260986,0.127686,0.659485,down
468981,1.519531,5.222656,8.371094,0.046875,-0.585937,-0.029297,0.693298,0.260986,0.127686,0.659485,down
468986,1.558594,5.527344,8.105469,0.138672,-0.554687,-0.058594,0.693298,0.260986,0.127686,0.659485,down
468992,1.519531,5.796875,8.101563,0.177734,-0.521484,-0.078125,0.693298,0.260986,0.127686,0.659485,down
468997,1.445313,6.027344,8.292969,0.208984,-0.523437,-0.070312,0.693298,0.260986,0.127686,0.659485,down
469002,1.328125,5.988281,8.289063,0.248047,-0.517578,-0.042969,0.693298,0.260986,0.127686,0.659485,down
469007,1.214844,5.949219,8.40625,0.248047,-0.517578,-0.042969,0.694336,0.268921,0.122864,0.656128,down
469012,1.40625,5.949219,8.410156,0.248047,-0.517578,-0.042969,0.694214,0.270264,0.122437,0.655762,down
469018,1.597656,5.949219,8.175781,0.396484,-0.474609,0.246094,0.694214,0.270264,0.122437,0.655762,down
469023,1.75,5.875,7.871094,0.396484,-0.474609,0.246094,0.692932,0.274841,0.121399,0.655396,down
469028,2.171875,5.949219,7.527344,0.396484,-0.474609,0.246094,0.692017,0.276428,0.121155,0.655762,down
469033,2.171875,5.796875,7.371094,0.404297,-0.203125,0.541016,0.692017,0.276428,0.121155,0.655762,down
469038,2.132813,5.796875,7.367187,0.404297,-0.203125,0.541016,0.69104,0.27771,0.121094,0.656311,down
469043,2.171875,6.332031,7.75,0.326172,-0.166016,0.605469,0.688843,0.279663,0.120728,0.657837,down
469048,2.324219,6.101562,7.984375,0.326172,-0.166016,0.605469,0.688843,0.279663,0.120728,0.657837,down
469053,2.632813,5.949219,8.101563,0.058594,-0.166016,0.65625,0.686646,0.280884,0.119507,0.65979,down
469058,2.667969,5.414062,8.367188,0.058594,-0.166016,0.65625,0.686646,0.280884,0.119507,0.65979,down
469063,2.746094,5.261719,8.292969,-0.146484,-0.126953,0.5625,0.685059,0.28125,0.11792,0.66156,down
469068,2.707031,5.261719,8.214844,-0.146484,-0.126953,0.5625,0.685059,0.28125,0.11792,0.66156,down
469073,2.746094,5.488281,8.328125,-0.205078,-0.148437,0.441406,0.68396,0.281311,0.11615,0.663025,down
469078,2.746094,5.335937,8.59375,-0.205078,-0.148437,0.441406,0.68396,0.281311,0.11615,0.663025,down
469083,2.785156,5.183594,8.558594,-0.189453,-0.138672,0.341797,0.68396,0.281311,0.11615,0.663025,down
469088,2.746094,5.070312,8.554688,-0.189453,-0.138672,0.341797,0.683044,0.281311,0.11438,0.664246,down
469094,2.515625,4.992187,8.714844,-0.189453,-0.138672,0.341797,0.68219,0.281555,0.11322,0.665222,down
469100,2.667969,4.609375,8.25,-0.189453,-0.138672,0.341797,0.681763,0.28186,0.113037,0.665588,down
469105,2.441406,4.992187,7.679687,0.119141,-0.035156,0.253906,0.681213,0.282227,0.112915,0.666016,down
469110,2.324219,4.992187,7.722656,0.144531,-0.001953,0.253906,0.681213,0.282227,0.112915,0.666016,down
469115,2.132813,4.953125,7.5625,0.144531,-0.001953,0.253906,0.681213,0.282227,0.112915,0.666016,down
469122,2.019531,5.070312,7.484375,0.123047,0.097656,0.212891,0.681213,0.282227,0.112915,0.666016,down
469127,1.710938,5.070312,7.328125,0.134766,0.148437,0.214844,0.681213,0.282227,0.112915,0.666016,down
469133,1.636719,5.296875,7.257812,0.09375,0.160156,0.205078,0.678406,0.282959,0.114136,0.668335,down
469138,1.710938,5.335937,7.445312,-0.052734,0.072266,0.164062,0.678406,0.282959,0.114136,0.668335,down
469143,1.789063,5.335937,7.445312,-0.052734,0.072266,0.164062,0.678101,0.282837,0.114197,0.668701,down
469148,1.558594,5.335937,7.871094,-0.121094,0.064453,0.121094,0.678101,0.282837,0.114197,0.668701,down
469153,1.636719,5.261719,8.175781,-0.121094,0.064453,0.121094,0.677795,0.282349,0.113831,0.66925,down
469158,1.828125,5.144531,8.132813,-0.121094,0.064453,0.121094,0.677795,0.282166,0.113464,0.669373,down
469164,1.941406,5.144531,7.949219,-0.123047,-0.097656,0.058594,0.677856,0.282104,0.112671,0.669495,down
469170,2.054688,5.183594,7.867187,-0.123047,-0.097656,0.058594,0.677856,0.282104,0.112366,0.669556,down
469175,2.132813,5.296875,8.136719,-0.066406,-0.105469,0.085937,0.677795,0.282166,0.112,0.669617,down
469180,2.132813,5.296875,8.136719,0.003906,-0.142578,0.117188,0.677734,0.28241,0.111694,0.669678,down
469185,2.171875,5.144531,8.554688,0.003906,-0.142578,0.117188,0.67749,0.282715,0.11145,0.6698,down
469190,2.59375,5.222656,8.253906,0.003906,-0.142578,0.117188,0.677185,0.283264,0.111328,0.669922,down
469195,2.554688,5.296875,7.871094,0.167969,-0.103516,0.216797,0.677185,0.283264,0.111328,0.669922,down
469200,2.554688,5.414062,7.679687,0.095703,-0.058594,0.265625,0.677185,0.283264,0.111328,0.669922,down
469205,2.59375,5.335937,7.601562,0.095703,-0.058594,0.265625,0.677185,0.283264,0.111328,0.669922,down
469211,2.476563,5.261719,7.640625,-0.009766,0.046875,0.324219,0.677185,0.283264,0.111328,0.669922,down
469216,2.441406,5.105469,7.71875,-0.023437,0.076172,0.345703,0.677185,0.283264,0.111328,0.669922,down
469221,2.441406,5.105469,7.71875,-0.007813,0.099609,0.337891,0.677185,0.283264,0.111328,0.669922,down
469226,2.476563,5.144531,7.753906,-0.007813,0.099609,0.337891,0.677185,0.283264,0.111328,0.669922,down
469231,2.476563,5.070312,7.75,0.0,0.142578,0.332031,0.677185,0.283264,0.111328,0.669922,down
469236,2.324219,5.183594,7.828125,0.003906,0.162109,0.320313,0.677185,0.283264,0.111328,0.669922,down
469241,2.09375,5.222656,8.292969,0.003906,0.162109,0.320313,0.677185,0.283264,0.111328,0.669922,down
469247,1.941406,5.070312,8.175781,0.076172,0.167969,0.285156,0.677185,0.283264,0.111328,0.669922,down
469252,1.980469,5.03125,8.0625,0.121094,0.181641,0.287109,0.677185,0.283264,0.111328,0.669922,down
469257,2.054688,5.03125,7.984375,0.121094,0.181641,0.287109,0.669861,0.283875,0.111633,0.676941,down
469263,1.902344,5.070312,7.789062,0.195312,0.191406,0.310547,0.668457,0.284058,0.112488,0.678101,down
469268,2.054688,5.144531,7.789062,0.195312,0.191406,0.310547,0.668457,0.284058,0.112488,0.678101,down
469273,2.132813,5.183594,7.792969,0.236328,0.183594,0.347656,0.666809,0.284424,0.113464,0.679382,down
469278,2.054688,5.222656,7.683594,0.236328,0.183594,0.347656,0.666809,0.284424,0.113464,0.679382,down
469283,1.941406,5.566406,7.644531,0.236328,0.183594,0.347656,0.666809,0.284424,0.113464,0.679382,down
469288,1.941406,5.71875,7.828125,0.189453,0.160156,0.349609,0.666809,0.284424,0.113464,0.679382,down
469293,1.980469,5.488281,7.828125,0.167969,0.140625,0.337891,0.666809,0.284424,0.113464,0.679382,down
469298,2.09375,5.414062,7.988281,0.167969,0.140625,0.337891,0.663757,0.284973,0.114929,0.681946,down
469303,2.324219,5.488281,8.0625,0.167969,0.140625,0.337891,0.663025,0.285156,0.115112,0.682556,down
469309,2.363281,5.453125,7.871094,0.082031,0.095703,0.320313,0.661743,0.285278,0.115295,0.683655,down
469314,2.441406,5.453125,7.90625,0.082031,0.095703,0.320313,0.661194,0.285217,0.115234,0.684204,down
469319,2.476563,5.375,7.945312,0.082031,0.095703,0.320313,0.661194,0.285217,0.115234,0.684204,down
469324,2.476563,5.375,7.945312,-0.082031,0.109375,0.269531,0.660706,0.285034,0.115173,0.684753,down
469329,2.363281,5.296875,7.867187,-0.152344,0.105469,0.240234,0.660706,0.285034,0.115173,0.684753,down
469334,2.476563,5.183594,8.023438,-0.185547,0.080078,0.189453,0.660706,0.285034,0.115173,0.684753,down
469339,2.476563,5.183594,8.023438,-0.228516,0.046875,0.130859,0.659912,0.283997,0.11438,0.686157,down
469345,2.515625,4.226562,8.328125,-0.228516,0.046875,0.130859,0.660095,0.283142,0.113525,0.686462,down
469351,2.246094,4.648437,8.210938,-0.228516,0.046875,0.130859,0.6604,0.282776,0.113098,0.686401,down
469357,2.171875,4.914062,8.101563,-0.173828,-0.068359,-0.115234,0.6604,0.282776,0.113098,0.686401,down
469362,2.09375,5.183594,8.066406,-0.121094,-0.060547,-0.119141,0.6604,0.282776,0.113098,0.686401,down
469367,2.054688,5.453125,7.984375,-0.082031,-0.060547,-0.09375,0.6604,0.282776,0.113098,0.686401,down
469372,2.210938,5.375,7.988281,-0.066406,-0.066406,-0.056641,0.6604,0.282776,0.113098,0.686401,down
469378,2.324219,5.183594,7.789062,-0.035156,-0.0625,-0.019531,0.6604,0.282776,0.113098,0.686401,down
469383,2.363281,4.953125,7.792969,-0.017578,-0.033203,0.017578,0.6604,0.282776,0.113098,0.686401,down
469388,2.363281,4.878906,7.90625,-0.017578,-0.033203,0.017578,0.661682,0.282349,0.111877,0.685547,down
469393,2.363281,4.839844,7.984375,-0.017578,-0.033203,0.017578,0.661682,0.282349,0.111755,0.685547,down
469399,2.324219,4.914062,8.027344,-0.078125,-0.03125,-0.005859,0.661682,0.282349,0.111755,0.685547,down
469404,2.285156,5.03125,7.988281,-0.078125,-0.03125,-0.005859,0.661804,0.282166,0.111328,0.685547,down
469409,2.210938,5.144531,7.910156,-0.078125,-0.03125,-0.005859,0.661926,0.282043,0.111145,0.685547,down
469414,2.171875,5.261719,7.910156,-0.123047,-0.027344,-0.019531,0.661926,0.282043,0.111145,0.685547,down
469419,2.246094,5.296875,7.867187,-0.123047,-0.027344,-0.019531,0.66217,0.281799,0.110718,0.685486,down
469424,2.285156,5.261719,7.867187,-0.123047,-0.027344,-0.019531,0.662292,0.281616,0.110474,0.685486,down
469429,2.285156,5.296875,8.101563,-0.123047,-0.027344,-0.019531,0.662292,0.281616,0.110474,0.685486,down
469434,2.285156,5.261719,8.027344,-0.101563,-0.013672,-0.052734,0.662292,0.281616,0.110474,0.685486,down
469439,2.171875,5.105469,7.910156,-0.101563,-0.013672,-0.052734,0.662781,0.28125,0.109985,0.685242,down
469444,2.054688,5.070312,7.988281,-0.101563,-0.013672,-0.052734,0.662903,0.281189,0.109802,0.68512,down
469449,2.054688,4.992187,8.136719,-0.101563,-0.013672,-0.052734,0.662903,0.281189,0.109802,0.68512,down
469454,2.054688,4.953125,7.984375,-0.070312,-0.082031,-0.064453,0.663269,0.281189,0.109375,0.684875,down
469459,2.019531,4.878906,8.027344,-0.070312,-0.082031,-0.064453,0.663269,0.281189,0.109375,0.684875,down
469464,2.132813,4.800781,7.988281,-0.039063,-0.080078,-0.033203,0.663269,0.281189,0.109375,0.684875,down
469469,2.210938,4.800781,7.871094,-0.039063,-0.080078,-0.033203,0.663574,0.281311,0.109009,0.68457,down
469475,2.246094,4.914062,7.832031,-0.039063,-0.080078,-0.033203,0.663696,0.281555,0.108887,0.684387,down
469480,2.246094,5.105469,7.75,-0.039063,-0.080078,-0.033203,0.663696,0.281738,0.108948,0.684326,down
469485,2.171875,5.296875,7.753906,0.091797,-0.009766,-0.003906,0.663635,0.281921,0.10907,0.684265,down
469490,2.285156,5.375,7.792969,0.095703,0.013672,-0.009766,0.663635,0.282043,0.109253,0.684204,down
469496,2.324219,5.183594,7.90625,0.095703,0.013672,-0.009766,0.663574,0.282166,0.109436,0.684143,down
469501,2.324219,5.183594,8.0625,0.052734,0.005859,-0.052734,0.663574,0.282227,0.109619,0.684082,down
469506,2.210938,5.296875,8.136719,0.048828,-0.015625,-0.072266,0.663574,0.282227,0.109619,0.684082,down
469511,2.171875,5.414062,8.214844,0.029297,-0.046875,-0.09375,0.663574,0.282227,0.109619,0.684082,down
469516,2.171875,5.261719,8.105469,0.029297,-0.046875,-0.09375,0.663574,0.282227,0.109619,0.684082,down
469521,2.210938,5.070312,7.949219,-0.074219,-0.074219,-0.134766,0.663574,0.282227,0.109619,0.684082,down
469527,2.132813,4.878906,8.027344,-0.115234,-0.083984,-0.15625,0.663574,0.282227,0.109619,0.684082,down
469532,2.132813,4.648437,8.210938,-0.115234,-0.083984,-0.15625,0.664978,0.282349,0.109375,0.682739,down
550935,-4.832031,7.777344,1.078125,-0.214844,0.376953,-0.199219,0.297241,-0.055054,0.671692,0.676331,down
550940,-4.792969,7.695312,1.078125,-0.214844,0.376953,-0.199219,0.296143,-0.058716,0.671204,0.677002,down
550945,-4.832031,7.660156,1.078125,-0.162109,0.359375,-0.214844,0.295898,-0.059692,0.671143,0.677124,down
550951,-4.832031,7.660156,1.078125,-0.130859,0.355469,-0.232422,0.295349,-0.061829,0.671082,0.677185,down
550956,-4.792969,7.46875,1.117188,-0.097656,0.345703,-0.257813,0.295105,-0.063049,0.671143,0.677124,down
550962,-4.753906,7.433594,1.078125,-0.097656,0.345703,-0.257813,0.294983,-0.064026,0.671204,0.677063,down
550967,-4.792969,7.46875,1.117188,-0.097656,0.345703,-0.257813,0.294983,-0.065247,0.671326,0.676819,down
550972,-4.792969,7.507812,1.078125,-0.097656,0.345703,-0.257813,0.295105,-0.066284,0.671448,0.676514,down
550977,-4.792969,7.550781,1.0,0.027344,0.271484,-0.478516,0.295105,-0.066284,0.671448,0.676514,down
550982,-4.792969,7.585937,1.039063,0.033203,0.240234,-0.541016,0.295105,-0.066284,0.671448,0.676514,down
550988,-4.792969,7.625,0.925781,0.033203,0.240234,-0.541016,0.295105,-0.066284,0.671448,0.676514,down
550993,-4.714844,7.628906,0.886719,0.003906,0.232422,-0.660156,0.295105,-0.066284,0.671448,0.676514,down
550998,-4.640625,7.699219,0.925781,-0.035156,0.214844,-0.708984,0.295105,-0.066284,0.671448,0.676514,down
551003,-4.640625,7.738281,0.964844,-0.074219,0.212891,-0.759766,0.295105,-0.066284,0.671448,0.676514,down
551009,-4.675781,7.628906,0.925781,-0.152344,0.236328,-0.810547,0.295105,-0.066284,0.671448,0.676514,down
551014,-4.675781,7.660156,0.886719,-0.152344,0.236328,-0.810547,0.300537,-0.07843,0.671509,0.672791,down
551020,-4.753906,7.695312,0.808594,-0.404297,0.330078,-0.964844,0.300537,-0.07843,0.671509,0.672791,down
551026,-4.90625,7.855469,0.808594,-0.404297,0.330078,-0.964844,0.303467,-0.085571,0.6698,0.672241,down
551031,-4.945312,7.894531,0.808594,-0.558594,0.378906,-1.064453,0.304565,-0.088623,0.668884,0.672241,down
551037,-5.175781,7.894531,0.886719,-0.558594,0.378906,-1.064453,0.305603,-0.091553,0.667969,0.672363,down
551042,-5.023437,7.855469,0.808594,-0.558594,0.378906,-1.064453,0.30658,-0.09436,0.666992,0.672424,down
551047,-5.136719,8.082031,0.847656,-0.558594,0.378906,-1.064453,0.3078,-0.098083,0.66571,0.672668,down
551052,-5.136719,8.078125,0.925781,-0.789062,0.421875,-1.255859,0.308838,-0.101013,0.664612,0.672852,down
551057,-5.175781,8.050781,1.0,-0.789062,0.421875,-1.255859,0.31012,-0.104675,0.663147,0.673096,down
551063,-5.175781,8.007813,1.117188,-0.789062,0.421875,-1.255859,0.311401,-0.108093,0.661682,0.673401,down
551069,-5.214844,8.160156,1.191406,-0.992187,0.357422,-1.398438,0.311401,-0.108093,0.661682,0.673401,down
551074,-4.601562,7.8125,1.460938,-1.054688,0.341797,-1.449219,0.311401,-0.108093,0.661682,0.673401,down
551080,-5.671875,7.011719,2.074219,-1.15625,0.400391,-1.53125,0.315979,-0.119385,0.656128,0.674805,down
551086,-5.367187,7.816406,1.308594,-1.337891,0.572266,-1.726563,0.315979,-0.119385,0.656128,0.674805,down
551091,-5.40625,7.429687,1.15625,-1.337891,0.572266,-1.726563,0.320923,-0.133667,0.648926,0.676758,down
551096,-5.480469,7.429687,1.347656,-1.337891,0.572266,-1.726563,0.32251,-0.138367,0.646423,0.67749,down
551101,-5.75,7.429687,1.578125,-1.337891,0.572266,-1.726563,0.324341,-0.143677,0.643555,0.678223,down
551106,-5.710937,7.429687,1.539063,-1.587891,0.650391,-2.080078,0.326416,-0.149841,0.640381,0.678955,down
551111,-6.09375,7.242187,1.691406,-1.587891,0.650391,-2.080078,0.326416,-0.149841,0.640381,0.678955,down
551116,-6.25,7.207031,1.769531,-1.587891,0.650391,-2.080078,0.330078,-0.162048,0.634216,0.680115,down
551121,-6.441406,7.050781,1.882813,-1.587891,0.650391,-2.080078,0.330078,-0.162048,0.634216,0.680115,down
551126,-6.441406,7.050781,1.882813,-1.710938,0.90625,-2.359375,0.33197,-0.168762,0.631042,0.680542,down
551131,-6.976562,7.355469,1.960938,-1.699219,0.974609,-2.484375,0.333618,-0.174744,0.628235,0.680786,down
551136,-6.976562,7.355469,1.960938,-1.699219,0.974609,-2.484375,0.333618,-0.174744,0.628235,0.680786,down
551141,-7.625,7.507812,1.882813,-1.705078,1.183594,-2.736328,0.337585,-0.189575,0.621887,0.680725,down
551146,-8.050781,7.660156,1.921875,-1.707031,1.25,-2.875,0.341736,-0.205444,0.615417,0.679871,down
551152,-9.078125,8.390625,2.113281,-1.707031,1.25,-2.875,0.344055,-0.214172,0.612,0.679138,down
551157,-9.503906,8.964844,2.113281,-1.689453,1.419922,-3.267578,0.344055,-0.214172,0.612,0.679138,down
551162,-9.503906,8.964844,2.113281,-1.726563,1.462891,-3.363281,0.348877,-0.231689,0.605164,0.677063,down
551169,-10.804688,9.347656,2.1875,-1.726563,1.462891,-3.363281,0.351379,-0.241089,0.601318,0.675903,down
551174,-11.1875,9.5,2.152344,-2.009766,1.521484,-3.498047,0.351379,-0.241089,0.601318,0.675903,down
551179,-11.652344,9.84375,2.226563,-2.183594,1.53125,-3.521484,0.351379,-0.241089,0.601318,0.675903,down
551184,-11.996094,10.265625,2.304688,-2.337891,1.488281,-3.517578,0.351379,-0.241089,0.601318,0.675903,down
551189,-12.800781,11.03125,2.417969,-2.337891,1.488281,-3.517578,0.351379,-0.241089,0.601318,0.675903,down
551195,-13.222656,11.222656,2.378906,-2.337891,1.488281,-3.517578,0.362244,-0.289429,0.577393,0.671997,down
551200,-13.679688,11.414063,2.304688,-3.017578,1.392578,-3.447266,0.365356,-0.309631,0.564514,0.672302,down
551205,-13.945313,11.261719,2.265625,-3.017578,1.392578,-3.447266,0.365356,-0.309631,0.564514,0.672302,down
551210,-14.289063,10.957031,2.226563,-3.017578,1.392578,-3.447266,0.365356,-0.309631,0.564514,0.672302,down
551215,-14.289063,10.957031,2.226563,-3.726563,1.257813,-3.349609,0.367126,-0.3302,0.548767,0.674561,down
551221,-14.792969,9.269531,2.609375,-3.726563,1.257813,-3.349609,0.367126,-0.3302,0.548767,0.674561,down
551226,-14.789063,8.773438,2.726563,-3.726563,1.257813,-3.349609,0.366455,-0.362244,0.518677,0.682251,down
551231,-14.871094,8.351563,2.957031,-5.140625,0.904297,-2.873047,0.366455,-0.362244,0.518677,0.682251,down
551236,-15.019531,8.046875,3.222656,-5.095703,0.828125,-2.748047,0.365601,-0.372131,0.50824,0.685242,down
551241,-15.328125,7.242187,3.761719,-5.095703,0.828125,-2.748047,0.363403,-0.390198,0.487976,0.691101,down
551246,-15.480469,7.050781,3.953125,-5.095703,0.828125,-2.748047,0.362122,-0.398621,0.477783,0.694031,down
551251,-15.675781,7.011719,3.953125,-4.517578,0.455078,-2.1875,0.362122,-0.398621,0.477783,0.694031,down
551256,-15.902344,6.742187,4.066406,-4.517578,0.455078,-2.1875,0.360718,-0.407227,0.466797,0.697266,down
551261,-16.054687,6.703125,4.21875,-4.517578,0.455078,-2.1875,0.358276,-0.419617,0.44928,0.702637,down
551266,-16.058594,6.628906,4.335937,-3.46875,-0.21875,-1.3125,0.358276,-0.419617,0.44928,0.702637,down
551271,-15.980469,6.398437,4.601562,-3.058594,-0.439453,-0.929687,0.357056,-0.424683,0.440674,0.705688,down
551276,-15.980469,5.824219,5.101562,-3.058594,-0.439453,-0.929687,0.354675,-0.430542,0.427185,0.711609,down
551281,-15.9375,5.707031,5.101562,-3.058594,-0.439453,-0.929687,0.354675,-0.430542,0.427185,0.711609,down
551286,-15.9375,5.707031,5.101562,-2.261719,-0.863281,0.019531,0.353271,-0.431519,0.422058,0.714722,down
551291,-15.941406,5.402344,5.023437,-1.849609,-1.070313,0.533203,0.353271,-0.431519,0.422058,0.714722,down
551296,-15.480469,4.75,4.679687,-1.488281,-1.289063,1.070313,0.353271,-0.431519,0.422058,0.714722,down
551301,-15.289063,4.558594,4.488281,-1.123047,-1.494141,1.613281,0.344299,-0.422974,0.411438,0.730225,down
551306,-15.132813,4.289062,4.335937,-0.421875,-1.763672,2.693359,0.344299,-0.422974,0.411438,0.730225,down
551311,-14.328125,3.984375,3.988281,-0.421875,-1.763672,2.693359,0.34082,-0.417542,0.411499,0.734985,down
551316,-13.789063,3.792969,3.796875,0.201172,-1.929688,3.705078,0.336975,-0.411438,0.412476,0.739624,down
551321,-13.296875,3.753906,3.566406,0.523437,-1.941406,4.189453,0.332275,-0.40387,0.414612,0.74469,down
551326,-12.257813,3.792969,2.992188,0.523437,-1.941406,4.189453,0.327881,-0.396851,0.417297,0.748901,down
551331,-11.691406,3.984375,2.6875,0.523437,-1.941406,4.189453,0.321472,-0.386841,0.421875,0.754333,down
551336,-11.230469,4.023437,2.570313,1.365234,-1.753906,5.503906,0.315918,-0.37854,0.42627,0.758423,down
551341,-10.769531,4.136719,2.496094,1.564453,-1.671875,5.90625,0.308472,-0.367798,0.432556,0.763184,down
551346,-10.769531,4.136719,2.496094,1.564453,-1.671875,5.90625,0.301392,-0.358093,0.43866,0.76709,down
551351,-10.117188,4.597656,2.226563,1.71875,-1.574219,6.28125,0.301392,-0.358093,0.43866,0.76709,down
551356,-10.117188,4.597656,2.226563,1.830078,-1.455078,6.617187,0.283569,-0.335388,0.453918,0.775269,down
551361,-9.160156,4.40625,2.113281,1.830078,-1.455078,6.617187,0.262634,-0.311157,0.470642,0.782776,down
551366,-8.507813,4.136719,2.265625,1.830078,-1.455078,6.617187,0.250488,-0.297607,0.479614,0.78656,down
551371,-8.167969,3.984375,2.265625,1.830078,-1.455078,6.617187,0.250488,-0.297607,0.479614,0.78656,down
551376,-7.742187,3.871094,2.1875,1.900391,-1.289063,8.132813,0.250488,-0.297607,0.479614,0.78656,down
551381,-7.585937,3.753906,2.035156,1.900391,-1.289063,8.132813,0.226013,-0.271606,0.496277,0.79303,down
551386,-7.203125,3.101563,1.960938,1.912109,-1.269531,8.396484,0.211426,-0.256653,0.505493,0.796204,down
551391,-7.203125,3.101563,1.960938,1.947266,-1.304688,8.642578,0.198486,-0.243469,0.513245,0.798706,down
551396,-6.742187,2.875,2.152344,1.947266,-1.304688,8.642578,0.184021,-0.228638,0.521667,0.801086,down
551401,-5.332031,2.335938,2.226563,2.160156,-1.458984,9.132813,0.16864,-0.212585,0.530457,0.803101,down
551406,-5.175781,1.839844,2.113281,2.267578,-1.458984,9.369141,0.15332,-0.196594,0.53894,0.804626,down
551411,-4.828125,1.339844,1.84375,2.621094,-1.570313,9.710938,0.137512,-0.180115,0.547546,0.805542,down
551416,-4.257812,0.996094,1.691406,2.621094,-1.570313,9.710938,0.119446,-0.161011,0.55719,0.805786,down
551421,-3.484375,1.035156,1.84375,3.177734,-1.714844,9.839844,0.103271,-0.143555,0.565857,0.805298,down
551427,-2.414063,0.882812,1.191406,3.498047,-1.705078,9.845703,0.088196,-0.126953,0.574158,0.804016,down
551432,-2.378906,0.574219,1.347656,3.498047,-1.705078,9.845703,0.053528,-0.087952,0.593933,0.797913,down
551438,-1.269531,0.421875,1.886719,3.498047,-1.705078,9.845703,0.039246,-0.072021,0.602295,0.794006,down
551443,-0.730469,-0.039063,2.074219,3.498047,-1.705078,9.845703,0.023254,-0.054565,0.611938,0.788696,down
551448,-0.117188,-0.652344,1.960938,3.498047,-1.705078,9.845703,0.006531,-0.03717,0.621887,0.782227,down
551453,0.226562,-0.765625,1.648438,4.615234,-0.611328,9.203125,0.006531,-0.03717,0.621887,0.782227,down
551459,0.761719,-1.035156,1.425781,4.615234,-0.611328,9.203125,0.006531,-0.03717,0.621887,0.782227,down
551464,0.761719,-1.035156,1.425781,4.615234,-0.611328,9.203125,0.006531,-0.03717,0.621887,0.782227,down
551470,0.875,-0.957031,1.304688,4.787109,0.017578,8.724609,0.059814,-0.021301,-0.658508,-0.749878,down
551475,0.875,-0.957031,1.304688,5.15625,0.414062,8.337891,0.076843,-0.034119,-0.667542,-0.739807,down
551480,0.992187,-0.304688,1.308594,5.15625,0.414062,8.337891,0.09314,-0.045776,-0.676086,-0.729431,down
551485,0.839844,0.382813,1.425781,5.15625,0.414062,8.337891,0.09314,-0.045776,-0.676086,-0.729431,down
551491,0.761719,0.308594,1.5,5.517578,0.986328,7.707031,0.141968,-0.076721,-0.700867,-0.694763,down
551496,0.722656,0.039063,1.726563,5.517578,0.986328,7.707031,0.141968,-0.076721,-0.700867,-0.694763,down
551501,0.875,0.152344,2.074219,5.576172,1.185547,7.207031,0.141968,-0.076721,-0.700867,-0.694763,down
551506,0.992187,0.421875,2.269531,5.498047,1.316406,6.716797,0.141968,-0.076721,-0.700867,-0.694763,down
551511,1.070313,0.230469,2.609375,5.498047,1.316406,6.716797,0.188599,-0.101685,-0.722961,-0.656799,down
551516,1.03125,-0.113281,2.800781,5.498047,1.316406,6.716797,0.203247,-0.108826,-0.729553,-0.64386,down
551521,1.070313,-0.574219,3.074219,5.498047,1.316406,6.716797,0.218018,-0.115784,-0.736145,-0.630188,down
551526,1.070313,-0.574219,3.074219,5.234375,1.251953,5.826172,0.230164,-0.121338,-0.741455,-0.61853,down
551531,1.296875,-1.148438,3.757813,5.09375,1.140625,5.541016,0.230164,-0.121338,-0.741455,-0.61853,down
551536,1.296875,-1.148438,3.757813,4.923828,1.087891,5.277344,0.2547,-0.132385,-0.752014,-0.593384,down
551541,1.527344,-0.917969,3.5625,4.673828,0.904297,4.765625,0.2547,-0.132385,-0.752014,-0.593384,down
551546,1.375,-0.726562,3.257813,4.673828,0.904297,4.765625,0.276489,-0.142151,-0.761169,-0.569153,down
551551,1.105469,-0.84375,3.296875,4.673828,0.904297,4.765625,0.286926,-0.146851,-0.765686,-0.556641,down
551557,0.992187,-0.84375,3.453125,4.320312,0.470703,4.007812,0.286926,-0.146851,-0.765686,-0.556641,down
551562,0.914062,-0.917969,3.601563,4.320312,0.470703,4.007812,0.312195,-0.15863,-0.777588,-0.522278,down
551567,0.53125,-1.109375,3.261719,4.320312,0.470703,4.007812,0.312195,-0.15863,-0.777588,-0.522278,down
551572,0.226562,-1.148438,3.21875,4.193359,0.140625,3.464844,0.318359,-0.161743,-0.781128,-0.512207,down
551577,0.226562,-1.148438,3.21875,4.105469,-0.068359,3.160156,0.324219,-0.164795,-0.784912,-0.501587,down
551583,-0.234375,-2.183594,3.757813,4.105469,-0.068359,3.160156,0.333435,-0.170044,-0.793091,-0.480591,down
551589,-0.695312,-2.414063,3.761719,4.105469,-0.068359,3.160156,0.336609,-0.171997,-0.797241,-0.470642,down
551595,-0.960937,-2.605469,3.496094,3.767578,-0.863281,1.744141,0.336609,-0.171997,-0.797241,-0.470642,down
551601,-1.113281,-2.835938,3.257813,3.373047,-1.265625,0.966797,0.336609,-0.171997,-0.797241,-0.470642,down
551607,-1.613281,-2.910156,3.074219,3.373047,-1.265625,0.966797,0.340454,-0.175598,-0.814758,-0.435181,down
551612,-1.804688,-2.644531,2.996094,3.0,-1.708984,0.154297,0.340454,-0.175598,-0.814758,-0.435181,down
551617,-2.1875,-2.527344,2.992188,3.0,-1.708984,0.154297,0.336243,-0.174744,-0.824341,-0.420532,down
551622,-2.378906,-2.335938,2.914063,3.0,-1.708984,0.154297,0.332947,-0.173828,-0.828613,-0.415161,down
551627,-3.074219,-2.183594,2.496094,2.205078,-2.355469,-1.097656,0.328003,-0.172241,-0.833618,-0.409729,down
551632,-3.484375,-2.105469,2.1875,2.205078,-2.355469,-1.097656,0.322266,-0.170288,-0.838379,-0.405334,down
551637,-4.328125,-2.144531,1.804688,2.205078,-2.355469,-1.097656,0.315674,-0.167847,-0.843018,-0.401917,down
551642,-4.792969,-2.03125,1.769531,2.205078,-2.355469,-1.097656,0.315674,-0.167847,-0.843018,-0.401917,down
551647,-4.792969,-2.03125,1.769531,1.515625,-3.132813,-2.554688,0.30835,-0.164978,-0.847473,-0.399353,down
551652,-5.066406,-1.683594,1.804688,1.515625,-3.132813,-2.554688,0.298828,-0.161072,-0.852661,-0.397095,down
551657,-6.363281,-1.148438,2.074219,0.910156,-4.300781,-4.193359,0.298828,-0.161072,-0.852661,-0.397095,down
551662,-6.363281,-1.148438,2.074219,0.910156,-4.300781,-4.193359,0.26178,-0.145752,-0.868835,-0.394165,down
551667,-7.167969,-0.84375,2.035156,0.492187,-5.417969,-5.40625,0.26178,-0.145752,-0.868835,-0.394165,down
551672,-8.585938,0.382813,2.1875,0.492187,-5.417969,-5.40625,0.244568,-0.138855,-0.874878,-0.394226,down
551677,-9.082031,1.839844,1.769531,0.492187,-5.417969,-5.40625,0.204346,-0.12262,-0.886536,-0.396545,down
551682,-9.621094,3.140625,1.078125,0.492187,-5.417969,-5.40625,0.204346,-0.12262,-0.886536,-0.396545,down
551687,-10.230469,4.289062,0.273438,-1.375,-8.197266,-8.998047,0.204346,-0.12262,-0.886536,-0.396545,down
551693,-11.691406,6.703125,-2.101563,-1.375,-8.197266,-8.998047,0.127441,-0.091064,-0.899414,-0.408081,down
551699,-13.296875,8.542969,-4.78125,-1.375,-8.197266,-8.998047,0.09613,-0.078491,-0.901367,-0.414856,down
551704,-13.296875,8.542969,-4.78125,-4.279297,-10.855469,-12.257813,0.060181,-0.063965,-0.90155,-0.423645,down
551709,-13.296875,8.542969,-4.78125,-5.511719,-11.546875,-13.357422,0.020996,-0.047852,-0.899231,-0.434326,down
551714,-14.40625,13.023438,-8.230469,-5.511719,-11.546875,-13.357422,0.020996,-0.047852,-0.899231,-0.434326,down
551720,-14.292969,16.746094,-13.019531,-6.888672,-12.005859,-14.423828,0.066284,0.009277,0.884338,0.462036,down
551725,-15.097656,17.195312,-14.398438,-10.011719,-12.804688,-16.580078,0.066284,0.009277,0.884338,0.462036,down
551731,-13.988281,16.890625,-13.863281,-13.105469,-11.736328,-18.822266,0.066284,0.009277,0.884338,0.462036,down
551736,-13.71875,16.128906,-13.363281,-13.105469,-11.736328,-18.822266,0.207336,-0.066956,0.828552,0.515808,down
551742,-15.136719,13.828125,-12.902344,-15.208984,-9.324219,-20.390625,0.207336,-0.066956,0.828552,0.515808,down
551747,-23.257812,8.8125,-10.300781,-15.208984,-9.324219,-20.390625,0.295471,-0.135071,0.767029,0.553223,down
551752,-28.117187,10.648438,-8.804688,-14.023438,-7.169922,-20.173828,0.336975,-0.175598,0.728577,0.569885,down
551757,-32.300781,16.855469,-7.386719,-14.023438,-7.169922,-20.173828,0.374878,-0.216187,0.688354,0.582153,down
551762,-35.402344,23.941406,-5.664062,-14.023438,-7.169922,-20.173828,0.408936,-0.252075,0.650208,0.588684,down
551767,-36.703125,29.34375,-0.261719,-9.132813,-7.421875,-17.529297,0.465881,-0.300598,0.587585,0.589417,down
551772,-34.515625,31.222656,1.117188,-5.298828,-7.119141,-12.738281,0.465881,-0.300598,0.587585,0.589417,down
551777,-31.609375,31.449219,2.648438,-5.298828,-7.119141,-12.738281,0.495239,-0.319153,0.555664,0.586609,down
551782,-28.355469,24.9375,5.367187,-4.328125,-6.341797,-9.888672,0.532715,-0.337891,0.511902,0.583069,down
551788,-26.96875,8.925781,10.042969,-4.328125,-6.341797,-9.888672,0.544495,-0.341919,0.49762,0.582214,down
551793,-26.96875,8.925781,10.042969,0.494141,-1.982422,-2.560547,0.553833,-0.343018,0.488892,0.5802,down
551798,-26.78125,4.597656,6.976562,0.494141,-1.982422,-2.560547,0.55957,-0.341492,0.487366,0.576904,down
551803,-25.519531,3.753906,4.71875,0.494141,-1.982422,-2.560547,0.563721,-0.338135,0.489807,0.572693,down
551809,-21.414062,8.007813,1.613281,0.494141,-1.982422,-2.560547,0.568542,-0.33197,0.495544,0.566528,down
551814,-19.542969,11.453125,1.460938,4.857422,-0.037109,0.080078,0.572205,-0.326111,0.501099,0.561401,down
551821,-17.855469,14.328125,1.078125,4.857422,-0.037109,0.080078,0.576172,-0.318359,0.509094,0.554565,down
551826,-15.480469,16.816406,-0.300781,4.857422,-0.037109,0.080078,0.576172,-0.318359,0.509094,0.554565,down
551832,-14.253906,15.863281,0.003906,3.953125,1.310547,0.523437,0.5802,-0.302917,0.531677,0.537476,down
551837,-12.335938,11.761719,0.695312,3.150391,1.720703,0.65625,0.5802,-0.302917,0.531677,0.537476,down
551842,-11.769531,10.113281,0.808594,3.150391,1.720703,0.65625,0.578735,-0.296448,0.546143,0.528137,down
551847,-11.386719,8.582031,0.925781,2.882813,1.626953,0.707031,0.578735,-0.296448,0.546143,0.528137,down
551852,-11.03125,7.355469,1.117188,2.488281,1.400391,0.722656,0.577637,-0.293274,0.553406,0.523499,down
551858,-10.042969,6.089844,1.84375,2.488281,1.400391,0.722656,0.575623,-0.287903,0.564697,0.516602,down
551863,-9.65625,5.863281,2.074219,1.615234,1.009766,0.855469,0.57428,-0.285278,0.569702,0.514038,down
551869,-9.042969,5.058594,2.6875,1.615234,1.009766,0.855469,0.572876,-0.283691,0.572815,0.513062,down
551876,-8.816406,4.597656,2.957031,0.048828,0.800781,1.097656,0.572876,-0.283691,0.572815,0.513062,down
551881,-8.546875,3.753906,2.839844,0.048828,0.800781,1.097656,0.572876,-0.283691,0.572815,0.513062,down
551886,-8.351563,3.410156,2.992188,-0.138672,0.658203,1.134766,0.572876,-0.283691,0.572815,0.513062,down
551892,-7.96875,2.949219,3.414063,-0.03125,0.546875,1.117188,0.572876,-0.283691,0.572815,0.513062,down
551897,-7.824219,2.835938,3.339844,0.779297,0.525391,0.986328,0.561218,-0.279968,0.581726,0.517944,down
551902,-7.824219,2.796875,3.109375,0.779297,0.525391,0.986328,0.559387,-0.27832,0.584045,0.518188,down
551907,-7.855469,2.875,3.03125,0.779297,0.525391,0.986328,0.557251,-0.273865,0.589417,0.516785,down
551912,-7.933594,2.875,2.917969,0.779297,0.525391,0.986328,0.556702,-0.271362,0.592102,0.515625,down
551917,-7.933594,2.949219,2.648438,0.779297,0.525391,0.986328,0.556702,-0.271362,0.592102,0.515625,down
551922,-7.96875,3.101563,2.570313,1.570313,0.123047,0.675781,0.556702,-0.271362,0.592102,0.515625,down
551927,-8.164063,3.21875,2.265625,1.570313,0.123047,0.675781,0.556335,-0.265442,0.597717,0.512634,down
551932,-8.164063,3.449219,2.1875,1.570313,0.123047,0.675781,0.556396,-0.262268,0.600342,0.511047,down
551938,-8.164063,3.523438,1.996094,0.976562,-0.078125,0.552734,0.556396,-0.262268,0.600342,0.511047,down
551943,-8.207031,3.601563,1.769531,0.976562,-0.078125,0.552734,0.556641,-0.255066,0.605347,0.508545,down
551949,-8.207031,4.0625,0.925781,0.976562,-0.078125,0.552734,0.556519,-0.253601,0.605896,0.508789,down
551954,-8.277344,4.0625,0.582031,-0.105469,-0.195312,0.626953,0.556519,-0.253601,0.605896,0.508789,down
551960,-8.3125,4.097656,0.464844,-0.279297,-0.210937,0.685547,0.556519,-0.253601,0.605896,0.508789,down
551965,-8.351563,4.023437,0.390625,-0.400391,-0.230469,0.746094,0.556519,-0.253601,0.605896,0.508789,down
551971,-8.433594,3.792969,0.351563,-0.400391,-0.230469,0.746094,0.556519,-0.253601,0.605896,0.508789,down
551976,-8.46875,3.449219,0.234375,-0.400391,-0.230469,0.746094,0.552795,-0.249023,0.604797,0.516357,down
551981,-8.429688,3.179688,0.3125,-0.435547,-0.130859,0.796875,0.552795,-0.249023,0.604797,0.516357,down
551987,-8.203125,3.027344,0.351563,-0.435547,-0.130859,0.796875,0.549744,-0.246399,0.604492,0.521179,down
551992,-8.167969,3.066406,0.351563,-0.435547,-0.130859,0.796875,0.549744,-0.246399,0.604492,0.521179,down
551997,-8.207031,3.179688,0.351563,0.341797,0.005859,0.667969,0.548462,-0.243652,0.606079,0.522034,down
552002,-8.242188,3.410156,0.3125,0.341797,0.005859,0.667969,0.548462,-0.243652,0.606079,0.522034,down
552008,-8.246094,3.5625,0.425781,0.9375,0.248047,0.541016,0.548462,-0.243652,0.606079,0.522034,down
552013,-8.242188,3.714844,0.582031,0.9375,0.248047,0.541016,0.546875,-0.238281,0.611511,0.519836,down
552019,-8.394531,3.945313,0.695312,0.9375,0.248047,0.541016,0.546204,-0.236572,0.613647,0.518738,down
552024,-8.855469,4.097656,0.773437,0.9375,0.248047,0.541016,0.545471,-0.235229,0.615723,0.5177,down
552029,-8.96875,4.214844,0.886719,0.929687,0.576172,0.457031,0.545471,-0.235229,0.615723,0.5177,down
552034,-9.160156,4.289062,1.117188,0.857422,0.564453,0.410156,0.545471,-0.235229,0.615723,0.5177,down
552040,-9.234375,4.328125,1.347656,0.857422,0.564453,0.410156,0.542786,-0.231873,0.622131,0.514343,down
552046,-9.433594,4.558594,1.539063,0.857422,0.564453,0.410156,0.542786,-0.231873,0.622131,0.514343,down
552052,-9.621094,4.675781,1.539063,0.4375,0.533203,0.285156,0.542786,-0.231873,0.622131,0.514343,down
552057,-9.660156,4.710937,1.578125,0.308594,0.484375,0.261719,0.542786,-0.231873,0.622131,0.514343,down
552062,-9.734375,4.636719,1.652344,0.308594,0.484375,0.261719,0.539062,-0.230347,0.627991,0.511841,down
552068,-9.773438,4.558594,1.730469,0.083984,0.359375,0.261719,0.537476,-0.230225,0.629395,0.511841,down
552073,-9.8125,4.445312,1.691406,0.083984,0.359375,0.261719,0.536682,-0.230225,0.629822,0.512146,down
552078,-9.816406,4.367187,1.730469,0.083984,0.359375,0.261719,0.53595,-0.230225,0.630005,0.512695,down
552083,-9.695313,4.253906,1.730469,-0.25,0.085937,0.345703,0.535156,-0.230164,0.630066,0.513428,down
552088,-9.582031,4.175781,1.652344,-0.25,0.085937,0.345703,0.534546,-0.230042,0.630005,0.514221,down
552093,-9.351563,3.984375,1.613281,-0.25,0.085937,0.345703,0.533875,-0.229797,0.629944,0.515137,down
552098,-9.273438,3.871094,1.613281,-0.171875,-0.03125,0.425781,0.533203,-0.22937,0.629883,0.516052,down
552103,-9.273438,3.753906,1.5,-0.171875,-0.03125,0.425781,0.532654,-0.228882,0.629883,0.516785,down
552108,-9.011719,3.523438,1.421875,-0.011719,-0.046875,0.453125,0.532654,-0.228882,0.629883,0.516785,down
552114,-8.929688,3.488281,1.5,-0.011719,-0.046875,0.453125,0.531555,-0.227356,0.630249,0.518188,down
552119,-8.894531,3.449219,1.539063,0.132812,-0.015625,0.429687,0.531067,-0.226501,0.630615,0.518616,down
552125,-8.699219,3.449219,1.347656,0.132812,-0.015625,0.429687,0.530701,-0.225769,0.630981,0.51886,down
552131,-8.660156,3.449219,1.308594,0.132812,-0.015625,0.429687,0.530273,-0.224854,0.631592,0.519043,down
552137,-8.625,3.488281,1.230469,0.308594,0.074219,0.402344,0.530273,-0.224854,0.631592,0.519043,down
552143,-8.625,3.640625,1.269531,0.410156,0.119141,0.384766,0.530273,-0.224854,0.631592,0.519043,down
552148,-8.589844,3.753906,1.269531,0.410156,0.119141,0.384766,0.528381,-0.220886,0.634949,0.518555,down
552153,-8.585938,3.871094,1.230469,0.410156,0.119141,0.384766,0.528381,-0.220886,0.634949,0.518555,down
552158,-8.625,3.945313,1.191406,0.400391,0.158203,0.367188,0.528381,-0.220886,0.634949,0.518555,down
552163,-8.546875,3.984375,1.230469,0.382813,0.167969,0.378906,0.527344,-0.219055,0.636841,0.518005,down
552168,-8.46875,4.0625,1.191406,0.382813,0.167969,0.378906,0.526306,-0.217407,0.638611,0.517578,down
552173,-8.46875,3.984375,1.117188,0.292969,0.195312,0.369141,0.526306,-0.217407,0.638611,0.517578,down
552178,-8.433594,3.90625,1.078125,0.257813,0.189453,0.365234,0.525635,-0.216553,0.639587,0.517456,down
552183,-8.394531,3.90625,1.078125,0.257813,0.189453,0.365234,0.524414,-0.215271,0.641113,0.517395,down
552188,-8.390625,3.945313,1.117188,0.257813,0.189453,0.365234,0.523743,-0.214661,0.641785,0.517456,down
552193,-8.355469,3.832031,1.0,0.257813,0.189453,0.365234,0.523743,-0.214661,0.641785,0.517456,down
552198,-8.316406,3.792969,1.0,0.150391,0.140625,0.363281,0.522522,-0.21344,0.642944,0.517761,down
552203,-8.355469,3.714844,1.0,0.150391,0.140625,0.363281,0.521973,-0.21283,0.643372,0.517944,down
552208,-8.3125,3.679688,0.925781,0.080078,0.082031,0.347656,0.521973,-0.21283,0.643372,0.517944,down
552213,-8.316406,3.640625,0.886719,0.082031,0.0625,0.339844,0.521362,-0.212219,0.64386,0.51825,down
552218,-8.273438,3.5625,0.808594,0.115234,0.037109,0.310547,0.520813,-0.21167,0.644226,0.518555,down
552223,-8.277344,3.601563,0.886719,0.115234,0.037109,0.310547,0.520386,-0.211121,0.644592,0.518738,down
552228,-8.277344,3.714844,0.847656,0.191406,0.011719,0.259766,0.52002,-0.210449,0.64502,0.518921,down
552233,-8.277344,3.90625,0.808594,0.191406,0.011719,0.259766,0.519714,-0.209839,0.645386,0.518982,down
