timestamp,ax,ay,az,gx,gy,gz,qw,qx,qy,qz,label
584695,7.382812,5.972656,-1.949219,0.097656,-0.076172,-0.205078,0.347656,-0.20697,-0.751099,-0.521667,down
584700,7.382812,5.972656,-1.949219,0.097656,-0.076172,-0.205078,0.347656,-0.20697,-0.751099,-0.521667,down
584705,7.382812,6.046875,-1.949219,0.097656,-0.076172,-0.205078,0.34729,-0.205383,-0.751892,-0.521423,down
584710,7.34375,6.085937,-1.988281,0.097656,-0.076172,-0.205078,0.34729,-0.205383,-0.751892,-0.521423,down
584715,7.347656,6.085937,-2.023438,0.060547,-0.066406,-0.232422,0.34729,-0.205383,-0.751892,-0.521423,down
584721,7.382812,6.164062,-1.988281,0.060547,-0.066406,-0.232422,0.34613,-0.204163,-0.752686,-0.521545,down
584727,7.460937,6.316406,-2.140625,0.060547,-0.066406,-0.232422,0.345581,-0.203796,-0.75293,-0.521729,down
584733,7.425781,6.316406,-2.179688,-0.058594,-0.09375,-0.246094,0.345581,-0.203796,-0.75293,-0.521729,down
584738,7.503906,6.355469,-2.332031,-0.058594,-0.09375,-0.246094,0.344543,-0.203186,-0.753174,-0.522278,down
584743,7.464844,6.390625,-2.292969,-0.136719,-0.119141,-0.267578,0.344543,-0.203186,-0.753174,-0.522278,down
584749,7.464844,6.355469,-2.332031,-0.167969,-0.117188,-0.269531,0.344543,-0.203186,-0.753174,-0.522278,down
584754,7.5,6.238281,-2.292969,-0.181641,-0.113281,-0.279297,0.344543,-0.203186,-0.753174,-0.522278,down
584760,7.5,6.238281,-2.332031,-0.181641,-0.113281,-0.279297,0.341187,-0.201904,-0.753235,-0.52478,down
584765,7.421875,6.199219,-2.253906,-0.181641,-0.113281,-0.279297,0.341187,-0.201904,-0.753235,-0.52478,down
584770,7.464844,6.046875,-2.214844,-0.193359,-0.107422,-0.292969,0.339844,-0.201416,-0.753235,-0.52594,down
584775,7.386719,6.007812,-2.140625,-0.193359,-0.107422,-0.292969,0.339844,-0.201416,-0.753235,-0.52594,down
584781,7.308594,5.972656,-2.140625,-0.115234,-0.068359,-0.28125,0.339844,-0.201416,-0.753235,-0.52594,down
584786,7.265625,5.972656,-2.101563,-0.115234,-0.068359,-0.28125,0.338013,-0.200378,-0.753296,-0.527405,down
584791,7.195312,5.933594,-2.023438,-0.115234,-0.068359,-0.28125,0.337524,-0.199951,-0.753357,-0.527771,down
584796,7.15625,5.972656,-2.023438,-0.115234,-0.068359,-0.28125,0.337158,-0.199646,-0.753479,-0.528015,down
584801,7.15625,6.007812,-1.988281,-0.015625,-0.048828,-0.220703,0.33667,-0.199219,-0.753601,-0.528259,down
584806,7.160156,5.972656,-1.988281,-0.015625,-0.048828,-0.220703,0.33667,-0.199219,-0.753601,-0.528259,down
584811,7.117187,5.972656,-1.949219,-0.015625,-0.048828,-0.220703,0.335999,-0.198608,-0.753845,-0.528564,down
584816,7.082031,6.007812,-1.949219,0.044922,-0.052734,-0.158203,0.335999,-0.198608,-0.753845,-0.528564,down
584821,7.039062,6.007812,-1.910156,0.044922,-0.052734,-0.158203,0.335449,-0.198059,-0.754211,-0.528625,down
584826,7.082031,6.085937,-1.949219,0.044922,-0.052734,-0.158203,0.335144,-0.197815,-0.754395,-0.528564,down
584831,7.042969,6.085937,-1.949219,0.044922,-0.052734,-0.158203,0.334961,-0.197571,-0.754578,-0.528503,down
584836,7.039062,6.125,-2.0625,0.09375,-0.054687,-0.113281,0.334717,-0.197327,-0.754822,-0.528442,down
584841,7.003906,6.125,-2.023438,0.095703,-0.058594,-0.113281,0.334717,-0.197327,-0.754822,-0.528442,down
584846,7.039062,6.125,-2.0625,0.095703,-0.058594,-0.113281,0.33429,-0.196838,-0.75531,-0.528198,down
584851,7.0,6.199219,-2.023438,0.095703,-0.058594,-0.113281,0.334106,-0.196655,-0.755493,-0.528076,down
584856,7.042969,6.199219,-2.0625,0.121094,-0.072266,-0.09375,0.333923,-0.196472,-0.755798,-0.527954,down
584861,7.042969,6.199219,-2.0625,0.121094,-0.072266,-0.09375,0.333923,-0.196472,-0.755798,-0.527954,down
584866,7.0,6.164062,-2.0625,0.130859,-0.078125,-0.09375,0.333679,-0.196289,-0.756042,-0.527771,down
584872,7.0,6.164062,-2.0625,0.121094,-0.072266,-0.09375,0.333496,-0.196045,-0.756287,-0.527588,down
584877,6.964844,6.125,-2.023438,0.113281,-0.076172,-0.101563,0.333496,-0.196045,-0.756287,-0.527588,down
584882,7.0,6.085937,-2.0625,0.105469,-0.080078,-0.105469,0.333069,-0.195679,-0.756836,-0.527283,down
584887,7.003906,6.125,-2.023438,0.080078,-0.080078,-0.111328,0.33252,-0.195312,-0.757263,-0.5271,down
584892,7.0,6.125,-1.988281,0.080078,-0.080078,-0.111328,0.33252,-0.195312,-0.757263,-0.5271,down
584897,6.960937,6.125,-1.988281,0.037109,-0.089844,-0.142578,0.33252,-0.195312,-0.757263,-0.5271,down
584903,7.0,6.125,-2.0625,0.037109,-0.089844,-0.142578,0.33252,-0.195312,-0.757263,-0.5271,down
584909,7.003906,6.199219,-2.101563,0.017578,-0.101563,-0.162109,0.33252,-0.195312,-0.757263,-0.5271,down
584914,7.039062,6.238281,-2.0625,-0.003906,-0.111328,-0.164062,0.33252,-0.195312,-0.757263,-0.5271,down
584920,6.964844,6.199219,-2.101563,-0.007813,-0.121094,-0.166016,0.329773,-0.194031,-0.758545,-0.527466,down
584925,7.003906,6.199219,-2.101563,-0.007813,-0.121094,-0.166016,0.329773,-0.194031,-0.758545,-0.527466,down
584930,6.964844,6.199219,-2.0625,-0.015625,-0.144531,-0.158203,0.329773,-0.194031,-0.758545,-0.527466,down
584935,7.003906,6.199219,-2.101563,-0.015625,-0.144531,-0.158203,0.328796,-0.193726,-0.758911,-0.527588,down
584940,6.960937,6.199219,-2.179688,-0.001953,-0.146484,-0.158203,0.327881,-0.193542,-0.759277,-0.527771,down
584945,7.0,6.238281,-2.253906,-0.001953,-0.146484,-0.158203,0.327881,-0.193542,-0.759277,-0.527771,down
584950,6.960937,6.238281,-2.253906,0.041016,-0.148437,-0.136719,0.327881,-0.193542,-0.759277,-0.527771,down
584955,7.0,6.277344,-2.253906,0.041016,-0.148437,-0.136719,0.326904,-0.193359,-0.759705,-0.527771,down
584961,7.0,6.277344,-2.332031,0.041016,-0.148437,-0.136719,0.326111,-0.193054,-0.760254,-0.527588,down
584966,6.960937,6.277344,-2.292969,0.115234,-0.103516,-0.105469,0.326111,-0.193054,-0.760254,-0.527588,down
584971,7.039062,6.277344,-2.292969,0.125,-0.089844,-0.113281,0.325806,-0.192932,-0.760559,-0.527466,down
584977,7.039062,6.277344,-2.292969,0.125,-0.089844,-0.113281,0.325317,-0.192566,-0.761108,-0.5271,down
584982,7.003906,6.316406,-2.332031,0.140625,-0.058594,-0.105469,0.325134,-0.192322,-0.761353,-0.526917,down
584987,7.003906,6.390625,-2.292969,0.140625,-0.058594,-0.105469,0.324951,-0.192078,-0.761658,-0.526672,down
584994,6.964844,6.355469,-2.214844,0.140625,-0.058594,-0.105469,0.324768,-0.191833,-0.761963,-0.526428,down
585000,6.960937,6.355469,-2.179688,0.134766,-0.058594,-0.09375,0.324768,-0.191833,-0.761963,-0.526428,down
585006,6.921875,6.316406,-2.214844,0.123047,-0.0625,-0.087891,0.324219,-0.191223,-0.762695,-0.525879,down
585011,6.925781,6.277344,-2.214844,0.123047,-0.0625,-0.087891,0.324036,-0.19104,-0.762939,-0.525757,down
585016,6.921875,6.316406,-2.214844,0.123047,-0.0625,-0.087891,0.323853,-0.190857,-0.763123,-0.525635,down
585021,6.921875,6.316406,-2.214844,0.123047,-0.0625,-0.087891,0.323853,-0.190857,-0.763123,-0.525635,down
585026,6.921875,6.390625,-2.214844,0.078125,-0.078125,-0.105469,0.323853,-0.190857,-0.763123,-0.525635,down
585031,6.921875,6.390625,-2.214844,0.056641,-0.072266,-0.111328,0.323364,-0.190552,-0.76355,-0.525513,down
585036,6.851562,6.316406,-2.253906,0.056641,-0.072266,-0.111328,0.322815,-0.190186,-0.763916,-0.525391,down
585041,6.851562,6.316406,-2.253906,0.056641,-0.072266,-0.111328,0.322571,-0.190063,-0.764099,-0.52533,down
585046,6.851562,6.355469,-2.214844,0.056641,-0.072266,-0.111328,0.322327,-0.18988,-0.764282,-0.525269,down
585051,6.8125,6.390625,-2.253906,0.066406,-0.089844,-0.111328,0.322327,-0.18988,-0.764282,-0.525269,down
585056,6.8125,6.390625,-2.253906,0.066406,-0.089844,-0.111328,0.322021,-0.189758,-0.764526,-0.525208,down
585061,6.8125,6.390625,-2.292969,0.060547,-0.091797,-0.111328,0.322021,-0.189758,-0.764526,-0.525208,down
585066,6.851562,6.390625,-2.292969,0.060547,-0.091797,-0.111328,0.321411,-0.189453,-0.764893,-0.525085,down
585071,6.851562,6.390625,-2.332031,0.048828,-0.097656,-0.103516,0.321106,-0.189331,-0.765076,-0.525085,down
585076,6.851562,6.355469,-2.332031,0.048828,-0.097656,-0.103516,0.320862,-0.189209,-0.765259,-0.525024,down
585082,6.851562,6.316406,-2.332031,0.048828,-0.097656,-0.103516,0.320313,-0.188965,-0.765625,-0.524902,down
585088,6.8125,6.390625,-2.332031,0.048828,-0.097656,-0.103516,0.320007,-0.188843,-0.765808,-0.524841,down
585093,6.851562,6.390625,-2.371094,0.064453,-0.048828,-0.113281,0.319824,-0.18866,-0.76593,-0.52478,down
585098,6.851562,6.390625,-2.371094,0.076172,-0.046875,-0.115234,0.319641,-0.188416,-0.766113,-0.524719,down
585104,6.773437,6.46875,-2.332031,0.076172,-0.046875,-0.115234,0.319458,-0.188232,-0.766296,-0.524658,down
585110,6.773437,6.46875,-2.332031,0.083984,-0.033203,-0.126953,0.319458,-0.188232,-0.766296,-0.524658,down
585116,6.773437,6.46875,-2.292969,0.068359,-0.035156,-0.146484,0.319458,-0.188232,-0.766296,-0.524658,down
585121,6.695312,6.355469,-2.214844,0.068359,-0.035156,-0.146484,0.318604,-0.187073,-0.767029,-0.524536,down
585126,6.695312,6.355469,-2.214844,0.068359,-0.035156,-0.146484,0.318604,-0.187073,-0.767029,-0.524536,down
585131,6.699219,6.316406,-2.179688,0.050781,-0.029297,-0.15625,0.318176,-0.186523,-0.767334,-0.524536,down
585136,6.699219,6.316406,-2.140625,0.044922,-0.058594,-0.152344,0.318176,-0.186523,-0.767334,-0.524536,down
585141,6.660156,6.355469,-2.101563,0.029297,-0.058594,-0.162109,0.317871,-0.186279,-0.767517,-0.524597,down
585146,6.660156,6.390625,-2.101563,0.029297,-0.058594,-0.162109,0.317566,-0.185974,-0.7677,-0.524597,down
585152,6.621094,6.355469,-2.101563,0.029297,-0.058594,-0.162109,0.316895,-0.185486,-0.767944,-0.52478,down
585158,6.621094,6.316406,-2.0625,0.029297,-0.058594,-0.162109,0.316589,-0.185303,-0.768066,-0.524841,down
585163,6.578125,6.316406,-2.140625,0.001953,-0.078125,-0.171875,0.316162,-0.185059,-0.76825,-0.524963,down
585168,6.578125,6.316406,-2.179688,0.001953,-0.076172,-0.177734,0.316162,-0.185059,-0.76825,-0.524963,down
585174,6.617187,6.316406,-2.140625,0.001953,-0.076172,-0.177734,0.315491,-0.18457,-0.768494,-0.525146,down
585181,6.578125,6.355469,-2.140625,0.001953,-0.076172,-0.177734,0.315491,-0.18457,-0.768494,-0.525146,down
585186,6.539062,6.390625,-2.140625,0.029297,-0.091797,-0.1875,0.31427,-0.183777,-0.769043,-0.52533,down
585191,6.542969,6.355469,-2.214844,0.029297,-0.091797,-0.1875,0.31427,-0.183777,-0.769043,-0.52533,down
585196,6.539062,6.390625,-2.179688,0.029297,-0.091797,-0.1875,0.313843,-0.183533,-0.769287,-0.525391,down
585201,6.5,6.390625,-2.179688,0.056641,-0.115234,-0.212891,0.313843,-0.183533,-0.769287,-0.525391,down
585206,6.464844,6.316406,-2.101563,0.056641,-0.115234,-0.212891,0.312927,-0.182983,-0.769714,-0.525452,down
585211,6.464844,6.316406,-2.101563,0.056641,-0.115234,-0.212891,0.312439,-0.182617,-0.77002,-0.525452,down
585216,6.429687,6.277344,-2.101563,0.056641,-0.115234,-0.212891,0.311951,-0.182312,-0.770264,-0.525513,down
585222,6.433594,6.277344,-2.023438,0.042969,-0.138672,-0.230469,0.310852,-0.181763,-0.770813,-0.525574,down
585227,6.390625,6.199219,-2.023438,0.042969,-0.138672,-0.230469,0.310303,-0.181458,-0.771057,-0.525635,down
585232,6.394531,6.164062,-1.949219,0.042969,-0.138672,-0.230469,0.309753,-0.181213,-0.771301,-0.525696,down
585237,6.3125,6.085937,-1.949219,0.017578,-0.158203,-0.261719,0.309082,-0.180908,-0.771545,-0.525818,down
585242,6.316406,6.085937,-1.910156,0.017578,-0.158203,-0.261719,0.308472,-0.180603,-0.77179,-0.525879,down
585248,6.234375,6.085937,-1.871094,0.017578,-0.158203,-0.261719,0.3078,-0.180298,-0.772034,-0.526001,down
585253,6.234375,6.125,-1.988281,0.023437,-0.171875,-0.277344,0.3078,-0.180298,-0.772034,-0.526001,down
585258,6.195312,6.199219,-1.988281,0.025391,-0.173828,-0.294922,0.306458,-0.179687,-0.772583,-0.526245,down
585263,6.195312,6.199219,-2.0625,0.025391,-0.173828,-0.294922,0.305664,-0.17926,-0.772949,-0.526306,down
585268,6.160156,6.238281,-2.140625,0.025391,-0.173828,-0.294922,0.305664,-0.17926,-0.772949,-0.526306,down
585274,6.121094,6.277344,-2.140625,0.046875,-0.207031,-0.337891,0.305664,-0.17926,-0.772949,-0.526306,down
585280,6.121094,6.3125,-2.140625,0.050781,-0.212891,-0.357422,0.305664,-0.17926,-0.772949,-0.526306,down
585286,6.082031,6.3125,-2.140625,0.050781,-0.212891,-0.357422,0.301575,-0.177124,-0.77478,-0.526733,down
585291,6.082031,6.277344,-2.179688,0.050781,-0.212891,-0.357422,0.301575,-0.177124,-0.77478,-0.526733,down
585296,6.082031,6.3125,-2.179688,0.052734,-0.230469,-0.425781,0.301575,-0.177124,-0.77478,-0.526733,down
585301,6.046875,6.351562,-2.253906,0.052734,-0.230469,-0.425781,0.299683,-0.176086,-0.775574,-0.526917,down
585306,6.046875,6.394531,-2.253906,0.052734,-0.230469,-0.425781,0.298706,-0.175537,-0.776001,-0.5271,down
585312,6.046875,6.390625,-2.179688,-0.033203,-0.28125,-0.460937,0.298706,-0.175537,-0.776001,-0.5271,down
585317,6.007812,6.351562,-2.140625,-0.033203,-0.28125,-0.460937,0.295288,-0.17395,-0.7771,-0.527832,down
585323,6.007812,6.164062,-2.179688,-0.033203,-0.28125,-0.460937,0.294128,-0.173523,-0.777405,-0.528198,down
585329,5.96875,6.164062,-2.179688,-0.119141,-0.300781,-0.472656,0.294128,-0.173523,-0.777405,-0.528198,down
585334,5.96875,6.125,-2.140625,-0.113281,-0.310547,-0.478516,0.294128,-0.173523,-0.777405,-0.528198,down
585339,5.929687,5.96875,-2.101563,-0.113281,-0.310547,-0.478516,0.290344,-0.17218,-0.778198,-0.529541,down
585345,5.890625,5.933594,-2.101563,-0.087891,-0.316406,-0.480469,0.290344,-0.17218,-0.778198,-0.529541,down
585351,5.894531,5.855469,-2.101563,0.013672,-0.326172,-0.474609,0.290344,-0.17218,-0.778198,-0.529541,down
585356,5.738281,5.816406,-1.988281,0.013672,-0.326172,-0.474609,0.28656,-0.170837,-0.779236,-0.530579,down
585361,5.699219,5.785156,-1.949219,0.060547,-0.314453,-0.484375,0.28656,-0.170837,-0.779236,-0.530579,down
585367,5.667969,5.664062,-1.988281,0.113281,-0.318359,-0.480469,0.282776,-0.169067,-0.780945,-0.53064,down
585372,5.546875,5.742187,-1.988281,0.113281,-0.318359,-0.480469,0.281738,-0.168396,-0.781616,-0.530457,down
585377,5.507812,5.78125,-2.023438,0.113281,-0.318359,-0.480469,0.28064,-0.167725,-0.782349,-0.53009,down
585382,5.472656,5.894531,-2.0625,0.371094,-0.34375,-0.498047,0.28064,-0.167725,-0.782349,-0.53009,down
585387,5.433594,5.890625,-2.0625,0.371094,-0.34375,-0.498047,0.279358,-0.166931,-0.783386,-0.529541,down
585393,5.394531,6.011719,-2.101563,0.371094,-0.34375,-0.498047,0.2771,-0.165344,-0.785156,-0.528564,down
585398,5.394531,6.195312,-2.179688,0.351563,-0.359375,-0.5625,0.275757,-0.16449,-0.786133,-0.528076,down
585403,5.355469,6.3125,-2.292969,0.308594,-0.341797,-0.587891,0.275757,-0.16449,-0.786133,-0.528076,down
585408,5.355469,6.394531,-2.445313,0.308594,-0.341797,-0.587891,0.273193,-0.16272,-0.787842,-0.527405,down
585414,5.355469,6.738281,-2.714844,0.308594,-0.341797,-0.587891,0.271729,-0.161743,-0.788635,-0.527283,down
585419,5.277344,6.738281,-2.789063,0.060547,-0.345703,-0.683594,0.270264,-0.160828,-0.789246,-0.527405,down
585424,5.203125,6.695312,-2.789063,-0.046875,-0.357422,-0.714844,0.270264,-0.160828,-0.789246,-0.527405,down
585429,5.277344,6.65625,-2.714844,-0.046875,-0.357422,-0.714844,0.270264,-0.160828,-0.789246,-0.527405,down
585434,5.242187,6.699219,-2.636719,-0.216797,-0.396484,-0.792969,0.270264,-0.160828,-0.789246,-0.527405,down
585440,5.164062,6.582031,-2.675781,-0.265625,-0.390625,-0.830078,0.270264,-0.160828,-0.789246,-0.527405,down
585445,5.164062,6.546875,-2.714844,-0.265625,-0.390625,-0.830078,0.261047,-0.156189,-0.791016,-0.530823,down
585450,5.125,6.578125,-2.5625,-0.265625,-0.390625,-0.830078,0.261047,-0.156189,-0.791016,-0.530823,down
585455,5.085937,6.621094,-2.484375,-0.265625,-0.390625,-0.830078,0.256897,-0.154114,-0.791443,-0.532776,down
585460,5.085937,6.621094,-2.484375,-0.203125,-0.429687,-1.009766,0.2547,-0.152954,-0.791809,-0.533691,down
585465,5.011719,6.617187,-2.484375,-0.203125,-0.429687,-1.009766,0.2547,-0.152954,-0.791809,-0.533691,down
585470,4.972656,6.695312,-2.445313,-0.107422,-0.498047,-1.115234,0.2547,-0.152954,-0.791809,-0.533691,down
585475,4.972656,6.695312,-2.445313,-0.107422,-0.498047,-1.115234,0.2547,-0.152954,-0.791809,-0.533691,down
585481,4.859375,7.160156,-2.40625,-0.074219,-0.570312,-1.285156,0.2547,-0.152954,-0.791809,-0.533691,down
585486,4.78125,7.277344,-2.40625,-0.074219,-0.570312,-1.285156,0.241821,-0.145386,-0.794678,-0.537476,down
585492,4.78125,7.382812,-2.445313,-0.166016,-0.677734,-1.371094,0.241821,-0.145386,-0.794678,-0.537476,down
585497,4.703125,7.460937,-2.445313,-0.228516,-0.744141,-1.417969,0.235718,-0.141968,-0.796021,-0.539062,down
585502,4.628906,7.578125,-2.484375,-0.228516,-0.744141,-1.417969,0.22876,-0.13855,-0.797241,-0.541138,down
585507,4.628906,7.578125,-2.484375,-0.447266,-0.824219,-1.521484,0.22876,-0.13855,-0.797241,-0.541138,down
585512,4.550781,7.542969,-2.523438,-0.572266,-0.867187,-1.548828,0.224731,-0.13678,-0.797729,-0.542603,down
585517,4.511719,7.503906,-2.636719,-0.572266,-0.867187,-1.548828,0.216919,-0.133667,-0.798157,-0.545959,down
585522,4.476562,7.460937,-2.675781,-0.572266,-0.867187,-1.548828,0.212769,-0.132141,-0.798096,-0.547974,down
585527,4.398437,7.316406,-2.753906,-0.572266,-0.867187,-1.548828,0.212769,-0.132141,-0.798096,-0.547974,down
585532,4.398437,7.3125,-2.828125,-0.875,-0.898437,-1.595703,0.204285,-0.12915,-0.797729,-0.55249,down
585537,4.398437,7.277344,-2.789063,-0.875,-0.898437,-1.595703,0.204285,-0.12915,-0.797729,-0.55249,down
585542,4.398437,7.386719,-2.828125,-0.896484,-0.871094,-1.583984,0.195984,-0.126221,-0.797119,-0.557007,down
585547,4.398437,7.464844,-2.828125,-0.792969,-0.777344,-1.601563,0.195984,-0.126221,-0.797119,-0.557007,down
585552,4.285156,7.769531,-3.019531,-0.792969,-0.777344,-1.601563,0.191467,-0.12439,-0.796814,-0.559448,down
585558,4.207031,7.882812,-3.058594,-0.792969,-0.777344,-1.601563,0.18396,-0.12085,-0.796448,-0.563232,down
585563,4.089844,8.042969,-3.175781,-0.576172,-0.685547,-1.648438,0.179687,-0.118652,-0.796387,-0.565186,down
585568,4.015625,8.34375,-3.25,-0.576172,-0.685547,-1.648438,0.175781,-0.116516,-0.796387,-0.566772,down
585573,3.976563,8.574219,-3.328125,-0.576172,-0.685547,-1.648438,0.172424,-0.114502,-0.79657,-0.568054,down
585578,3.898438,8.804688,-3.441406,-0.576172,-0.685547,-1.648438,0.168579,-0.112122,-0.796875,-0.569275,down
585584,3.785156,9.03125,-3.402344,-0.576172,-0.685547,-1.648438,0.164246,-0.109375,-0.797302,-0.570435,down
585590,3.671875,9.226563,-3.367188,-0.185547,-0.669922,-1.755859,0.164246,-0.109375,-0.797302,-0.570435,down
585596,3.59375,9.191406,-3.289063,-0.166016,-0.683594,-1.755859,0.164246,-0.109375,-0.797302,-0.570435,down
585601,3.59375,9.191406,-3.289063,-0.177734,-0.697266,-1.757813,0.153137,-0.102417,-0.798584,-0.572937,down
585606,3.554688,9.152344,-3.25,-0.207031,-0.6875,-1.761719,0.149109,-0.099915,-0.799011,-0.573853,down
585611,3.554688,9.152344,-3.25,-0.261719,-0.685547,-1.767578,0.145203,-0.097473,-0.799377,-0.574829,down
585616,3.441406,9.109375,-3.136719,-0.261719,-0.685547,-1.767578,0.145203,-0.097473,-0.799377,-0.574829,down
585621,3.441406,9.109375,-3.136719,-0.333984,-0.683594,-1.777344,0.137146,-0.092529,-0.799744,-0.577087,down
585627,3.25,9.453125,-3.019531,-0.460937,-0.710937,-1.798828,0.129028,-0.087769,-0.799683,-0.579773,down
585632,3.171875,9.648438,-3.097656,-0.460937,-0.710937,-1.798828,0.129028,-0.087769,-0.799683,-0.579773,down
585637,3.132813,9.835938,-3.175781,-0.642578,-0.712891,-1.820313,0.129028,-0.087769,-0.799683,-0.579773,down
585642,3.019531,10.074219,-3.210938,-0.642578,-0.712891,-1.820313,0.116455,-0.080505,-0.798889,-0.584595,down
585647,2.867188,10.257813,-3.367188,-0.642578,-0.712891,-1.820313,0.116455,-0.080505,-0.798889,-0.584595,down
585652,2.867188,10.339844,-3.441406,-0.65625,-0.71875,-1.832031,0.111816,-0.077881,-0.798462,-0.586426,down
585657,2.867188,10.535156,-3.441406,-0.65625,-0.71875,-1.832031,0.107605,-0.075439,-0.798035,-0.588135,down
585662,2.867188,10.535156,-3.441406,-0.648437,-0.697266,-1.84375,0.103577,-0.07312,-0.797607,-0.589722,down
585667,2.636719,10.949219,-3.710938,-0.632812,-0.675781,-1.878906,0.099548,-0.070801,-0.797119,-0.591309,down
585672,2.636719,11.066406,-3.75,-0.632812,-0.675781,-1.878906,0.094971,-0.068115,-0.796631,-0.593079,down
585677,2.597656,11.140625,-3.785156,-0.632812,-0.675781,-1.878906,0.090759,-0.06543,-0.796143,-0.594727,down
585682,2.597656,11.140625,-3.75,-0.761719,-0.625,-1.960938,0.082581,-0.06012,-0.7948,-0.598206,down
585687,2.558594,11.144531,-3.785156,-0.761719,-0.625,-1.960938,0.082581,-0.06012,-0.7948,-0.598206,down
585692,2.484375,11.023438,-3.824219,-0.861328,-0.476562,-2.048828,0.074219,-0.05365,-0.792969,-0.602356,down
585697,2.445313,11.144531,-3.824219,-0.861328,-0.476562,-2.048828,0.074219,-0.05365,-0.792969,-0.602356,down
585702,2.445313,11.335938,-3.824219,-1.0,-0.318359,-2.144531,0.074219,-0.05365,-0.792969,-0.602356,down
585708,2.328125,11.601563,-3.75,-1.058594,-0.273438,-2.173828,0.066162,-0.046509,-0.790527,-0.607056,down
585713,2.328125,11.601563,-3.75,-1.162109,-0.109375,-2.164063,0.062317,-0.042847,-0.789185,-0.609497,down
585718,2.253906,11.789063,-3.59375,-1.162109,-0.109375,-2.164063,0.058594,-0.039001,-0.78772,-0.612,down
585723,2.253906,11.789063,-3.59375,-1.175781,0.013672,-2.146484,0.055054,-0.034912,-0.786072,-0.614685,down
585728,1.792969,12.25,-3.59375,-1.175781,0.013672,-2.146484,0.048523,-0.026184,-0.78241,-0.620361,down
585733,1.714844,12.367188,-3.558594,-1.332031,0.314453,-2.074219,0.048523,-0.026184,-0.78241,-0.620361,down
585738,1.601563,12.710938,-3.632813,-1.332031,0.314453,-2.074219,0.043152,-0.017395,-0.77832,-0.626099,down
585743,1.5625,12.832031,-3.480469,-1.445313,0.404297,-2.03125,0.043152,-0.017395,-0.77832,-0.626099,down
585748,1.5625,13.015625,-3.441406,-1.445313,0.404297,-2.03125,0.03833,-0.008545,-0.773865,-0.632141,down
585753,1.488281,13.132813,-3.328125,-1.445313,0.404297,-2.03125,0.036255,-0.004517,-0.771606,-0.635071,down
585759,1.371094,13.320313,-3.25,-1.445313,0.404297,-2.03125,0.033997,0.000183,-0.768799,-0.638611,down
585764,1.257813,13.289063,-3.175781,-1.832031,0.632812,-1.929688,0.031921,0.005005,-0.765686,-0.642395,down
585769,1.21875,12.976563,-3.175781,-1.832031,0.632812,-1.929688,0.030396,0.009033,-0.762939,-0.645691,down
585775,1.140625,12.832031,-2.984375,-1.832031,0.632812,-1.929688,0.028931,0.013611,-0.759583,-0.649597,down
585780,1.140625,12.832031,-2.984375,-1.832031,0.632812,-1.929688,0.028931,0.013611,-0.759583,-0.649597,down
585785,1.140625,12.832031,-2.984375,-2.134766,0.896484,-1.769531,0.026733,0.022949,-0.752319,-0.657837,down
585790,0.835937,12.714844,-2.597656,-2.134766,0.896484,-1.769531,0.026733,0.022949,-0.752319,-0.657837,down
585795,0.683594,12.675781,-2.484375,-2.107422,1.011719,-1.539063,0.026123,0.027405,-0.748718,-0.661804,down
585801,0.492187,12.753906,-2.214844,-2.107422,1.011719,-1.539063,0.025757,0.03186,-0.744934,-0.665833,down
585807,0.300781,12.867188,-2.023438,-1.882813,1.222656,-1.068359,0.025757,0.03186,-0.744934,-0.665833,down
585812,0.300781,12.789063,-1.949219,-1.882813,1.222656,-1.068359,0.027161,0.043762,-0.734741,-0.676392,down
585817,0.222656,12.9375,-1.792969,-1.578125,1.318359,-0.804687,0.027161,0.043762,-0.734741,-0.676392,down
585822,0.183594,12.980469,-1.71875,-1.408203,1.363281,-0.681641,0.027161,0.043762,-0.734741,-0.676392,down
585827,0.109375,13.210938,-1.679688,-1.408203,1.363281,-0.681641,0.031433,0.054687,-0.726257,-0.684509,down
585832,-0.046875,13.363281,-1.757813,-1.408203,1.363281,-0.681641,0.033203,0.057739,-0.724243,-0.68634,down
585837,-0.082031,13.515625,-1.871094,-1.408203,1.363281,-0.681641,0.035583,0.061401,-0.722107,-0.68811,down
585843,-0.160156,13.742188,-1.757813,-0.859375,1.589844,-0.328125,0.035583,0.061401,-0.722107,-0.68811,down
585848,-0.238281,13.859375,-1.71875,-0.859375,1.589844,-0.328125,0.043213,0.070923,-0.717041,-0.692078,down
585853,-0.273438,13.941406,-1.566406,-0.910156,1.613281,-0.101563,0.043213,0.070923,-0.717041,-0.692078,down
585858,-0.3125,13.9375,-1.449219,-0.910156,1.613281,-0.101563,0.048889,0.076538,-0.713562,-0.694702,down
585863,-0.351563,13.898438,-1.335938,-0.910156,1.613281,-0.101563,0.051941,0.078979,-0.71167,-0.696167,down
585868,-0.542969,13.859375,-1.21875,-1.265625,1.587891,0.224609,0.051941,0.078979,-0.71167,-0.696167,down
585873,-0.542969,13.742188,-1.144531,-1.453125,1.544922,0.339844,0.055603,0.081482,-0.709229,-0.698059,down
585878,-0.542969,13.597656,-0.992187,-1.453125,1.544922,0.339844,0.062683,0.085083,-0.703979,-0.702271,down
585883,-0.429687,13.132813,-0.800781,-1.453125,1.544922,0.339844,0.062683,0.085083,-0.703979,-0.702271,down
585888,-0.429687,13.132813,-0.800781,-1.789063,1.429688,0.544922,0.066467,0.086487,-0.700928,-0.704895,down
585893,-0.429687,13.019531,-0.644531,-1.789063,1.429688,0.544922,0.070312,0.087585,-0.697571,-0.707642,down
585898,-0.503906,12.410156,-0.53125,-1.986328,1.345703,0.753906,0.074341,0.08844,-0.694031,-0.710571,down
585903,-0.503906,12.410156,-0.53125,-2.035156,1.298828,0.861328,0.078613,0.088989,-0.690308,-0.713684,down
585909,-0.429687,11.949219,-0.300781,-2.041016,1.226563,0.970703,0.078613,0.088989,-0.690308,-0.713684,down
585914,-0.351563,11.789063,-0.1875,-2.046875,1.095703,1.191406,0.078613,0.088989,-0.690308,-0.713684,down
585920,-0.238281,11.527344,-0.109375,-2.046875,1.095703,1.191406,0.096252,0.088135,-0.675659,-0.725586,down
585927,-0.199219,11.410156,-0.070312,-1.837891,1.007813,1.451172,0.096252,0.088135,-0.675659,-0.725586,down
585932,-0.199219,11.296875,-0.03125,-1.669922,0.976562,1.599609,0.096252,0.088135,-0.675659,-0.725586,down
585937,-0.121094,11.21875,0.003906,-1.669922,0.976562,1.599609,0.110779,0.084534,-0.66626,-0.732605,down
585942,-0.160156,11.144531,0.042969,-1.669922,0.976562,1.599609,0.11615,0.082764,-0.663696,-0.734253,down
585948,-0.046875,11.023438,-0.03125,-1.214844,0.925781,1.988281,0.127319,0.078674,-0.659363,-0.736816,down
585953,0.03125,10.683594,-0.03125,-1.214844,0.925781,1.988281,0.127319,0.078674,-0.659363,-0.736816,down
585958,0.109375,10.453125,0.042969,-1.105469,0.806641,2.34375,0.132935,0.076416,-0.657471,-0.737732,down
585963,0.261719,10.183594,0.234375,-1.130859,0.791016,2.470703,0.138672,0.073792,-0.655579,-0.738586,down
585968,0.453125,9.535156,0.425781,-1.130859,0.791016,2.470703,0.145203,0.070618,-0.653503,-0.739502,down
585973,0.527344,9.34375,0.425781,-1.130859,0.791016,2.470703,0.157043,0.064758,-0.649963,-0.740723,down
585978,0.605469,9.113281,0.503906,-1.130859,0.791016,2.470703,0.157043,0.064758,-0.649963,-0.740723,down
585983,0.605469,9.113281,0.503906,-1.074219,0.822266,2.845703,0.164124,0.061096,-0.64801,-0.741272,down
585988,0.644531,8.84375,0.65625,-1.035156,0.806641,2.978516,0.164124,0.061096,-0.64801,-0.741272,down
585993,0.644531,8.84375,0.65625,-1.017578,0.792969,3.107422,0.177673,0.053772,-0.644409,-0.741821,down
585998,0.796875,8.308594,0.964844,-1.017578,0.792969,3.107422,0.177673,0.053772,-0.644409,-0.741821,down
586003,1.027344,7.765625,1.308594,-0.990234,0.767578,3.226563,0.192444,0.045288,-0.640869,-0.74176,down
586008,1.027344,7.617187,1.347656,-0.990234,0.767578,3.226563,0.207764,0.036133,-0.637756,-0.740845,down
586013,1.105469,7.425781,1.382813,-0.605469,0.666016,3.623047,0.207764,0.036133,-0.637756,-0.740845,down
586018,1.179688,7.382812,1.460938,-0.605469,0.666016,3.623047,0.21637,0.030823,-0.636353,-0.739807,down
586023,1.21875,7.234375,1.574219,-0.460937,0.59375,3.699219,0.231201,0.021179,-0.634583,-0.737183,down
586028,1.449219,7.0,1.960938,-0.460937,0.59375,3.699219,0.239746,0.015259,-0.633972,-0.735107,down
586033,1.523438,6.738281,2.074219,-0.066406,0.347656,3.939453,0.239746,0.015259,-0.633972,-0.735107,down
586039,1.5625,6.46875,2.1875,-0.066406,0.347656,3.939453,0.254883,0.00415,-0.633484,-0.73053,down
586045,1.832031,5.46875,2.378906,-0.066406,0.347656,3.939453,0.262329,-0.001526,-0.633545,-0.727844,down
586050,2.023438,5.089844,2.457031,0.240234,0.140625,4.185547,0.270325,-0.007813,-0.633789,-0.72467,down
586055,2.175781,4.902344,2.496094,0.347656,0.089844,4.234375,0.270325,-0.007813,-0.633789,-0.72467,down
586060,2.175781,4.902344,2.496094,0.482422,0.0625,4.292969,0.286072,-0.020508,-0.634644,-0.71759,down
586065,2.445313,4.398437,2.457031,0.482422,0.0625,4.292969,0.286072,-0.020508,-0.634644,-0.71759,down
586070,2.445313,4.398437,2.457031,0.621094,0.0625,4.330078,0.301636,-0.03302,-0.63623,-0.709351,down
586075,2.519531,4.175781,2.417969,0.621094,0.0625,4.330078,0.301636,-0.03302,-0.63623,-0.709351,down
586080,2.867188,3.820313,2.417969,0.925781,0.074219,4.408203,0.309814,-0.039368,-0.637268,-0.704468,down
586085,2.980469,3.792969,2.417969,1.087891,0.083984,4.451172,0.325745,-0.051453,-0.639954,-0.694031,down
586091,3.171875,3.710938,2.304688,1.087891,0.083984,4.451172,0.334167,-0.057495,-0.641663,-0.687927,down
586096,3.132813,3.792969,2.265625,1.736328,0.169922,4.623047,0.334167,-0.057495,-0.641663,-0.687927,down
586101,3.210938,3.863281,2.226563,1.736328,0.169922,4.623047,0.334167,-0.057495,-0.641663,-0.687927,down
586106,3.363281,3.9375,2.152344,1.957031,0.181641,4.705078,0.334167,-0.057495,-0.641663,-0.687927,down
586112,3.363281,3.9375,2.152344,2.121094,0.181641,4.779297,0.368286,-0.079895,-0.650818,-0.659119,down
586117,3.515625,3.863281,2.074219,2.121094,0.181641,4.779297,0.377319,-0.085449,-0.653503,-0.650574,down
586122,3.558594,3.289063,1.960938,2.5,0.205078,4.958984,0.386047,-0.09082,-0.656189,-0.642029,down
586128,3.859375,3.058594,1.804688,2.5,0.205078,4.958984,0.404053,-0.101563,-0.661499,-0.623596,down
586133,4.125,2.5625,1.882813,2.5,0.205078,4.958984,0.404053,-0.101563,-0.661499,-0.623596,down
586138,4.242187,2.253906,1.882813,2.5,0.205078,4.958984,0.422119,-0.111877,-0.666626,-0.604065,down
586143,4.242187,2.253906,1.882813,2.5,0.205078,4.958984,0.422119,-0.111877,-0.666626,-0.604065,down
586148,4.324219,2.0625,1.769531,2.894531,0.455078,4.972656,0.422119,-0.111877,-0.666626,-0.604065,down
586153,4.324219,2.0625,1.769531,2.986328,0.492187,4.935547,0.43988,-0.120911,-0.671326,-0.584106,down
586158,4.550781,2.0625,1.769531,2.986328,0.492187,4.935547,0.43988,-0.120911,-0.671326,-0.584106,down
586163,4.550781,2.0625,1.769531,3.175781,0.476562,4.863281,0.457642,-0.129211,-0.676086,-0.562866,down
586169,4.507812,1.988281,2.1875,3.175781,0.476562,4.863281,0.474609,-0.13623,-0.680725,-0.541138,down
586174,4.324219,1.375,2.457031,3.175781,0.476562,4.863281,0.483643,-0.139526,-0.683472,-0.528687,down
586179,4.324219,1.375,2.535156,3.175781,0.476562,4.863281,0.483643,-0.139526,-0.683472,-0.528687,down
586184,4.398437,1.296875,2.609375,3.710938,0.4375,4.404297,0.490906,-0.141968,-0.685852,-0.518127,down
586189,4.320312,1.066406,2.878906,3.710938,0.4375,4.404297,0.498413,-0.144165,-0.688599,-0.506592,down
586194,4.320312,1.066406,2.878906,3.710938,0.4375,4.404297,0.498413,-0.144165,-0.688599,-0.506592,down
586200,4.242187,0.835937,3.070313,3.833984,0.263672,3.773438,0.518677,-0.148743,-0.697327,-0.471802,down
586205,4.363281,1.066406,2.917969,3.833984,0.263672,3.773438,0.52417,-0.149658,-0.700256,-0.460999,down
586210,4.242187,1.449219,2.800781,3.833984,0.263672,3.773438,0.529053,-0.150391,-0.703186,-0.450623,down
586215,4.203125,1.414063,2.726563,3.324219,-0.177734,2.701172,0.529053,-0.150391,-0.703186,-0.450623,down
586221,4.203125,1.640625,2.648438,3.044922,-0.320313,2.423828,0.529053,-0.150391,-0.703186,-0.450623,down
586227,4.128906,1.566406,2.378906,3.044922,-0.320313,2.423828,0.539795,-0.1521,-0.711609,-0.423157,down
586232,4.164062,1.414063,2.1875,2.318359,-0.544922,1.84375,0.539795,-0.1521,-0.711609,-0.423157,down
586237,4.164062,1.257813,2.113281,1.912109,-0.697266,1.546875,0.539795,-0.1521,-0.711609,-0.423157,down
586243,4.164062,1.257813,2.113281,1.533203,-0.824219,1.240234,0.54425,-0.154541,-0.71875,-0.404053,down
586248,4.242187,0.953125,1.882813,1.533203,-0.824219,1.240234,0.54425,-0.154541,-0.71875,-0.404053,down
586253,4.085937,0.953125,1.84375,0.945312,-1.039063,0.613281,0.543701,-0.156494,-0.723083,-0.396301,down
586258,4.085937,0.953125,1.84375,0.685547,-1.150391,0.308594,0.54248,-0.157349,-0.72522,-0.393677,down
586263,4.085937,0.953125,1.84375,0.332031,-1.392578,-0.257813,0.54071,-0.15802,-0.727356,-0.391907,down
586269,3.136719,0.914062,2.570313,0.224609,-1.496094,-0.546875,0.538391,-0.158569,-0.729553,-0.390808,down
586274,2.789063,0.914062,2.609375,0.224609,-1.496094,-0.546875,0.531677,-0.158936,-0.734741,-0.390137,down
586279,2.367188,0.875,2.648438,0.140625,-1.804688,-1.101563,0.531677,-0.158936,-0.734741,-0.390137,down
586284,1.792969,1.03125,2.878906,0.140625,-1.804688,-1.101563,0.523071,-0.158081,-0.74054,-0.391113,down
586289,1.5625,1.144531,2.796875,0.074219,-2.189453,-1.646484,0.523071,-0.158081,-0.74054,-0.391113,down
586294,1.296875,0.992187,2.648438,0.074219,-2.189453,-1.646484,0.517822,-0.157227,-0.743896,-0.392029,down
586300,1.296875,0.992187,2.648438,-0.089844,-2.607422,-2.083984,0.505676,-0.15509,-0.751221,-0.394836,down
586305,1.066406,1.527344,2.03125,-0.089844,-2.607422,-2.083984,0.498169,-0.153809,-0.755432,-0.396851,down
586310,1.027344,1.679688,1.691406,-0.351563,-2.992188,-2.441406,0.498169,-0.153809,-0.755432,-0.396851,down
586316,0.914062,1.871094,1.078125,-0.351563,-2.992188,-2.441406,0.481934,-0.151428,-0.763794,-0.401794,down
586322,0.757812,2.027344,0.773437,-0.630859,-3.345703,-2.75,0.481934,-0.151428,-0.763794,-0.401794,down
586328,0.605469,2.144531,0.582031,-0.773437,-3.488281,-2.894531,0.481934,-0.151428,-0.763794,-0.401794,down
586333,0.414062,2.140625,0.3125,-0.966797,-3.6875,-3.246094,0.481934,-0.151428,-0.763794,-0.401794,down
586338,-0.238281,2.0625,-0.261719,-0.966797,-3.6875,-3.246094,0.441956,-0.146667,-0.781067,-0.415955,down
586343,-0.238281,2.0625,-0.261719,-0.966797,-3.6875,-3.246094,0.430908,-0.145081,-0.785339,-0.420105,down
586348,-0.582031,2.183594,-0.378906,-0.884766,-3.947266,-3.757813,0.418884,-0.143005,-0.789917,-0.424438,down
586353,-0.582031,2.183594,-0.378906,-0.773437,-4.072266,-4.066406,0.406616,-0.140442,-0.794495,-0.42865,down
586358,-2.0,2.636719,0.042969,-0.773437,-4.072266,-4.066406,0.406616,-0.140442,-0.794495,-0.42865,down
586363,-2.0,2.636719,0.042969,-0.667969,-4.162109,-4.431641,0.379761,-0.132996,-0.804321,-0.437256,down
586369,-3.679688,2.523438,0.273438,-0.615234,-4.587891,-5.701172,0.379761,-0.132996,-0.804321,-0.437256,down
586374,-4.796875,3.136719,0.582031,-0.615234,-4.587891,-5.701172,0.33197,-0.115662,-0.819885,-0.451843,down
586379,-5.289062,3.328125,0.65625,-0.615234,-4.587891,-5.701172,0.33197,-0.115662,-0.819885,-0.451843,down
586384,-5.289062,3.328125,0.65625,-0.744141,-5.066406,-6.667969,0.315918,-0.109192,-0.824524,-0.456604,down
586389,-5.75,3.40625,0.65625,-0.744141,-5.066406,-6.667969,0.297241,-0.101685,-0.829224,-0.46228,down
586394,-6.75,3.480469,0.351563,-0.744141,-5.066406,-6.667969,0.297241,-0.101685,-0.829224,-0.46228,down
586399,-7.667969,4.09375,-0.378906,-2.316406,-6.107422,-8.488281,0.297241,-0.101685,-0.829224,-0.46228,down
586404,-8.007813,4.59375,-0.605469,-2.316406,-6.107422,-8.488281,0.208008,-0.066406,-0.841919,-0.493408,down
586409,-8.707031,5.742187,-1.296875,-2.316406,-6.107422,-8.488281,0.208008,-0.066406,-0.841919,-0.493408,down
586414,-9.125,6.125,-1.832031,-3.638672,-7.076172,-9.837891,0.179626,-0.055969,-0.842957,-0.504089,down
586419,-9.65625,6.582031,-2.523438,-3.638672,-7.076172,-9.837891,0.152832,-0.046204,-0.842651,-0.51416,down
586424,-10.160156,6.890625,-3.289063,-3.638672,-7.076172,-9.837891,0.12561,-0.036133,-0.841248,-0.524658,down
586429,-10.925781,7.234375,-4.859375,-4.677734,-7.339844,-10.925781,0.09729,-0.025269,-0.838379,-0.535767,down
586434,-10.925781,7.234375,-4.859375,-4.677734,-7.339844,-10.925781,0.09729,-0.025269,-0.838379,-0.535767,down
586439,-11.503906,6.96875,-5.550781,-5.496094,-7.322266,-12.183594,0.09729,-0.025269,-0.838379,-0.535767,down
586444,-11.503906,6.96875,-5.550781,-5.625,-7.044922,-12.859375,0.00238,0.016174,-0.819641,-0.572632,down
586449,-12.609375,13.054688,-9.648438,-5.625,-7.044922,-12.859375,0.031189,-0.03363,0.81012,0.584473,down
586455,-12.648438,15.3125,-9.53125,-5.939453,-6.439453,-13.916016,0.101074,-0.074158,0.785095,0.606506,down
586461,-13.300781,13.785156,-8.34375,-5.939453,-6.439453,-13.916016,0.130249,-0.092407,0.772522,0.614563,down
586466,-13.257813,12.828125,-8.269531,-5.939453,-6.439453,-13.916016,0.130249,-0.092407,0.772522,0.614563,down
586471,-13.257813,12.828125,-8.269531,-6.857422,-5.503906,-15.357422,0.19519,-0.139099,0.737793,0.631042,down
586476,-14.488281,11.871094,-8.421875,-7.333984,-4.503906,-15.869141,0.19519,-0.139099,0.737793,0.631042,down
586481,-15.527344,11.296875,-6.851562,-7.333984,-4.503906,-15.869141,0.19519,-0.139099,0.737793,0.631042,down
586486,-16.210937,12.445313,-5.585937,-7.205078,-4.470703,-15.941406,0.285706,-0.214294,0.674133,0.646545,down
586492,-16.59375,13.25,-2.675781,-7.205078,-4.470703,-15.941406,0.313782,-0.237793,0.651672,0.648315,down
586497,-16.324219,12.253906,-1.105469,-6.25,-3.949219,-14.71875,0.313782,-0.237793,0.651672,0.648315,down
586502,-16.324219,12.253906,-1.105469,-6.25,-3.949219,-14.71875,0.313782,-0.237793,0.651672,0.648315,down
586507,-16.558594,10.757813,-0.800781,-6.072266,-3.720703,-13.847656,0.313782,-0.237793,0.651672,0.648315,down
586513,-16.558594,10.757813,-0.800781,-6.060547,-3.621094,-12.78125,0.408264,-0.318665,0.560181,0.646484,down
586518,-16.476562,8.269531,0.734375,-6.060547,-3.621094,-12.78125,0.408264,-0.318665,0.560181,0.646484,down
586523,-17.054687,6.738281,1.347656,-5.144531,-3.425781,-10.427734,0.442932,-0.347107,0.518799,0.643616,down
586529,-17.820312,6.8125,2.152344,-3.242188,-2.675781,-8.304688,0.470825,-0.367188,0.487061,0.63739,down
586535,-17.785156,6.738281,2.34375,-3.242188,-2.675781,-8.304688,0.482666,-0.374451,0.475647,0.632935,down
586540,-17.707031,6.929687,2.800781,-3.242188,-2.675781,-8.304688,0.482666,-0.374451,0.475647,0.632935,down
586545,-17.78125,7.503906,3.109375,-0.398438,-1.257813,-5.832031,0.503418,-0.385498,0.459961,0.621582,down
586550,-17.78125,7.503906,3.109375,-0.398438,-1.257813,-5.832031,0.503418,-0.385498,0.459961,0.621582,down
586555,-19.007812,8.5,3.53125,0.947266,-0.001953,-4.611328,0.503418,-0.385498,0.459961,0.621582,down
586560,-19.007812,8.5,3.53125,1.478516,0.613281,-4.150391,0.526123,-0.397339,0.453491,0.599731,down
586565,-20.621094,8.84375,3.453125,1.478516,0.613281,-4.150391,0.531616,-0.401062,0.454041,0.59198,down
586571,-22.417969,8.996094,3.949219,1.478516,0.613281,-4.150391,0.536499,-0.405029,0.455078,0.583984,down
586576,-22.652344,9.035156,4.066406,1.306641,1.591797,-3.007813,0.536499,-0.405029,0.455078,0.583984,down
586581,-22.375,8.882813,4.257812,0.929687,1.505859,-2.818359,0.536499,-0.405029,0.455078,0.583984,down
586587,-21.847656,9.226563,4.792969,0.716797,1.373047,-2.548828,0.536499,-0.405029,0.455078,0.583984,down
586592,-21.492187,8.996094,4.910156,0.394531,1.224609,-2.175781,0.536499,-0.405029,0.455078,0.583984,down
586598,-21.109375,8.691406,5.175781,-0.066406,1.101563,-1.740234,0.536499,-0.405029,0.455078,0.583984,down
586603,-21.109375,8.691406,5.175781,-0.638672,1.064453,-1.324219,0.55188,-0.428406,0.456238,0.551147,down
586608,-20.078125,7.386719,4.640625,-0.638672,1.064453,-1.324219,0.55188,-0.428406,0.456238,0.551147,down
586614,-20.078125,7.386719,4.640625,-0.861328,0.990234,-0.949219,0.550659,-0.435669,0.454468,0.548157,down
586619,-20.078125,7.386719,4.640625,-0.705078,0.669922,-0.349609,0.549622,-0.438293,0.453857,0.547546,down
586624,-20.078125,7.386719,4.640625,0.167969,0.623047,0.058594,0.548584,-0.440247,0.453796,0.547119,down
586629,-16.054687,6.316406,3.605469,0.167969,0.623047,0.058594,0.547852,-0.441284,0.454468,0.546448,down
586634,-15.488281,6.277344,3.148438,0.167969,0.623047,0.058594,0.547485,-0.441406,0.456238,0.545227,down
586640,-14.910156,6.199219,2.957031,1.824219,0.615234,0.492187,0.547485,-0.441406,0.456238,0.545227,down
586645,-13.875,6.046875,2.957031,1.824219,0.615234,0.492187,0.548706,-0.436584,0.466003,0.539551,down
586650,-13.53125,5.933594,2.800781,2.435547,0.640625,0.681641,0.549744,-0.433289,0.47113,0.536743,down
586656,-12.878906,5.703125,2.535156,2.435547,0.640625,0.681641,0.550781,-0.429871,0.476135,0.533997,down
586661,-12.453125,5.511719,2.457031,2.308594,0.470703,0.791016,0.550781,-0.429871,0.476135,0.533997,down
586667,-11.726563,5.167969,2.609375,2.308594,0.470703,0.791016,0.552368,-0.423462,0.484619,0.529846,down
586673,-11.460938,4.785156,2.609375,1.478516,0.302734,0.847656,0.552368,-0.423462,0.484619,0.529846,down
586679,-11.15625,4.324219,2.570313,0.417969,0.238281,0.857422,0.552368,-0.423462,0.484619,0.529846,down
586685,-10.695313,3.519531,2.378906,-0.082031,0.175781,0.853516,0.55188,-0.416565,0.493286,0.527771,down
586690,-10.460938,3.214844,2.378906,-0.082031,0.175781,0.853516,0.549072,-0.4151,0.495483,0.529785,down
586695,-10.039063,2.601563,2.457031,-0.082031,0.175781,0.853516,0.549072,-0.4151,0.495483,0.529785,down
586700,-10.003906,2.140625,2.417969,-0.082031,0.175781,0.853516,0.547241,-0.415039,0.495667,0.531555,down
586705,-9.773438,1.988281,2.457031,-0.923828,-0.013672,0.746094,0.547241,-0.415039,0.495667,0.531555,down
586710,-9.660156,1.796875,2.457031,-0.923828,-0.013672,0.746094,0.541504,-0.415955,0.494507,0.537781,down
586715,-9.511719,1.71875,2.535156,-0.923828,-0.013672,0.746094,0.540039,-0.416077,0.49408,0.539551,down
586720,-9.085938,1.640625,2.535156,-0.923828,-0.013672,0.746094,0.538574,-0.415955,0.493835,0.541321,down
586725,-9.007813,1.605469,2.457031,-0.105469,-0.082031,0.636719,0.538574,-0.415955,0.493835,0.541321,down
586730,-8.785156,1.488281,2.226563,-0.105469,-0.082031,0.636719,0.537598,-0.415466,0.494019,0.542542,down
586735,-8.742188,1.449219,2.226563,-0.105469,-0.082031,0.636719,0.536438,-0.413086,0.495789,0.543884,down
586740,-8.703125,1.375,2.304688,-0.105469,-0.082031,0.636719,0.536316,-0.411621,0.496948,0.544006,down
586745,-8.628906,1.335938,2.34375,0.816406,-0.09375,0.724609,0.536316,-0.411621,0.496948,0.544006,down
586750,-8.589844,1.144531,2.226563,0.816406,-0.09375,0.724609,0.536194,-0.407471,0.500427,0.544128,down
586755,-8.550781,1.066406,2.152344,0.816406,-0.09375,0.724609,0.536133,-0.405396,0.502075,0.544189,down
586760,-8.429688,1.03125,2.113281,0.6875,-0.140625,0.8125,0.53595,-0.403259,0.503723,0.544434,down
586765,-8.363281,0.992187,2.035156,0.578125,-0.121094,0.830078,0.53595,-0.403259,0.503723,0.544434,down
586770,-8.363281,0.992187,2.035156,0.578125,-0.121094,0.830078,0.535217,-0.399414,0.506592,0.545288,down
586775,-8.46875,0.800781,1.804688,0.353516,-0.056641,0.845703,0.535217,-0.399414,0.506592,0.545288,down
586780,-8.511719,0.761719,1.804688,0.353516,-0.056641,0.845703,0.534485,-0.397644,0.507996,0.546021,down
586785,-8.546875,0.761719,1.804688,0.255859,-0.03125,0.826172,0.534485,-0.397644,0.507996,0.546021,down
586791,-8.589844,0.722656,1.804688,0.255859,-0.03125,0.826172,0.531921,-0.393616,0.511414,0.548218,down
586796,-8.585938,0.761719,1.882813,0.201172,0.083984,0.701172,0.531067,-0.392578,0.512512,0.548828,down
586802,-8.707031,0.875,1.769531,0.201172,0.083984,0.701172,0.530334,-0.391724,0.513428,0.549255,down
586808,-8.8125,0.914062,1.730469,0.201172,0.083984,0.701172,0.529602,-0.390747,0.514587,0.549561,down
586813,-8.890625,0.875,1.769531,0.382813,0.134766,0.572266,0.529602,-0.390747,0.514587,0.549561,down
586818,-8.933594,0.875,1.804688,0.449219,0.128906,0.529297,0.529602,-0.390747,0.514587,0.549561,down
586823,-8.933594,0.875,1.804688,0.496094,0.113281,0.490234,0.528076,-0.387634,0.518433,0.549622,down
586828,-9.011719,0.953125,1.882813,0.496094,0.113281,0.490234,0.528076,-0.387634,0.518433,0.549622,down
586833,-9.011719,1.03125,1.960938,0.46875,0.068359,0.392578,0.527527,-0.385498,0.520874,0.549316,down
586838,-9.011719,1.03125,1.960938,0.46875,0.068359,0.392578,0.527527,-0.385498,0.520874,0.549316,down
586844,-9.089844,1.296875,1.804688,0.419922,0.046875,0.34375,0.527283,-0.383728,0.522827,0.54895,down
586850,-9.089844,1.375,1.769531,0.419922,0.046875,0.34375,0.527039,-0.382324,0.524109,0.549011,down
586855,-9.125,1.449219,1.769531,0.080078,-0.048828,0.265625,0.527039,-0.382324,0.524109,0.549011,down
586860,-9.164063,1.566406,1.84375,0.080078,-0.048828,0.265625,0.526794,-0.381775,0.524536,0.549194,down
586866,-9.195313,1.566406,1.84375,-0.025391,-0.066406,0.271484,0.526184,-0.381042,0.52478,0.549988,down
586871,-9.164063,1.414063,1.730469,-0.025391,-0.066406,0.271484,0.525757,-0.380798,0.52478,0.550659,down
586876,-9.167969,1.375,1.769531,-0.248047,-0.105469,0.308594,0.525757,-0.380798,0.52478,0.550659,down
586881,-9.085938,1.296875,1.769531,-0.248047,-0.105469,0.308594,0.525757,-0.380798,0.52478,0.550659,down
586886,-9.085938,1.296875,1.769531,-0.251953,-0.103516,0.357422,0.524109,-0.380127,0.524292,0.553162,down
586892,-9.199219,1.488281,1.539063,-0.251953,-0.103516,0.357422,0.523499,-0.379883,0.52417,0.553955,down
586897,-9.355469,1.335938,1.460938,-0.251953,-0.103516,0.357422,0.523499,-0.379883,0.52417,0.553955,down
