timestamp,ax,ay,az,gx,gy,gz,qw,qx,qy,qz,label
114857,5.859375,7.046875,-2.964844,0.041016,-0.167969,-0.101563,0.418091,0.124939,-0.796509,-0.418457,down
114862,5.898437,7.085937,-3.0,0.041016,-0.167969,-0.101563,0.417664,0.125061,-0.796692,-0.418518,down
114868,5.820312,7.128906,-3.0,0.050781,-0.126953,-0.117188,0.416809,0.125427,-0.796997,-0.418701,down
114873,5.78125,7.089844,-2.964844,-0.021484,-0.095703,-0.134766,0.416443,0.125549,-0.797058,-0.418884,down
114879,5.78125,7.089844,-2.964844,-0.021484,-0.095703,-0.134766,0.416138,0.125732,-0.797058,-0.419128,down
114884,5.742187,7.167969,-2.964844,-0.072266,-0.042969,-0.154297,0.415894,0.125916,-0.796997,-0.419495,down
114889,5.742187,7.167969,-2.964844,-0.072266,-0.042969,-0.154297,0.415649,0.12616,-0.796936,-0.419861,down
114894,5.742187,7.167969,-2.886719,-0.072266,-0.042969,-0.154297,0.415466,0.126343,-0.796753,-0.420227,down
114900,5.707031,7.246094,-2.808594,-0.072266,-0.042969,-0.154297,0.415222,0.126526,-0.796631,-0.420654,down
114905,5.667969,7.167969,-2.773438,-0.097656,-0.017578,-0.154297,0.415222,0.126526,-0.796631,-0.420654,down
114911,5.707031,7.246094,-2.734375,-0.097656,-0.017578,-0.154297,0.414856,0.127014,-0.796326,-0.421448,down
114916,5.589844,7.246094,-2.65625,-0.042969,-0.019531,-0.138672,0.414856,0.127014,-0.796326,-0.421448,down
114922,5.628906,7.242187,-2.695313,0.011719,-0.041016,-0.107422,0.414856,0.127014,-0.796326,-0.421448,down
114928,5.589844,7.320312,-2.773438,0.035156,-0.042969,-0.095703,0.414185,0.127686,-0.796204,-0.42218,down
114933,5.589844,7.355469,-2.773438,0.035156,-0.042969,-0.095703,0.413696,0.128113,-0.796265,-0.422363,down
114938,5.589844,7.394531,-2.886719,0.044922,-0.056641,-0.072266,0.413696,0.128113,-0.796265,-0.422363,down
114943,5.589844,7.433594,-2.886719,0.044922,-0.056641,-0.072266,0.413452,0.128296,-0.796326,-0.422424,down
114949,5.515625,7.429687,-2.847656,0.044922,-0.056641,-0.072266,0.413025,0.128601,-0.796448,-0.422546,down
114955,5.550781,7.394531,-2.925781,-0.007813,-0.054687,-0.072266,0.412781,0.128723,-0.796509,-0.422668,down
114960,5.515625,7.320312,-2.886719,-0.033203,-0.048828,-0.087891,0.412537,0.128845,-0.796509,-0.422852,down
114965,5.515625,7.246094,-2.847656,-0.033203,-0.048828,-0.087891,0.412354,0.128967,-0.796448,-0.423096,down
114971,5.476562,7.246094,-2.773438,-0.097656,-0.048828,-0.103516,0.412354,0.128967,-0.796448,-0.423096,down
114977,5.515625,7.203125,-2.773438,-0.119141,-0.060547,-0.117188,0.412354,0.128967,-0.796448,-0.423096,down
114983,5.4375,7.167969,-2.773438,-0.119141,-0.044922,-0.134766,0.411438,0.129395,-0.796021,-0.424622,down
114988,5.4375,7.207031,-2.734375,-0.119141,-0.044922,-0.134766,0.411438,0.129395,-0.796021,-0.424622,down
114993,5.398437,7.203125,-2.734375,-0.126953,-0.060547,-0.142578,0.411438,0.129395,-0.796021,-0.424622,down
114998,5.398437,7.125,-2.734375,-0.119141,-0.072266,-0.140625,0.411438,0.129395,-0.796021,-0.424622,down
115003,5.4375,7.089844,-2.65625,-0.119141,-0.072266,-0.140625,0.410339,0.129822,-0.795593,-0.426331,down
115008,5.398437,7.085937,-2.65625,-0.060547,-0.078125,-0.115234,0.410339,0.129822,-0.795593,-0.426331,down
115013,5.359375,7.050781,-2.734375,-0.060547,-0.078125,-0.115234,0.410034,0.129944,-0.795593,-0.426636,down
115019,5.4375,7.167969,-2.808594,-0.060547,-0.078125,-0.115234,0.409485,0.130188,-0.795593,-0.427063,down
115024,5.515625,7.246094,-2.886719,-0.060547,-0.078125,-0.115234,0.409241,0.13031,-0.795715,-0.427124,down
115029,5.476562,7.285156,-2.925781,0.080078,-0.064453,-0.072266,0.409241,0.13031,-0.795715,-0.427124,down
115034,5.515625,7.28125,-2.925781,0.083984,-0.058594,-0.052734,0.409241,0.13031,-0.795715,-0.427124,down
115039,5.476562,7.242187,-2.964844,0.083984,-0.058594,-0.052734,0.408508,0.130798,-0.796082,-0.426941,down
115044,5.515625,7.242187,-2.925781,0.115234,-0.046875,-0.046875,0.408325,0.130981,-0.796204,-0.426758,down
115050,5.515625,7.207031,-2.847656,0.115234,-0.046875,-0.046875,0.408081,0.131165,-0.796387,-0.426636,down
115055,5.550781,7.164062,-2.808594,0.115234,-0.046875,-0.046875,0.407959,0.131348,-0.796509,-0.426453,down
115061,5.550781,7.164062,-2.734375,0.130859,-0.041016,-0.041016,0.407959,0.131348,-0.796509,-0.426453,down
115066,5.550781,7.128906,-2.695313,0.126953,-0.041016,-0.054687,0.407959,0.131348,-0.796509,-0.426453,down
115071,5.515625,7.085937,-2.65625,0.128906,-0.044922,-0.052734,0.407959,0.131348,-0.796509,-0.426453,down
115076,5.515625,7.050781,-2.65625,0.128906,-0.044922,-0.052734,0.407166,0.132141,-0.797119,-0.425781,down
115081,5.515625,7.007812,-2.65625,0.09375,-0.048828,-0.068359,0.407166,0.132141,-0.797119,-0.425781,down
115086,5.550781,7.007812,-2.617188,0.082031,-0.064453,-0.070312,0.407166,0.132141,-0.797119,-0.425781,down
115091,5.550781,7.007812,-2.617188,0.082031,-0.064453,-0.070312,0.406494,0.13269,-0.797546,-0.425537,down
115096,5.589844,7.050781,-2.695313,0.09375,-0.068359,-0.083984,0.406494,0.13269,-0.797546,-0.425537,down
115101,5.550781,7.050781,-2.65625,0.089844,-0.072266,-0.080078,0.406494,0.13269,-0.797546,-0.425537,down
115107,5.550781,7.085937,-2.65625,0.089844,-0.072266,-0.080078,0.405701,0.133301,-0.797913,-0.425415,down
115112,5.589844,7.167969,-2.773438,0.089844,-0.072266,-0.080078,0.405701,0.133301,-0.797913,-0.425415,down
115117,5.589844,7.203125,-2.886719,0.089844,-0.072266,-0.080078,0.40509,0.133728,-0.798279,-0.425232,down
115122,5.589844,7.320312,-2.925781,0.126953,-0.078125,-0.101563,0.40509,0.133728,-0.798279,-0.425232,down
115127,5.667969,7.320312,-3.0,0.126953,-0.078125,-0.101563,0.404419,0.134216,-0.798584,-0.425049,down
115132,5.667969,7.320312,-3.078125,0.123047,-0.072266,-0.097656,0.404419,0.134216,-0.798584,-0.425049,down
115137,5.667969,7.285156,-3.039063,0.128906,-0.052734,-0.107422,0.404419,0.134216,-0.798584,-0.425049,down
115142,5.707031,7.246094,-3.078125,0.123047,-0.041016,-0.123047,0.404419,0.134216,-0.798584,-0.425049,down
115148,5.628906,7.285156,-3.039063,0.123047,-0.041016,-0.123047,0.403076,0.135742,-0.799316,-0.424561,down
115153,5.628906,7.320312,-3.0,0.123047,-0.041016,-0.123047,0.403076,0.135742,-0.799316,-0.424561,down
115158,5.589844,7.320312,-3.0,0.105469,-0.009766,-0.160156,0.403076,0.135742,-0.799316,-0.424561,down
115164,5.515625,7.320312,-2.886719,0.105469,-0.009766,-0.160156,0.402344,0.137024,-0.7995,-0.424377,down
115170,5.515625,7.285156,-2.847656,0.105469,-0.009766,-0.160156,0.402039,0.137451,-0.799561,-0.424377,down
115175,5.476562,7.246094,-2.808594,0.105469,-0.009766,-0.160156,0.401794,0.137878,-0.799622,-0.424377,down
115180,5.4375,7.246094,-2.808594,0.085937,-0.027344,-0.207031,0.401428,0.138428,-0.799683,-0.424438,down
115185,5.4375,7.351562,-2.847656,0.085937,-0.027344,-0.207031,0.401184,0.138855,-0.799744,-0.4245,down
115190,5.398437,7.429687,-2.847656,0.085937,-0.052734,-0.222656,0.401184,0.138855,-0.799744,-0.4245,down
115195,5.398437,7.511719,-2.847656,0.068359,-0.070312,-0.242187,0.401184,0.138855,-0.799744,-0.4245,down
115201,5.398437,7.589844,-2.964844,0.068359,-0.070312,-0.242187,0.401184,0.138855,-0.799744,-0.4245,down
115206,5.398437,7.585937,-3.039063,0.035156,-0.089844,-0.244141,0.401184,0.138855,-0.799744,-0.4245,down
115212,5.4375,7.546875,-3.0,0.005859,-0.080078,-0.236328,0.401184,0.138855,-0.799744,-0.4245,down
115217,5.398437,7.585937,-3.078125,-0.011719,-0.070312,-0.236328,0.401184,0.138855,-0.799744,-0.4245,down
115222,5.359375,7.550781,-3.15625,-0.011719,-0.070312,-0.236328,0.401184,0.138855,-0.799744,-0.4245,down
115228,5.398437,7.550781,-3.117188,-0.011719,-0.070312,-0.236328,0.397949,0.142334,-0.799866,-0.426208,down
115233,5.359375,7.550781,-3.117188,-0.009766,-0.035156,-0.240234,0.397949,0.142334,-0.799866,-0.426208,down
115239,5.324219,7.625,-3.078125,-0.009766,-0.035156,-0.240234,0.396912,0.143677,-0.799622,-0.427124,down
115244,5.285156,7.667969,-3.039063,0.033203,-0.033203,-0.226562,0.396545,0.144165,-0.799622,-0.427368,down
115250,5.246094,7.628906,-2.925781,0.033203,-0.033203,-0.226562,0.396179,0.144653,-0.799561,-0.427551,down
115255,5.167969,7.550781,-2.886719,0.056641,-0.03125,-0.214844,0.396179,0.144653,-0.799561,-0.427551,down
115261,5.128906,7.46875,-2.847656,0.056641,-0.03125,-0.214844,0.395569,0.145508,-0.799622,-0.427795,down
115267,5.128906,7.46875,-2.847656,0.091797,-0.042969,-0.205078,0.395569,0.145508,-0.799622,-0.427795,down
115273,5.09375,7.472656,-2.808594,0.095703,-0.048828,-0.210937,0.39447,0.146973,-0.799744,-0.427979,down
115278,5.054687,7.46875,-2.808594,0.095703,-0.048828,-0.210937,0.39447,0.146973,-0.799744,-0.427979,down
115284,5.054687,7.46875,-2.773438,0.097656,-0.068359,-0.197266,0.393677,0.147888,-0.799927,-0.428101,down
115289,5.015625,7.46875,-2.808594,0.097656,-0.068359,-0.197266,0.393311,0.148254,-0.799988,-0.428223,down
115294,5.015625,7.507812,-2.808594,0.097656,-0.068359,-0.197266,0.392944,0.148621,-0.799988,-0.428345,down
115299,5.015625,7.472656,-2.847656,0.021484,-0.060547,-0.191406,0.392944,0.148621,-0.799988,-0.428345,down
115304,5.015625,7.511719,-2.847656,0.021484,-0.060547,-0.191406,0.392273,0.149353,-0.799988,-0.428711,down
115309,5.015625,7.511719,-2.847656,0.021484,-0.060547,-0.191406,0.391968,0.149719,-0.799988,-0.428894,down
115314,5.015625,7.585937,-2.925781,0.021484,-0.060547,-0.191406,0.391602,0.150085,-0.799988,-0.429138,down
115319,5.015625,7.589844,-2.964844,0.029297,-0.072266,-0.189453,0.391602,0.150085,-0.799988,-0.429138,down
115324,5.054687,7.625,-2.925781,0.029297,-0.072266,-0.189453,0.391235,0.150452,-0.799988,-0.429321,down
115330,5.054687,7.625,-2.925781,0.029297,-0.072266,-0.189453,0.390503,0.151062,-0.800049,-0.429626,down
115335,5.054687,7.628906,-2.964844,0.058594,-0.089844,-0.179687,0.390076,0.151367,-0.80011,-0.42981,down
115340,5.015625,7.664062,-3.0,0.070312,-0.089844,-0.175781,0.390076,0.151367,-0.80011,-0.42981,down
115345,5.015625,7.625,-3.0,0.070312,-0.089844,-0.175781,0.390076,0.151367,-0.80011,-0.42981,down
115350,5.015625,7.589844,-2.964844,0.070312,-0.089844,-0.175781,0.390076,0.151367,-0.80011,-0.42981,down
115355,5.015625,7.550781,-3.0,0.111328,-0.105469,-0.166016,0.390076,0.151367,-0.80011,-0.42981,down
115360,5.015625,7.546875,-2.964844,0.123047,-0.103516,-0.167969,0.390076,0.151367,-0.80011,-0.42981,down
115365,4.976562,7.628906,-3.039063,0.123047,-0.103516,-0.167969,0.390076,0.151367,-0.80011,-0.42981,down
115370,4.976562,7.628906,-3.078125,0.111328,-0.103516,-0.167969,0.390076,0.151367,-0.80011,-0.42981,down
115375,4.9375,7.707031,-3.117188,0.097656,-0.097656,-0.173828,0.390076,0.151367,-0.80011,-0.42981,down
115381,4.976562,7.667969,-3.117188,0.097656,-0.097656,-0.173828,0.386292,0.15448,-0.80127,-0.429993,down
115386,4.976562,7.628906,-3.117188,0.097656,-0.097656,-0.173828,0.385864,0.154846,-0.801392,-0.430054,down
115392,4.976562,7.589844,-3.117188,0.041016,-0.072266,-0.173828,0.385864,0.154846,-0.801392,-0.430054,down
115398,4.976562,7.628906,-3.15625,0.021484,-0.066406,-0.175781,0.385864,0.154846,-0.801392,-0.430054,down
115404,4.976562,7.628906,-3.15625,0.019531,-0.068359,-0.179687,0.384521,0.156067,-0.801453,-0.430664,down
115409,5.015625,7.664062,-3.15625,-0.003906,-0.066406,-0.195312,0.384521,0.156067,-0.801453,-0.430664,down
115414,4.9375,7.707031,-3.15625,-0.003906,-0.066406,-0.195312,0.383789,0.156677,-0.801392,-0.431152,down
115419,4.9375,7.707031,-3.15625,-0.003906,-0.066406,-0.195312,0.383484,0.156982,-0.801392,-0.431335,down
115424,4.976562,7.707031,-3.117188,0.0,-0.082031,-0.181641,0.383484,0.156982,-0.801392,-0.431335,down
115429,4.976562,7.664062,-3.191406,0.009766,-0.078125,-0.181641,0.383057,0.157288,-0.801392,-0.43158,down
115434,4.9375,7.667969,-3.15625,0.009766,-0.078125,-0.181641,0.382385,0.157837,-0.801392,-0.432007,down
115439,4.976562,7.667969,-3.117188,0.009766,-0.078125,-0.181641,0.382019,0.158081,-0.801453,-0.432129,down
115444,4.976562,7.628906,-3.117188,0.046875,-0.085937,-0.166016,0.382019,0.158081,-0.801453,-0.432129,down
115449,4.9375,7.628906,-3.117188,0.068359,-0.082031,-0.15625,0.381592,0.158386,-0.801514,-0.432251,down
115454,4.976562,7.667969,-3.117188,0.068359,-0.082031,-0.15625,0.38092,0.158936,-0.801697,-0.432373,down
115459,4.9375,7.667969,-3.117188,0.068359,-0.082031,-0.15625,0.380554,0.159241,-0.801758,-0.432434,down
115464,4.902344,7.734375,-3.15625,0.068359,-0.082031,-0.15625,0.380554,0.159241,-0.801758,-0.432434,down
115469,4.902344,7.734375,-3.15625,0.085937,-0.103516,-0.126953,0.379761,0.159668,-0.802063,-0.432434,down
115474,4.902344,7.738281,-3.230469,0.085937,-0.103516,-0.126953,0.379761,0.159668,-0.802063,-0.432434,down
115479,4.902344,7.738281,-3.230469,0.080078,-0.095703,-0.115234,0.379456,0.159912,-0.802185,-0.432434,down
115484,4.863281,7.734375,-3.308594,0.066406,-0.078125,-0.119141,0.378784,0.160339,-0.802368,-0.432434,down
115489,4.863281,7.703125,-3.347656,0.066406,-0.078125,-0.119141,0.378784,0.160339,-0.802368,-0.432434,down
115495,4.863281,7.703125,-3.347656,0.054687,-0.066406,-0.107422,0.378235,0.160767,-0.802551,-0.432495,down
115500,4.863281,7.734375,-3.308594,0.056641,-0.056641,-0.121094,0.37793,0.16095,-0.802612,-0.432495,down
115505,4.824219,7.667969,-3.230469,0.056641,-0.056641,-0.121094,0.377686,0.161194,-0.802673,-0.432556,down
115512,4.863281,7.589844,-3.117188,0.056641,-0.056641,-0.121094,0.377441,0.161438,-0.802734,-0.432556,down
115518,4.824219,7.507812,-3.078125,0.044922,-0.044922,-0.125,0.377441,0.161438,-0.802734,-0.432556,down
115524,4.746094,7.394531,-2.964844,0.039063,-0.041016,-0.128906,0.377441,0.161438,-0.802734,-0.432556,down
115529,4.746094,7.324219,-2.964844,0.039063,-0.041016,-0.128906,0.376465,0.162476,-0.802856,-0.4328,down
115534,4.710937,7.28125,-2.847656,0.060547,-0.054687,-0.154297,0.376465,0.162476,-0.802856,-0.4328,down
115539,4.671875,7.203125,-2.773438,0.0625,-0.066406,-0.154297,0.376221,0.162781,-0.802917,-0.4328,down
115544,4.59375,7.128906,-2.65625,0.0625,-0.066406,-0.154297,0.375854,0.163086,-0.802979,-0.432861,down
115549,4.554687,7.046875,-2.542969,0.064453,-0.089844,-0.183594,0.375549,0.163391,-0.802979,-0.432922,down
115554,4.519531,6.96875,-2.582031,0.064453,-0.089844,-0.183594,0.375183,0.163696,-0.803101,-0.433044,down
115560,4.480469,6.898437,-2.425781,0.060547,-0.105469,-0.203125,0.375183,0.163696,-0.803101,-0.433044,down
115566,4.402344,6.859375,-2.351563,0.060547,-0.105469,-0.203125,0.373779,0.164795,-0.803284,-0.433472,down
115572,4.363281,6.78125,-2.3125,0.048828,-0.162109,-0.279297,0.373779,0.164795,-0.803284,-0.433472,down
115578,4.328125,6.78125,-2.351563,0.037109,-0.191406,-0.304688,0.373779,0.164795,-0.803284,-0.433472,down
115583,4.289062,6.78125,-2.351563,0.037109,-0.191406,-0.304688,0.373779,0.164795,-0.803284,-0.433472,down
115589,4.25,6.78125,-2.3125,-0.035156,-0.285156,-0.421875,0.373779,0.164795,-0.803284,-0.433472,down
115594,4.210937,6.785156,-2.273438,-0.035156,-0.285156,-0.421875,0.368835,0.167542,-0.80365,-0.435913,down
115599,4.210937,6.746094,-2.273438,-0.035156,-0.285156,-0.421875,0.367676,0.168091,-0.803711,-0.436646,down
115604,4.171875,6.785156,-2.351563,-0.035156,-0.285156,-0.421875,0.367676,0.168091,-0.803711,-0.436646,down
115609,4.097656,6.667969,-2.351563,-0.126953,-0.421875,-0.558594,0.367676,0.168091,-0.803711,-0.436646,down
115614,4.058594,6.625,-2.351563,-0.148437,-0.451172,-0.582031,0.365112,0.169128,-0.803711,-0.438354,down
115620,4.019531,6.550781,-2.3125,-0.148437,-0.451172,-0.582031,0.362183,0.170227,-0.80365,-0.44043,down
115625,4.019531,6.476562,-2.390625,-0.173828,-0.458984,-0.625,0.360535,0.170837,-0.80365,-0.441589,down
115631,3.941406,6.441406,-2.425781,-0.173828,-0.458984,-0.625,0.358948,0.171448,-0.803589,-0.442749,down
115636,3.90625,6.441406,-2.464844,-0.173828,-0.458984,-0.625,0.357483,0.171997,-0.803528,-0.443726,down
115642,3.90625,6.441406,-2.464844,-0.115234,-0.486328,-0.671875,0.357483,0.171997,-0.803528,-0.443726,down
115648,3.867188,6.480469,-2.464844,-0.082031,-0.492187,-0.689453,0.354187,0.173401,-0.803589,-0.445801,down
115654,3.75,6.480469,-2.464844,-0.082031,-0.492187,-0.689453,0.352295,0.174255,-0.80365,-0.446899,down
115659,3.75,6.441406,-2.503906,-0.082031,-0.492187,-0.689453,0.350708,0.175049,-0.803711,-0.447693,down
115665,3.675781,6.441406,-2.464844,0.03125,-0.515625,-0.738281,0.346863,0.176941,-0.804016,-0.449402,down
115670,3.558594,6.4375,-2.425781,0.03125,-0.515625,-0.738281,0.34491,0.177979,-0.804199,-0.450195,down
115675,3.445313,6.441406,-2.390625,0.03125,-0.515625,-0.738281,0.342957,0.179016,-0.804382,-0.450928,down
115680,3.40625,6.441406,-2.351563,0.097656,-0.576172,-0.853516,0.340698,0.180237,-0.804626,-0.451721,down
115685,3.332031,6.625,-2.390625,0.097656,-0.576172,-0.853516,0.340698,0.180237,-0.804626,-0.451721,down
115690,3.253906,6.664062,-2.390625,0.097656,-0.576172,-0.853516,0.336365,0.182495,-0.804993,-0.45343,down
115695,3.175781,6.785156,-2.390625,0.021484,-0.699219,-0.978516,0.33374,0.183716,-0.805176,-0.454529,down
115700,3.140625,6.820312,-2.390625,0.021484,-0.699219,-0.978516,0.33136,0.184814,-0.805298,-0.455627,down
115705,3.0625,7.007812,-2.425781,0.021484,-0.699219,-0.978516,0.32843,0.186096,-0.805359,-0.457031,down
115711,2.945313,7.285156,-2.582031,0.021484,-0.699219,-0.978516,0.325867,0.187195,-0.805359,-0.458435,down
115716,2.945313,7.285156,-2.582031,-0.220703,-0.916016,-1.210938,0.322632,0.188416,-0.805359,-0.460266,down
115721,2.871094,7.664062,-2.734375,-0.220703,-0.916016,-1.210938,0.31958,0.189575,-0.805176,-0.462158,down
115727,2.792969,8.128906,-3.15625,-0.220703,-0.916016,-1.210938,0.316284,0.190796,-0.804932,-0.464417,down
115732,2.753906,8.273438,-3.308594,-0.544922,-1.078125,-1.458984,0.316284,0.190796,-0.804932,-0.464417,down
115737,2.753906,8.429688,-3.5,-0.669922,-1.134766,-1.53125,0.316284,0.190796,-0.804932,-0.464417,down
115742,2.792969,8.660156,-3.730469,-0.810547,-1.183594,-1.585938,0.316284,0.190796,-0.804932,-0.464417,down
115749,2.753906,8.734375,-3.84375,-0.921875,-1.207031,-1.654297,0.316284,0.190796,-0.804932,-0.464417,down
115754,2.792969,8.699219,-4.035156,-1.039063,-1.205078,-1.691406,0.316284,0.190796,-0.804932,-0.464417,down
115759,2.792969,8.699219,-4.035156,-1.132813,-1.199219,-1.722656,0.293396,0.197998,-0.799866,-0.48468,down
115764,2.792969,8.734375,-4.152344,-1.175781,-1.179688,-1.748047,0.293396,0.197998,-0.799866,-0.48468,down
115769,2.792969,8.734375,-4.152344,-1.162109,-1.158203,-1.751953,0.293396,0.197998,-0.799866,-0.48468,down
115775,2.792969,8.921875,-4.304687,-1.162109,-1.158203,-1.751953,0.278015,0.203003,-0.794067,-0.500977,down
115781,2.792969,9.039063,-4.378906,-0.876953,-0.984375,-1.708984,0.274414,0.204468,-0.792725,-0.504517,down
115786,2.5625,9.5,-4.535156,-0.876953,-0.984375,-1.708984,0.270691,0.206055,-0.791443,-0.507812,down
115791,2.527344,9.65625,-4.535156,-0.564453,-0.884766,-1.628906,0.270691,0.206055,-0.791443,-0.507812,down
115796,2.527344,9.65625,-4.535156,-0.410156,-0.818359,-1.59375,0.263733,0.209412,-0.78949,-0.513184,down
115802,2.257813,9.808594,-4.34375,-0.410156,-0.818359,-1.59375,0.260254,0.211304,-0.788696,-0.515381,down
115808,2.21875,9.882813,-4.226562,-0.207031,-0.728516,-1.494141,0.260254,0.211304,-0.788696,-0.515381,down
115814,1.953125,9.84375,-4.152344,-0.160156,-0.673828,-1.451172,0.260254,0.211304,-0.788696,-0.515381,down
115820,1.875,9.808594,-4.113281,-0.171875,-0.617187,-1.416016,0.247559,0.218933,-0.786194,-0.522217,down
115825,1.835938,9.726563,-3.996094,-0.273438,-0.560547,-1.347656,0.247559,0.218933,-0.786194,-0.522217,down
115830,1.796875,9.65625,-3.921875,-0.347656,-0.527344,-1.316406,0.244812,0.220642,-0.785461,-0.523865,down
115835,1.722656,9.578125,-3.691406,-0.347656,-0.527344,-1.316406,0.23999,0.223816,-0.783813,-0.527222,down
115840,1.683594,9.539063,-3.652344,-0.484375,-0.439453,-1.253906,0.23999,0.223816,-0.783813,-0.527222,down
115845,1.683594,9.539063,-3.578125,-0.484375,-0.439453,-1.253906,0.235291,0.227112,-0.781555,-0.53125,down
115850,1.566406,9.425781,-3.421875,-0.484375,-0.439453,-1.253906,0.235291,0.227112,-0.781555,-0.53125,down
115855,1.53125,9.382813,-3.382813,-0.484375,-0.439453,-1.253906,0.233215,0.228699,-0.780334,-0.533264,down
115860,1.53125,9.382813,-3.382813,-0.494141,-0.322266,-1.150391,0.231445,0.230103,-0.779297,-0.534973,down
115865,1.492188,9.347656,-3.347656,-0.494141,-0.322266,-1.150391,0.229614,0.231567,-0.778198,-0.536682,down
115870,1.300781,9.195313,-3.191406,-0.347656,-0.271484,-1.056641,0.227905,0.233032,-0.777222,-0.538208,down
115875,1.300781,9.117188,-3.117188,-0.234375,-0.25,-1.009766,0.226135,0.234558,-0.776367,-0.539551,down
115881,1.300781,9.117188,-3.117188,0.013672,-0.244141,-0.923828,0.222717,0.237488,-0.775208,-0.541382,down
115886,1.070313,9.0,-2.964844,0.013672,-0.244141,-0.923828,0.220886,0.239075,-0.774841,-0.541931,down
115892,1.070313,8.964844,-2.808594,0.013672,-0.244141,-0.923828,0.21936,0.240356,-0.774719,-0.542114,down
115897,0.992187,8.960938,-2.734375,0.324219,-0.244141,-0.767578,0.217651,0.241699,-0.77478,-0.542175,down
115903,0.957031,9.003906,-2.734375,0.400391,-0.236328,-0.71875,0.217651,0.241699,-0.77478,-0.542175,down
115908,0.839844,9.039063,-2.695313,0.400391,-0.236328,-0.71875,0.214355,0.244202,-0.775208,-0.541748,down
115913,0.765625,9.003906,-2.582031,0.455078,-0.285156,-0.611328,0.214355,0.244202,-0.775208,-0.541748,down
115918,0.726562,8.964844,-2.65625,0.449219,-0.285156,-0.568359,0.214355,0.244202,-0.775208,-0.541748,down
115923,0.6875,8.890625,-2.695313,0.431641,-0.294922,-0.535156,0.214355,0.244202,-0.775208,-0.541748,down
115928,0.648437,8.773438,-2.734375,0.431641,-0.294922,-0.535156,0.214355,0.244202,-0.775208,-0.541748,down
115934,0.6875,8.695313,-2.773438,0.431641,-0.294922,-0.535156,0.206482,0.248718,-0.777161,-0.539978,down
115940,0.6875,8.695313,-2.734375,0.3125,-0.337891,-0.470703,0.203552,0.249939,-0.77771,-0.539673,down
115945,0.570312,8.8125,-3.0,0.3125,-0.337891,-0.470703,0.202087,0.250488,-0.778015,-0.539551,down
115950,0.535156,8.964844,-3.078125,0.3125,-0.337891,-0.470703,0.202087,0.250488,-0.778015,-0.539551,down
115955,0.496094,9.042969,-3.039063,0.298828,-0.333984,-0.515625,0.202087,0.250488,-0.778015,-0.539551,down
115960,0.417969,9.3125,-3.382813,0.298828,-0.333984,-0.515625,0.199158,0.25177,-0.778442,-0.539368,down
115965,0.378906,9.34375,-3.347656,0.263672,-0.355469,-0.533203,0.19751,0.252441,-0.778748,-0.539307,down
115970,0.417969,9.425781,-3.421875,0.263672,-0.355469,-0.533203,0.195923,0.253174,-0.778931,-0.539246,down
115975,0.417969,9.464844,-3.5,0.263672,-0.355469,-0.533203,0.194336,0.253906,-0.779114,-0.539185,down
115980,0.417969,9.582031,-3.539063,0.298828,-0.349609,-0.546875,0.194336,0.253906,-0.779114,-0.539185,down
115985,0.417969,9.542969,-3.539063,0.298828,-0.349609,-0.546875,0.191345,0.255249,-0.779541,-0.539062,down
115990,0.417969,9.582031,-3.578125,0.28125,-0.333984,-0.544922,0.191345,0.255249,-0.779541,-0.539062,down
115995,0.378906,9.542969,-3.578125,0.28125,-0.333984,-0.544922,0.188049,0.256775,-0.779907,-0.53894,down
116001,0.378906,9.542969,-3.578125,0.246094,-0.335938,-0.525391,0.185181,0.258118,-0.780273,-0.538818,down
116006,0.34375,9.421875,-3.460938,0.214844,-0.332031,-0.513672,0.183472,0.25885,-0.780396,-0.538818,down
116012,0.265625,9.347656,-3.421875,0.214844,-0.332031,-0.513672,0.182251,0.259399,-0.780457,-0.538879,down
116017,0.265625,9.3125,-3.421875,0.214844,-0.332031,-0.513672,0.180847,0.259949,-0.780518,-0.53894,down
116023,0.1875,9.3125,-3.382813,0.214844,-0.332031,-0.513672,0.180847,0.259949,-0.780518,-0.53894,down
116028,0.1875,9.34375,-3.421875,0.140625,-0.357422,-0.478516,0.180847,0.259949,-0.780518,-0.53894,down
116033,0.074219,9.347656,-3.421875,0.136719,-0.361328,-0.482422,0.180847,0.259949,-0.780518,-0.53894,down
116039,0.074219,9.382813,-3.460938,0.142578,-0.365234,-0.480469,0.180847,0.259949,-0.780518,-0.53894,down
116044,0.074219,9.382813,-3.460938,0.150391,-0.378906,-0.490234,0.180847,0.259949,-0.780518,-0.53894,down
116050,-0.003906,9.5,-3.539063,0.148437,-0.396484,-0.492187,0.180847,0.259949,-0.780518,-0.53894,down
116055,-0.039063,9.582031,-3.578125,0.148437,-0.396484,-0.492187,0.169006,0.263977,-0.780884,-0.540344,down
116060,-0.039063,9.621094,-3.613281,0.148437,-0.396484,-0.492187,0.167542,0.264404,-0.780884,-0.540588,down
116065,-0.078125,9.621094,-3.652344,0.148437,-0.396484,-0.492187,0.167542,0.264404,-0.780884,-0.540588,down
116070,-0.078125,9.65625,-3.691406,0.123047,-0.458984,-0.527344,0.167542,0.264404,-0.780884,-0.540588,down
116076,-0.039063,9.617188,-3.691406,0.123047,-0.458984,-0.527344,0.162415,0.265686,-0.780884,-0.541565,down
116081,-0.078125,9.699219,-3.691406,0.123047,-0.458984,-0.527344,0.160706,0.266113,-0.780823,-0.541931,down
116086,-0.078125,9.65625,-3.730469,0.0625,-0.533203,-0.558594,0.160706,0.266113,-0.780823,-0.541931,down
116091,-0.078125,9.65625,-3.691406,0.0625,-0.533203,-0.558594,0.15686,0.266907,-0.78064,-0.542908,down
116096,-0.117188,9.660156,-3.769531,0.0625,-0.533203,-0.558594,0.155212,0.267212,-0.780579,-0.543335,down
116101,-0.078125,9.660156,-3.769531,0.039063,-0.566406,-0.556641,0.153198,0.267578,-0.780457,-0.543823,down
116106,-0.15625,9.5,-3.691406,0.039063,-0.566406,-0.556641,0.151428,0.267944,-0.780396,-0.544312,down
116111,-0.117188,9.464844,-3.652344,0.039063,-0.566406,-0.556641,0.149658,0.26825,-0.780273,-0.5448,down
116116,-0.15625,9.425781,-3.691406,0.029297,-0.566406,-0.576172,0.147644,0.268616,-0.780151,-0.545349,down
116121,-0.15625,9.425781,-3.691406,0.029297,-0.566406,-0.576172,0.147644,0.268616,-0.780151,-0.545349,down
116126,-0.230469,9.34375,-3.578125,-0.001953,-0.558594,-0.578125,0.147644,0.268616,-0.780151,-0.545349,down
116131,-0.230469,9.34375,-3.578125,-0.009766,-0.552734,-0.585937,0.144043,0.269287,-0.779785,-0.546448,down
116136,-0.347656,9.316406,-3.5,-0.009766,-0.552734,-0.585937,0.14032,0.270142,-0.779297,-0.547729,down
116142,-0.5,9.421875,-3.460938,-0.009766,-0.552734,-0.585937,0.13855,0.270508,-0.778992,-0.548462,down
116147,-0.539062,9.460938,-3.421875,-0.126953,-0.546875,-0.648437,0.13855,0.270508,-0.778992,-0.548462,down
116153,-0.539062,9.425781,-3.347656,-0.167969,-0.558594,-0.681641,0.13855,0.270508,-0.778992,-0.548462,down
116158,-0.539062,9.421875,-3.382813,-0.201172,-0.564453,-0.705078,0.13855,0.270508,-0.778992,-0.548462,down
116163,-0.539062,9.347656,-3.382813,-0.201172,-0.564453,-0.705078,0.13855,0.270508,-0.778992,-0.548462,down
116169,-0.578125,9.277344,-3.382813,-0.236328,-0.582031,-0.769531,0.13855,0.270508,-0.778992,-0.548462,down
116174,-0.652344,9.160156,-3.460938,-0.216797,-0.589844,-0.816406,0.13855,0.270508,-0.778992,-0.548462,down
116179,-0.730469,9.0,-3.5,-0.199219,-0.605469,-0.890625,0.13855,0.270508,-0.778992,-0.548462,down
116184,-0.652344,8.964844,-3.460938,-0.199219,-0.605469,-0.890625,0.13855,0.270508,-0.778992,-0.548462,down
116190,-0.769531,9.042969,-3.382813,-0.199219,-0.605469,-0.890625,0.119812,0.276306,-0.77356,-0.557617,down
116195,-0.808594,9.238281,-3.460938,-0.199219,-0.605469,-0.890625,0.116943,0.277588,-0.772766,-0.558716,down
116200,-0.808594,9.695313,-3.613281,-0.199219,-0.605469,-0.890625,0.111145,0.28064,-0.770996,-0.56073,down
116205,-0.882812,9.964844,-3.652344,-0.199219,-0.605469,-0.890625,0.111145,0.28064,-0.770996,-0.56073,down
116210,-1.0,10.265625,-3.652344,-0.208984,-0.695312,-1.599609,0.111145,0.28064,-0.770996,-0.56073,down
116215,-1.113281,10.613281,-3.691406,-0.208984,-0.695312,-1.599609,0.104492,0.284485,-0.768799,-0.56311,down
116221,-1.304688,11.109375,-3.730469,-0.208984,-0.695312,-1.599609,0.097595,0.288635,-0.765991,-0.566101,down
116226,-1.417969,11.296875,-3.804688,-0.580078,-0.765625,-1.759766,0.09375,0.290955,-0.764038,-0.568115,down
116231,-1.574219,11.496094,-3.84375,-0.580078,-0.765625,-1.759766,0.09375,0.290955,-0.764038,-0.568115,down
116236,-1.6875,11.53125,-3.84375,-0.580078,-0.765625,-1.759766,0.086792,0.295227,-0.759338,-0.573364,down
116241,-1.804688,11.574219,-3.804688,-0.580078,-0.765625,-1.759766,0.086792,0.295227,-0.759338,-0.573364,down
116246,-1.878906,11.492188,-3.84375,-1.423828,-0.820312,-1.904297,0.080383,0.299438,-0.752808,-0.580688,down
116251,-2.070313,11.296875,-3.804688,-1.423828,-0.820312,-1.904297,0.077515,0.301575,-0.748718,-0.585205,down
116256,-2.1875,11.230469,-3.769531,-1.423828,-0.820312,-1.904297,0.077515,0.301575,-0.748718,-0.585205,down
116261,-2.1875,11.230469,-3.769531,-2.355469,-0.732422,-2.09375,0.074951,0.303772,-0.744263,-0.590027,down
116266,-2.339844,11.226563,-3.804688,-2.355469,-0.732422,-2.09375,0.072388,0.306152,-0.739197,-0.595459,down
116271,-3.027344,11.6875,-3.613281,-2.792969,-0.654297,-2.285156,0.072388,0.306152,-0.739197,-0.595459,down
116276,-3.027344,11.6875,-3.613281,-2.820313,-0.654297,-2.34375,0.067383,0.311401,-0.727844,-0.607239,down
116281,-3.410156,12.070313,-3.578125,-2.820313,-0.654297,-2.34375,0.062073,0.317139,-0.71521,-0.619751,down
116286,-3.757813,12.261719,-3.382813,-2.820313,-0.654297,-2.34375,0.062073,0.317139,-0.71521,-0.619751,down
116291,-3.910156,12.417969,-3.308594,-2.820313,-0.654297,-2.34375,0.056946,0.322815,-0.702698,-0.63147,down
116296,-4.101562,12.457031,-3.269531,-2.820313,-0.654297,-2.34375,0.056946,0.322815,-0.702698,-0.63147,down
116301,-4.332031,12.640625,-3.15625,-2.728516,-0.570312,-2.355469,0.052246,0.328186,-0.690918,-0.642029,down
116306,-4.867187,12.949219,-2.964844,-2.728516,-0.570312,-2.355469,0.049744,0.330872,-0.684814,-0.6474,down
116311,-5.136719,13.101563,-2.886719,-2.662109,-0.582031,-2.289063,0.049744,0.330872,-0.684814,-0.6474,down
116316,-5.367187,13.257813,-2.808594,-2.662109,-0.582031,-2.289063,0.047058,0.333801,-0.67804,-0.653198,down
116321,-5.632812,13.367188,-2.695313,-2.847656,-0.666016,-2.285156,0.047058,0.333801,-0.67804,-0.653198,down
116326,-5.632812,13.367188,-2.695313,-2.847656,-0.666016,-2.285156,0.039917,0.340881,-0.659119,-0.669128,down
116331,-6.554687,13.871094,-2.3125,-3.185547,-0.685547,-2.310547,0.039917,0.340881,-0.659119,-0.669128,down
116336,-6.820312,13.984375,-2.3125,-3.185547,-0.685547,-2.310547,0.035339,0.345459,-0.64447,-0.681213,down
116341,-6.820312,13.984375,-2.3125,-3.185547,-0.685547,-2.310547,0.035339,0.345459,-0.64447,-0.681213,down
116346,-7.320312,14.253906,-2.234375,-3.185547,-0.685547,-2.310547,0.035339,0.345459,-0.64447,-0.681213,down
116351,-7.433594,14.410156,-2.121094,-4.199219,-0.800781,-2.470703,0.035339,0.345459,-0.64447,-0.681213,down
116357,-7.433594,14.410156,-2.121094,-4.199219,-0.800781,-2.470703,0.027527,0.354004,-0.60907,-0.709167,down
116362,-7.511719,13.949219,-1.125,-4.199219,-0.800781,-2.470703,0.02594,0.356079,-0.598572,-0.717102,down
116367,-7.394531,13.871094,-0.78125,-4.832031,-0.859375,-2.419922,0.02594,0.356079,-0.598572,-0.717102,down
116372,-7.472656,13.828125,-0.398438,-4.945312,-0.925781,-2.298828,0.02594,0.356079,-0.598572,-0.717102,down
116378,-7.550781,13.675781,-0.089844,-4.945312,-0.925781,-2.298828,0.0224,0.360535,-0.565735,-0.741272,down
116383,-7.703125,13.257813,0.332031,-4.945312,-0.925781,-2.298828,0.021851,0.361389,-0.553284,-0.750183,down
116388,-7.585937,12.839844,0.484375,-5.214844,-0.939453,-1.761719,0.021851,0.361389,-0.553284,-0.750183,down
116394,-7.511719,12.183594,0.867187,-5.226562,-1.005859,-1.492188,0.021851,0.361389,-0.553284,-0.750183,down
116399,-7.625,11.613281,1.289063,-5.226562,-1.005859,-1.492188,0.021851,0.361389,-0.553284,-0.750183,down
116404,-7.625,10.957031,1.710938,-5.169922,-1.050781,-1.197266,0.021851,0.361389,-0.553284,-0.750183,down
116409,-7.585937,10.421875,2.054688,-4.730469,-1.013672,-0.533203,0.025757,0.358887,-0.499573,-0.788025,down
116415,-7.664062,9.808594,2.4375,-4.322266,-0.960937,-0.197266,0.025757,0.358887,-0.499573,-0.788025,down
116420,-7.703125,9.316406,2.628906,-3.277344,-0.910156,0.507812,0.025757,0.358887,-0.499573,-0.788025,down
116425,-7.511719,9.117188,2.78125,-3.277344,-0.910156,0.507812,0.033081,0.352356,-0.475525,-0.805359,down
116430,-7.242187,8.890625,2.972656,-2.626953,-0.873047,0.875,0.033081,0.352356,-0.475525,-0.805359,down
116436,-7.050781,8.8125,3.164063,-2.626953,-0.873047,0.875,0.039185,0.346313,-0.466553,-0.812927,down
116441,-6.9375,8.964844,3.089844,-0.5625,-0.574219,2.115234,0.042847,0.342773,-0.464539,-0.815369,down
116446,-6.859375,8.921875,2.859375,-0.5625,-0.574219,2.115234,0.047058,0.338928,-0.464355,-0.816895,down
116452,-6.554687,8.816406,2.628906,-0.5625,-0.574219,2.115234,0.055847,0.331116,-0.468933,-0.816895,down
116458,-5.902344,8.511719,2.515625,-0.5625,-0.574219,2.115234,0.061035,0.326599,-0.47345,-0.815796,down
116464,-5.75,8.429688,2.515625,1.539063,-0.351563,3.830078,0.061035,0.326599,-0.47345,-0.815796,down
116470,-5.210937,8.125,2.132813,2.171875,-0.121094,4.603516,0.061035,0.326599,-0.47345,-0.815796,down
116476,-4.714844,7.929687,1.941406,2.171875,-0.121094,4.603516,0.080566,0.311096,-0.493591,-0.808167,down
116481,-4.714844,7.929687,1.941406,2.341797,-0.052734,4.970703,0.088562,0.305237,-0.502075,-0.80426,down
116486,-4.253906,7.664062,1.863281,2.458984,0.046875,5.302734,0.088562,0.305237,-0.502075,-0.80426,down
116491,-4.253906,7.664062,1.863281,2.535156,0.166016,5.634766,0.10614,0.293213,-0.519653,-0.795471,down
116496,-3.21875,7.324219,1.632813,2.535156,0.166016,5.634766,0.116333,0.286621,-0.529053,-0.790222,down
116502,-2.570313,6.820312,1.328125,2.572266,0.431641,6.248047,0.139404,0.272522,-0.548401,-0.778137,down
116507,-2.148438,6.515625,0.90625,2.572266,0.431641,6.248047,0.150452,0.266052,-0.556885,-0.772278,down
116512,-1.917969,6.320312,0.675781,2.638672,0.857422,7.054687,0.164429,0.258179,-0.567078,-0.764648,down
116517,-1.6875,6.167969,0.484375,2.693359,0.982422,7.28125,0.176086,0.251648,-0.575256,-0.758118,down
116522,-1.035156,5.597656,0.445312,2.693359,0.982422,7.28125,0.176086,0.251648,-0.575256,-0.758118,down
116527,-1.035156,5.597656,0.445312,2.693359,0.982422,7.28125,0.176086,0.251648,-0.575256,-0.758118,down
116532,-0.730469,5.402344,0.445312,3.109375,1.335938,7.869141,0.176086,0.251648,-0.575256,-0.758118,down
116538,-0.269531,4.832031,0.292969,3.109375,1.335938,7.869141,0.233582,0.220764,-0.613098,-0.72168,down
116543,-0.078125,4.292969,0.371094,3.109375,1.335938,7.869141,0.248535,0.213196,-0.622498,-0.710815,down
116549,0.074219,3.984375,0.636719,3.585938,1.742188,8.261719,0.248535,0.213196,-0.622498,-0.710815,down
116554,0.152344,3.523438,0.90625,3.714844,1.865234,8.292969,0.279419,0.197815,-0.641357,-0.686646,down
116559,0.152344,3.523438,0.90625,3.824219,2.001953,8.28125,0.294678,0.190491,-0.650269,-0.673828,down
116564,0.609375,2.601563,1.367188,3.824219,2.001953,8.28125,0.294678,0.190491,-0.650269,-0.673828,down
116569,0.800781,2.074219,1.59375,3.957031,2.357422,8.128906,0.325623,0.176453,-0.66748,-0.646057,down
116574,1.03125,1.648438,1.675781,4.001953,2.589844,8.03125,0.325623,0.176453,-0.66748,-0.646057,down
116580,1.640625,1.382813,1.25,4.001953,2.589844,8.03125,0.325623,0.176453,-0.66748,-0.646057,down
116586,1.679688,1.457031,1.402344,4.197266,2.742188,7.804687,0.325623,0.176453,-0.66748,-0.646057,down
116591,1.566406,1.382813,1.820313,4.355469,2.738281,7.722656,0.386719,0.152771,-0.696106,-0.585266,down
116597,1.644531,0.996094,2.625,4.355469,2.738281,7.722656,0.402283,0.146912,-0.703003,-0.567749,down
116602,1.644531,0.996094,2.625,4.525391,2.789063,7.632812,0.4151,0.142151,-0.708679,-0.55249,down
116607,1.683594,0.804687,2.863281,4.525391,2.789063,7.632812,0.42865,0.13739,-0.7146,-0.5354,down
116612,1.683594,0.804687,2.863281,5.207031,2.708984,7.300781,0.442261,0.132935,-0.720642,-0.51709,down
116617,1.835938,0.5,4.085937,5.375,2.515625,7.150391,0.454834,0.128845,-0.726379,-0.498901,down
116623,1.683594,-0.6875,4.964844,5.375,2.515625,7.150391,0.478027,0.121277,-0.737915,-0.460693,down
116628,1.683594,-0.574219,5.34375,5.699219,2.226563,6.765625,0.478027,0.121277,-0.737915,-0.460693,down
116633,1.722656,-0.382813,5.65625,5.699219,2.226563,6.765625,0.49762,0.114929,-0.749023,-0.422058,down
116638,1.835938,-0.648437,6.039062,5.699219,2.226563,6.765625,0.49762,0.114929,-0.749023,-0.422058,down
116644,1.835938,-0.648437,6.039062,6.064453,1.419922,5.923828,0.513306,0.109985,-0.760315,-0.382507,down
116649,1.835938,-0.648437,6.039062,6.085937,1.150391,5.625,0.519409,0.108032,-0.765869,-0.363342,down
116654,1.566406,-0.304688,6.148437,6.085937,1.150391,5.625,0.524658,0.106262,-0.771545,-0.343689,down
116659,1.261719,0.003906,6.148437,6.113281,0.414062,5.066406,0.528564,0.104675,-0.777161,-0.325012,down
116665,0.957031,0.308594,6.269531,6.066406,0.0,4.765625,0.528564,0.104675,-0.777161,-0.325012,down
116670,0.457031,0.421875,6.148437,5.919922,-0.416016,4.470703,0.528564,0.104675,-0.777161,-0.325012,down
116676,0.1875,0.347656,6.003906,5.919922,-0.416016,4.470703,0.533203,0.100647,-0.795105,-0.270935,down
116681,0.1875,0.347656,6.003906,5.197266,-1.228516,3.853516,0.532471,0.099182,-0.801025,-0.255005,down
116686,-0.421875,0.078125,4.8125,4.720703,-1.642578,3.505859,0.530701,0.097473,-0.806824,-0.240662,down
116691,-0.421875,0.078125,4.8125,4.164062,-2.041016,3.146484,0.527893,0.09552,-0.812561,-0.227844,down
116697,-0.691406,-0.074219,3.855469,4.164062,-2.041016,3.146484,0.519165,0.090698,-0.824219,-0.207214,down
116702,-0.730469,0.039063,3.394531,2.148438,-3.207031,1.982422,0.51355,0.087891,-0.829773,-0.199951,down
116707,-0.808594,0.003906,2.664063,2.148438,-3.207031,1.982422,0.506165,0.084473,-0.836121,-0.193848,down
116712,-0.921875,0.15625,2.359375,0.927734,-3.728516,1.085938,0.506165,0.084473,-0.836121,-0.193848,down
116717,-1.074219,0.347656,1.902344,0.927734,-3.728516,1.085938,0.491638,0.078796,-0.846436,-0.188843,down
116722,-1.191406,0.421875,1.519531,0.927734,-3.728516,1.085938,0.484131,0.076477,-0.850891,-0.189026,down
116727,-1.414063,0.230469,0.789062,-0.771484,-4.076172,-0.445312,0.474487,0.074036,-0.856018,-0.191284,down
116732,-1.53125,0.117188,0.332031,-1.212891,-4.068359,-1.015625,0.474487,0.074036,-0.856018,-0.191284,down
116737,-1.6875,-0.035156,-0.167969,-1.212891,-4.068359,-1.015625,0.457275,0.071777,-0.863647,-0.199768,down
116742,-1.957031,-0.417969,-0.972656,-1.212891,-4.068359,-1.015625,0.457275,0.071777,-0.863647,-0.199768,down
116747,-2.21875,-0.34375,-1.085938,-1.767578,-4.066406,-2.242188,0.447937,0.07196,-0.867004,-0.206177,down
116752,-2.21875,-0.34375,-1.085938,-2.044922,-3.992188,-3.544922,0.447937,0.07196,-0.867004,-0.206177,down
116757,-3.144531,0.003906,-1.199219,-2.044922,-3.992188,-3.544922,0.417603,0.079956,-0.874939,-0.23175,down
116762,-3.445313,0.269531,-1.277344,-2.294922,-3.90625,-4.820312,0.417603,0.079956,-0.874939,-0.23175,down
116767,-4.066406,0.230469,-1.007813,-2.294922,-3.90625,-4.820312,0.394653,0.092163,-0.878113,-0.254211,down
116772,-4.410156,0.269531,-0.625,-2.294922,-3.90625,-4.820312,0.382629,0.099915,-0.878967,-0.266541,down
116777,-5.480469,0.613281,0.332031,-2.294922,-3.90625,-4.820312,0.382629,0.099915,-0.878967,-0.266541,down
116782,-5.480469,0.613281,0.332031,-2.5625,-4.017578,-6.667969,0.371277,0.108032,-0.879272,-0.278076,down
116788,-6.09375,1.074219,0.945312,-2.5625,-4.017578,-6.667969,0.358093,0.117981,-0.879272,-0.291016,down
116793,-7.125,2.492188,2.207031,-2.425781,-5.498047,-8.498047,0.343445,0.128967,-0.879089,-0.304321,down
116798,-8.355469,3.027344,3.011719,-2.425781,-5.498047,-8.498047,0.307373,0.153687,-0.878052,-0.333069,down
116804,-10.082031,4.945312,2.859375,-2.425781,-5.498047,-8.498047,0.285828,0.167053,-0.876648,-0.349182,down
116809,-10.921875,5.402344,2.476563,-3.4375,-7.410156,-10.287109,0.285828,0.167053,-0.876648,-0.349182,down
116815,-12.71875,6.167969,1.210938,-3.4375,-7.410156,-10.287109,0.285828,0.167053,-0.876648,-0.349182,down
116820,-12.71875,6.167969,1.210938,-4.851562,-8.849609,-11.625,0.21051,0.207397,-0.865356,-0.404724,down
116825,-13.601563,6.78125,0.636719,-5.53125,-9.539063,-12.400391,0.181396,0.221008,-0.858154,-0.426453,down
116830,-13.601563,6.78125,0.636719,-6.25,-10.146484,-13.230469,0.181396,0.221008,-0.858154,-0.426453,down
116836,-13.601563,6.78125,0.636719,-6.25,-10.146484,-13.230469,0.115845,0.249878,-0.835754,-0.475037,down
116842,-18.3125,14.710938,-6.792969,-6.25,-10.146484,-13.230469,0.115845,0.249878,-0.835754,-0.475037,down
116847,-19.347656,17.394531,-7.675781,-8.638672,-11.964844,-16.09375,0.115845,0.249878,-0.835754,-0.475037,down
116852,-21.375,18.925781,-7.101562,-8.638672,-11.964844,-16.09375,0.006531,0.296143,-0.779114,-0.552551,down
116857,-21.953125,20.0,-7.597656,-9.826172,-12.019531,-16.943359,0.035461,-0.311462,0.751953,0.579895,down
116862,-23.566406,21.570312,-8.671875,-10.408203,-11.572266,-17.291016,0.071716,-0.324463,0.725342,0.602905,down
116868,-23.566406,21.570312,-8.671875,-10.861328,-10.833984,-17.662109,0.148682,-0.354004,0.656799,0.648987,down
116874,-30.070312,22.871094,-14.148438,-10.861328,-10.833984,-17.662109,0.189026,-0.371948,0.612854,0.671082,down
116879,-29.1875,24.632812,-15.414063,-11.615234,-8.794922,-17.669922,0.216858,-0.385864,0.578308,0.685303,down
116885,-22.605469,27.273437,-12.617188,-11.613281,-8.458984,-17.162109,0.216858,-0.385864,0.578308,0.685303,down
116891,-18.3125,26.507812,-9.246094,-11.167969,-8.240234,-16.205078,0.216858,-0.385864,0.578308,0.685303,down
116897,-15.441406,24.097656,-5.875,-8.5,-6.039062,-12.693359,0.216858,-0.385864,0.578308,0.685303,down
116902,-14.941406,17.355469,-1.085938,-8.5,-6.039062,-12.693359,0.325012,-0.438354,0.413696,0.72876,down
116907,-16.550781,13.484375,0.636719,-8.5,-6.039062,-12.693359,0.343994,-0.447388,0.38031,0.732727,down
116912,-18.8125,10.34375,1.941406,-3.935547,-0.888672,-4.953125,0.343994,-0.447388,0.38031,0.732727,down
116917,-20.957031,7.96875,2.746094,-3.935547,-0.888672,-4.953125,0.364502,-0.461426,0.338623,0.734558,down
116923,-20.957031,7.96875,2.746094,-0.769531,0.669922,-1.580078,0.3703,-0.470642,0.322632,0.732971,down
116929,-22.828125,3.375,4.046875,-0.769531,0.669922,-1.580078,0.372009,-0.473267,0.322571,0.730469,down
116934,-22.335937,5.171875,3.777344,3.035156,1.650391,-0.041016,0.37384,-0.47406,0.326965,0.727051,down
116939,-21.914062,7.164062,3.164063,4.732422,2.148438,0.291016,0.376648,-0.473816,0.335754,0.721741,down
116944,-21.113281,12.105469,2.746094,4.732422,2.148438,0.291016,0.38031,-0.472534,0.348145,0.714783,down
116950,-20.230469,13.410156,2.667969,7.023437,2.941406,0.769531,0.38031,-0.472534,0.348145,0.714783,down
116955,-18.738281,14.023438,2.554688,7.455078,3.306641,0.957031,0.38031,-0.472534,0.348145,0.714783,down
116960,-17.050781,13.257813,1.59375,7.455078,3.306641,0.957031,0.392395,-0.465698,0.397705,0.686218,down
116966,-16.863281,12.453125,0.445312,8.654297,3.751953,1.197266,0.392395,-0.465698,0.397705,0.686218,down
116971,-16.785156,11.300781,-0.550781,9.296875,3.330078,1.177734,0.392395,-0.465698,0.397705,0.686218,down
116976,-15.636719,8.8125,1.058594,9.134766,2.263672,1.130859,0.392395,-0.465698,0.397705,0.686218,down
116981,-14.328125,7.96875,3.011719,8.191406,1.072266,1.158203,0.392395,-0.465698,0.397705,0.686218,down
116986,-13.328125,7.585937,4.429687,7.044922,0.4375,1.242188,0.392395,-0.465698,0.397705,0.686218,down
116992,-12.523438,7.050781,5.734375,5.585937,0.347656,1.240234,0.425049,-0.423401,0.50824,0.617859,down
116997,-11.230469,5.25,6.34375,5.585937,0.347656,1.240234,0.425049,-0.423401,0.50824,0.617859,down
117002,-10.769531,4.714844,6.0,0.441406,1.349609,1.310547,0.425171,-0.420044,0.514893,0.614563,down
117008,-10.648438,3.984375,4.890625,-0.572266,1.275391,1.308594,0.422791,-0.418884,0.519592,0.613037,down
117013,-10.425781,3.601563,4.046875,-0.572266,1.275391,1.308594,0.41449,-0.42041,0.523132,0.614624,down
117018,-9.886719,3.527344,4.125,-0.572266,1.275391,1.308594,0.409363,-0.422058,0.522156,0.617737,down
117023,-9.582031,3.410156,3.96875,-3.005859,0.525391,1.160156,0.40332,-0.424438,0.519653,0.622253,down
117028,-9.347656,3.105469,3.011719,-3.005859,0.525391,1.160156,0.397827,-0.426819,0.516418,0.62677,down
117033,-9.117188,2.988281,2.589844,-3.005859,0.525391,1.160156,0.39325,-0.428894,0.513062,0.630981,down
117038,-8.890625,2.914063,2.207031,-3.005859,0.525391,1.160156,0.388977,-0.430725,0.509521,0.635254,down
117044,-8.355469,2.835938,1.785156,-3.005859,0.525391,1.160156,0.385864,-0.431641,0.506531,0.638916,down
117049,-8.125,2.953125,1.824219,-3.005859,0.525391,1.160156,0.38446,-0.431641,0.504822,0.641113,down
117055,-7.816406,3.179688,1.785156,-3.005859,0.525391,1.160156,0.383911,-0.430908,0.503967,0.642639,down
117060,-7.855469,3.179688,1.519531,0.177734,-0.427734,0.292969,0.383972,-0.42981,0.503784,0.643494,down
117065,-7.855469,3.105469,1.25,0.447266,-0.361328,0.273438,0.383972,-0.42981,0.503784,0.643494,down
117070,-7.8125,2.988281,0.828125,0.447266,-0.361328,0.273438,0.384949,-0.427124,0.505066,0.643677,down
117075,-7.816406,2.953125,0.753906,0.716797,-0.333984,0.320313,0.384949,-0.427124,0.505066,0.643677,down
117080,-7.773437,2.875,0.714844,0.738281,-0.294922,0.357422,0.384949,-0.427124,0.505066,0.643677,down
117085,-7.816406,2.953125,0.714844,0.685547,-0.236328,0.404297,0.384949,-0.427124,0.505066,0.643677,down
117090,-7.777344,3.105469,0.597656,0.474609,-0.15625,0.464844,0.384949,-0.427124,0.505066,0.643677,down
117095,-7.972656,3.179688,0.523437,0.261719,-0.025391,0.507812,0.384949,-0.427124,0.505066,0.643677,down
117101,-8.234375,3.296875,0.292969,0.009766,0.113281,0.548828,0.384949,-0.427124,0.505066,0.643677,down
117107,-8.542969,3.410156,0.292969,-0.195312,0.318359,0.646484,0.384949,-0.427124,0.505066,0.643677,down
117112,-8.621094,3.527344,0.332031,-0.195312,0.318359,0.646484,0.383179,-0.41864,0.513062,0.643982,down
117118,-8.894531,3.527344,0.445312,-0.242187,0.457031,0.6875,0.383179,-0.41864,0.513062,0.643982,down
117123,-9.15625,3.527344,0.40625,-0.242187,0.457031,0.6875,0.377625,-0.418762,0.51532,0.645386,down
117128,-9.199219,3.640625,0.445312,-0.242187,0.457031,0.6875,0.377625,-0.418762,0.51532,0.645386,down
117134,-9.199219,3.640625,0.445312,0.166016,0.5,0.644531,0.374023,-0.418701,0.517822,0.645508,down
117139,-9.347656,3.792969,0.636719,0.349609,0.498047,0.609375,0.372742,-0.418457,0.519226,0.645264,down
117145,-9.660156,4.0625,0.714844,0.349609,0.498047,0.609375,0.371643,-0.418152,0.520996,0.644653,down
117150,-9.734375,4.253906,0.789062,0.675781,0.478516,0.541016,0.371643,-0.418152,0.520996,0.644653,down
117155,-9.734375,4.445312,0.90625,0.662109,0.4375,0.509766,0.371643,-0.418152,0.520996,0.644653,down
117160,-9.769531,4.597656,0.867187,0.662109,0.4375,0.509766,0.369324,-0.416565,0.5271,0.64209,down
117166,-9.699219,4.636719,0.828125,0.511719,0.380859,0.419922,0.369324,-0.416565,0.5271,0.64209,down
117172,-9.617188,4.714844,0.867187,0.376953,0.332031,0.378906,0.369324,-0.416565,0.5271,0.64209,down
117177,-9.542969,4.675781,0.828125,0.205078,0.285156,0.351563,0.367249,-0.415527,0.531555,0.640198,down
117182,-9.460938,4.636719,0.867187,-0.017578,0.230469,0.341797,0.367249,-0.415527,0.531555,0.640198,down
117188,-9.421875,4.523437,0.90625,-0.255859,0.1875,0.333984,0.36438,-0.415649,0.532593,0.64093,down
117193,-9.273438,4.214844,0.867187,-0.255859,0.1875,0.333984,0.363037,-0.416016,0.532166,0.641846,down
117198,-9.234375,4.0625,0.828125,-0.255859,0.1875,0.333984,0.361633,-0.416382,0.531555,0.642883,down
117203,-9.121094,3.949219,0.828125,-0.255859,0.1875,0.333984,0.361633,-0.416382,0.531555,0.642883,down
117208,-9.0,3.871094,0.828125,-0.853516,0.0625,0.375,0.358459,-0.417175,0.529724,0.64563,down
117213,-8.851563,3.679688,0.867187,-0.853516,0.0625,0.375,0.356873,-0.41748,0.528809,0.647095,down
117218,-8.777344,3.640625,0.867187,-0.853516,0.0625,0.375,0.355225,-0.417664,0.527893,0.648621,down
117223,-8.734375,3.527344,0.828125,-0.724609,0.011719,0.488281,0.355225,-0.417664,0.527893,0.648621,down
117228,-8.617188,3.375,0.789062,-0.724609,0.011719,0.488281,0.353516,-0.417786,0.527039,0.650146,down
117234,-8.46875,3.296875,0.789062,-0.724609,0.011719,0.488281,0.350708,-0.417542,0.526428,0.652405,down
117239,-8.46875,3.296875,0.789062,-0.158203,0.048828,0.595703,0.349426,-0.417053,0.526611,0.653198,down
117244,-8.390625,3.335938,0.789062,-0.158203,0.048828,0.595703,0.348145,-0.416382,0.527283,0.653748,down
117250,-8.316406,3.21875,0.789062,-0.158203,0.048828,0.595703,0.347229,-0.415649,0.528137,0.653992,down
117256,-8.316406,3.257813,0.789062,0.333984,0.111328,0.65625,0.347229,-0.415649,0.528137,0.653992,down
117261,-8.355469,3.257813,0.789062,0.435547,0.126953,0.660156,0.347229,-0.415649,0.528137,0.653992,down
117266,-8.351563,3.335938,0.753906,0.511719,0.138672,0.673828,0.347229,-0.415649,0.528137,0.653992,down
117272,-8.3125,3.410156,0.753906,0.566406,0.164062,0.658203,0.347229,-0.415649,0.528137,0.653992,down
117277,-8.390625,3.566406,0.714844,0.599609,0.164062,0.646484,0.347229,-0.415649,0.528137,0.653992,down
117283,-8.355469,3.601563,0.675781,0.617187,0.166016,0.628906,0.342041,-0.408325,0.539368,0.652161,down
117288,-8.433594,3.910156,0.636719,0.580078,0.167969,0.591797,0.342041,-0.408325,0.539368,0.652161,down
117293,-8.472656,3.984375,0.597656,0.580078,0.167969,0.591797,0.34137,-0.407166,0.541321,0.651672,down
117298,-8.46875,4.0625,0.597656,0.517578,0.146484,0.541016,0.34137,-0.407166,0.541321,0.651672,down
117304,-8.394531,4.214844,0.636719,0.517578,0.146484,0.541016,0.339722,-0.404419,0.545898,0.650452,down
117309,-8.394531,4.292969,0.5625,0.517578,0.146484,0.541016,0.339111,-0.403442,0.547363,0.650085,down
117314,-8.355469,4.253906,0.523437,0.386719,0.109375,0.486328,0.339111,-0.403442,0.547363,0.650085,down
117319,-8.355469,4.332031,0.523437,0.345703,0.085937,0.480469,0.339111,-0.403442,0.547363,0.650085,down
117324,-8.355469,4.332031,0.523437,0.345703,0.085937,0.480469,0.337463,-0.401123,0.550781,0.649475,down
117329,-8.316406,4.292969,0.523437,0.240234,0.070312,0.429687,0.336853,-0.40033,0.551819,0.649414,down
117335,-8.234375,4.292969,0.484375,0.240234,0.070312,0.429687,0.336304,-0.39978,0.552612,0.649414,down
117340,-8.234375,4.253906,0.484375,0.121094,0.044922,0.398438,0.336304,-0.39978,0.552612,0.649414,down
117346,-8.15625,4.175781,0.371094,0.121094,0.044922,0.398438,0.336304,-0.39978,0.552612,0.649414,down
117351,-8.128906,4.175781,0.445312,0.023437,0.033203,0.365234,0.336304,-0.39978,0.552612,0.649414,down
117357,-8.085938,4.101562,0.332031,-0.013672,0.033203,0.353516,0.336304,-0.39978,0.552612,0.649414,down
117362,-8.085938,4.101562,0.332031,-0.033203,0.044922,0.349609,0.336304,-0.39978,0.552612,0.649414,down
117368,-8.15625,4.0625,0.40625,-0.060547,0.050781,0.322266,0.336304,-0.39978,0.552612,0.649414,down
117373,-8.160156,4.023437,0.40625,-0.060547,0.050781,0.322266,0.33197,-0.396606,0.555725,0.650879,down
117378,-8.15625,4.023437,0.371094,-0.060547,0.050781,0.322266,0.331238,-0.396301,0.55603,0.651184,down
