timestamp,ax,ay,az,gx,gy,gz,qw,qx,qy,qz,label
333497,5.410156,7.605469,-2.503906,-0.363281,-0.097656,-0.117188,0.27179,-0.108337,-0.78241,-0.549744,down
333502,5.371094,7.484375,-2.464844,-0.363281,-0.097656,-0.117188,0.27179,-0.108337,-0.78241,-0.549744,down
333507,5.332031,7.527344,-2.425781,0.013672,-0.076172,-0.054687,0.271484,-0.108337,-0.78241,-0.549866,down
333512,5.332031,7.484375,-2.351563,0.177734,-0.09375,-0.027344,0.271301,-0.108276,-0.782532,-0.549805,down
333517,5.292969,7.523437,-2.351563,0.177734,-0.09375,-0.027344,0.271057,-0.108215,-0.782837,-0.549561,down
333523,5.292969,7.644531,-2.273438,0.177734,-0.09375,-0.027344,0.270752,-0.108093,-0.783508,-0.548767,down
333528,5.214844,7.710937,-2.3125,0.191406,-0.064453,0.0,0.27063,-0.107971,-0.783875,-0.54834,down
333533,5.179687,7.753906,-2.351563,0.140625,-0.058594,-0.001953,0.270508,-0.10791,-0.784119,-0.548035,down
333538,5.179687,7.644531,-2.351563,0.140625,-0.058594,-0.001953,0.270386,-0.10791,-0.784302,-0.547852,down
333544,5.214844,7.644531,-2.234375,0.140625,-0.058594,-0.001953,0.270203,-0.10791,-0.784363,-0.547791,down
333549,5.214844,7.644531,-2.273438,-0.041016,-0.070312,-0.023437,0.270203,-0.10791,-0.784363,-0.547791,down
333555,5.214844,7.683594,-2.234375,-0.082031,-0.078125,-0.025391,0.270203,-0.10791,-0.784363,-0.547791,down
333560,5.214844,7.683594,-2.273438,-0.082031,-0.078125,-0.025391,0.269531,-0.108093,-0.784302,-0.548157,down
333566,5.214844,7.679687,-2.3125,-0.138672,-0.109375,-0.015625,0.269531,-0.108093,-0.784302,-0.548157,down
333572,5.253906,7.601562,-2.273438,-0.154297,-0.091797,0.007813,0.269531,-0.108093,-0.784302,-0.548157,down
333577,5.253906,7.488281,-2.390625,-0.154297,-0.091797,0.007813,0.268738,-0.108704,-0.783936,-0.549011,down
333582,5.214844,7.445312,-2.390625,-0.154297,-0.091797,0.007813,0.268494,-0.108887,-0.783813,-0.549255,down
333588,5.253906,7.40625,-2.351563,-0.074219,-0.080078,0.015625,0.268127,-0.109253,-0.783691,-0.549561,down
333593,5.253906,7.449219,-2.3125,-0.074219,-0.080078,0.015625,0.268005,-0.109375,-0.783752,-0.5495,down
333614,5.101562,7.523437,-2.3125,0.193359,-0.064453,0.046875,0.267883,-0.109497,-0.784851,-0.547913,down
333619,5.101562,7.523437,-2.3125,0.259766,-0.029297,0.060547,0.267944,-0.109497,-0.785278,-0.547363,down
333625,5.101562,7.5625,-2.273438,0.259766,-0.029297,0.060547,0.267944,-0.109497,-0.785278,-0.547363,down
333630,5.0625,7.644531,-2.234375,0.242187,-0.041016,0.050781,0.267944,-0.109497,-0.785278,-0.547363,down
333635,5.0625,7.644531,-2.234375,0.205078,-0.050781,0.046875,0.267944,-0.109314,-0.786255,-0.545959,down
333641,5.101562,7.710937,-2.3125,0.205078,-0.050781,0.046875,0.267944,-0.109314,-0.786255,-0.545959,down
333646,5.101562,7.75,-2.3125,0.107422,-0.097656,0.035156,0.267944,-0.109314,-0.786255,-0.545959,down
333652,5.140625,7.679687,-2.273438,0.015625,-0.109375,0.013672,0.267944,-0.109314,-0.786255,-0.545959,down
333657,5.214844,7.679687,-2.351563,0.015625,-0.109375,0.013672,0.267273,-0.109558,-0.787048,-0.545105,down
333662,5.214844,7.644531,-2.390625,-0.044922,-0.140625,0.0,0.267273,-0.109558,-0.787048,-0.545105,down
333667,5.332031,7.644531,-2.390625,-0.044922,-0.140625,0.0,0.266663,-0.109802,-0.78717,-0.545166,down
333672,5.371094,7.601562,-2.390625,-0.044922,-0.140625,0.0,0.266296,-0.109985,-0.78717,-0.545288,down
333677,5.410156,7.601562,-2.425781,-0.082031,-0.160156,-0.005859,0.266296,-0.109985,-0.78717,-0.545288,down
333683,5.410156,7.566406,-2.503906,-0.082031,-0.160156,0.0,0.265076,-0.110596,-0.78717,-0.545776,down
333688,5.445312,7.523437,-2.542969,-0.082031,-0.160156,0.0,0.264709,-0.110779,-0.787231,-0.545898,down
333693,5.484375,7.488281,-2.582031,-0.082031,-0.160156,0.0,0.264404,-0.110901,-0.787231,-0.545898,down
333698,5.523437,7.527344,-2.582031,0.025391,-0.113281,0.025391,0.264404,-0.110901,-0.787231,-0.545898,down
333703,5.484375,7.371094,-2.542969,0.072266,-0.095703,0.035156,0.264099,-0.111084,-0.787354,-0.545898,down
333709,5.523437,7.328125,-2.425781,0.072266,-0.095703,0.035156,0.263733,-0.111267,-0.787659,-0.545593,down
333714,5.484375,7.367187,-2.425781,0.169922,-0.074219,0.050781,0.263611,-0.111328,-0.787903,-0.545288,down
333720,5.484375,7.367187,-2.390625,0.224609,-0.064453,0.058594,0.263611,-0.111328,-0.787903,-0.545288,down
333725,5.445312,7.488281,-2.425781,0.224609,-0.064453,0.058594,0.26355,-0.111389,-0.788513,-0.544373,down
333730,5.445312,7.5625,-2.425781,0.283203,-0.052734,0.072266,0.26355,-0.111389,-0.788513,-0.544373,down
333735,5.445312,7.5625,-2.425781,0.298828,-0.046875,0.078125,0.26355,-0.111389,-0.788513,-0.544373,down
333741,5.445312,7.5625,-2.425781,0.291016,-0.048828,0.078125,0.26355,-0.111389,-0.788513,-0.544373,down
333746,5.445312,7.5625,-2.425781,0.289063,-0.039063,0.068359,0.26355,-0.111389,-0.788513,-0.544373,down
333751,5.445312,7.5625,-2.425781,0.275391,-0.041016,0.052734,0.26355,-0.111389,-0.788513,-0.544373,down
333756,5.410156,7.5625,-2.425781,0.253906,-0.052734,0.041016,0.26355,-0.111389,-0.788513,-0.544373,down
333761,5.410156,7.640625,-2.464844,0.253906,-0.052734,0.041016,0.263733,-0.111145,-0.79126,-0.540405,down
333766,5.371094,7.710937,-2.464844,0.253906,-0.052734,0.041016,0.263672,-0.111084,-0.791565,-0.539978,down
333771,5.371094,7.710937,-2.503906,0.126953,-0.076172,-0.009766,0.263672,-0.111084,-0.791565,-0.539978,down
333777,5.371094,7.710937,-2.503906,0.126953,-0.076172,-0.009766,0.263306,-0.111023,-0.791992,-0.539551,down
333783,5.371094,7.714844,-2.617188,0.126953,-0.076172,-0.009766,0.262817,-0.111084,-0.792114,-0.539551,down
333788,5.371094,7.714844,-2.65625,-0.091797,-0.072266,-0.056641,0.262817,-0.111084,-0.792114,-0.539551,down
333793,5.371094,7.679687,-2.695313,-0.091797,-0.072266,-0.056641,0.262512,-0.111084,-0.792114,-0.539734,down
333799,5.371094,7.679687,-2.695313,-0.123047,-0.074219,-0.087891,0.261963,-0.111084,-0.791931,-0.540283,down
333804,5.332031,7.683594,-2.65625,-0.130859,-0.060547,-0.087891,0.261597,-0.111023,-0.791809,-0.540649,down
333809,5.371094,7.640625,-2.695313,-0.130859,-0.060547,-0.087891,0.261292,-0.111023,-0.791687,-0.540955,down
333814,5.332031,7.640625,-2.695313,-0.130859,-0.060547,-0.087891,0.261108,-0.110962,-0.791626,-0.541138,down
333819,5.253906,7.679687,-2.695313,-0.035156,-0.033203,-0.072266,0.260864,-0.11084,-0.791565,-0.541321,down
333825,5.253906,7.640625,-2.542969,-0.035156,-0.033203,-0.072266,0.260681,-0.110718,-0.791626,-0.541443,down
333831,5.253906,7.605469,-2.503906,0.080078,-0.019531,-0.037109,0.260681,-0.110718,-0.791626,-0.541443,down
333836,5.214844,7.527344,-2.425781,0.080078,-0.019531,-0.037109,0.260681,-0.110718,-0.791626,-0.541443,down
333842,5.140625,7.527344,-2.351563,0.193359,-0.007813,0.007813,0.260681,-0.110718,-0.791626,-0.541443,down
333848,5.101562,7.484375,-2.3125,0.242187,-0.007813,0.023437,0.260681,-0.110718,-0.791626,-0.541443,down
333853,5.0625,7.488281,-2.273438,0.242187,-0.007813,0.023437,0.260742,-0.109985,-0.793152,-0.539307,down
333858,5.0625,7.445312,-2.273438,0.242187,-0.007813,0.023437,0.260803,-0.109863,-0.793518,-0.538757,down
333863,5.023437,7.445312,-2.3125,0.296875,-0.005859,0.03125,0.260803,-0.109863,-0.793518,-0.538757,down
333868,4.988281,7.410156,-2.199219,0.296875,-0.005859,0.03125,0.260986,-0.109619,-0.794312,-0.537537,down
333873,4.949219,7.371094,-2.160156,0.263672,-0.035156,0.017578,0.260986,-0.109619,-0.794312,-0.537537,down
333878,4.988281,7.328125,-2.121094,0.232422,-0.042969,-0.005859,0.261047,-0.109497,-0.794739,-0.536926,down
333884,4.988281,7.300781,-2.199219,0.201172,-0.066406,-0.023437,0.260986,-0.109375,-0.795044,-0.536499,down
333890,4.949219,7.328125,-2.273438,0.201172,-0.066406,-0.023437,0.260742,-0.109131,-0.795654,-0.535706,down
333895,4.949219,7.296875,-2.273438,0.095703,-0.099609,-0.074219,0.260498,-0.10907,-0.795898,-0.535522,down
333901,4.988281,7.328125,-2.351563,0.054687,-0.115234,-0.103516,0.260498,-0.10907,-0.795898,-0.535522,down
333906,4.988281,7.296875,-2.3125,0.054687,-0.115234,-0.103516,0.259766,-0.108826,-0.796265,-0.5354,down
333911,5.023437,7.21875,-2.351563,-0.046875,-0.136719,-0.148437,0.259766,-0.108826,-0.796265,-0.5354,down
333916,4.988281,7.179687,-2.3125,-0.074219,-0.146484,-0.173828,0.259766,-0.108826,-0.796265,-0.5354,down
333921,4.988281,7.183594,-2.425781,-0.105469,-0.148437,-0.199219,0.259766,-0.108826,-0.796265,-0.5354,down
333926,4.988281,7.183594,-2.390625,-0.105469,-0.148437,-0.199219,0.257568,-0.108337,-0.796387,-0.536316,down
333931,4.949219,7.144531,-2.3125,-0.136719,-0.162109,-0.226562,0.257568,-0.108337,-0.796387,-0.536316,down
333936,4.949219,7.144531,-2.3125,-0.138672,-0.166016,-0.25,0.257568,-0.108337,-0.796387,-0.536316,down
333941,4.871094,7.101562,-2.273438,-0.138672,-0.166016,-0.25,0.257568,-0.108337,-0.796387,-0.536316,down
333947,4.871094,7.101562,-2.273438,-0.138672,-0.166016,-0.25,0.2547,-0.107544,-0.796387,-0.537903,down
333953,4.910156,7.101562,-2.273438,-0.113281,-0.197266,-0.292969,0.253052,-0.106995,-0.796448,-0.538635,down
333958,4.832031,7.027344,-2.273438,-0.113281,-0.197266,-0.292969,0.253052,-0.106995,-0.796448,-0.538635,down
333963,4.757812,7.0625,-2.273438,-0.083984,-0.238281,-0.310547,0.253052,-0.106995,-0.796448,-0.538635,down
333968,4.796875,7.140625,-2.273438,-0.083984,-0.238281,-0.310547,0.251038,-0.106384,-0.796631,-0.539429,down
333974,4.757812,7.101562,-2.273438,-0.083984,-0.238281,-0.310547,0.249146,-0.105835,-0.796875,-0.5401,down
333980,4.757812,7.101562,-2.234375,-0.083984,-0.238281,-0.310547,0.248169,-0.105652,-0.796997,-0.540405,down
333985,4.71875,7.027344,-2.234375,-0.09375,-0.283203,-0.296875,0.24707,-0.105408,-0.79718,-0.54071,down
333990,4.71875,7.027344,-2.273438,-0.091797,-0.291016,-0.300781,0.24707,-0.105408,-0.79718,-0.54071,down
333995,4.71875,7.023437,-2.351563,-0.091797,-0.291016,-0.300781,0.245056,-0.105042,-0.797424,-0.541382,down
334000,4.71875,7.144531,-2.425781,-0.091797,-0.291016,-0.300781,0.243958,-0.104858,-0.797546,-0.541748,down
334005,4.679687,7.21875,-2.503906,-0.082031,-0.306641,-0.328125,0.243958,-0.104858,-0.797546,-0.541748,down
334010,4.640625,7.257812,-2.542969,-0.074219,-0.310547,-0.351563,0.243958,-0.104858,-0.797546,-0.541748,down
334015,4.71875,7.371094,-2.617188,-0.074219,-0.310547,-0.351563,0.243958,-0.104858,-0.797546,-0.541748,down
334020,4.679687,7.410156,-2.695313,-0.085937,-0.316406,-0.378906,0.243958,-0.104858,-0.797546,-0.541748,down
334025,4.679687,7.449219,-2.773438,-0.095703,-0.310547,-0.408203,0.243958,-0.104858,-0.797546,-0.541748,down
334031,4.71875,7.484375,-2.886719,-0.095703,-0.310547,-0.408203,0.243958,-0.104858,-0.797546,-0.541748,down
334036,4.757812,7.523437,-2.964844,-0.095703,-0.306641,-0.427734,0.243958,-0.104858,-0.797546,-0.541748,down
334041,4.796875,7.605469,-3.0,-0.099609,-0.304688,-0.433594,0.243958,-0.104858,-0.797546,-0.541748,down
334047,4.796875,7.710937,-3.117188,-0.099609,-0.304688,-0.433594,0.233154,-0.101868,-0.798889,-0.544983,down
334052,4.832031,7.871094,-3.269531,-0.099609,-0.304688,-0.433594,0.233154,-0.101868,-0.798889,-0.544983,down
334057,4.832031,7.945312,-3.308594,-0.099609,-0.304688,-0.433594,0.230774,-0.100891,-0.799194,-0.545776,down
334062,4.832031,8.066406,-3.308594,-0.060547,-0.244141,-0.410156,0.230774,-0.100891,-0.799194,-0.545776,down
334067,4.832031,8.066406,-3.269531,-0.060547,-0.244141,-0.410156,0.228638,-0.099915,-0.7995,-0.546448,down
334073,4.757812,8.136719,-3.195313,-0.060547,-0.244141,-0.410156,0.226624,-0.098999,-0.799927,-0.546753,down
334078,4.71875,8.210938,-3.15625,-0.060547,-0.244141,-0.410156,0.226624,-0.098999,-0.799927,-0.546753,down
334083,4.71875,8.023438,-3.0,0.095703,-0.25,-0.337891,0.226624,-0.098999,-0.799927,-0.546753,down
334088,4.71875,7.949219,-2.964844,0.095703,-0.25,-0.337891,0.22467,-0.098206,-0.800598,-0.546692,down
334093,4.679687,7.945312,-2.964844,0.095703,-0.25,-0.337891,0.223633,-0.097778,-0.801025,-0.54657,down
334099,4.679687,7.984375,-2.925781,0.142578,-0.271484,-0.320313,0.223633,-0.097778,-0.801025,-0.54657,down
334104,4.566406,8.023438,-2.964844,0.142578,-0.271484,-0.320313,0.220825,-0.096741,-0.802246,-0.546143,down
334109,4.605469,8.0625,-3.0,0.099609,-0.296875,-0.355469,0.220825,-0.096741,-0.802246,-0.546143,down
334114,4.566406,8.066406,-2.964844,0.099609,-0.296875,-0.355469,0.218567,-0.095886,-0.80304,-0.546021,down
334119,4.527344,8.066406,-2.925781,0.001953,-0.304688,-0.400391,0.217468,-0.09552,-0.803345,-0.546082,down
334124,4.527344,8.105469,-2.925781,0.001953,-0.304688,-0.400391,0.21637,-0.095154,-0.803528,-0.546326,down
334130,4.566406,7.945312,-2.964844,0.001953,-0.304688,-0.400391,0.214966,-0.094666,-0.80365,-0.546753,down
334135,4.605469,7.910156,-2.964844,-0.197266,-0.316406,-0.458984,0.213745,-0.094299,-0.803711,-0.547241,down
334140,4.566406,7.867187,-3.0,-0.197266,-0.316406,-0.458984,0.213745,-0.094299,-0.803711,-0.547241,down
334145,4.566406,7.789062,-3.039063,-0.234375,-0.320313,-0.474609,0.213745,-0.094299,-0.803711,-0.547241,down
334150,4.605469,7.828125,-3.0,-0.255859,-0.322266,-0.466797,0.209717,-0.09314,-0.803528,-0.549255,down
334155,4.605469,7.867187,-3.078125,-0.255859,-0.322266,-0.466797,0.208435,-0.092773,-0.803467,-0.549927,down
334160,4.566406,7.867187,-3.117188,-0.255859,-0.322266,-0.466797,0.207153,-0.092346,-0.803406,-0.550598,down
334166,4.566406,7.90625,-3.15625,-0.255859,-0.322266,-0.466797,0.205994,-0.09198,-0.803345,-0.551147,down
334172,4.488281,7.984375,-3.195313,-0.117188,-0.248047,-0.388672,0.205994,-0.09198,-0.803345,-0.551147,down
334178,4.414062,7.988281,-3.15625,-0.117188,-0.248047,-0.388672,0.205994,-0.09198,-0.803345,-0.551147,down
334184,4.375,7.945312,-3.117188,0.152344,-0.216797,-0.333984,0.205994,-0.09198,-0.803345,-0.551147,down
334189,4.335937,7.910156,-3.117188,0.210937,-0.199219,-0.337891,0.201904,-0.090271,-0.804016,-0.551941,down
334195,4.335937,7.910156,-3.117188,0.251953,-0.179687,-0.351563,0.200256,-0.089294,-0.804932,-0.551392,down
334200,4.222656,7.828125,-3.0,0.292969,-0.183594,-0.375,0.199341,-0.088562,-0.805481,-0.550964,down
334205,4.144531,7.792969,-2.925781,0.292969,-0.183594,-0.375,0.198608,-0.087952,-0.80603,-0.550598,down
334210,4.105469,7.832031,-2.886719,0.292969,-0.183594,-0.375,0.197632,-0.087097,-0.806641,-0.550171,down
334216,4.027344,7.949219,-2.886719,0.292969,-0.183594,-0.375,0.197632,-0.087097,-0.806641,-0.550171,down
334221,4.027344,7.949219,-2.886719,0.121094,-0.166016,-0.503906,0.197632,-0.087097,-0.806641,-0.550171,down
334227,4.027344,7.945312,-2.925781,0.029297,-0.169922,-0.541016,0.197632,-0.087097,-0.806641,-0.550171,down
334233,3.992188,7.988281,-2.925781,0.029297,-0.169922,-0.541016,0.197632,-0.087097,-0.806641,-0.550171,down
334238,3.992188,8.027344,-2.886719,-0.130859,-0.191406,-0.587891,0.197632,-0.087097,-0.806641,-0.550171,down
334244,4.027344,8.027344,-2.886719,-0.185547,-0.203125,-0.609375,0.18988,-0.081238,-0.807983,-0.551819,down
334249,3.992188,8.292969,-2.847656,-0.185547,-0.203125,-0.609375,0.188538,-0.080444,-0.807922,-0.552551,down
334254,3.953125,8.328125,-2.808594,-0.195312,-0.304688,-0.582031,0.188538,-0.080444,-0.807922,-0.552551,down
334259,3.953125,8.410156,-2.847656,-0.195312,-0.304688,-0.582031,0.185669,-0.079102,-0.807861,-0.553772,down
334264,3.953125,8.515625,-2.964844,-0.195312,-0.304688,-0.582031,0.184082,-0.078491,-0.807922,-0.554321,down
334269,3.953125,8.484375,-3.0,-0.195312,-0.304688,-0.582031,0.182739,-0.078003,-0.807983,-0.554749,down
334274,3.914063,8.40625,-3.0,-0.195312,-0.304688,-0.582031,0.182739,-0.078003,-0.807983,-0.554749,down
334279,3.914063,8.328125,-3.117188,-0.046875,-0.375,-0.447266,0.182739,-0.078003,-0.807983,-0.554749,down
334284,3.875,8.292969,-3.230469,-0.046875,-0.375,-0.447266,0.179749,-0.077209,-0.808228,-0.55542,down
334289,3.875,8.25,-3.269531,0.023437,-0.373047,-0.425781,0.178284,-0.076843,-0.808472,-0.555603,down
334294,3.835938,8.332031,-3.230469,0.023437,-0.373047,-0.425781,0.176819,-0.076416,-0.808716,-0.555786,down
334299,3.875,8.371094,-3.230469,0.070312,-0.330078,-0.435547,0.175537,-0.07605,-0.80896,-0.555847,down
334305,3.800781,8.484375,-3.269531,0.083984,-0.316406,-0.449219,0.174255,-0.075623,-0.809265,-0.555908,down
334311,3.722656,8.554688,-3.269531,0.083984,-0.316406,-0.449219,0.171814,-0.074585,-0.809875,-0.555908,down
334317,3.683594,8.558594,-3.269531,0.083984,-0.273438,-0.482422,0.171814,-0.074585,-0.809875,-0.555908,down
334322,3.609375,8.488281,-3.230469,0.083984,-0.273438,-0.482422,0.169373,-0.073303,-0.810486,-0.555969,down
334327,3.570313,8.488281,-3.269531,0.021484,-0.242187,-0.527344,0.169373,-0.073303,-0.810486,-0.555969,down
334332,3.53125,8.484375,-3.269531,-0.03125,-0.240234,-0.544922,0.169373,-0.073303,-0.810486,-0.555969,down
334337,3.570313,8.488281,-3.15625,-0.072266,-0.253906,-0.564453,0.169373,-0.073303,-0.810486,-0.555969,down
334342,3.644531,8.558594,-3.078125,-0.072266,-0.253906,-0.564453,0.169373,-0.073303,-0.810486,-0.555969,down
334348,3.644531,8.519531,-3.0,-0.072266,-0.253906,-0.564453,0.162842,-0.069458,-0.811096,-0.557495,down
334354,3.609375,8.515625,-2.964844,-0.126953,-0.255859,-0.601562,0.160034,-0.067749,-0.811157,-0.558472,down
334359,3.53125,8.632813,-3.039063,-0.126953,-0.255859,-0.601562,0.15863,-0.066895,-0.811157,-0.55896,down
334364,3.492188,8.675781,-3.0,-0.125,-0.291016,-0.605469,0.15863,-0.066895,-0.811157,-0.55896,down
334369,3.453125,8.632813,-3.0,-0.107422,-0.322266,-0.605469,0.157043,-0.06604,-0.811157,-0.559448,down
334375,3.378906,8.675781,-2.886719,-0.107422,-0.322266,-0.605469,0.154053,-0.064575,-0.811279,-0.560242,down
334381,3.261719,8.554688,-2.808594,-0.107422,-0.322266,-0.605469,0.152588,-0.063965,-0.811401,-0.560608,down
334388,3.261719,8.515625,-2.808594,-0.070312,-0.384766,-0.582031,0.152588,-0.063965,-0.811401,-0.560608,down
334393,3.148438,8.554688,-2.886719,-0.042969,-0.40625,-0.564453,0.152588,-0.063965,-0.811401,-0.560608,down
334398,3.148438,8.636719,-2.964844,-0.042969,-0.40625,-0.564453,0.147766,-0.062073,-0.811829,-0.561523,down
334404,3.109375,8.675781,-2.925781,-0.054687,-0.439453,-0.568359,0.147766,-0.062073,-0.811829,-0.561523,down
334409,3.070313,8.714844,-3.0,-0.054687,-0.439453,-0.568359,0.144348,-0.060974,-0.812134,-0.562012,down
334414,3.070313,8.714844,-3.0,-0.054687,-0.439453,-0.568359,0.14093,-0.059937,-0.812439,-0.562561,down
334419,3.03125,8.710938,-3.0,-0.054687,-0.439453,-0.568359,0.14093,-0.059937,-0.812439,-0.562561,down
334424,3.070313,8.671875,-3.039063,-0.125,-0.419922,-0.585937,0.14093,-0.059937,-0.812439,-0.562561,down
334429,2.996094,8.636719,-3.0,-0.125,-0.419922,-0.585937,0.137512,-0.058777,-0.812561,-0.563354,down
334434,2.957031,8.636719,-3.078125,-0.144531,-0.400391,-0.59375,0.135803,-0.058228,-0.812622,-0.563782,down
334439,2.957031,8.671875,-3.078125,-0.144531,-0.400391,-0.59375,0.133972,-0.057556,-0.812622,-0.56427,down
334444,2.957031,8.671875,-3.078125,-0.148437,-0.373047,-0.601562,0.132446,-0.057007,-0.812622,-0.564636,down
334449,2.839844,8.710938,-3.195313,-0.148437,-0.345703,-0.589844,0.132446,-0.057007,-0.812622,-0.564636,down
334454,2.839844,8.710938,-3.195313,-0.126953,-0.332031,-0.582031,0.129272,-0.055664,-0.812622,-0.565552,down
334459,2.765625,8.828125,-3.15625,-0.044922,-0.316406,-0.548828,0.129272,-0.055664,-0.812622,-0.565552,down
334464,2.726563,8.871094,-3.078125,-0.044922,-0.316406,-0.548828,0.126282,-0.054321,-0.812744,-0.566223,down
334469,2.6875,8.898438,-3.039063,-0.044922,-0.316406,-0.548828,0.123413,-0.052979,-0.813049,-0.566467,down
334474,2.648438,8.902344,-3.0,0.09375,-0.308594,-0.482422,0.123413,-0.052979,-0.813049,-0.566467,down
334479,2.613281,8.867188,-2.964844,0.09375,-0.308594,-0.482422,0.122131,-0.052368,-0.813293,-0.566467,down
334484,2.535156,8.792969,-2.808594,0.140625,-0.320313,-0.464844,0.119629,-0.051331,-0.813965,-0.566162,down
334489,2.496094,8.792969,-2.773438,0.140625,-0.320313,-0.464844,0.119629,-0.051331,-0.813965,-0.566162,down
334494,2.457031,8.792969,-2.773438,0.162109,-0.357422,-0.4375,0.119629,-0.051331,-0.813965,-0.566162,down
334499,2.382813,8.832031,-2.773438,0.162109,-0.357422,-0.4375,0.117065,-0.050415,-0.814697,-0.565674,down
334504,2.34375,8.898438,-2.773438,0.162109,-0.357422,-0.4375,0.114258,-0.049622,-0.81543,-0.565308,down
334509,2.265625,8.902344,-2.808594,0.162109,-0.357422,-0.4375,0.114258,-0.049622,-0.81543,-0.565308,down
334514,2.265625,8.867188,-2.808594,-0.025391,-0.429687,-0.457031,0.114258,-0.049622,-0.81543,-0.565308,down
334519,2.230469,8.871094,-2.886719,-0.025391,-0.429687,-0.457031,0.111267,-0.04895,-0.815857,-0.565308,down
334524,2.191406,8.75,-3.039063,-0.025391,-0.429687,-0.457031,0.10968,-0.048584,-0.815979,-0.565491,down
334529,2.230469,8.710938,-3.0,-0.025391,-0.429687,-0.457031,0.107971,-0.048218,-0.81604,-0.565796,down
334535,2.265625,8.632813,-3.0,-0.132812,-0.462891,-0.472656,0.107971,-0.048218,-0.81604,-0.565796,down
334540,2.265625,8.554688,-2.964844,-0.132812,-0.462891,-0.472656,0.10321,-0.047424,-0.81604,-0.566711,down
334545,2.265625,8.484375,-2.925781,-0.085937,-0.441406,-0.482422,0.10321,-0.047424,-0.81604,-0.566711,down
334550,2.230469,8.410156,-2.964844,-0.085937,-0.441406,-0.482422,0.099854,-0.046753,-0.816101,-0.567261,down
334555,2.113281,8.175781,-2.847656,-0.085937,-0.441406,-0.482422,0.099854,-0.046753,-0.816101,-0.567261,down
334560,2.152344,8.136719,-2.808594,-0.085937,-0.441406,-0.482422,0.096863,-0.046021,-0.816345,-0.567505,down
334566,2.039063,7.828125,-2.734375,-0.085937,-0.441406,-0.482422,0.095154,-0.045471,-0.816589,-0.567505,down
334571,2.0,7.710937,-2.65625,0.101563,-0.398438,-0.513672,0.09375,-0.045044,-0.816833,-0.567444,down
334577,1.921875,7.449219,-2.503906,0.101563,-0.398438,-0.513672,0.092285,-0.044495,-0.817139,-0.567261,down
334582,1.882813,7.296875,-2.390625,0.181641,-0.375,-0.570312,0.090698,-0.043884,-0.817505,-0.567017,down
334588,1.882813,7.222656,-2.273438,0.210937,-0.369141,-0.589844,0.090698,-0.043884,-0.817505,-0.567017,down
334594,1.769531,7.144531,-2.160156,0.246094,-0.359375,-0.628906,0.090698,-0.043884,-0.817505,-0.567017,down
334599,1.691406,7.222656,-2.042969,0.279297,-0.367188,-0.65625,0.090698,-0.043884,-0.817505,-0.567017,down
334605,1.617188,7.371094,-1.96875,0.314453,-0.416016,-0.712891,0.090698,-0.043884,-0.817505,-0.567017,down
334610,1.578125,7.527344,-1.8125,0.314453,-0.416016,-0.712891,0.080505,-0.038635,-0.820618,-0.564453,down
334615,1.5,7.5625,-1.8125,0.314453,-0.416016,-0.712891,0.078308,-0.037598,-0.821228,-0.563904,down
334620,1.5,7.5625,-1.8125,0.224609,-0.521484,-0.787109,0.078308,-0.037598,-0.821228,-0.563904,down
334625,1.347656,7.449219,-1.738281,0.158203,-0.568359,-0.8125,0.076355,-0.036743,-0.821716,-0.563538,down
334631,1.234375,7.300781,-1.738281,0.158203,-0.568359,-0.8125,0.071899,-0.034973,-0.82251,-0.56311,down
334636,1.234375,7.183594,-1.777344,0.037109,-0.652344,-0.867187,0.071899,-0.034973,-0.82251,-0.56311,down
334641,1.234375,7.0625,-1.851563,-0.037109,-0.697266,-0.900391,0.071899,-0.034973,-0.82251,-0.56311,down
334646,1.195313,6.878906,-1.851563,-0.080078,-0.724609,-0.935547,0.071899,-0.034973,-0.82251,-0.56311,down
334652,1.195313,6.605469,-2.082031,-0.080078,-0.724609,-0.935547,0.061096,-0.031433,-0.823059,-0.563782,down
334657,1.15625,6.523437,-2.199219,-0.101563,-0.707031,-1.007813,0.061096,-0.031433,-0.823059,-0.563782,down
334663,1.078125,6.523437,-2.425781,-0.080078,-0.685547,-1.033203,0.061096,-0.031433,-0.823059,-0.563782,down
334668,1.042969,6.914062,-3.0,-0.080078,-0.685547,-1.033203,0.061096,-0.031433,-0.823059,-0.563782,down
334673,1.003906,7.101562,-3.269531,0.054687,-0.607422,-1.117188,0.061096,-0.031433,-0.823059,-0.563782,down
334678,1.003906,7.371094,-3.5,0.179687,-0.578125,-1.169922,0.061096,-0.031433,-0.823059,-0.563782,down
334683,0.925781,7.679687,-3.652344,0.304688,-0.572266,-1.205078,0.061096,-0.031433,-0.823059,-0.563782,down
334688,0.964844,8.332031,-3.921875,0.304688,-0.572266,-1.205078,0.061096,-0.031433,-0.823059,-0.563782,down
334694,0.964844,8.332031,-3.921875,0.453125,-0.535156,-1.226563,0.03833,-0.019958,-0.825684,-0.5625,down
334700,0.695312,10.359375,-4.574219,0.453125,-0.535156,-1.226563,0.03833,-0.019958,-0.825684,-0.5625,down
334705,0.65625,10.625,-4.726562,0.453125,-0.535156,-1.226563,0.029846,-0.014282,-0.829163,-0.558044,down
334710,0.621094,10.707031,-4.917969,0.666016,-0.519531,-1.117188,0.029846,-0.014282,-0.829163,-0.558044,down
334715,0.582031,10.628906,-4.957031,0.488281,-0.556641,-1.085938,0.027283,-0.012634,-0.8302,-0.556641,down
334720,0.582031,10.164063,-4.992187,0.488281,-0.556641,-1.085938,0.022217,-0.009705,-0.831604,-0.55481,down
334725,0.621094,9.902344,-4.917969,0.09375,-0.578125,-1.089844,0.022217,-0.009705,-0.831604,-0.55481,down
334730,0.695312,9.597656,-4.800781,-0.126953,-0.558594,-1.115234,0.019287,-0.008118,-0.83197,-0.554443,down
334736,0.773437,9.171875,-4.535156,-0.126953,-0.558594,-1.115234,0.013916,-0.005005,-0.831665,-0.555115,down
334742,0.695312,8.75,-4.496094,-0.126953,-0.558594,-1.115234,0.011536,-0.003418,-0.831055,-0.556091,down
334748,0.65625,8.714844,-4.496094,-0.707031,-0.396484,-1.257813,0.011536,-0.003418,-0.831055,-0.556091,down
334753,0.582031,8.675781,-4.417969,-0.751953,-0.355469,-1.322266,0.011536,-0.003418,-0.831055,-0.556091,down
334759,0.429687,8.753906,-4.34375,-0.751953,-0.355469,-1.322266,0.003784,0.002991,-0.828064,-0.560608,down
334764,0.3125,8.898438,-4.265625,-0.708984,-0.25,-1.439453,0.003784,0.002991,-0.828064,-0.560608,down
334770,0.199219,9.175781,-4.265625,-0.615234,-0.214844,-1.494141,0.003906,-0.011108,0.825195,0.564697,down
334775,-0.070312,9.742188,-4.226562,-0.615234,-0.214844,-1.494141,0.006531,-0.013977,0.824585,0.565491,down
334780,-0.261719,10.015625,-4.226562,-0.615234,-0.214844,-1.494141,0.009277,-0.016968,0.824219,0.565918,down
334785,-0.414062,10.359375,-4.191406,-0.615234,-0.214844,-1.494141,0.009277,-0.016968,0.824219,0.565918,down
334790,-0.492187,10.546875,-4.113281,0.005859,-0.330078,-1.548828,0.009277,-0.016968,0.824219,0.565918,down
334795,-0.492187,10.589844,-4.113281,0.005859,-0.330078,-1.548828,0.01825,-0.024963,0.824036,0.565674,down
334800,-0.53125,10.546875,-4.113281,0.005859,-0.330078,-1.548828,0.021057,-0.026978,0.824036,0.565491,down
334805,-0.566406,10.546875,-4.191406,0.005859,-0.330078,-1.548828,0.021057,-0.026978,0.824036,0.565491,down
334810,-0.605469,10.402344,-4.304687,0.021484,-0.541016,-1.332031,0.021057,-0.026978,0.824036,0.565491,down
334815,-0.605469,10.28125,-4.34375,0.021484,-0.541016,-1.332031,0.030212,-0.032837,0.823364,0.565735,down
334820,-0.566406,10.164063,-4.34375,0.021484,-0.541016,-1.332031,0.030212,-0.032837,0.823364,0.565735,down
334825,-0.566406,10.164063,-4.34375,-0.425781,-0.552734,-1.226563,0.032837,-0.034485,0.822815,0.566345,down
334830,-0.492187,10.019531,-4.34375,-0.595703,-0.507812,-1.205078,0.032837,-0.034485,0.822815,0.566345,down
334835,-0.492187,10.019531,-4.34375,-0.722656,-0.443359,-1.199219,0.038269,-0.038147,0.820801,0.568665,down
334840,-0.683594,9.820313,-4.382812,-0.722656,-0.443359,-1.199219,0.04303,-0.042175,0.818115,0.571899,down
334845,-0.875,9.746094,-4.382812,-0.722656,-0.443359,-1.199219,0.04303,-0.042175,0.818115,0.571899,down
334850,-0.875,9.476563,-4.34375,-0.919922,-0.146484,-1.228516,0.045227,-0.044434,0.816589,0.57373,down
334855,-0.988281,9.597656,-4.304687,-0.919922,-0.146484,-1.228516,0.047363,-0.046875,0.815002,0.575623,down
334860,-1.140625,9.476563,-4.304687,-0.919922,-0.146484,-1.228516,0.049194,-0.049316,0.813599,0.577271,down
334865,-1.105469,9.480469,-4.113281,-0.71875,-0.009766,-1.304688,0.052734,-0.054565,0.811218,0.579834,down
334870,-1.21875,9.515625,-3.921875,-0.464844,0.113281,-1.367188,0.052734,-0.054565,0.811218,0.579834,down
334875,-1.371094,9.707031,-3.84375,-0.464844,0.113281,-1.367188,0.054626,-0.0578,0.810181,0.58075,down
334880,-1.5625,9.824219,-3.921875,-0.316406,0.193359,-1.416016,0.0578,-0.063782,0.808899,0.581604,down
334885,-1.71875,10.203125,-3.730469,-0.316406,0.193359,-1.416016,0.0578,-0.063782,0.808899,0.581604,down
334890,-1.753906,10.363281,-3.539063,0.064453,0.041016,-1.480469,0.059631,-0.066956,0.808533,0.581604,down
334895,-1.792969,10.664063,-3.421875,0.064453,0.041016,-1.480469,0.061829,-0.070374,0.808289,0.581299,down
334900,-1.945313,11.007813,-3.347656,0.064453,0.041016,-1.480469,0.066162,-0.075928,0.808044,0.580505,down
334905,-2.214844,11.546875,-3.269531,0.064453,0.041016,-1.480469,0.066162,-0.075928,0.808044,0.580505,down
334910,-2.367188,11.695313,-3.308594,-0.125,-0.302734,-1.425781,0.068909,-0.078918,0.807739,0.580139,down
334915,-2.484375,12.050781,-3.460938,-0.125,-0.302734,-1.425781,0.071289,-0.081299,0.807373,0.580078,down
334920,-2.484375,12.082031,-3.539063,-0.125,-0.302734,-1.425781,0.074036,-0.083679,0.806641,0.580383,down
334925,-2.519531,12.082031,-3.539063,-0.964844,-0.498047,-1.455078,0.074036,-0.083679,0.806641,0.580383,down
334930,-2.558594,12.082031,-3.613281,-0.964844,-0.498047,-1.455078,0.079712,-0.08844,0.803894,0.582703,down
334936,-2.558594,11.890625,-3.730469,-0.964844,-0.498047,-1.455078,0.08551,-0.093384,0.799255,0.587524,down
334942,-2.558594,11.589844,-3.730469,-0.964844,-0.498047,-1.455078,0.088379,-0.096008,0.796143,0.59082,down
334947,-2.558594,11.394531,-3.769531,-2.326172,-0.519531,-1.689453,0.088379,-0.096008,0.796143,0.59082,down
334954,-2.445313,11.164063,-3.691406,-2.574219,-0.470703,-1.751953,0.088379,-0.096008,0.796143,0.59082,down
334959,-2.558594,10.859375,-3.613281,-2.574219,-0.470703,-1.751953,0.088379,-0.096008,0.796143,0.59082,down
334964,-2.558594,10.859375,-3.613281,-2.869141,-0.306641,-1.902344,0.099792,-0.109436,0.778809,0.609497,down
334970,-2.519531,10.625,-3.5,-2.921875,-0.21875,-1.945313,0.099792,-0.109436,0.778809,0.609497,down
334975,-2.867188,10.359375,-3.078125,-2.933594,-0.101563,-1.994141,0.099792,-0.109436,0.778809,0.609497,down
334980,-3.019531,10.441406,-3.0,-2.863281,0.005859,-2.052734,0.099792,-0.109436,0.778809,0.609497,down
334986,-3.171875,10.441406,-2.847656,-2.744141,0.101563,-2.115234,0.112,-0.132507,0.753235,0.63446,down
334991,-3.632813,10.859375,-2.808594,-2.744141,0.101563,-2.115234,0.114197,-0.137634,0.748535,0.638489,down
334997,-3.863281,10.933594,-2.734375,-2.744141,0.101563,-2.115234,0.116638,-0.143372,0.743774,0.642395,down
335002,-4.015625,11.085938,-2.542969,-2.146484,0.363281,-2.410156,0.118835,-0.148682,0.739624,0.645569,down
335007,-4.550781,11.472656,-2.273438,-2.001953,0.410156,-2.486328,0.121155,-0.154114,0.735657,0.648376,down
335013,-5.28125,12.007813,-2.3125,-2.001953,0.410156,-2.486328,0.123779,-0.160156,0.731506,0.651062,down
335019,-5.585937,12.5,-2.273438,-1.833984,0.408203,-2.679688,0.123779,-0.160156,0.731506,0.651062,down
335024,-5.890625,12.964844,-2.199219,-1.775391,0.310547,-2.779297,0.123779,-0.160156,0.731506,0.651062,down
335030,-6.660156,13.386719,-1.777344,-1.775391,0.310547,-2.779297,0.123779,-0.160156,0.731506,0.651062,down
335035,-6.964844,13.65625,-1.699219,-2.091797,0.039063,-2.949219,0.123779,-0.160156,0.731506,0.651062,down
335040,-7.15625,13.882813,-1.660156,-2.091797,0.039063,-2.949219,0.140442,-0.190674,0.710266,0.662903,down
335045,-7.15625,13.882813,-1.660156,-2.091797,0.039063,-2.949219,0.144104,-0.196289,0.705444,0.665649,down
335050,-7.386719,14.109375,-1.238281,-2.091797,0.039063,-2.949219,0.144104,-0.196289,0.705444,0.665649,down
335055,-7.65625,14.1875,-0.933594,-2.720703,-0.300781,-2.726563,0.144104,-0.196289,0.705444,0.665649,down
335060,-8.457031,14.53125,-0.894531,-2.888672,-0.3125,-2.566406,0.144104,-0.196289,0.705444,0.665649,down
335065,-8.765625,14.875,-0.972656,-3.222656,-0.552734,-2.177734,0.144104,-0.196289,0.705444,0.665649,down
335070,-9.1875,15.1875,-0.820312,-3.222656,-0.552734,-2.177734,0.16156,-0.221619,0.674316,0.685608,down
335076,-9.300781,15.226563,-0.625,-3.390625,-0.933594,-1.683594,0.16156,-0.221619,0.674316,0.685608,down
335081,-9.378906,15.375,-0.359375,-3.390625,-0.933594,-1.683594,0.169556,-0.230713,0.652344,0.701721,down
335086,-9.417969,15.53125,-0.242187,-3.277344,-1.103516,-1.179688,0.169556,-0.230713,0.652344,0.701721,down
335091,-9.683594,15.296875,-0.28125,-3.277344,-1.103516,-1.179688,0.173462,-0.233398,0.638306,0.712769,down
335096,-9.53125,14.726563,-0.28125,-3.277344,-1.103516,-1.179688,0.173462,-0.233398,0.638306,0.712769,down
335101,-9.492188,14.421875,-0.128906,-3.113281,-1.345703,-0.376953,0.174988,-0.233826,0.631409,0.718323,down
335106,-9.53125,14.152344,-0.015625,-3.113281,-1.345703,-0.376953,0.17688,-0.232849,0.618286,0.729553,down
335111,-9.53125,13.730469,0.023437,-3.113281,-1.345703,-0.376953,0.177124,-0.231812,0.61322,0.73407,down
335116,-9.53125,12.925781,0.253906,-3.113281,-1.345703,-0.376953,0.176941,-0.230042,0.606995,0.739807,down
335121,-9.53125,12.578125,0.292969,-3.113281,-1.345703,-0.376953,0.176392,-0.228149,0.602112,0.744507,down
335126,-9.53125,12.578125,0.292969,-3.113281,-1.345703,-0.376953,0.176392,-0.228149,0.602112,0.744507,down
335131,-9.492188,12.234375,0.445312,-2.595703,-1.263672,0.96875,0.176392,-0.228149,0.602112,0.744507,down
335136,-9.148438,11.355469,0.980469,-2.458984,-1.224609,1.259766,0.173584,-0.222717,0.592346,0.754578,down
335141,-8.917969,10.972656,1.25,-2.271484,-1.1875,1.585938,0.171387,-0.21936,0.588196,0.759338,down
335146,-8.613281,10.589844,1.402344,-2.042969,-1.152344,1.923828,0.1651,-0.210999,0.581482,0.768188,down
335151,-8.039063,9.9375,1.863281,-2.042969,-1.152344,1.923828,0.1651,-0.210999,0.581482,0.768188,down
335156,-7.769531,9.597656,1.976563,-2.042969,-1.152344,1.923828,0.156189,-0.200195,0.577759,0.775696,down
335161,-7.425781,9.253906,2.09375,-2.042969,-1.152344,1.923828,0.15033,-0.193481,0.577271,0.778931,down
335166,-7.003906,8.902344,2.285156,-0.224609,-0.925781,3.951172,0.14447,-0.186707,0.57782,0.78125,down
335171,-6.160156,8.027344,2.398438,-0.224609,-0.925781,3.951172,0.14447,-0.186707,0.57782,0.78125,down
335176,-5.855469,7.601562,2.324219,-0.224609,-0.925781,3.951172,0.129578,-0.170044,0.582092,0.784546,down
335181,-5.625,7.21875,2.285156,0.976562,-0.697266,5.113281,0.121948,-0.161865,0.585205,0.785156,down
335186,-5.394531,6.914062,2.246094,1.316406,-0.636719,5.433594,0.121948,-0.161865,0.585205,0.785156,down
335191,-4.550781,5.992187,2.167969,1.316406,-0.636719,5.433594,0.103394,-0.142456,0.594116,0.784851,down
335196,-4.09375,5.496094,2.246094,1.316406,-0.636719,5.433594,0.09259,-0.131409,0.599792,0.783813,down
335201,-3.632813,5.035156,2.207031,1.316406,-0.636719,5.433594,0.09259,-0.131409,0.599792,0.783813,down
335206,-3.632813,5.035156,2.207031,2.142578,-0.464844,6.291016,0.082825,-0.121582,0.605103,0.78241,down
335211,-3.019531,4.269531,2.246094,2.398438,-0.345703,6.5625,0.082825,-0.121582,0.605103,0.78241,down
335216,-3.019531,4.269531,2.246094,2.623047,-0.191406,6.8125,0.059448,-0.099182,0.618042,0.777588,down
335222,-2.292969,3.195313,1.902344,2.818359,-0.052734,7.023437,0.033447,-0.076172,0.63208,0.770386,down
335227,-1.910156,2.8125,1.75,3.185547,0.189453,7.451172,0.019836,-0.064636,0.639282,0.765991,down
335233,-0.796875,2.429688,1.210938,3.185547,0.189453,7.451172,0.005066,-0.052612,0.646851,0.760803,down
335238,-0.566406,2.238281,0.980469,3.578125,0.583984,7.851562,0.005066,-0.052612,0.646851,0.760803,down
335243,-0.566406,2.238281,0.980469,3.759766,0.806641,8.0625,0.02533,0.029541,-0.661743,-0.748718,down
335248,-0.222656,2.128906,0.484375,3.759766,0.806641,8.0625,0.02533,0.029541,-0.661743,-0.748718,down
335253,-0.222656,2.128906,0.484375,4.179687,1.324219,8.441406,0.059387,0.006531,-0.677124,-0.733459,down
335259,0.007813,2.128906,0.0625,4.179687,1.324219,8.441406,0.077148,-0.004517,-0.684509,-0.724854,down
335264,0.082031,1.550781,0.367188,4.416016,1.755859,8.640625,0.077148,-0.004517,-0.684509,-0.724854,down
335270,0.3125,0.589844,0.945312,4.416016,1.755859,8.640625,0.077148,-0.004517,-0.684509,-0.724854,down
335276,0.542969,-0.097656,1.25,4.931641,2.306641,8.515625,0.077148,-0.004517,-0.684509,-0.724854,down
335281,1.234375,-1.785156,1.710938,4.931641,2.306641,8.515625,0.153259,-0.046082,-0.712585,-0.683105,down
335286,1.234375,-1.785156,1.710938,5.109375,2.501953,8.367188,0.172241,-0.054932,-0.718994,-0.671082,down
335292,1.386719,-2.203125,1.902344,5.332031,2.658203,8.240234,0.172241,-0.054932,-0.718994,-0.671082,down
335298,1.425781,-3.128906,2.476563,5.541016,2.761719,8.083984,0.229675,-0.078064,-0.737305,-0.630493,down
335303,1.539063,-3.578125,2.707031,5.949219,3.123047,7.693359,0.249084,-0.084473,-0.743164,-0.615234,down
335309,1.042969,-3.582031,3.128906,5.949219,3.123047,7.693359,0.2677,-0.089783,-0.748596,-0.599854,down
335314,0.621094,-3.546875,3.585938,6.417969,3.335938,7.285156,0.2677,-0.089783,-0.748596,-0.599854,down
335319,0.351563,-3.199219,4.8125,6.417969,3.335938,7.285156,0.2677,-0.089783,-0.748596,-0.599854,down
335325,0.351563,-3.199219,4.8125,6.935547,3.154297,6.748047,0.32196,-0.101685,-0.764404,-0.549255,down
335331,0.160156,-3.125,5.578125,7.275391,3.027344,6.425781,0.33905,-0.10437,-0.769897,-0.530518,down
335336,-0.644531,-3.46875,7.457031,7.572266,2.929688,6.091797,0.354736,-0.10614,-0.775269,-0.511719,down
335341,-0.644531,-3.46875,7.457031,7.820312,2.748047,5.697266,0.369507,-0.107056,-0.780762,-0.492371,down
335346,-1.296875,-2.894531,8.484375,7.820312,2.748047,5.697266,0.396179,-0.10675,-0.791931,-0.452209,down
335351,-2.214844,-2.625,9.292969,7.820312,2.748047,5.697266,0.396179,-0.10675,-0.791931,-0.452209,down
335357,-2.597656,-2.550781,9.445313,7.820312,2.748047,5.697266,0.417786,-0.104309,-0.803284,-0.411499,down
335362,-2.941406,-2.28125,9.753906,7.068359,0.724609,3.443359,0.417786,-0.104309,-0.803284,-0.411499,down
335367,-2.941406,-2.28125,9.753906,7.068359,0.724609,3.443359,0.425354,-0.103027,-0.808533,-0.393372,down
335372,-3.824219,-1.285156,10.632813,6.511719,-0.011719,3.033203,0.425354,-0.103027,-0.808533,-0.393372,down
335377,-3.824219,-1.285156,10.632813,5.847656,-0.742187,2.642578,0.434021,-0.101563,-0.818909,-0.361511,down
335382,-4.207031,-1.054688,10.40625,4.291016,-2.1875,1.923828,0.435364,-0.101624,-0.82428,-0.347473,down
335388,-5.28125,-0.824219,8.683594,4.291016,-2.1875,1.923828,0.431641,-0.103943,-0.835327,-0.324158,down
335393,-5.625,-1.09375,7.609375,4.291016,-2.1875,1.923828,0.426575,-0.10614,-0.841003,-0.31543,down
335398,-5.929687,-1.09375,7.113281,1.982422,-4.480469,0.705078,0.426575,-0.10614,-0.841003,-0.31543,down
335403,-5.929687,-1.09375,7.113281,1.277344,-5.115234,0.230469,0.409973,-0.111816,-0.853088,-0.302795,down
335408,-6.121094,-1.4375,5.503906,1.277344,-5.115234,0.230469,0.409973,-0.111816,-0.853088,-0.302795,down
335413,-6.121094,-1.4375,5.503906,0.580078,-5.675781,-0.292969,0.385315,-0.117798,-0.865479,-0.297607,down
335418,-7.003906,-1.363281,4.125,0.580078,-5.675781,-0.292969,0.370605,-0.1203,-0.871521,-0.297668,down
335424,-8.109375,-1.363281,2.285156,0.580078,-5.675781,-0.292969,0.353516,-0.122253,-0.877625,-0.299683,down
335430,-8.84375,-1.976563,0.597656,0.580078,-5.675781,-0.292969,0.353516,-0.122253,-0.877625,-0.299683,down
335435,-9.414063,-1.59375,-0.167969,-2.384766,-7.775391,-3.957031,0.353516,-0.122253,-0.877625,-0.299683,down
335440,-9.917969,-0.367188,-0.625,-2.384766,-7.775391,-3.957031,0.291992,-0.121277,-0.894592,-0.315857,down
335445,-10.261719,0.820312,-0.625,-2.384766,-7.775391,-3.957031,0.269409,-0.11792,-0.899353,-0.323547,down
335450,-10.261719,0.820312,-0.625,-3.769531,-8.591797,-7.013672,0.244324,-0.112549,-0.903748,-0.333069,down
335455,-11.367188,1.894531,-0.820312,-3.769531,-8.591797,-7.013672,0.244324,-0.112549,-0.903748,-0.333069,down
335460,-12.4375,3.042969,-1.046875,-4.746094,-9.089844,-9.111328,0.244324,-0.112549,-0.903748,-0.333069,down
335466,-14.78125,8.023438,-1.8125,-4.746094,-9.089844,-9.111328,0.157288,-0.084351,-0.911743,-0.369995,down
335472,-15.695313,9.363281,-2.503906,-6.962891,-10.363281,-12.669922,0.157288,-0.084351,-0.911743,-0.369995,down
335477,-18.796875,11.664063,-5.109375,-8.099609,-10.5625,-14.009766,0.084961,-0.053589,-0.909729,-0.402893,down
335483,-18.796875,11.664063,-5.109375,-8.099609,-10.5625,-14.009766,0.009216,-0.015625,-0.89801,-0.439636,down
335488,-18.796875,11.664063,-5.109375,-10.337891,-10.951172,-16.382812,0.032043,-0.007629,0.886963,0.460693,down
335493,-20.753906,17.027344,-10.394531,-10.337891,-10.951172,-16.382812,0.032043,-0.007629,0.886963,0.460693,down
335498,-22.4375,15.644531,-10.011719,-11.861328,-12.189453,-17.607422,0.076416,-0.032532,0.871582,0.483154,down
335503,-24.351562,13.078125,-10.050781,-13.447266,-12.59375,-18.849609,0.173035,-0.089966,0.823975,0.532043,down
335508,-27.269531,11.585938,-10.894531,-13.447266,-12.59375,-18.849609,0.22052,-0.124695,0.791748,0.555908,down
335515,-36.6875,18.519531,-13.304688,-13.447266,-12.59375,-18.849609,0.22052,-0.124695,0.791748,0.555908,down
335520,-36.503906,25.835937,-12.960938,-14.910156,-8.175781,-22.296875,0.22052,-0.124695,0.791748,0.555908,down
335525,-35.421875,35.222656,-11.890625,-13.105469,-7.933594,-21.785156,0.22052,-0.124695,0.791748,0.555908,down
335531,-33.933594,42.082031,-11.429688,-8.738281,-6.966797,-18.230469,0.22052,-0.124695,0.791748,0.555908,down
335536,-28.761719,45.683594,-8.863281,-8.738281,-6.966797,-18.230469,0.414917,-0.300537,0.604431,0.610046,down
335541,-25.660156,40.203125,-6.066406,-8.738281,-6.966797,-18.230469,0.444702,-0.324036,0.571228,0.60907,down
335547,-24.203125,29.28125,-2.925781,-6.076172,-3.929688,-8.222656,0.444702,-0.324036,0.571228,0.60907,down
335552,-25.542969,9.976563,0.90625,-6.076172,-3.929688,-8.222656,0.49353,-0.366089,0.500427,0.609924,down
335557,-26.84375,4.347656,0.636719,-6.076172,-3.929688,-8.222656,0.499634,-0.373657,0.490173,0.608704,down
335562,-25.964844,1.28125,-0.472656,2.189453,0.660156,-2.052734,0.499634,-0.373657,0.490173,0.608704,down
335567,-23.820312,3.65625,-2.042969,4.96875,1.207031,-1.269531,0.503662,-0.376282,0.488892,0.604797,down
335572,-19.605469,13.730469,-4.574219,4.96875,1.207031,-1.269531,0.513245,-0.37146,0.502258,0.588501,down
335577,-18.265625,16.832031,-3.269531,6.365234,1.505859,-0.283203,0.513245,-0.37146,0.502258,0.588501,down
335582,-17.652344,18.171875,-1.96875,6.365234,1.505859,-0.283203,0.521973,-0.360535,0.523926,0.56842,down
335587,-16.882812,16.375,0.101563,6.365234,1.505859,-0.283203,0.524841,-0.355286,0.53595,0.557739,down
335592,-16.925781,14.574219,1.136719,6.365234,1.505859,-0.283203,0.526794,-0.350952,0.546265,0.548523,down
335597,-16.773437,13.308594,1.363281,6.365234,1.505859,-0.283203,0.526794,-0.350952,0.546265,0.548523,down
335603,-16.421875,12.429688,1.171875,6.287109,1.320313,-0.152344,0.53241,-0.339722,0.568237,0.527466,down
335608,-13.058594,10.359375,2.550781,6.287109,1.320313,-0.152344,0.536621,-0.333191,0.577087,0.517761,down
335629,-9.300781,5.457031,3.472656,0.296875,-0.019531,-0.183594,0.548645,-0.318604,0.589661,0.499756,down
335634,-9.148438,4.996094,3.011719,-1.070313,0.242187,-0.023437,0.548645,-0.318604,0.589661,0.499756,down
335641,-9.03125,4.765625,3.050781,-2.257813,0.314453,0.107422,0.548645,-0.318604,0.589661,0.499756,down
335646,-8.265625,4.613281,3.089844,-3.361328,0.285156,0.226562,0.548645,-0.318604,0.589661,0.499756,down
335652,-8.265625,4.539062,2.667969,-4.123047,0.404297,0.359375,0.548645,-0.318604,0.589661,0.499756,down
335657,-8.421875,4.191406,2.324219,-3.779297,0.384766,0.365234,0.537231,-0.335266,0.576965,0.515808,down
335662,-8.304688,3.042969,1.171875,-3.779297,0.384766,0.365234,0.529053,-0.345154,0.568787,0.526733,down
335667,-8.113281,2.851563,1.019531,-1.927734,0.015625,0.330078,0.529053,-0.345154,0.568787,0.526733,down
335672,-7.84375,2.890625,1.058594,-0.794922,-0.103516,0.318359,0.526123,-0.348328,0.565796,0.530762,down
335677,-7.726562,3.542969,1.671875,-0.794922,-0.103516,0.318359,0.524597,-0.34967,0.564148,0.533142,down
335682,-7.804687,3.960938,1.671875,-0.794922,-0.103516,0.318359,0.524109,-0.348694,0.56488,0.533508,down
335687,-8.003906,4.308594,1.363281,1.474609,0.271484,0.214844,0.524109,-0.348694,0.56488,0.533508,down
335692,-8.148438,4.539062,1.019531,1.865234,0.279297,0.214844,0.524658,-0.346924,0.567139,0.531738,down
335698,-8.613281,4.613281,0.636719,1.865234,0.279297,0.214844,0.526489,-0.342407,0.572876,0.526672,down
335704,-9.378906,4.269531,0.445312,1.865234,0.279297,0.214844,0.527832,-0.3396,0.575928,0.523804,down
335710,-9.640625,4.078125,0.5625,2.064453,-0.013672,0.207031,0.527832,-0.3396,0.575928,0.523804,down
335715,-9.875,4.078125,0.90625,1.75,-0.134766,0.189453,0.527832,-0.3396,0.575928,0.523804,down
335720,-9.71875,4.152344,1.363281,1.087891,-0.263672,0.181641,0.532043,-0.331299,0.583252,0.516724,down
335726,-9.757813,4.0,1.519531,0.316406,-0.226562,0.214844,0.532043,-0.331299,0.583252,0.516724,down
335732,-9.761719,3.65625,1.171875,-0.464844,-0.068359,0.238281,0.532043,-0.331299,0.583252,0.516724,down
335738,-9.761719,3.65625,1.171875,-1.472656,0.189453,0.392578,0.529846,-0.331604,0.581909,0.520264,down
335743,-9.953125,2.929688,1.019531,-1.472656,0.189453,0.392578,0.52771,-0.333374,0.580383,0.522949,down
335748,-9.800781,2.621094,1.171875,-1.880859,0.207031,0.552734,0.52771,-0.333374,0.580383,0.522949,down
335753,-9.722656,2.429688,1.171875,-1.880859,0.207031,0.552734,0.522461,-0.337402,0.576965,0.529419,down
335758,-9.640625,2.355469,1.097656,-1.568359,0.349609,0.634766,0.519653,-0.339294,0.575562,0.532532,down
335764,-9.496094,2.164063,0.867187,-1.568359,0.349609,0.634766,0.517334,-0.340576,0.574829,0.534729,down
335771,-9.53125,2.429688,0.789062,-0.626953,0.412109,0.652344,0.517334,-0.340576,0.574829,0.534729,down
335777,-9.679688,2.851563,0.828125,0.615234,0.486328,0.609375,0.517334,-0.340576,0.574829,0.534729,down
335782,-9.796875,3.195313,0.90625,0.615234,0.486328,0.609375,0.511353,-0.3396,0.579224,0.536316,down
335787,-10.378906,3.808594,1.097656,0.615234,0.486328,0.609375,0.511353,-0.3396,0.579224,0.536316,down
335792,-10.679688,4.039062,1.171875,0.615234,0.486328,0.609375,0.510864,-0.335754,0.585388,0.532532,down
335797,-10.910156,4.230469,1.136719,0.615234,0.486328,0.609375,0.510864,-0.335754,0.585388,0.532532,down
335802,-10.984375,4.382812,1.136719,1.466797,0.25,0.285156,0.510864,-0.335754,0.585388,0.532532,down
335808,-10.90625,4.574219,1.25,1.466797,0.25,0.285156,0.511963,-0.330078,0.593079,0.526489,down
335813,-10.800781,4.613281,1.328125,0.697266,-0.027344,0.189453,0.512451,-0.328491,0.594666,0.525208,down
335818,-10.605469,4.421875,1.402344,0.142578,-0.101563,0.183594,0.512634,-0.327637,0.595337,0.524841,down
335824,-10.257813,3.808594,1.402344,0.142578,-0.101563,0.183594,0.512451,-0.327454,0.595154,0.52533,down
335829,-9.917969,3.121094,1.328125,0.142578,-0.101563,0.183594,0.51178,-0.32782,0.59436,0.526611,down
335834,-9.71875,2.773438,1.363281,-1.173828,-0.150391,0.253906,0.51178,-0.32782,0.59436,0.526611,down
335839,-9.453125,2.507813,1.480469,-1.384766,-0.171875,0.283203,0.51178,-0.32782,0.59436,0.526611,down
335844,-8.957031,2.085938,1.402344,-1.384766,-0.171875,0.283203,0.51178,-0.32782,0.59436,0.526611,down
335849,-8.808594,1.96875,1.328125,-1.421875,-0.123047,0.369141,0.51178,-0.32782,0.59436,0.526611,down
335855,-8.648438,1.855469,1.328125,-1.269531,-0.080078,0.414062,0.51178,-0.32782,0.59436,0.526611,down
335860,-8.570313,1.894531,1.289063,-0.972656,-0.019531,0.462891,0.51178,-0.32782,0.59436,0.526611,down
335865,-8.570313,1.96875,1.210938,-0.541016,0.039063,0.515625,0.51178,-0.32782,0.59436,0.526611,down
335870,-8.574219,2.199219,1.25,-0.09375,0.085937,0.5625,0.51178,-0.32782,0.59436,0.526611,down
335875,-8.457031,2.085938,1.289063,0.341797,0.146484,0.599609,0.51178,-0.32782,0.59436,0.526611,down
335880,-8.574219,2.582031,1.171875,0.341797,0.146484,0.599609,0.499939,-0.331665,0.586609,0.544006,down
335887,-8.613281,2.355469,1.171875,0.341797,0.146484,0.599609,0.499939,-0.331665,0.586609,0.544006,down
335892,-8.535156,2.660156,1.289063,1.171875,0.25,0.695312,0.498596,-0.325806,0.593506,0.541321,down
335897,-9.1875,3.003906,1.328125,1.171875,0.25,0.695312,0.498596,-0.325806,0.593506,0.541321,down
335902,-9.375,2.964844,1.171875,1.068359,0.261719,0.699219,0.498108,-0.323669,0.59613,0.540161,down
335907,-9.492188,2.8125,1.136719,1.068359,0.261719,0.699219,0.49762,-0.321533,0.598633,0.539062,down
335913,-9.375,2.890625,1.402344,0.941406,0.152344,0.640625,0.49762,-0.321533,0.598633,0.539062,down
335919,-9.335938,3.003906,1.480469,0.941406,0.152344,0.640625,0.496765,-0.316162,0.604065,0.537048,down
335924,-9.300781,2.964844,1.441406,0.320313,-0.017578,0.433594,0.496521,-0.314819,0.605103,0.536865,down
335929,-9.230469,2.929688,1.328125,0.023437,-0.058594,0.373047,0.496521,-0.314819,0.605103,0.536865,down
335934,-9.070313,2.929688,1.136719,0.023437,-0.058594,0.373047,0.496521,-0.314819,0.605103,0.536865,down
335939,-9.070313,2.929688,1.136719,-0.251953,-0.154297,0.265625,0.496521,-0.314819,0.605103,0.536865,down
335944,-8.996094,2.929688,1.097656,-0.251953,-0.154297,0.265625,0.495056,-0.312744,0.605225,0.539246,down
335949,-8.847656,2.929688,1.019531,-0.251953,-0.154297,0.265625,0.495056,-0.312744,0.605225,0.539246,down
335954,-8.808594,3.003906,0.789062,-0.251953,-0.154297,0.265625,0.495056,-0.312744,0.605225,0.539246,down
335959,-8.808594,3.003906,0.789062,-0.220703,-0.207031,0.195312,0.495056,-0.312744,0.605225,0.539246,down
335964,-8.648438,3.003906,0.714844,-0.220703,-0.207031,0.195312,0.495056,-0.312744,0.605225,0.539246,down
335970,-8.613281,3.121094,0.523437,-0.220703,-0.207031,0.195312,0.495056,-0.312744,0.605225,0.539246,down
335976,-8.609375,3.234375,0.40625,0.070312,-0.136719,0.228516,0.495056,-0.312744,0.605225,0.539246,down
335981,-8.613281,3.3125,0.367188,0.195312,-0.107422,0.253906,0.495056,-0.312744,0.605225,0.539246,down
335986,-8.613281,3.464844,0.367188,0.287109,-0.082031,0.296875,0.495056,-0.312744,0.605225,0.539246,down
335991,-8.726563,3.65625,0.445312,0.287109,-0.082031,0.296875,0.495056,-0.312744,0.605225,0.539246,down
335997,-8.730469,3.769531,0.40625,0.287109,-0.082031,0.296875,0.493896,-0.307373,0.605408,0.543274,down
336002,-8.875,3.769531,0.367188,0.275391,0.083984,0.466797,0.493896,-0.307373,0.605408,0.543274,down
336007,-9.03125,3.769531,0.40625,0.275391,0.083984,0.466797,0.493042,-0.305481,0.606995,0.543274,down
336012,-9.035156,3.695313,0.484375,0.275391,0.083984,0.466797,0.49231,-0.304443,0.607971,0.543396,down
336018,-9.191406,3.617188,0.523437,0.230469,0.126953,0.539062,0.490906,-0.302673,0.60968,0.543762,down
336023,-9.261719,3.425781,0.5625,0.183594,0.123047,0.533203,0.490173,-0.301819,0.610474,0.544006,down
336028,-9.296875,3.234375,0.5625,0.183594,0.123047,0.533203,0.489441,-0.300964,0.611267,0.54425,down
336033,-9.257813,3.160156,0.714844,0.183594,0.123047,0.533203,0.489441,-0.300964,0.611267,0.54425,down
336038,-9.191406,3.234375,0.789062,0.199219,0.074219,0.441406,0.488281,-0.299316,0.612732,0.544556,down
336043,-9.109375,3.273438,0.789062,0.228516,0.068359,0.324219,0.487854,-0.298645,0.613342,0.544617,down
336048,-9.074219,3.351563,0.597656,0.228516,0.068359,0.324219,0.487488,-0.297913,0.614075,0.544556,down
336053,-9.03125,3.386719,0.636719,0.271484,0.023437,0.228516,0.487488,-0.297913,0.614075,0.544556,down
336058,-8.914063,3.503906,0.714844,0.271484,0.023437,0.228516,0.487305,-0.297302,0.614624,0.544434,down
336063,-8.847656,3.578125,0.675781,0.271484,0.023437,0.228516,0.487183,-0.296143,0.61554,0.544067,down
336068,-8.84375,3.65625,0.636719,0.271484,0.023437,0.228516,0.487183,-0.296143,0.61554,0.544067,down
336073,-8.804688,3.695313,0.636719,0.197266,-0.054687,0.113281,0.487305,-0.295227,0.61615,0.543823,down
336078,-8.691406,3.695313,0.636719,0.197266,-0.054687,0.113281,0.487366,-0.294861,0.616272,0.543762,down
336083,-8.726563,3.65625,0.597656,0.197266,-0.054687,0.113281,0.487427,-0.294617,0.616272,0.543884,down
336088,-8.726563,3.578125,0.636719,0.197266,-0.054687,0.113281,0.487427,-0.294617,0.616272,0.543884,down
336093,-8.730469,3.542969,0.636719,-0.041016,-0.09375,0.089844,0.487427,-0.294189,0.616089,0.544312,down
336099,-8.765625,3.464844,0.636719,-0.041016,-0.09375,0.089844,0.487305,-0.294067,0.615906,0.544678,down
336104,-8.808594,3.464844,0.675781,-0.041016,-0.09375,0.089844,0.487183,-0.293945,0.615784,0.545044,down
336110,-8.878906,3.425781,0.636719,-0.111328,-0.03125,0.123047,0.487,-0.293823,0.615662,0.545349,down
336116,-9.113281,3.273438,0.636719,-0.111328,-0.03125,0.123047,0.486816,-0.293701,0.615601,0.545654,down
336121,-9.152344,3.082031,0.675781,0.003906,0.003906,0.119141,0.486816,-0.293701,0.615601,0.545654,down
336126,-9.1875,2.890625,0.597656,0.076172,0.015625,0.091797,0.486816,-0.293701,0.615601,0.545654,down
336132,-9.191406,2.851563,0.597656,0.076172,0.015625,0.091797,0.48645,-0.293152,0.616089,0.545776,down
336138,-9.152344,2.851563,0.867187,0.076172,0.015625,0.091797,0.486877,-0.29248,0.616943,0.544739,down
336143,-9.152344,2.964844,0.867187,0.076172,0.015625,0.091797,0.486877,-0.29248,0.616943,0.544739,down
336148,-9.113281,3.121094,0.867187,0.527344,0.027344,-0.113281,0.487854,-0.291626,0.618286,0.542786,down
336154,-9.191406,3.578125,0.828125,0.527344,0.027344,-0.113281,0.488586,-0.291077,0.619202,0.541504,down
336159,-9.1875,3.847656,0.867187,0.701172,0.0,-0.167969,0.489319,-0.290527,0.620056,0.540161,down
