timestamp,ax,ay,az,gx,gy,gz,qw,qx,qy,qz,label
316308,4.484375,7.851562,-3.265625,0.064453,-0.013672,-0.154297,0.108459,-0.25,-0.780029,-0.563293,down
316314,4.523437,7.851562,-3.265625,0.064453,-0.035156,-0.148437,0.108459,-0.25,-0.780029,-0.563293,down
316319,4.484375,7.824219,-3.304688,0.064453,-0.035156,-0.140625,0.108459,-0.25,-0.780029,-0.563293,down
316324,4.523437,7.820312,-3.378906,0.064453,-0.035156,-0.140625,0.108398,-0.24823,-0.780884,-0.562866,down
316330,4.5625,7.851562,-3.457031,0.066406,-0.021484,-0.130859,0.108398,-0.24823,-0.780884,-0.562866,down
316336,4.601562,7.894531,-3.496094,0.072266,-0.001953,-0.136719,0.108398,-0.24823,-0.780884,-0.562866,down
316341,4.601562,7.933594,-3.496094,0.072266,0.003906,-0.136719,0.108398,-0.24823,-0.780884,-0.562866,down
316346,4.640625,7.972656,-3.535156,0.072266,0.003906,-0.136719,0.108521,-0.24585,-0.782043,-0.562317,down
316351,4.640625,7.972656,-3.570313,0.072266,0.003906,-0.136719,0.108582,-0.245117,-0.782288,-0.562256,down
316357,4.601562,8.011719,-3.570313,0.068359,0.052734,-0.175781,0.108582,-0.245117,-0.782288,-0.562256,down
316362,4.601562,8.050781,-3.609375,0.068359,0.052734,-0.175781,0.108826,-0.242981,-0.783142,-0.562012,down
316367,4.5625,8.046875,-3.570313,0.054687,0.064453,-0.199219,0.108826,-0.242981,-0.783142,-0.562012,down
316372,4.5625,8.046875,-3.535156,0.054687,0.064453,-0.199219,0.108887,-0.241394,-0.783691,-0.56189,down
316377,4.5625,8.046875,-3.535156,0.044922,0.0625,-0.226562,0.108887,-0.241394,-0.783691,-0.56189,down
316382,4.523437,8.085938,-3.417969,0.03125,0.050781,-0.236328,0.108948,-0.24054,-0.783936,-0.56189,down
316387,4.5625,8.089844,-3.417969,0.03125,0.050781,-0.236328,0.108826,-0.238892,-0.784424,-0.56189,down
316392,4.523437,8.007813,-3.378906,0.03125,0.050781,-0.236328,0.108826,-0.238892,-0.784424,-0.56189,down
316397,4.523437,8.007813,-3.339844,-0.044922,0.025391,-0.269531,0.108765,-0.238037,-0.784668,-0.562012,down
316403,4.484375,7.933594,-3.304688,-0.044922,0.025391,-0.269531,0.108398,-0.23645,-0.784973,-0.562256,down
316408,4.445312,7.890625,-3.265625,-0.091797,0.011719,-0.294922,0.108398,-0.23645,-0.784973,-0.562256,down
316414,4.445312,8.011719,-3.226563,-0.115234,0.001953,-0.298828,0.108398,-0.23645,-0.784973,-0.562256,down
316419,4.410156,8.011719,-3.226563,-0.140625,-0.013672,-0.320313,0.108398,-0.23645,-0.784973,-0.562256,down
316424,4.371094,8.050781,-3.265625,-0.150391,-0.017578,-0.324219,0.108398,-0.23645,-0.784973,-0.562256,down
316430,4.332031,8.046875,-3.1875,-0.173828,-0.03125,-0.326172,0.108398,-0.23645,-0.784973,-0.562256,down
316436,4.292969,8.011719,-3.1875,-0.173828,-0.03125,-0.326172,0.10614,-0.231506,-0.7854,-0.564148,down
316442,4.253906,7.96875,-3.226563,-0.185547,-0.052734,-0.324219,0.10614,-0.231506,-0.7854,-0.564148,down
316447,4.21875,7.96875,-3.226563,-0.185547,-0.052734,-0.324219,0.105103,-0.22998,-0.7854,-0.564941,down
316453,4.140625,7.96875,-3.265625,-0.185547,-0.052734,-0.324219,0.104126,-0.228516,-0.7854,-0.565735,down
316459,4.140625,7.96875,-3.265625,-0.164062,-0.039063,-0.294922,0.103638,-0.227783,-0.785461,-0.566101,down
316465,4.140625,7.933594,-3.265625,-0.136719,-0.035156,-0.271484,0.103638,-0.227783,-0.785461,-0.566101,down
316471,4.101562,8.007813,-3.304688,-0.136719,-0.035156,-0.271484,0.103638,-0.227783,-0.785461,-0.566101,down
316476,4.101562,8.046875,-3.339844,-0.082031,0.003906,-0.224609,0.103638,-0.227783,-0.785461,-0.566101,down
316482,4.027344,8.089844,-3.378906,0.007813,0.042969,-0.181641,0.103638,-0.227783,-0.785461,-0.566101,down
316487,4.0625,8.164063,-3.304688,0.007813,0.042969,-0.181641,0.102417,-0.223816,-0.78595,-0.5672,down
316492,4.0625,8.167969,-3.339844,0.007813,0.042969,-0.181641,0.102478,-0.223145,-0.786194,-0.567078,down
316497,4.027344,8.234375,-3.339844,0.007813,0.042969,-0.181641,0.102478,-0.223145,-0.786194,-0.567078,down
316502,4.027344,8.238281,-3.304688,0.128906,0.101563,-0.123047,0.102478,-0.223145,-0.786194,-0.567078,down
316507,3.988281,8.3125,-3.265625,0.128906,0.101563,-0.123047,0.102905,-0.221863,-0.786804,-0.566711,down
316512,4.027344,8.316406,-3.226563,0.169922,0.107422,-0.115234,0.103149,-0.221191,-0.78717,-0.566406,down
316517,4.027344,8.273438,-3.1875,0.169922,0.107422,-0.115234,0.103455,-0.220581,-0.787476,-0.566162,down
316523,3.988281,8.238281,-3.148438,0.169922,0.107422,-0.115234,0.103943,-0.219299,-0.788086,-0.565674,down
316528,4.027344,8.207031,-3.035156,0.169922,0.107422,-0.115234,0.104126,-0.21875,-0.788391,-0.565491,down
316533,4.027344,8.167969,-3.035156,0.099609,0.068359,-0.111328,0.104126,-0.21875,-0.788391,-0.565491,down
316538,4.0625,8.167969,-3.035156,0.070312,0.058594,-0.125,0.104126,-0.21875,-0.788391,-0.565491,down
316544,4.027344,8.128906,-2.996094,0.070312,0.058594,-0.125,0.104126,-0.21875,-0.788391,-0.565491,down
316549,4.0625,8.128906,-2.996094,0.03125,0.033203,-0.130859,0.104126,-0.21875,-0.788391,-0.565491,down
316555,4.027344,8.128906,-3.035156,0.025391,0.027344,-0.126953,0.104126,-0.21875,-0.788391,-0.565491,down
316560,4.027344,8.089844,-3.035156,0.025391,0.027344,-0.126953,0.104553,-0.215637,-0.78949,-0.565063,down
316565,4.0625,8.089844,-2.996094,0.025391,0.027344,-0.126953,0.104553,-0.215637,-0.78949,-0.565063,down
316571,4.027344,8.046875,-3.035156,0.025391,0.027344,-0.126953,0.10437,-0.214722,-0.789734,-0.565063,down
316577,4.027344,8.011719,-3.035156,0.011719,-0.011719,-0.150391,0.10437,-0.214722,-0.789734,-0.565063,down
316582,3.988281,8.046875,-3.113281,0.017578,-0.009766,-0.154297,0.104004,-0.213318,-0.790222,-0.565063,down
316587,4.027344,8.128906,-3.113281,0.017578,-0.009766,-0.154297,0.104004,-0.213318,-0.790222,-0.565063,down
316592,3.988281,8.234375,-3.1875,0.029297,-0.023437,-0.166016,0.103699,-0.212341,-0.790588,-0.564941,down
316598,3.988281,8.351563,-3.265625,0.029297,-0.023437,-0.166016,0.103577,-0.211853,-0.79071,-0.564941,down
316603,3.988281,8.390625,-3.339844,0.009766,-0.03125,-0.175781,0.103333,-0.211365,-0.790894,-0.56488,down
316609,4.027344,8.472656,-3.378906,0.009766,-0.03125,-0.175781,0.103149,-0.210876,-0.791077,-0.56488,down
316615,4.027344,8.429688,-3.457031,0.009766,-0.03125,-0.175781,0.102966,-0.210449,-0.791199,-0.564941,down
316621,4.0625,8.390625,-3.496094,-0.03125,-0.005859,-0.167969,0.102966,-0.210449,-0.791199,-0.564941,down
316626,4.101562,8.429688,-3.535156,-0.054687,0.005859,-0.175781,0.102966,-0.210449,-0.791199,-0.564941,down
316631,4.101562,8.429688,-3.496094,-0.054687,0.005859,-0.175781,0.102478,-0.208923,-0.791382,-0.565308,down
316636,4.0625,8.429688,-3.417969,-0.035156,0.03125,-0.173828,0.102478,-0.208923,-0.791382,-0.565308,down
316641,4.0625,8.355469,-3.417969,-0.035156,0.03125,-0.173828,0.102295,-0.207886,-0.791565,-0.565491,down
316646,4.0625,8.390625,-3.417969,-0.033203,0.060547,-0.173828,0.102295,-0.207886,-0.791565,-0.565491,down
316652,3.988281,8.394531,-3.304688,-0.033203,0.060547,-0.173828,0.102173,-0.206116,-0.791748,-0.565857,down
316657,4.027344,8.355469,-3.226563,-0.015625,0.078125,-0.185547,0.102173,-0.206116,-0.791748,-0.565857,down
316662,3.988281,8.316406,-3.226563,-0.015625,0.078125,-0.185547,0.102112,-0.205505,-0.79187,-0.565979,down
316667,3.949219,8.3125,-3.1875,0.0,0.083984,-0.183594,0.102112,-0.205505,-0.79187,-0.565979,down
316672,3.949219,8.355469,-3.148438,0.0,0.083984,-0.183594,0.102112,-0.204224,-0.792053,-0.566162,down
316677,3.910156,8.355469,-3.113281,0.0,0.083984,-0.183594,0.102051,-0.203552,-0.792175,-0.566223,down
316682,3.910156,8.351563,-3.074219,0.001953,0.074219,-0.183594,0.102051,-0.203552,-0.792175,-0.566223,down
316687,3.910156,8.316406,-3.035156,0.001953,0.074219,-0.183594,0.102051,-0.202271,-0.792419,-0.566345,down
316692,3.910156,8.355469,-3.035156,-0.005859,0.060547,-0.173828,0.102051,-0.20166,-0.79248,-0.566467,down
316697,3.871094,8.355469,-3.035156,-0.005859,0.060547,-0.173828,0.10199,-0.201111,-0.792603,-0.566528,down
316702,3.871094,8.316406,-3.035156,-0.005859,0.060547,-0.173828,0.101929,-0.2005,-0.792664,-0.566589,down
316708,3.871094,8.355469,-3.035156,-0.037109,0.041016,-0.164062,0.101929,-0.2005,-0.792664,-0.566589,down
316713,3.871094,8.316406,-3.035156,-0.037109,0.041016,-0.164062,0.101746,-0.198914,-0.792847,-0.566956,down
316718,3.871094,8.316406,-2.957031,-0.035156,0.035156,-0.166016,0.101624,-0.198364,-0.792908,-0.567078,down
316723,3.835938,8.273438,-2.996094,-0.035156,0.035156,-0.166016,0.101563,-0.197937,-0.792969,-0.5672,down
316728,3.835938,8.273438,-2.996094,-0.021484,0.033203,-0.167969,0.10144,-0.197388,-0.79303,-0.567261,down
316733,3.835938,8.273438,-2.996094,-0.009766,0.011719,-0.167969,0.10144,-0.197388,-0.79303,-0.567261,down
316738,3.835938,8.273438,-2.996094,-0.009766,0.011719,-0.167969,0.101196,-0.196411,-0.793274,-0.567383,down
316744,3.796875,8.277344,-2.996094,-0.009766,0.011719,-0.167969,0.101074,-0.195862,-0.793335,-0.567444,down
316750,3.796875,8.3125,-2.957031,0.005859,0.0,-0.179687,0.101074,-0.195862,-0.793335,-0.567444,down
316755,3.757813,8.355469,-2.996094,0.017578,-0.005859,-0.171875,0.100708,-0.194824,-0.79364,-0.567505,down
316760,3.796875,8.351563,-2.996094,0.017578,-0.005859,-0.171875,0.100525,-0.194397,-0.793762,-0.567505,down
316766,3.757813,8.355469,-3.035156,0.005859,-0.021484,-0.1875,0.100525,-0.194397,-0.793762,-0.567505,down
316771,3.71875,8.429688,-3.035156,-0.001953,-0.03125,-0.185547,0.100525,-0.194397,-0.793762,-0.567505,down
316776,3.757813,8.433594,-3.074219,-0.001953,-0.03125,-0.185547,0.099854,-0.192993,-0.794128,-0.567566,down
316782,3.71875,8.472656,-3.113281,-0.001953,-0.03125,-0.185547,0.099243,-0.192078,-0.794312,-0.567688,down
316787,3.71875,8.511719,-3.113281,-0.001953,-0.03125,-0.185547,0.099243,-0.192078,-0.794312,-0.567688,down
316792,3.679688,8.546875,-3.074219,-0.058594,-0.054687,-0.205078,0.099243,-0.192078,-0.794312,-0.567688,down
316797,3.644531,8.511719,-3.113281,-0.058594,-0.054687,-0.205078,0.098572,-0.191223,-0.794434,-0.567932,down
316802,3.644531,8.507813,-3.148438,-0.058594,-0.054687,-0.205078,0.098145,-0.190735,-0.794434,-0.568176,down
316808,3.644531,8.546875,-3.1875,-0.136719,-0.068359,-0.214844,0.09729,-0.18988,-0.794373,-0.568726,down
316814,3.605469,8.472656,-3.148438,-0.136719,-0.068359,-0.214844,0.096924,-0.189514,-0.794312,-0.569031,down
316819,3.605469,8.472656,-3.148438,-0.169922,-0.076172,-0.214844,0.096375,-0.189087,-0.794189,-0.569397,down
316825,3.605469,8.472656,-3.148438,-0.169922,-0.076172,-0.214844,0.095947,-0.18866,-0.794128,-0.569702,down
316831,3.566406,8.429688,-3.074219,-0.169922,-0.076172,-0.214844,0.095459,-0.188232,-0.794006,-0.570129,down
316836,3.566406,8.429688,-3.074219,-0.175781,-0.080078,-0.207031,0.095459,-0.188232,-0.794006,-0.570129,down
316841,3.566406,8.472656,-3.148438,-0.158203,-0.087891,-0.197266,0.095459,-0.188232,-0.794006,-0.570129,down
316846,3.566406,8.433594,-3.113281,-0.138672,-0.087891,-0.179687,0.095459,-0.188232,-0.794006,-0.570129,down
316851,3.527344,8.46875,-3.074219,-0.138672,-0.087891,-0.179687,0.095459,-0.188232,-0.794006,-0.570129,down
316857,3.566406,8.433594,-3.113281,-0.138672,-0.087891,-0.179687,0.093323,-0.186584,-0.79364,-0.571533,down
316863,3.527344,8.429688,-3.113281,-0.076172,-0.083984,-0.146484,0.09259,-0.186035,-0.79364,-0.571777,down
316869,3.527344,8.511719,-3.113281,-0.076172,-0.083984,-0.146484,0.092346,-0.185852,-0.793701,-0.571838,down
316874,3.488281,8.546875,-3.113281,-0.013672,-0.095703,-0.113281,0.092041,-0.185608,-0.793762,-0.571899,down
316879,3.527344,8.585938,-3.148438,-0.011719,-0.101563,-0.099609,0.091736,-0.185425,-0.793823,-0.571899,down
316884,3.488281,8.589844,-3.1875,-0.017578,-0.097656,-0.087891,0.091736,-0.185425,-0.793823,-0.571899,down
316889,3.453125,8.628906,-3.226563,-0.017578,-0.097656,-0.087891,0.091248,-0.185181,-0.793945,-0.571899,down
316894,3.488281,8.625,-3.265625,-0.03125,-0.09375,-0.080078,0.091248,-0.185181,-0.793945,-0.571899,down
316900,3.488281,8.625,-3.265625,-0.050781,-0.085937,-0.070312,0.091248,-0.185181,-0.793945,-0.571899,down
316905,3.488281,8.550781,-3.265625,-0.050781,-0.085937,-0.070312,0.090515,-0.184814,-0.794006,-0.572021,down
316911,3.527344,8.585938,-3.265625,-0.066406,-0.076172,-0.060547,0.090515,-0.184814,-0.794006,-0.572021,down
316917,3.527344,8.585938,-3.265625,-0.074219,-0.076172,-0.070312,0.090515,-0.184814,-0.794006,-0.572021,down
316922,3.488281,8.589844,-3.226563,-0.082031,-0.066406,-0.068359,0.090515,-0.184814,-0.794006,-0.572021,down
316927,3.527344,8.546875,-3.226563,-0.082031,-0.066406,-0.068359,0.089661,-0.184326,-0.793823,-0.57251,down
316933,3.488281,8.589844,-3.226563,-0.089844,-0.066406,-0.074219,0.089661,-0.184326,-0.793823,-0.57251,down
316938,3.527344,8.546875,-3.1875,-0.089844,-0.066406,-0.074219,0.08905,-0.183899,-0.793701,-0.572998,down
316943,3.527344,8.589844,-3.1875,-0.089844,-0.066406,-0.074219,0.088867,-0.183777,-0.79364,-0.57312,down
316948,3.566406,8.546875,-3.148438,-0.089844,-0.066406,-0.074219,0.088867,-0.183777,-0.79364,-0.57312,down
316953,3.566406,8.472656,-3.148438,-0.080078,-0.068359,-0.080078,0.088379,-0.183472,-0.793579,-0.573364,down
316958,3.566406,8.433594,-3.113281,-0.080078,-0.068359,-0.080078,0.088379,-0.183472,-0.793579,-0.573364,down
316963,3.566406,8.433594,-3.113281,-0.054687,-0.083984,-0.070312,0.088379,-0.183472,-0.793579,-0.573364,down
316968,3.566406,8.46875,-3.113281,-0.054687,-0.083984,-0.070312,0.087891,-0.183228,-0.793518,-0.573547,down
316974,3.605469,8.511719,-3.074219,-0.046875,-0.09375,-0.076172,0.087708,-0.183167,-0.793518,-0.573669,down
316980,3.605469,8.511719,-3.074219,-0.046875,-0.09375,-0.076172,0.087219,-0.182983,-0.793518,-0.573792,down
316985,3.566406,8.511719,-3.148438,-0.050781,-0.119141,-0.066406,0.086914,-0.182922,-0.793579,-0.573853,down
316991,3.605469,8.546875,-3.148438,-0.054687,-0.126953,-0.066406,0.086914,-0.182922,-0.793579,-0.573853,down
316996,3.605469,8.511719,-3.148438,-0.054687,-0.126953,-0.066406,0.086304,-0.1828,-0.793518,-0.573914,down
317002,3.644531,8.511719,-3.1875,-0.054687,-0.144531,-0.068359,0.086304,-0.1828,-0.793518,-0.573914,down
317008,3.605469,8.46875,-3.1875,-0.056641,-0.142578,-0.080078,0.085266,-0.182739,-0.793579,-0.574097,down
317013,3.644531,8.390625,-3.1875,-0.056641,-0.142578,-0.080078,0.0849,-0.182678,-0.793518,-0.574219,down
317018,3.644531,8.433594,-3.304688,-0.056641,-0.142578,-0.080078,0.084534,-0.182617,-0.793518,-0.57428,down
317023,3.679688,8.429688,-3.265625,-0.056641,-0.142578,-0.080078,0.084534,-0.182617,-0.793518,-0.57428,down
317028,3.679688,8.472656,-3.265625,-0.058594,-0.109375,-0.099609,0.084534,-0.182617,-0.793518,-0.57428,down
317033,3.644531,8.46875,-3.265625,-0.058594,-0.109375,-0.099609,0.083862,-0.182434,-0.793579,-0.574402,down
317038,3.644531,8.433594,-3.265625,-0.054687,-0.082031,-0.107422,0.083496,-0.182251,-0.793579,-0.574524,down
317043,3.644531,8.433594,-3.265625,-0.054687,-0.082031,-0.107422,0.083252,-0.182068,-0.793579,-0.574585,down
317048,3.644531,8.433594,-3.265625,-0.054687,-0.082031,-0.107422,0.082703,-0.181641,-0.793579,-0.574768,down
317053,3.605469,8.429688,-3.265625,-0.054687,-0.082031,-0.107422,0.082703,-0.181641,-0.793579,-0.574768,down
317058,3.605469,8.390625,-3.265625,-0.048828,-0.037109,-0.119141,0.082703,-0.181641,-0.793579,-0.574768,down
317063,3.605469,8.429688,-3.265625,-0.044922,-0.023437,-0.125,0.082092,-0.180786,-0.79364,-0.575073,down
317068,3.605469,8.390625,-3.265625,-0.044922,-0.023437,-0.125,0.082092,-0.180786,-0.79364,-0.575073,down
317073,3.527344,8.390625,-3.226563,-0.035156,0.0,-0.130859,0.081909,-0.180481,-0.79364,-0.575195,down
317078,3.527344,8.390625,-3.1875,-0.035156,0.0,-0.130859,0.081726,-0.180115,-0.79364,-0.575317,down
317083,3.527344,8.390625,-3.1875,-0.035156,0.0,-0.130859,0.081604,-0.17981,-0.793701,-0.575378,down
317088,3.488281,8.390625,-3.1875,-0.03125,0.027344,-0.134766,0.081482,-0.179382,-0.793701,-0.5755,down
317093,3.488281,8.351563,-3.148438,-0.03125,0.027344,-0.134766,0.08136,-0.179016,-0.793762,-0.575623,down
317098,3.488281,8.390625,-3.113281,-0.03125,0.027344,-0.134766,0.081238,-0.17865,-0.793762,-0.575684,down
317103,3.453125,8.394531,-3.074219,-0.017578,0.027344,-0.142578,0.081238,-0.17865,-0.793762,-0.575684,down
317108,3.453125,8.355469,-3.113281,-0.017578,0.027344,-0.142578,0.081055,-0.177856,-0.793884,-0.575806,down
317113,3.414063,8.355469,-3.035156,-0.017578,0.039063,-0.134766,0.080933,-0.177429,-0.793884,-0.575928,down
317118,3.453125,8.355469,-3.035156,-0.017578,0.039063,-0.134766,0.080872,-0.177063,-0.793945,-0.575989,down
317124,3.414063,8.316406,-3.035156,-0.017578,0.039063,-0.134766,0.08075,-0.17627,-0.794067,-0.576111,down
317129,3.414063,8.316406,-3.035156,-0.001953,0.035156,-0.136719,0.080627,-0.175842,-0.794128,-0.576172,down
317134,3.375,8.3125,-2.921875,-0.001953,0.035156,-0.136719,0.080566,-0.175415,-0.794189,-0.576172,down
317139,3.414063,8.273438,-2.996094,-0.001953,0.035156,-0.136719,0.080505,-0.175049,-0.79425,-0.576233,down
317144,3.335938,8.273438,-2.957031,0.015625,0.039063,-0.134766,0.080444,-0.174622,-0.794373,-0.576233,down
317149,3.335938,8.234375,-2.996094,0.015625,0.039063,-0.134766,0.080444,-0.174255,-0.794434,-0.576233,down
317154,3.375,8.277344,-2.921875,0.015625,0.039063,-0.134766,0.080322,-0.173767,-0.794556,-0.576233,down
317159,3.335938,8.238281,-2.921875,0.015625,0.039063,-0.134766,0.080261,-0.17334,-0.794617,-0.576233,down
317164,3.375,8.277344,-2.921875,0.017578,0.027344,-0.162109,0.080139,-0.172913,-0.794739,-0.576233,down
317170,3.296875,8.273438,-2.921875,0.017578,0.027344,-0.162109,0.079956,-0.172424,-0.794861,-0.576233,down
317175,3.335938,8.316406,-2.882813,0.017578,0.027344,-0.162109,0.079834,-0.171997,-0.794983,-0.576294,down
317180,3.257813,8.316406,-2.957031,-0.013672,0.015625,-0.207031,0.079834,-0.171997,-0.794983,-0.576294,down
317185,3.257813,8.3125,-2.921875,-0.03125,-0.001953,-0.234375,0.079834,-0.171997,-0.794983,-0.576294,down
317191,3.222656,8.394531,-2.882813,-0.054687,-0.009766,-0.253906,0.079834,-0.171997,-0.794983,-0.576294,down
317197,3.183594,8.433594,-2.921875,-0.054687,-0.009766,-0.253906,0.078674,-0.169861,-0.795227,-0.576721,down
317202,3.183594,8.433594,-2.921875,-0.119141,-0.041016,-0.298828,0.078186,-0.16925,-0.795227,-0.576965,down
317208,3.183594,8.472656,-2.882813,-0.144531,-0.054687,-0.333984,0.078186,-0.16925,-0.795227,-0.576965,down
317213,3.144531,8.511719,-2.84375,-0.191406,-0.072266,-0.355469,0.076233,-0.167419,-0.794983,-0.578125,down
317218,3.144531,8.433594,-2.804688,-0.191406,-0.072266,-0.355469,0.076233,-0.167419,-0.794983,-0.578125,down
317223,3.105469,8.433594,-2.84375,-0.294922,-0.125,-0.4375,0.076233,-0.167419,-0.794983,-0.578125,down
317229,3.066406,8.390625,-2.765625,-0.34375,-0.148437,-0.453125,0.074463,-0.166016,-0.794617,-0.579224,down
317234,3.066406,8.390625,-2.765625,-0.34375,-0.148437,-0.453125,0.072327,-0.164551,-0.794067,-0.580688,down
317239,3.03125,8.351563,-2.804688,-0.34375,-0.148437,-0.453125,0.071228,-0.163818,-0.793823,-0.58136,down
317244,2.992188,8.277344,-2.765625,-0.390625,-0.185547,-0.541016,0.071228,-0.163818,-0.793823,-0.58136,down
317250,2.953125,8.207031,-2.652344,-0.390625,-0.185547,-0.541016,0.068726,-0.16217,-0.793152,-0.582947,down
317256,2.914063,8.207031,-2.613281,-0.435547,-0.208984,-0.589844,0.068726,-0.16217,-0.793152,-0.582947,down
317261,2.875,8.167969,-2.613281,-0.4375,-0.216797,-0.619141,0.065918,-0.1604,-0.79248,-0.584717,down
317266,2.800781,8.164063,-2.574219,-0.4375,-0.216797,-0.619141,0.064392,-0.159485,-0.792175,-0.585571,down
317271,2.761719,8.125,-2.539063,-0.435547,-0.255859,-0.6875,0.064392,-0.159485,-0.792175,-0.585571,down
317276,2.722656,8.164063,-2.5,-0.441406,-0.273438,-0.724609,0.064392,-0.159485,-0.792175,-0.585571,down
317281,2.683594,8.167969,-2.460938,-0.453125,-0.294922,-0.78125,0.064392,-0.159485,-0.792175,-0.585571,down
317287,2.609375,8.167969,-2.382813,-0.470703,-0.316406,-0.826172,0.064392,-0.159485,-0.792175,-0.585571,down
317292,2.53125,8.207031,-2.382813,-0.470703,-0.316406,-0.826172,0.05542,-0.154053,-0.790588,-0.590088,down
317297,2.457031,8.203125,-2.308594,-0.525391,-0.359375,-0.925781,0.05542,-0.154053,-0.790588,-0.590088,down
317303,2.378906,8.277344,-2.308594,-0.542969,-0.392578,-0.982422,0.048401,-0.150024,-0.789429,-0.593201,down
317308,2.300781,8.273438,-2.269531,-0.542969,-0.392578,-0.982422,0.048401,-0.150024,-0.789429,-0.593201,down
317313,2.226563,8.277344,-2.308594,-0.613281,-0.457031,-1.091797,0.04303,-0.147095,-0.788574,-0.595581,down
317318,2.226563,8.355469,-2.230469,-0.613281,-0.457031,-1.091797,0.04303,-0.147095,-0.788574,-0.595581,down
317323,2.070313,8.351563,-2.117188,-0.736328,-0.525391,-1.175781,0.04303,-0.147095,-0.788574,-0.595581,down
317328,2.035156,8.351563,-2.152344,-0.736328,-0.525391,-1.175781,0.036987,-0.143982,-0.787354,-0.598328,down
317334,2.035156,8.3125,-2.117188,-0.835937,-0.574219,-1.261719,0.030396,-0.140747,-0.785828,-0.60144,down
317339,1.878906,8.277344,-2.152344,-0.933594,-0.634766,-1.322266,0.030396,-0.140747,-0.785828,-0.60144,down
317344,1.84375,8.238281,-2.078125,-0.933594,-0.634766,-1.322266,0.023071,-0.137268,-0.783936,-0.60498,down
317349,1.804688,8.273438,-2.039063,-0.933594,-0.634766,-1.322266,0.019287,-0.135498,-0.782959,-0.606873,down
317354,1.652344,8.351563,-2.152344,-0.933594,-0.634766,-1.322266,0.015747,-0.133789,-0.781982,-0.608582,down
317359,1.652344,8.433594,-2.117188,-0.933594,-0.634766,-1.322266,0.012207,-0.13208,-0.781067,-0.610229,down
317364,1.613281,8.507813,-2.152344,-1.066406,-0.724609,-1.550781,0.012207,-0.13208,-0.781067,-0.610229,down
317369,1.574219,8.546875,-2.078125,-1.082031,-0.732422,-1.607422,0.007751,-0.129944,-0.779846,-0.612244,down
317374,1.460938,8.738281,-2.039063,-1.082031,-0.732422,-1.607422,0.000427,0.125916,0.777649,0.615967,down
317379,1.382813,8.8125,-2.039063,-1.082031,-0.732422,-1.607422,0.000427,0.125916,0.777649,0.615967,down
317384,1.382813,8.8125,-2.039063,-1.158203,-0.757812,-1.707031,0.004578,0.12384,0.776489,0.617859,down
317389,1.269531,8.933594,-2.078125,-1.205078,-0.763672,-1.773438,0.004578,0.12384,0.776489,0.617859,down
317395,1.039063,8.851563,-2.039063,-1.267578,-0.773437,-1.830078,0.018433,0.116699,0.772278,0.624207,down
317400,0.921875,8.777344,-1.886719,-1.267578,-0.773437,-1.830078,0.023376,0.114014,0.77063,0.626587,down
317405,0.847656,8.695313,-1.847656,-1.457031,-0.773437,-1.992188,0.023376,0.114014,0.77063,0.626587,down
317410,0.808594,8.773438,-1.886719,-1.457031,-0.773437,-1.992188,0.033386,0.108398,0.767029,0.631531,down
317416,0.65625,8.929688,-1.847656,-1.457031,-0.773437,-1.992188,0.033386,0.108398,0.767029,0.631531,down
317421,0.578125,9.121094,-1.925781,-1.662109,-0.714844,-2.146484,0.043457,0.102295,0.762939,0.63678,down
317426,0.425781,9.699219,-1.847656,-1.738281,-0.707031,-2.185547,0.043457,0.102295,0.762939,0.63678,down
317431,0.347656,10.195313,-1.847656,-1.794922,-0.710937,-2.201172,0.043457,0.102295,0.762939,0.63678,down
317436,0.273438,10.730469,-1.925781,-1.851563,-0.728516,-2.164063,0.043457,0.102295,0.762939,0.63678,down
317442,0.082031,11.269531,-2.117188,-1.917969,-0.707031,-2.074219,0.043457,0.102295,0.762939,0.63678,down
317447,-0.304688,12.074219,-2.347656,-2.013672,-0.669922,-1.939453,0.043457,0.102295,0.762939,0.63678,down
317453,-0.304688,12.261719,-2.382813,-2.013672,-0.669922,-1.939453,0.074036,0.083374,0.747131,0.655273,down
317459,-0.339844,12.191406,-2.269531,-2.433594,-0.818359,-1.386719,0.074036,0.083374,0.747131,0.655273,down
317464,-0.339844,12.191406,-2.269531,-2.433594,-0.818359,-1.386719,0.082703,0.078918,0.73999,0.662842,down
317469,-0.304688,11.726563,-1.65625,-2.433594,-0.818359,-1.386719,0.082703,0.078918,0.73999,0.662842,down
317474,-0.1875,11.34375,-1.3125,-2.853516,-0.791016,-1.039063,0.082703,0.078918,0.73999,0.662842,down
317479,-0.148437,10.347656,-1.042969,-3.121094,-0.669922,-0.890625,0.097351,0.073364,0.720642,0.682495,down
317484,-0.378906,9.15625,-1.082031,-3.121094,-0.669922,-0.890625,0.097351,0.073364,0.720642,0.682495,down
317489,-0.417969,8.589844,-1.003906,-3.570313,-0.267578,-0.591797,0.100342,0.071777,0.713928,0.68927,down
317494,-0.417969,8.164063,-0.929687,-3.570313,-0.267578,-0.591797,0.102417,0.070312,0.708191,0.695007,down
317499,-0.378906,7.851562,-0.738281,-3.189453,-0.082031,-0.523437,0.10437,0.068726,0.702087,0.70105,down
317505,-0.378906,7.851562,-0.738281,-2.769531,0.011719,-0.490234,0.107361,0.065552,0.691406,0.711426,down
317510,-0.457031,7.820312,-0.199219,-2.228516,0.125,-0.458984,0.108582,0.063721,0.686646,0.716064,down
317515,-0.609375,8.007813,0.027344,-2.228516,0.125,-0.458984,0.109314,0.062012,0.683289,0.719299,down
317520,-0.722656,8.125,0.222656,-0.832031,0.388672,-0.388672,0.109314,0.062012,0.683289,0.719299,down
317526,-0.992187,8.234375,0.296875,-0.832031,0.388672,-0.388672,0.109497,0.05896,0.680847,0.721802,down
317531,-0.878906,8.511719,0.335938,0.519531,0.552734,-0.269531,0.109497,0.05896,0.680847,0.721802,down
317536,-0.878906,8.816406,0.375,1.103516,0.583984,-0.234375,0.109497,0.05896,0.680847,0.721802,down
317541,-0.878906,9.460938,0.183594,1.103516,0.583984,-0.234375,0.107544,0.055054,0.685608,0.717896,down
317546,-0.839844,9.773438,0.144531,1.941406,0.695312,-0.216797,0.107544,0.055054,0.685608,0.717896,down
317552,-0.914062,10.117188,0.105469,2.169922,0.722656,-0.210937,0.107544,0.055054,0.685608,0.717896,down
317557,-1.03125,10.503906,-0.125,2.169922,0.722656,-0.210937,0.104126,0.051575,0.69696,0.707642,down
317562,-1.070313,10.652344,-0.164062,2.193359,0.771484,-0.261719,0.104126,0.051575,0.69696,0.707642,down
317568,-1.03125,10.691406,-0.085937,1.951172,0.724609,-0.285156,0.104126,0.051575,0.69696,0.707642,down
317574,-1.070313,10.804688,0.066406,1.59375,0.673828,-0.3125,0.104126,0.051575,0.69696,0.707642,down
317579,-1.03125,10.726563,0.105469,1.59375,0.673828,-0.3125,0.099976,0.046204,0.710999,0.694519,down
317584,-0.992187,10.578125,0.222656,0.654297,0.595703,-0.435547,0.099121,0.042725,0.713684,0.692139,down
317589,-0.914062,10.347656,0.257813,0.654297,0.595703,-0.435547,0.099121,0.042725,0.713684,0.692139,down
317594,-0.953125,10.15625,0.222656,0.654297,0.595703,-0.435547,0.09906,0.038391,0.713135,0.692932,down
317599,-0.953125,10.042969,0.144531,0.654297,0.595703,-0.435547,0.09906,0.038391,0.713135,0.692932,down
317604,-0.953125,10.042969,0.144531,-0.931641,0.509766,-0.720703,0.099365,0.036072,0.711975,0.694153,down
317609,-0.878906,9.503906,0.222656,-1.150391,0.472656,-0.802734,0.099792,0.033752,0.71051,0.69574,down
317614,-0.878906,9.503906,0.222656,-1.304688,0.419922,-0.871094,0.100525,0.031067,0.708496,0.697815,down
317620,-0.878906,9.316406,0.257813,-1.304688,0.419922,-0.871094,0.1026,0.025696,0.704163,0.702087,down
317626,-0.878906,8.738281,0.296875,-1.304688,0.419922,-0.871094,0.103882,0.022766,0.701965,0.704163,down
317631,-0.914062,8.507813,0.375,-1.304688,0.419922,-0.871094,0.105286,0.019958,0.700073,0.705994,down
317636,-0.992187,8.46875,0.375,-0.966797,0.298828,-1.197266,0.105286,0.019958,0.700073,0.705994,down
317641,-0.992187,8.394531,0.335938,-0.755859,0.273438,-1.25,0.105286,0.019958,0.700073,0.705994,down
317646,-1.144531,8.390625,0.449219,-0.755859,0.273438,-1.25,0.105286,0.019958,0.700073,0.705994,down
317652,-1.222656,8.390625,0.527344,-0.425781,0.193359,-1.339844,0.105286,0.019958,0.700073,0.705994,down
317657,-1.300781,8.472656,0.605469,-0.283203,0.125,-1.386719,0.105286,0.019958,0.700073,0.705994,down
317662,-1.453125,8.734375,0.605469,-0.189453,0.072266,-1.427734,0.105286,0.019958,0.700073,0.705994,down
317668,-1.605469,8.894531,0.566406,-0.189453,0.072266,-1.427734,0.119141,0.000183,0.693726,0.710327,down
317674,-1.71875,9.007813,0.527344,-0.138672,-0.007813,-1.541016,0.119141,0.000183,0.693726,0.710327,down
317679,-1.796875,9.117188,0.488281,-0.185547,-0.066406,-1.601563,0.127625,-0.008118,0.692688,0.709778,down
317684,-1.910156,9.238281,0.488281,-0.386719,-0.169922,-1.724609,0.127625,-0.008118,0.692688,0.709778,down
317689,-2.027344,9.542969,0.527344,-0.386719,-0.169922,-1.724609,0.130798,-0.010925,0.692017,0.709839,down
317695,-2.101563,9.695313,0.527344,-0.541016,-0.234375,-1.779297,0.138123,-0.016907,0.689697,0.710632,down
317700,-2.140625,9.777344,0.640625,-0.923828,-0.310547,-1.863281,0.141663,-0.019714,0.68811,0.711365,down
317705,-2.292969,9.695313,0.757812,-0.923828,-0.310547,-1.863281,0.145874,-0.023071,0.685852,0.712585,down
317710,-2.332031,9.621094,0.832031,-0.923828,-0.310547,-1.863281,0.14978,-0.026184,0.683472,0.713989,down
317715,-2.410156,9.390625,0.949219,-0.923828,-0.310547,-1.863281,0.153442,-0.029175,0.680969,0.715454,down
317720,-2.449219,9.234375,0.910156,-0.923828,-0.310547,-1.863281,0.153442,-0.029175,0.680969,0.715454,down
317725,-2.449219,9.234375,0.910156,-1.453125,-0.341797,-1.890625,0.156921,-0.032043,0.678406,0.717041,down
317730,-2.488281,9.042969,0.871094,-1.453125,-0.341797,-1.890625,0.160889,-0.035339,0.675354,0.718811,down
317735,-2.601563,8.507813,1.101563,-1.484375,-0.384766,-1.882813,0.164673,-0.038391,0.672424,0.720581,down
317740,-2.640625,8.390625,1.214844,-1.435547,-0.414062,-1.876953,0.168518,-0.041443,0.669495,0.72229,down
317745,-2.640625,8.238281,1.179688,-1.435547,-0.414062,-1.876953,0.176636,-0.047668,0.663513,0.725403,down
317750,-2.753906,8.089844,1.179688,-1.435547,-0.414062,-1.876953,0.176636,-0.047668,0.663513,0.725403,down
317755,-2.792969,8.089844,1.179688,-1.435547,-0.414062,-1.876953,0.184204,-0.053284,0.65863,0.7276,down
317760,-2.871094,8.050781,1.214844,-0.878906,-0.371094,-1.880859,0.184204,-0.053284,0.65863,0.7276,down
317765,-2.945313,8.128906,1.179688,-0.878906,-0.371094,-1.880859,0.192017,-0.059021,0.654541,0.728882,down
317770,-3.136719,8.355469,1.140625,-0.878906,-0.371094,-1.880859,0.196167,-0.062073,0.652649,0.729187,down
317775,-3.253906,8.628906,1.179688,-0.878906,-0.371094,-1.880859,0.199707,-0.064697,0.651245,0.729248,down
317780,-3.445313,8.777344,1.214844,-0.482422,-0.263672,-1.878906,0.203552,-0.067566,0.649841,0.729187,down
317785,-3.558594,8.855469,1.253906,-0.482422,-0.263672,-1.878906,0.203552,-0.067566,0.649841,0.729187,down
317790,-3.675781,9.039063,1.214844,-0.457031,-0.189453,-1.818359,0.203552,-0.067566,0.649841,0.729187,down
317795,-4.019531,9.15625,1.253906,-0.457031,-0.189453,-1.818359,0.214539,-0.076294,0.645874,0.728699,down
317800,-4.019531,9.15625,1.253906,-0.457031,-0.189453,-1.818359,0.217529,-0.078857,0.644653,0.728638,down
317805,-4.132812,8.96875,1.484375,-0.560547,-0.097656,-1.605469,0.217529,-0.078857,0.644653,0.728638,down
317810,-4.171875,8.929688,1.523438,-0.560547,-0.097656,-1.605469,0.220764,-0.081848,0.643188,0.728638,down
317815,-4.210937,8.8125,1.523438,-0.560547,-0.097656,-1.605469,0.226257,-0.08728,0.640259,0.728882,down
317820,-4.171875,8.585938,1.636719,-0.560547,-0.097656,-1.605469,0.226257,-0.08728,0.640259,0.728882,down
317825,-4.171875,8.585938,1.636719,-0.578125,0.035156,-1.333984,0.228516,-0.089783,0.638916,0.729004,down
317830,-4.132812,8.238281,1.675781,-0.578125,0.035156,-1.333984,0.228516,-0.089783,0.638916,0.729004,down
317835,-4.132812,8.011719,1.714844,-0.373047,0.136719,-1.164063,0.228516,-0.089783,0.638916,0.729004,down
317840,-4.09375,7.667969,1.675781,-0.210937,0.160156,-1.085938,0.235718,-0.098816,0.635681,0.728394,down
317846,-4.09375,7.550781,1.753906,-0.210937,0.160156,-1.085938,0.237305,-0.100769,0.635742,0.7276,down
317851,-4.25,7.933594,1.714844,0.457031,0.248047,-0.947266,0.238831,-0.102661,0.636292,0.726318,down
317856,-4.402344,8.128906,1.636719,0.697266,0.283203,-0.9375,0.240234,-0.104309,0.637207,0.724792,down
317861,-4.707031,8.699219,1.371094,0.697266,0.283203,-0.9375,0.241577,-0.105774,0.638489,0.723022,down
317867,-4.9375,9.355469,1.292969,0.697266,0.283203,-0.9375,0.243042,-0.107178,0.640198,0.720825,down
317873,-5.054687,9.621094,1.371094,1.1875,0.230469,-0.966797,0.243042,-0.107178,0.640198,0.720825,down
317878,-5.207031,9.925781,1.371094,1.220703,0.212891,-0.957031,0.243042,-0.107178,0.640198,0.720825,down
317883,-5.320312,10.269531,1.332031,1.220703,0.212891,-0.957031,0.248108,-0.110962,0.64624,0.713074,down
317888,-5.4375,10.425781,1.332031,1.09375,0.150391,-0.941406,0.248108,-0.110962,0.64624,0.713074,down
317893,-5.472656,10.539063,1.253906,0.912109,0.125,-0.933594,0.248108,-0.110962,0.64624,0.713074,down
317899,-5.472656,10.578125,1.214844,0.912109,0.125,-0.933594,0.253174,-0.114502,0.65094,0.706482,down
317905,-5.398437,10.386719,1.292969,0.912109,0.125,-0.933594,0.256348,-0.117126,0.651917,0.703979,down
317910,-5.359375,10.230469,1.332031,-0.136719,0.025391,-0.853516,0.256348,-0.117126,0.651917,0.703979,down
317915,-5.28125,9.847656,1.332031,-0.136719,0.025391,-0.853516,0.257874,-0.118713,0.651611,0.70343,down
317920,-5.207031,9.65625,1.332031,-0.136719,0.025391,-0.853516,0.259277,-0.1203,0.65094,0.703247,down
317925,-5.089844,9.425781,1.371094,-0.677734,-0.001953,-0.818359,0.259277,-0.1203,0.65094,0.703247,down
317930,-5.054687,9.195313,1.410156,-0.677734,-0.001953,-0.818359,0.261841,-0.12384,0.648499,0.703979,down
317935,-5.054687,8.894531,1.410156,-0.677734,-0.001953,-0.818359,0.26416,-0.127319,0.645508,0.7052,down
317940,-5.054687,8.777344,1.371094,-0.753906,-0.011719,-0.830078,0.26416,-0.127319,0.645508,0.7052,down
317945,-5.054687,8.695313,1.445313,-0.753906,-0.011719,-0.830078,0.265503,-0.129333,0.643738,0.705994,down
317950,-5.089844,8.546875,1.445313,-0.683594,-0.009766,-0.855469,0.265503,-0.129333,0.643738,0.705994,down
317955,-5.089844,8.546875,1.445313,-0.683594,-0.009766,-0.855469,0.269287,-0.134521,0.639709,0.707214,down
317960,-5.207031,8.511719,1.332031,-0.683594,-0.009766,-0.855469,0.269287,-0.134521,0.639709,0.707214,down
317965,-5.359375,8.585938,1.371094,-0.283203,-0.019531,-0.910156,0.272461,-0.137878,0.637939,0.70697,down
317970,-5.511719,8.773438,1.445313,-0.283203,-0.019531,-0.910156,0.272461,-0.137878,0.637939,0.70697,down
317975,-5.550781,8.8125,1.445313,-0.283203,-0.019531,-0.910156,0.27594,-0.14093,0.636963,0.705872,down
317980,-5.628906,8.890625,1.332031,-0.283203,-0.019531,-0.910156,0.27594,-0.14093,0.636963,0.705872,down
317985,-5.703125,8.96875,1.371094,0.023437,-0.042969,-0.972656,0.279358,-0.143799,0.636292,0.70459,down
317990,-5.742187,9.199219,1.523438,0.023437,-0.042969,-0.972656,0.279358,-0.143799,0.636292,0.70459,down
317995,-5.742187,9.195313,1.5625,-0.091797,-0.076172,-0.958984,0.281128,-0.145264,0.635864,0.703918,down
318000,-5.742187,9.277344,1.601563,-0.091797,-0.076172,-0.958984,0.283142,-0.146851,0.635315,0.703308,down
318006,-5.703125,9.15625,1.675781,-0.091797,-0.076172,-0.958984,0.286438,-0.149902,0.633789,0.702698,down
318012,-5.703125,9.007813,1.753906,-0.091797,-0.076172,-0.958984,0.287781,-0.151367,0.632874,0.702698,down
318017,-5.742187,8.933594,1.753906,-0.574219,-0.050781,-0.857422,0.289246,-0.153076,0.631531,0.702881,down
318022,-5.742187,8.933594,1.753906,-0.677734,-0.041016,-0.828125,0.290527,-0.154785,0.630066,0.703308,down
318027,-5.78125,8.660156,1.714844,-0.677734,-0.041016,-0.828125,0.290527,-0.154785,0.630066,0.703308,down
318032,-5.78125,8.660156,1.714844,-0.791016,-0.035156,-0.769531,0.290527,-0.154785,0.630066,0.703308,down
318038,-5.703125,8.316406,1.90625,-0.791016,-0.035156,-0.769531,0.293945,-0.159973,0.625061,0.7052,down
318043,-5.703125,8.203125,1.945313,-0.802734,-0.048828,-0.726562,0.293945,-0.159973,0.625061,0.7052,down
318048,-5.78125,8.007813,1.945313,-0.802734,-0.048828,-0.726562,0.293945,-0.159973,0.625061,0.7052,down
318054,-5.742187,7.933594,1.984375,-0.802734,-0.048828,-0.726562,0.296997,-0.164856,0.619934,0.707336,down
318060,-5.703125,7.820312,1.945313,-0.638672,-0.052734,-0.662109,0.296997,-0.164856,0.619934,0.707336,down
318066,-5.78125,7.851562,1.984375,-0.564453,-0.060547,-0.650391,0.299927,-0.168945,0.615784,0.70874,down
318071,-5.820312,7.855469,2.019531,-0.4375,-0.068359,-0.617187,0.301086,-0.170288,0.614502,0.709045,down
318077,-5.859375,7.96875,2.019531,-0.4375,-0.068359,-0.617187,0.302063,-0.171387,0.613525,0.709229,down
318082,-5.894531,8.007813,2.136719,-0.4375,-0.068359,-0.617187,0.302979,-0.172302,0.61261,0.709412,down
318088,-5.933594,8.007813,2.097656,-0.310547,-0.119141,-0.541016,0.302979,-0.172302,0.61261,0.709412,down
318094,-5.972656,7.972656,2.175781,-0.324219,-0.113281,-0.507812,0.304993,-0.174011,0.610779,0.709656,down
318100,-5.933594,7.933594,2.175781,-0.324219,-0.113281,-0.507812,0.306702,-0.175598,0.609009,0.710083,down
318105,-5.972656,7.894531,2.136719,-0.324219,-0.113281,-0.507812,0.306702,-0.175598,0.609009,0.710083,down
318110,-5.972656,7.851562,2.136719,-0.378906,-0.121094,-0.410156,0.308228,-0.176941,0.607117,0.710693,down
318115,-6.011719,7.785156,2.175781,-0.378906,-0.121094,-0.410156,0.308228,-0.176941,0.607117,0.710693,down
318120,-5.972656,7.742187,2.136719,-0.378906,-0.121094,-0.410156,0.309448,-0.178284,0.605103,0.711548,down
318125,-5.972656,7.746094,2.175781,-0.378906,-0.121094,-0.410156,0.309448,-0.178284,0.605103,0.711548,down
318130,-5.972656,7.667969,2.210938,-0.417969,-0.097656,-0.279297,0.310364,-0.179382,0.60321,0.712463,down
318135,-5.972656,7.589844,2.25,-0.417969,-0.097656,-0.279297,0.310364,-0.179382,0.60321,0.712463,down
318140,-6.011719,7.589844,2.175781,-0.417969,-0.097656,-0.279297,0.31073,-0.179871,0.602356,0.712891,down
318146,-6.011719,7.546875,2.175781,-0.339844,-0.076172,-0.207031,0.311462,-0.180847,0.600708,0.713745,down
318151,-6.050781,7.550781,2.175781,-0.339844,-0.076172,-0.207031,0.311768,-0.181152,0.600098,0.71405,down
318156,-6.050781,7.550781,2.210938,-0.339844,-0.076172,-0.207031,0.312012,-0.181396,0.599609,0.714294,down
318161,-6.050781,7.550781,2.25,-0.150391,-0.074219,-0.142578,0.312317,-0.181641,0.599182,0.714478,down
318166,-6.050781,7.507812,2.25,-0.150391,-0.074219,-0.142578,0.312622,-0.181824,0.598816,0.7146,down
318171,-6.050781,7.507812,2.210938,-0.150391,-0.074219,-0.142578,0.312866,-0.181946,0.598511,0.714661,down
318177,-6.125,7.550781,2.210938,-0.150391,-0.074219,-0.142578,0.313171,-0.182068,0.598267,0.714783,down
318182,-6.125,7.550781,2.175781,-0.058594,-0.060547,-0.083984,0.313354,-0.182129,0.598083,0.714783,down
318187,-6.125,7.550781,2.210938,-0.058594,-0.056641,-0.070312,0.313354,-0.182129,0.598083,0.714783,down
318193,-6.125,7.585937,2.25,-0.058594,-0.056641,-0.070312,0.313354,-0.182129,0.598083,0.714783,down
318198,-6.125,7.507812,2.25,-0.066406,-0.044922,-0.048828,0.313354,-0.182129,0.598083,0.714783,down
318204,-6.085937,7.46875,2.25,-0.085937,-0.035156,-0.035156,0.313354,-0.182129,0.598083,0.714783,down
318210,-6.085937,7.46875,2.289063,-0.085937,-0.035156,-0.035156,0.314087,-0.182434,0.596924,0.715332,down
318215,-6.050781,7.441406,2.289063,-0.085937,-0.035156,-0.035156,0.314087,-0.182434,0.596924,0.715332,down
318220,-6.085937,7.398437,2.210938,-0.113281,-0.015625,0.007813,0.314087,-0.182434,0.596924,0.715332,down
318225,-6.050781,7.324219,2.25,-0.113281,-0.015625,0.007813,0.314087,-0.182495,0.596497,0.715698,down
318230,-6.085937,7.324219,2.289063,-0.113281,-0.015625,0.007813,0.314026,-0.182495,0.596313,0.715881,down
318235,-6.050781,7.324219,2.289063,-0.113281,-0.015625,0.007813,0.313965,-0.182495,0.59613,0.716064,down
318240,-6.085937,7.324219,2.289063,-0.113281,-0.015625,0.007813,0.313904,-0.182495,0.595947,0.716248,down
318246,-6.050781,7.324219,2.289063,-0.058594,-0.023437,0.041016,0.313782,-0.182373,0.595764,0.716492,down
318251,-6.050781,7.28125,2.289063,-0.015625,-0.021484,0.058594,0.313782,-0.182373,0.595764,0.716492,down
318256,-6.011719,7.285156,2.328125,0.005859,-0.023437,0.060547,0.313721,-0.18219,0.595764,0.716553,down
318261,-6.050781,7.242187,2.289063,0.005859,-0.023437,0.060547,0.313599,-0.181885,0.595764,0.716675,down
318266,-6.050781,7.242187,2.289063,0.005859,-0.023437,0.060547,0.313538,-0.181702,0.595825,0.716675,down
318271,-6.085937,7.28125,2.328125,0.041016,-0.03125,0.082031,0.313538,-0.181702,0.595825,0.716675,down
318276,-6.125,7.324219,2.289063,0.041016,-0.03125,0.082031,0.313477,-0.181458,0.595947,0.716736,down
318281,-6.085937,7.324219,2.289063,0.041016,-0.03125,0.082031,0.313293,-0.18103,0.59613,0.716736,down
318286,-6.085937,7.28125,2.328125,0.041016,-0.03125,0.082031,0.313293,-0.18103,0.59613,0.716736,down
318291,-6.050781,7.28125,2.328125,0.044922,-0.03125,0.099609,0.31311,-0.180481,0.596313,0.716797,down
318296,-6.050781,7.28125,2.289063,0.044922,-0.03125,0.099609,0.312988,-0.180176,0.596375,0.716858,down
318301,-6.050781,7.242187,2.328125,0.044922,-0.03125,0.099609,0.312866,-0.179932,0.596436,0.716919,down
318306,-6.011719,7.246094,2.328125,0.015625,-0.035156,0.121094,0.312866,-0.179932,0.596436,0.716919,down
318311,-6.011719,7.246094,2.367188,0.013672,-0.037109,0.130859,0.312744,-0.179626,0.596497,0.717041,down
318316,-5.972656,7.167969,2.328125,0.013672,-0.037109,0.130859,0.312439,-0.179077,0.596558,0.717224,down
318321,-6.011719,7.167969,2.328125,0.013672,-0.037109,0.130859,0.312317,-0.178833,0.596619,0.717285,down
318326,-5.972656,7.167969,2.25,0.013672,-0.037109,0.130859,0.312317,-0.178833,0.596619,0.717285,down
318331,-5.972656,7.167969,2.328125,0.021484,-0.041016,0.130859,0.312012,-0.178223,0.596741,0.717468,down
318336,-5.933594,7.125,2.328125,0.021484,-0.041016,0.130859,0.311829,-0.177856,0.596863,0.717529,down
318341,-5.894531,7.125,2.328125,0.0625,-0.037109,0.140625,0.311829,-0.177856,0.596863,0.717529,down
318346,-5.894531,7.125,2.289063,0.082031,-0.041016,0.144531,0.311707,-0.177551,0.596985,0.717529,down
318352,-5.859375,7.125,2.289063,0.082031,-0.041016,0.144531,0.311401,-0.176819,0.597412,0.717529,down
318357,-5.859375,7.164062,2.289063,0.082031,-0.041016,0.144531,0.311279,-0.176392,0.597656,0.717529,down
318362,-5.859375,7.164062,2.289063,0.119141,-0.019531,0.144531,0.311157,-0.176086,0.597839,0.717468,down
318367,-5.859375,7.164062,2.289063,0.126953,-0.017578,0.146484,0.310974,-0.17572,0.598145,0.717407,down
318373,-5.859375,7.164062,2.25,0.126953,-0.017578,0.146484,0.310791,-0.175354,0.598389,0.717346,down
318378,-5.859375,7.203125,2.25,0.134766,-0.007813,0.138672,0.310791,-0.175354,0.598389,0.717346,down
318383,-5.820312,7.207031,2.289063,0.144531,-0.007813,0.136719,0.310486,-0.174683,0.598999,0.717102,down
318389,-5.820312,7.207031,2.289063,0.144531,-0.007813,0.136719,0.310303,-0.174316,0.599365,0.71698,down
318394,-5.820312,7.246094,2.289063,0.140625,-0.009766,0.126953,0.310303,-0.174316,0.599365,0.71698,down
318399,-5.820312,7.207031,2.289063,0.132812,-0.001953,0.111328,0.310303,-0.174316,0.599365,0.71698,down
318404,-5.820312,7.167969,2.289063,0.119141,0.0,0.113281,0.310303,-0.174316,0.599365,0.71698,down
318409,-5.820312,7.167969,2.289063,0.119141,0.0,0.113281,0.310303,-0.174316,0.599365,0.71698,down
318415,-5.820312,7.167969,2.289063,0.119141,0.0,0.113281,0.309692,-0.172791,0.600708,0.716492,down
318421,-5.820312,7.167969,2.289063,0.085937,0.0,0.074219,0.309692,-0.172791,0.600708,0.716492,down
318426,-5.859375,7.164062,2.289063,0.085937,0.0,0.074219,0.309387,-0.172119,0.601318,0.716248,down
318431,-5.894531,7.203125,2.210938,0.074219,-0.013672,0.058594,0.309387,-0.172119,0.601318,0.716248,down
318436,-5.894531,7.203125,2.25,0.074219,-0.013672,0.058594,0.309387,-0.171936,0.601501,0.716187,down
318441,-5.859375,7.242187,2.25,0.052734,0.0,0.048828,0.309265,-0.171692,0.601746,0.716064,down
318446,-5.894531,7.28125,2.25,0.052734,0.0,0.048828,0.309204,-0.17157,0.601868,0.716064,down
318451,-5.933594,7.28125,2.25,0.052734,0.0,0.048828,0.309204,-0.17157,0.601868,0.716064,down
318457,-5.894531,7.242187,2.210938,0.035156,0.011719,0.054687,0.309204,-0.17157,0.601868,0.716064,down
318463,-5.894531,7.285156,2.136719,0.035156,0.011719,0.054687,0.308899,-0.171265,0.602234,0.715942,down
318468,-5.820312,7.203125,2.097656,0.0625,0.074219,0.113281,0.308899,-0.171265,0.602234,0.715942,down
318474,-5.820312,7.167969,2.175781,0.095703,0.089844,0.136719,0.308899,-0.171265,0.602234,0.715942,down
318479,-5.78125,7.246094,2.136719,0.128906,0.115234,0.179687,0.308899,-0.171265,0.602234,0.715942,down
318484,-5.78125,7.285156,2.097656,0.191406,0.142578,0.226562,0.307495,-0.170654,0.603516,0.715637,down
318490,-5.820312,7.363281,2.058594,0.275391,0.169922,0.279297,0.307495,-0.170654,0.603516,0.715637,down
318496,-5.820312,7.550781,2.097656,0.335938,0.189453,0.324219,0.307495,-0.170654,0.603516,0.715637,down
318501,-5.859375,7.625,2.058594,0.335938,0.189453,0.324219,0.304688,-0.168823,0.607117,0.714172,down
318506,-5.859375,7.664062,2.058594,0.335938,0.189453,0.324219,0.304688,-0.168823,0.607117,0.714172,down
318511,-5.933594,7.824219,2.019531,0.613281,0.240234,0.507812,0.302673,-0.167114,0.610107,0.712891,down
318516,-5.933594,8.007813,1.945313,0.613281,0.240234,0.507812,0.302673,-0.167114,0.610107,0.712891,down
318521,-5.972656,8.085938,2.019531,0.613281,0.240234,0.507812,0.301514,-0.166077,0.611816,0.712158,down
318526,-6.011719,8.085938,1.984375,0.822266,0.230469,0.726562,0.298889,-0.16333,0.615784,0.71051,down
318531,-5.933594,8.394531,2.097656,0.822266,0.230469,0.726562,0.298889,-0.16333,0.615784,0.71051,down
318537,-5.894531,8.394531,2.097656,0.910156,0.199219,0.871094,0.295898,-0.159851,0.620117,0.708801,down
318542,-5.859375,8.390625,2.058594,0.935547,0.166016,1.025391,0.295898,-0.159851,0.620117,0.708801,down
318547,-5.78125,8.355469,2.019531,0.9375,0.142578,1.097656,0.29425,-0.157959,0.622253,0.708008,down
318552,-5.628906,8.238281,2.058594,0.9375,0.142578,1.097656,0.290771,-0.153687,0.626587,0.706543,down
318557,-5.511719,8.164063,1.984375,0.935547,0.113281,1.251953,0.290771,-0.153687,0.626587,0.706543,down
318562,-5.398437,8.125,1.945313,0.935547,0.113281,1.251953,0.286804,-0.148804,0.630981,0.705322,down
318567,-5.398437,8.125,1.945313,0.96875,0.123047,1.365234,0.284607,-0.14624,0.633179,0.704712,down
318572,-5.089844,7.851562,1.714844,0.96875,0.123047,1.365234,0.284607,-0.14624,0.633179,0.704712,down
318577,-5.089844,7.851562,1.714844,0.96875,0.123047,1.365234,0.284607,-0.14624,0.633179,0.704712,down
318582,-4.863281,7.703125,1.601563,1.111328,0.142578,1.496094,0.284607,-0.14624,0.633179,0.704712,down
318587,-4.59375,7.589844,1.523438,1.111328,0.142578,1.496094,0.275146,-0.134888,0.643066,0.701843,down
318592,-4.515625,7.550781,1.484375,1.111328,0.142578,1.496094,0.272278,-0.131409,0.64624,0.700684,down
318597,-4.402344,7.46875,1.410156,1.392578,0.191406,1.568359,0.272278,-0.131409,0.64624,0.700684,down
318602,-4.285156,7.441406,1.332031,1.392578,0.191406,1.568359,0.267273,-0.125244,0.652161,0.698242,down
318608,-3.941406,7.363281,1.101563,1.392578,0.191406,1.568359,0.264771,-0.122131,0.655396,0.696716,down
318613,-3.902344,7.324219,1.0625,1.744141,0.240234,1.570313,0.264771,-0.122131,0.655396,0.696716,down
318618,-3.828125,7.359375,0.988281,1.826172,0.259766,1.554688,0.264771,-0.122131,0.655396,0.696716,down
318623,-3.789063,7.402344,0.949219,1.886719,0.287109,1.521484,0.264771,-0.122131,0.655396,0.696716,down
318628,-3.789063,7.46875,0.832031,1.886719,0.287109,1.521484,0.254517,-0.108948,0.670349,0.688477,down
318634,-3.675781,7.585937,0.71875,1.886719,0.287109,1.521484,0.251892,-0.105713,0.674438,0.685913,down
318640,-3.675781,7.707031,0.640625,1.982422,0.376953,1.386719,0.251892,-0.105713,0.674438,0.685913,down
318645,-3.636719,7.972656,0.488281,1.982422,0.376953,1.386719,0.247009,-0.099854,0.682251,0.680847,down
318650,-3.675781,8.050781,0.449219,1.931641,0.431641,1.251953,0.247009,-0.099854,0.682251,0.680847,down
318655,-3.636719,8.203125,0.414062,1.882813,0.445312,1.185547,0.247009,-0.099854,0.682251,0.680847,down
318660,-3.636719,8.277344,0.375,1.882813,0.445312,1.185547,0.239807,-0.092163,0.693787,0.672791,down
318666,-3.636719,8.585938,0.335938,1.648438,0.484375,0.917969,0.239807,-0.092163,0.693787,0.672791,down
318671,-3.710938,8.851563,0.296875,1.648438,0.484375,0.917969,0.235657,-0.088196,0.700562,0.667725,down
318676,-3.980469,9.273438,0.222656,1.537109,0.490234,0.804687,0.235657,-0.088196,0.700562,0.667725,down
318681,-4.132812,9.390625,0.144531,1.537109,0.490234,0.804687,0.231934,-0.085144,0.706604,0.663086,down
318686,-4.132812,9.390625,0.144531,1.537109,0.490234,0.804687,0.230286,-0.084045,0.709351,0.660828,down
318691,-4.210937,9.355469,0.027344,1.105469,0.441406,0.3125,0.229126,-0.083374,0.711548,0.658997,down
318697,-4.210937,9.355469,0.027344,0.951172,0.382813,0.074219,0.228271,-0.08313,0.713501,0.657227,down
318702,-4.441406,9.777344,0.144531,0.951172,0.382813,0.074219,0.227966,-0.083313,0.715088,0.655518,down
318708,-4.667969,10.265625,0.105469,0.626953,0.332031,-0.501953,0.228821,-0.085693,0.717468,0.652344,down
318713,-5.128906,10.921875,-0.199219,0.626953,0.332031,-0.501953,0.229858,-0.087646,0.717896,0.651245,down
318718,-5.359375,11.34375,-0.355469,0.626953,0.332031,-0.501953,0.231689,-0.090637,0.717834,0.650208,down
318723,-6.050781,12.453125,-0.851562,0.626953,0.332031,-0.501953,0.234253,-0.094604,0.717224,0.649475,down
318728,-6.355469,13.105469,-1.003906,-0.806641,0.240234,-2.683594,0.234253,-0.094604,0.717224,0.649475,down
318733,-6.699219,13.566406,-1.121094,-0.806641,0.240234,-2.683594,0.241699,-0.106018,0.71344,0.64917,down
318739,-7.3125,14.023438,-1.617188,-0.806641,0.240234,-2.683594,0.246338,-0.113403,0.710022,0.649902,down
318744,-7.773437,13.984375,-1.886719,-2.662109,0.359375,-4.082031,0.246338,-0.113403,0.710022,0.649902,down
318750,-8.117188,14.367188,-2.308594,-3.394531,0.421875,-4.46875,0.246338,-0.113403,0.710022,0.649902,down
318755,-8.425781,14.183594,-2.191406,-4.123047,0.455078,-4.796875,0.246338,-0.113403,0.710022,0.649902,down
318760,-8.460938,13.949219,-2.0,-4.820312,0.464844,-5.064453,0.246338,-0.113403,0.710022,0.649902,down
318766,-8.730469,13.601563,-1.617188,-5.505859,0.46875,-5.265625,0.246338,-0.113403,0.710022,0.649902,down
318772,-9.035156,13.375,-1.695313,-6.070312,0.595703,-5.439453,0.284546,-0.197266,0.647888,0.678528,down
318777,-9.382813,12.757813,-1.886719,-6.070312,0.595703,-5.439453,0.284546,-0.197266,0.647888,0.678528,down
318782,-9.574219,11.953125,-1.925781,-7.255859,1.021484,-5.726562,0.284546,-0.197266,0.647888,0.678528,down
318787,-9.574219,11.953125,-1.925781,-7.255859,1.021484,-5.726562,0.29364,-0.228271,0.619629,0.691162,down
318792,-10.070313,10.226563,-0.890625,-7.255859,1.021484,-5.726562,0.29364,-0.228271,0.619629,0.691162,down
318797,-10.335938,9.425781,-0.085937,-7.375,1.101563,-5.738281,0.29364,-0.228271,0.619629,0.691162,down
318802,-11.300781,8.433594,1.023438,-7.111328,1.226563,-5.755859,0.308716,-0.292175,0.556946,0.713562,down
318807,-11.757813,8.277344,1.179688,-7.111328,1.226563,-5.755859,0.312317,-0.30719,0.542236,0.71698,down
318812,-12.40625,7.628906,1.792969,-7.111328,1.226563,-5.755859,0.316528,-0.323059,0.526672,0.719788,down
318817,-12.714844,7.4375,2.210938,-5.253906,1.119141,-5.378906,0.316528,-0.323059,0.526672,0.719788,down
318822,-13.019531,7.246094,2.597656,-4.753906,1.027344,-5.074219,0.320374,-0.33667,0.513184,0.721558,down
318827,-13.476563,7.050781,3.285156,-4.251953,0.902344,-4.699219,0.323975,-0.348572,0.501221,0.722717,down
318832,-13.597656,7.050781,3.515625,-4.251953,0.902344,-4.699219,0.328003,-0.361145,0.488403,0.723511,down
318837,-13.636719,7.015625,3.554688,-4.251953,0.902344,-4.699219,0.334473,-0.379761,0.468628,0.724121,down
318842,-13.597656,7.167969,3.667969,-4.251953,0.902344,-4.699219,0.337036,-0.386414,0.461182,0.724182,down
318847,-13.597656,7.167969,3.667969,-4.251953,0.902344,-4.699219,0.337036,-0.386414,0.461182,0.724182,down
318852,-13.785156,7.4375,4.050781,-2.023438,0.144531,-2.324219,0.339355,-0.391846,0.454651,0.724304,down
318857,-13.785156,7.4375,4.050781,-0.779297,-0.355469,-0.53125,0.341125,-0.395569,0.449585,0.724609,down
318863,-13.210938,7.128906,4.359375,-0.779297,-0.355469,-0.53125,0.342224,-0.396729,0.44519,0.726135,down
318869,-12.289063,7.015625,4.089844,-0.779297,-0.355469,-0.53125,0.341248,-0.393982,0.445679,0.727844,down
318874,-11.761719,6.824219,4.011719,0.818359,-1.076172,2.539063,0.341248,-0.393982,0.445679,0.727844,down
318880,-10.496094,6.554687,3.4375,0.818359,-1.076172,2.539063,0.335938,-0.382935,0.451843,0.732361,down
318886,-9.804688,6.210937,3.132813,1.748047,-1.386719,4.533203,0.335938,-0.382935,0.451843,0.732361,down
318892,-9.113281,5.941406,2.75,2.404297,-1.496094,6.253906,0.335938,-0.382935,0.451843,0.732361,down
318897,-7.925781,5.40625,2.058594,2.404297,-1.496094,6.253906,0.310547,-0.340881,0.48175,0.745178,down
318902,-7.394531,5.175781,1.5625,2.404297,-1.496094,6.253906,0.310547,-0.340881,0.48175,0.745178,down
318907,-6.96875,4.753906,1.179688,2.808594,-1.388672,7.650391,0.289917,-0.312622,0.502686,0.752014,down
318912,-6.085937,4.140625,0.527344,2.808594,-1.388672,7.650391,0.289917,-0.312622,0.502686,0.752014,down
318917,-5.742187,3.949219,0.144531,2.939453,-1.101563,8.755859,0.263184,-0.280701,0.526062,0.758423,down
318922,-5.402344,3.757813,-0.164062,2.939453,-1.101563,8.755859,0.263184,-0.280701,0.526062,0.758423,down
318927,-5.402344,3.757813,-0.164062,2.955078,-0.753906,9.59375,0.248657,-0.264893,0.537415,0.761047,down
318932,-4.136719,2.609375,-0.316406,2.933594,-0.583984,9.945313,0.233643,-0.249329,0.548401,0.763245,down
318937,-4.136719,2.609375,-0.316406,2.927734,-0.337891,10.216797,0.21698,-0.232971,0.559692,0.765076,down
318943,-3.636719,2.148438,-0.199219,2.927734,-0.337891,10.216797,0.179932,-0.199707,0.582336,0.767212,down
318949,-3.0625,1.34375,-0.085937,2.927734,-0.337891,10.216797,0.160156,-0.183472,0.593262,0.767273,down
318954,-2.5625,0.117188,0.414062,2.927734,-0.337891,10.216797,0.139526,-0.167297,0.604004,0.766663,down
318961,-2.410156,-0.417969,0.71875,3.142578,1.070313,11.302734,0.139526,-0.167297,0.604004,0.766663,down
318966,-2.410156,-0.417969,0.71875,3.287109,1.28125,11.404297,0.095215,-0.134521,0.625305,0.762756,down
318971,-1.945313,-1.757813,1.179688,3.287109,1.28125,11.404297,0.095215,-0.134521,0.625305,0.762756,down
318976,-1.605469,-2.445313,1.371094,3.482422,1.482422,11.455078,0.048889,-0.102295,0.645996,0.754883,down
318982,-0.992187,-3.480469,2.058594,4.376953,2.158203,11.400391,0.048889,-0.102295,0.645996,0.754883,down
318987,-0.722656,-3.753906,2.480469,4.376953,2.158203,11.400391,0.022461,0.056519,-0.676575,-0.733887,down
318992,-0.6875,-3.753906,2.480469,4.376953,2.158203,11.400391,0.022461,0.056519,-0.676575,-0.733887,down
318997,-0.722656,-3.675781,2.402344,5.578125,3.072266,11.107422,0.022461,0.056519,-0.676575,-0.733887,down
319002,-0.800781,-3.515625,2.367188,5.578125,3.072266,11.107422,0.071167,0.029236,-0.69696,-0.713013,down
319007,-0.839844,-3.210938,2.328125,5.908203,3.341797,10.9375,0.071167,0.029236,-0.69696,-0.713013,down
319012,-1.070313,-2.410156,2.441406,6.261719,3.574219,10.759766,0.120728,0.004883,-0.716919,-0.686584,down
319017,-1.070313,-2.410156,2.441406,6.650391,3.767578,10.552734,0.145996,-0.006287,-0.726868,-0.671021,down
319022,-1.300781,-2.027344,2.519531,6.650391,3.767578,10.552734,0.170288,-0.016113,-0.736267,-0.654724,down
319027,-2.066406,-1.105469,3.019531,7.269531,4.136719,10.011719,0.170288,-0.016113,-0.736267,-0.654724,down
319033,-2.371094,-0.914062,3.476563,7.519531,4.224609,9.716797,0.244934,-0.041809,-0.763489,-0.596069,down
319038,-2.945313,-0.992187,4.472656,7.519531,4.224609,9.716797,0.266296,-0.048035,-0.770569,-0.577087,down
319043,-3.097656,-0.875,4.746094,7.519531,4.224609,9.716797,0.286011,-0.053345,-0.776672,-0.558655,down
319048,-3.097656,-0.875,4.746094,7.519531,4.224609,9.716797,0.286011,-0.053345,-0.776672,-0.558655,down
319053,-3.289063,-0.800781,4.96875,7.332031,4.041016,8.193359,0.286011,-0.053345,-0.776672,-0.558655,down
319058,-3.636719,-0.378906,6.421875,7.105469,3.728516,7.759766,0.326111,-0.063599,-0.787903,-0.518494,down
319063,-3.828125,-0.492187,6.804687,6.777344,3.365234,7.328125,0.343628,-0.068176,-0.79248,-0.499268,down
319069,-4.402344,-0.761719,7.117187,6.777344,3.365234,7.328125,0.374329,-0.077148,-0.800232,-0.462097,down
319074,-4.59375,-0.722656,7.1875,5.742187,1.865234,6.015625,0.374329,-0.077148,-0.800232,-0.462097,down
319080,-4.824219,-0.839844,7.421875,5.742187,1.865234,6.015625,0.374329,-0.077148,-0.800232,-0.462097,down
319086,-4.9375,-0.953125,7.464844,5.023437,0.427734,5.125,0.374329,-0.077148,-0.800232,-0.462097,down
319091,-5.207031,-1.144531,7.265625,4.638672,-0.333984,4.664062,0.374329,-0.077148,-0.800232,-0.462097,down
319097,-5.859375,-1.414063,6.808594,4.267578,-1.140625,4.175781,0.417419,-0.106567,-0.822693,-0.370972,down
319102,-6.125,-2.257813,6.539062,4.267578,-1.140625,4.175781,0.417419,-0.106567,-0.822693,-0.370972,down
319107,-6.125,-2.257813,6.539062,3.4375,-2.878906,3.064453,0.416443,-0.112,-0.827637,-0.359192,down
319112,-6.242187,-2.945313,5.890625,3.060547,-3.78125,2.408203,0.416443,-0.112,-0.827637,-0.359192,down
319117,-6.242187,-2.945313,5.890625,2.822266,-4.732422,1.615234,0.406677,-0.122009,-0.839355,-0.339417,down
319122,-6.046875,-3.828125,4.167969,2.822266,-4.732422,1.615234,0.3974,-0.12616,-0.84668,-0.330627,down
319128,-6.699219,-3.558594,2.902344,2.822266,-4.732422,1.615234,0.370239,-0.13092,-0.863708,-0.315918,down
319133,-8.15625,-2.675781,1.945313,2.822266,-4.732422,1.615234,0.350342,-0.131409,-0.874207,-0.309387,down
319138,-9.003906,-1.414063,1.292969,1.753906,-9.5625,-3.402344,0.350342,-0.131409,-0.874207,-0.309387,down
319143,-9.917969,0.117188,0.488281,1.753906,-9.5625,-3.402344,0.304504,-0.128113,-0.89447,-0.30127,down
319148,-11.761719,3.796875,-1.542969,1.753906,-9.5625,-3.402344,0.278259,-0.124695,-0.903931,-0.299866,down
319153,-12.984375,5.519531,-2.347656,-0.605469,-12.949219,-6.980469,0.278259,-0.124695,-0.903931,-0.299866,down
319158,-13.78125,6.824219,-3.953125,-2.001953,-13.962891,-8.371094,0.242187,-0.11908,-0.914795,-0.300537,down
319163,-15.167969,8.738281,-6.136719,-2.001953,-13.962891,-8.371094,0.166077,-0.104126,-0.930176,-0.310425,down
319168,-17.734375,16.015625,-12.0,-2.001953,-13.962891,-8.371094,0.166077,-0.104126,-0.930176,-0.310425,down
319173,-18.804687,19.386719,-15.332031,-5.345703,-15.861328,-11.138672,0.123108,-0.094055,-0.93457,-0.320313,down
319178,-18.804687,19.386719,-15.332031,-5.345703,-15.861328,-11.138672,0.123108,-0.094055,-0.93457,-0.320313,down
319183,-19.304687,22.984375,-18.972656,-9.603516,-17.21875,-14.330078,0.123108,-0.094055,-0.93457,-0.320313,down
319188,-18.84375,32.796875,-26.59375,-11.939453,-17.777344,-15.976563,0.095276,0.021851,0.910522,0.401733,down
319193,-17.847656,33.945312,-27.320312,-11.939453,-17.777344,-15.976563,0.095276,0.021851,0.910522,0.401733,down
319198,-17.003906,31.339844,-26.785156,-16.421875,-18.339844,-19.496094,0.218079,-0.038757,0.859924,0.459839,down
319203,-16.851562,25.742187,-25.101562,-19.734375,-15.900391,-22.554687,0.275757,-0.076416,0.82428,0.488525,down
319208,-16.546875,22.453125,-22.726562,-19.734375,-15.900391,-22.554687,0.328979,-0.118103,0.783508,0.513794,down
319213,-22.597656,15.976563,-17.246094,-17.755859,-12.046875,-23.474609,0.328979,-0.118103,0.783508,0.513794,down
319218,-27.542969,15.671875,-13.839844,-14.830078,-10.710938,-22.787109,0.38208,-0.165955,0.735352,0.534546,down
319223,-33.980469,23.449219,-8.628906,-14.830078,-10.710938,-22.787109,0.461731,-0.241882,0.65387,0.548462,down
319228,-34.46875,28.082031,-8.320313,-14.830078,-10.710938,-22.787109,0.461731,-0.241882,0.65387,0.548462,down
319233,-33.320312,30.113281,-7.824219,-8.095703,-9.082031,-18.681641,0.532166,-0.297241,0.580017,0.540344,down
319238,-26.238281,25.09375,-6.214844,-8.095703,-9.082031,-18.681641,0.532166,-0.297241,0.580017,0.540344,down
319243,-20.5625,17.777344,-5.449219,-8.095703,-9.082031,-18.681641,0.580627,-0.316162,0.53186,0.529175,down
319248,-17.042969,10.460938,-3.953125,-8.095703,-9.082031,-18.681641,0.596497,-0.314331,0.519897,0.524475,down
319253,-15.359375,6.058594,-2.652344,5.441406,-2.447266,-1.191406,0.596497,-0.314331,0.519897,0.524475,down
319258,-13.214844,3.988281,-5.371094,5.441406,-2.447266,-1.191406,0.615479,-0.294922,0.524353,0.509216,down
319263,-13.753906,7.320312,-9.28125,5.441406,-2.447266,-1.191406,0.619507,-0.279175,0.541138,0.495483,down
319268,-15.089844,10.652344,-9.433594,5.441406,-2.447266,-1.191406,0.619507,-0.279175,0.541138,0.495483,down
319273,-16.390625,13.488281,-6.445312,12.523438,3.378906,2.160156,0.621216,-0.243347,0.583679,0.46283,down
319278,-20.378906,17.855469,-1.808594,12.523438,3.378906,2.160156,0.618835,-0.227905,0.604797,0.446472,down
319283,-21.828125,17.546875,-1.578125,12.523438,3.378906,2.160156,0.615356,-0.214355,0.625122,0.429626,down
319288,-21.605469,16.476562,-1.234375,12.523438,3.378906,2.160156,0.615356,-0.214355,0.625122,0.429626,down
319293,-17.121094,13.296875,3.324219,7.748047,3.164063,0.707031,0.615356,-0.214355,0.625122,0.429626,down
319298,-14.902344,11.648438,6.195312,7.748047,3.164063,0.707031,0.612244,-0.188538,0.657837,0.396118,down
319303,-12.828125,10.269531,6.65625,7.748047,3.164063,0.707031,0.612793,-0.186157,0.660278,0.392334,down
319308,-11.257813,8.585938,4.089844,7.748047,3.164063,0.707031,0.612793,-0.186157,0.660278,0.392334,down
319313,-8.648438,4.984375,0.640625,-0.927734,-0.230469,-0.261719,0.612793,-0.186157,0.660278,0.392334,down
319318,-7.355469,4.332031,0.910156,-2.876953,-1.761719,0.160156,0.613647,-0.188416,0.657715,0.394165,down
319324,-7.355469,4.332031,0.910156,-3.285156,-1.753906,0.265625,0.616089,-0.193542,0.647095,0.405334,down
319329,-5.015625,1.917969,0.832031,-3.285156,-1.753906,0.265625,0.61676,-0.197021,0.640625,0.412781,down
319336,-4.285156,0.695312,1.601563,-3.285156,-1.753906,0.265625,0.616516,-0.200989,0.634888,0.420044,down
319341,-4.4375,0.695312,1.714844,-5.128906,-0.71875,0.689453,0.616516,-0.200989,0.634888,0.420044,down
319346,-4.859375,0.730469,1.140625,-4.980469,0.007813,0.789062,0.616516,-0.200989,0.634888,0.420044,down
319352,-6.589844,1.230469,-0.007813,-4.980469,0.007813,0.789062,0.616516,-0.200989,0.634888,0.420044,down
319358,-7.199219,1.691406,-0.507812,-1.017578,1.138672,0.726562,0.616516,-0.200989,0.634888,0.420044,down
319363,-7.777344,2.300781,-0.699219,-1.017578,1.138672,0.726562,0.598206,-0.227234,0.617737,0.457031,down
319368,-8.042969,2.878906,-0.355469,-1.017578,1.138672,0.726562,0.596497,-0.225891,0.621094,0.455383,down
319373,-8.265625,3.566406,1.140625,-1.017578,1.138672,0.726562,0.596497,-0.225891,0.621094,0.455383,down
319378,-8.503906,3.757813,1.332031,3.287109,1.296875,0.287109,0.596497,-0.225891,0.621094,0.455383,down
319383,-8.769531,3.988281,1.179688,3.582031,1.259766,0.21875,0.594788,-0.219727,0.630737,0.447327,down
319389,-9.152344,4.523437,0.871094,3.582031,1.259766,0.21875,0.594238,-0.211365,0.642273,0.435486,down
319394,-9.070313,4.792969,0.796875,3.128906,0.759766,0.212891,0.59436,-0.206787,0.647705,0.429504,down
319400,-8.886719,5.480469,1.371094,3.128906,0.759766,0.212891,0.594482,-0.203003,0.651672,0.42511,down
319405,-8.925781,5.789062,1.292969,3.128906,0.759766,0.212891,0.59436,-0.200073,0.654602,0.422241,down
319410,-9.226563,5.75,0.910156,0.748047,0.517578,0.478516,0.59436,-0.200073,0.654602,0.422241,down
319416,-9.457031,5.597656,0.566406,-0.103516,0.501953,0.542969,0.59436,-0.200073,0.654602,0.422241,down
319421,-9.535156,5.328125,0.335938,-0.810547,0.390625,0.5625,0.59436,-0.200073,0.654602,0.422241,down
319427,-9.421875,4.640625,0.449219,-0.810547,0.390625,0.5625,0.59436,-0.200073,0.654602,0.422241,down
319433,-9.304688,4.292969,0.488281,-2.080078,0.09375,0.509766,0.59436,-0.200073,0.654602,0.422241,down
319438,-9.113281,3.566406,0.335938,-2.080078,0.09375,0.509766,0.585937,-0.202332,0.655273,0.43158,down
319443,-9.003906,3.261719,0.296875,-2.080078,0.09375,0.509766,0.584106,-0.204956,0.653198,0.436035,down
319448,-8.921875,3.105469,0.222656,-2.080078,0.09375,0.509766,0.582458,-0.207458,0.651245,0.439941,down
319454,-8.847656,3.03125,0.183594,-1.955078,0.117188,0.365234,0.579163,-0.212341,0.647644,0.447266,down
319459,-8.847656,3.070313,0.066406,-1.955078,0.117188,0.365234,0.57782,-0.21405,0.646545,0.449768,down
319465,-8.921875,3.296875,-0.046875,-1.955078,0.117188,0.365234,0.576721,-0.215149,0.646057,0.451355,down
319470,-9.03125,3.414063,-0.085937,-0.197266,0.330078,0.208984,0.576721,-0.215149,0.646057,0.451355,down
319476,-9.109375,3.605469,0.105469,-0.197266,0.330078,0.208984,0.576721,-0.215149,0.646057,0.451355,down
319483,-9.226563,3.796875,0.183594,0.425781,0.376953,0.224609,0.576721,-0.215149,0.646057,0.451355,down
319488,-9.347656,3.875,0.257813,0.638672,0.431641,0.261719,0.576721,-0.215149,0.646057,0.451355,down
319493,-9.492188,4.101562,0.375,0.765625,0.476562,0.308594,0.576721,-0.215149,0.646057,0.451355,down
319498,-9.570313,4.179687,0.375,0.765625,0.476562,0.308594,0.572205,-0.212891,0.652344,0.449158,down
319503,-9.6875,4.371094,0.296875,0.779297,0.537109,0.431641,0.572205,-0.212891,0.652344,0.449158,down
319508,-9.6875,4.449219,0.375,0.615234,0.533203,0.503906,0.569092,-0.209534,0.657654,0.44696,down
319513,-9.726563,4.675781,0.414062,0.615234,0.533203,0.503906,0.569092,-0.209534,0.657654,0.44696,down
319518,-9.574219,4.523437,0.605469,0.615234,0.533203,0.503906,0.567749,-0.208679,0.658997,0.447083,down
319523,-9.609375,4.371094,0.488281,-0.302734,0.519531,0.740234,0.567749,-0.208679,0.658997,0.447083,down
319528,-9.570313,4.257812,0.449219,-0.302734,0.519531,0.740234,0.564453,-0.207764,0.660889,0.448792,down
319534,-9.53125,3.835938,0.183594,-0.302734,0.519531,0.740234,0.560608,-0.207458,0.662476,0.451416,down
319539,-9.386719,3.71875,0.144531,-0.083984,0.429687,0.587891,0.559021,-0.207153,0.66333,0.452332,down
319544,-9.265625,3.566406,0.222656,-0.083984,0.429687,0.587891,0.557861,-0.206726,0.664062,0.45282,down
319549,-9.191406,3.566406,0.296875,-0.083984,0.429687,0.587891,0.556824,-0.206299,0.664734,0.453369,down
319555,-9.265625,3.605469,0.449219,-0.083984,0.429687,0.587891,0.555786,-0.205933,0.665222,0.454041,down
319561,-9.347656,3.679688,0.222656,-0.230469,0.212891,0.349609,0.554871,-0.205872,0.665527,0.454773,down
319566,-9.152344,3.71875,0.066406,-0.126953,0.164062,0.28125,0.554199,-0.205811,0.66571,0.455322,down
319571,-9.03125,3.835938,0.257813,0.046875,0.070312,0.205078,0.554199,-0.205811,0.66571,0.455322,down
319576,-8.964844,3.910156,0.257813,0.257813,0.037109,0.144531,0.554199,-0.205811,0.66571,0.455322,down
319582,-8.925781,3.835938,0.222656,0.341797,0.046875,0.103516,0.554199,-0.205811,0.66571,0.455322,down
319588,-8.765625,3.679688,0.296875,0.341797,0.046875,0.103516,0.553162,-0.203735,0.667603,0.454773,down
319593,-8.6875,3.566406,0.335938,0.341797,0.046875,0.103516,0.553162,-0.203735,0.667603,0.454773,down
319598,-8.648438,3.453125,0.335938,-0.117188,0.054687,0.195312,0.552429,-0.203491,0.667786,0.455505,down
319603,-8.691406,3.222656,0.066406,-0.117188,0.054687,0.195312,0.552429,-0.203491,0.667786,0.455505,down
319608,-8.617188,3.261719,0.027344,-0.117188,0.054687,0.195312,0.551819,-0.203613,0.667786,0.456177,down
319614,-8.578125,3.296875,-0.007813,-0.291016,0.097656,0.263672,0.551819,-0.203613,0.667786,0.456177,down
319619,-8.386719,3.335938,0.144531,-0.291016,0.097656,0.263672,0.550598,-0.203796,0.667786,0.457581,down
319624,-8.460938,3.335938,0.066406,-0.291016,0.097656,0.263672,0.549133,-0.203918,0.667908,0.459045,down
319629,-8.460938,3.296875,0.027344,-0.164062,0.222656,0.333984,0.549133,-0.203918,0.667908,0.459045,down
319634,-8.421875,3.183594,-0.007813,-0.066406,0.246094,0.355469,0.548279,-0.203918,0.668152,0.459778,down
319639,-8.464844,3.03125,-0.007813,-0.066406,0.246094,0.355469,0.54657,-0.203491,0.669067,0.460632,down
319644,-8.421875,3.070313,-0.046875,0.193359,0.267578,0.357422,0.54657,-0.203491,0.669067,0.460632,down
319649,-8.460938,3.070313,0.027344,0.193359,0.267578,0.357422,0.545715,-0.203003,0.6698,0.460754,down
319654,-8.460938,3.222656,0.027344,0.308594,0.269531,0.339844,0.545715,-0.203003,0.6698,0.460754,down
319659,-8.460938,3.222656,0.027344,0.308594,0.269531,0.339844,0.543762,-0.200989,0.672607,0.4599,down
319664,-8.5,3.414063,0.066406,0.308594,0.269531,0.339844,0.543762,-0.200989,0.672607,0.4599,down
319669,-8.542969,3.605469,0.105469,0.525391,0.287109,0.273438,0.543762,-0.200989,0.672607,0.4599,down
319674,-8.960938,4.140625,-0.007813,0.519531,0.292969,0.248047,0.542603,-0.199219,0.674988,0.458618,down
319679,-9.003906,3.988281,-0.238281,0.519531,0.292969,0.248047,0.542053,-0.198364,0.676147,0.457947,down
319684,-8.617188,3.796875,-0.085937,0.519531,0.292969,0.248047,0.541504,-0.197632,0.677246,0.457214,down
319689,-8.621094,3.875,0.375,0.353516,0.142578,0.226562,0.54071,-0.196411,0.678772,0.456421,down
319694,-8.730469,4.027344,0.335938,0.353516,0.142578,0.226562,0.540222,-0.196167,0.67926,0.45636,down
319699,-8.964844,4.027344,-0.238281,-0.173828,0.203125,0.169922,0.540222,-0.196167,0.67926,0.45636,down
319704,-8.847656,3.988281,-0.277344,-0.173828,0.203125,0.169922,0.539551,-0.196228,0.679626,0.456665,down
319709,-8.808594,4.027344,-0.199219,-0.240234,0.123047,0.144531,0.538513,-0.196655,0.679626,0.457642,down
319714,-8.804688,4.027344,-0.238281,-0.240234,0.123047,0.144531,0.538513,-0.196655,0.679626,0.457642,down
319719,-8.730469,4.027344,-0.238281,-0.271484,0.074219,0.074219,0.538147,-0.196899,0.679565,0.45813,down
319724,-8.726563,3.949219,-0.277344,-0.271484,0.074219,0.074219,0.537781,-0.197144,0.679443,0.458618,down
319730,-8.6875,3.71875,-0.316406,-0.271484,0.074219,0.074219,0.536987,-0.197937,0.679016,0.459839,down
319735,-8.621094,3.679688,-0.355469,-0.271484,0.074219,0.074219,0.536621,-0.198364,0.678772,0.460449,down
319740,-8.582031,3.679688,-0.316406,-0.3125,0.099609,0.064453,0.536621,-0.198364,0.678772,0.460449,down
319745,-8.539063,3.71875,-0.316406,-0.246094,0.121094,0.054687,0.536621,-0.198364,0.678772,0.460449,down
319750,-8.539063,3.757813,-0.355469,-0.246094,0.121094,0.054687,0.536926,-0.197144,0.679138,0.460022,down
319755,-8.542969,3.796875,-0.355469,-0.125,0.160156,0.068359,0.537231,-0.19635,0.679565,0.459412,down
319760,-8.621094,3.875,-0.277344,-0.083984,0.1875,0.083984,0.537476,-0.195496,0.680054,0.45874,down
319766,-8.621094,3.875,-0.277344,-0.054687,0.197266,0.083984,0.53772,-0.194641,0.680542,0.458069,down
319771,-8.648438,4.027344,-0.238281,-0.054687,0.197266,0.083984,0.537903,-0.193787,0.681152,0.457336,down
319777,-8.691406,4.101562,-0.238281,0.001953,0.226562,0.109375,0.537903,-0.193787,0.681152,0.457336,down
319782,-8.648438,4.101562,-0.238281,0.027344,0.230469,0.121094,0.537903,-0.193787,0.681152,0.457336,down
319787,-8.652344,4.179687,-0.238281,0.027344,0.230469,0.121094,0.538208,-0.19104,0.683167,0.455139,down
319793,-8.652344,4.140625,-0.238281,0.041016,0.259766,0.154297,0.538208,-0.19104,0.683167,0.455139,down
319799,-8.652344,4.140625,-0.238281,0.033203,0.269531,0.162109,0.538025,-0.188354,0.685364,0.453125,down
319804,-8.730469,4.140625,-0.199219,0.033203,0.269531,0.162109,0.538025,-0.188354,0.685364,0.453125,down
319809,-8.808594,4.140625,-0.238281,-0.035156,0.28125,0.171875,0.538025,-0.188354,0.685364,0.453125,down
319814,-8.804688,4.101562,-0.238281,-0.035156,0.28125,0.171875,0.537659,-0.186829,0.686829,0.452026,down
319820,-8.765625,4.101562,-0.164062,-0.035156,0.28125,0.171875,0.537354,-0.185425,0.687988,0.451172,down
319826,-8.847656,4.21875,-0.125,-0.035156,0.28125,0.171875,0.537231,-0.184814,0.688538,0.450684,down
319831,-8.769531,4.179687,-0.164062,-0.056641,0.244141,0.109375,0.537109,-0.184265,0.689087,0.450256,down
319836,-8.84375,4.179687,-0.164062,-0.060547,0.236328,0.107422,0.536987,-0.183716,0.689575,0.449829,down
319841,-8.769531,4.140625,-0.125,-0.060547,0.236328,0.107422,0.536987,-0.183716,0.689575,0.449829,down
319847,-8.769531,4.101562,-0.199219,-0.056641,0.199219,0.103516,0.536987,-0.183716,0.689575,0.449829,down
319853,-8.726563,4.066406,-0.164062,-0.044922,0.1875,0.099609,0.536987,-0.183716,0.689575,0.449829,down
319859,-8.652344,4.066406,-0.125,-0.035156,0.169922,0.097656,0.536987,-0.183716,0.689575,0.449829,down
319864,-8.582031,4.101562,-0.164062,-0.027344,0.166016,0.089844,0.536987,-0.183716,0.689575,0.449829,down
319869,-8.617188,4.066406,-0.164062,0.0,0.148437,0.085937,0.536987,-0.183716,0.689575,0.449829,down
319874,-8.621094,4.027344,-0.125,0.0,0.148437,0.085937,0.536682,-0.179687,0.692749,0.44696,down
319880,-8.539063,4.066406,-0.125,0.005859,0.146484,0.083984,0.536743,-0.179077,0.693176,0.446533,down
319885,-8.539063,4.066406,-0.164062,0.005859,0.146484,0.083984,0.536743,-0.177917,0.69397,0.445679,down
319890,-8.460938,3.988281,-0.199219,0.005859,0.146484,0.083984,0.536743,-0.177368,0.694397,0.445251,down
319896,-8.542969,4.027344,-0.164062,0.005859,0.146484,0.083984,0.536743,-0.176819,0.694824,0.444824,down
319901,-8.578125,4.027344,-0.199219,0.044922,0.154297,0.064453,0.536743,-0.176819,0.694824,0.444824,down
