timestamp,ax,ay,az,gx,gy,gz,qw,qx,qy,qz,label
435228,4.707031,8.785156,-2.859375,-0.351563,-0.271484,-0.085937,0.215027,-0.105591,-0.782288,-0.575012,down
435233,4.628906,8.636719,-2.820313,-0.351563,-0.271484,-0.085937,0.214294,-0.105957,-0.781677,-0.57605,down
435238,4.628906,8.558594,-2.742188,-0.351563,-0.271484,-0.085937,0.214294,-0.105957,-0.781677,-0.57605,down
435243,4.589844,8.515625,-2.667969,-0.453125,-0.148437,-0.113281,0.214294,-0.105957,-0.781677,-0.57605,down
435248,4.550781,8.402344,-2.476563,-0.453125,-0.148437,-0.113281,0.212524,-0.106628,-0.78009,-0.578674,down
435253,4.515625,8.359375,-2.398438,-0.453125,-0.148437,-0.113281,0.211914,-0.106812,-0.779663,-0.579529,down
435258,4.476562,8.332031,-2.285156,-0.271484,-0.132812,-0.117188,0.211914,-0.106812,-0.779663,-0.579529,down
435263,4.4375,8.292969,-2.246094,-0.271484,-0.132812,-0.117188,0.210815,-0.106934,-0.779114,-0.580627,down
435268,4.398437,8.289063,-2.207031,-0.271484,-0.132812,-0.117188,0.210327,-0.106995,-0.778931,-0.580994,down
435273,4.359375,8.363281,-2.167969,-0.271484,-0.132812,-0.117188,0.210327,-0.106995,-0.778931,-0.580994,down
435278,4.359375,8.363281,-2.128906,-0.117188,-0.185547,-0.115234,0.210327,-0.106995,-0.778931,-0.580994,down
435283,4.359375,8.328125,-2.128906,-0.117188,-0.185547,-0.115234,0.208496,-0.107178,-0.778809,-0.581787,down
435288,4.285156,8.332031,-2.167969,-0.117188,-0.185547,-0.115234,0.208496,-0.107178,-0.778809,-0.581787,down
435293,4.324219,8.289063,-2.207031,-0.117188,-0.185547,-0.115234,0.207275,-0.107483,-0.778687,-0.582397,down
435298,4.324219,8.25,-2.246094,-0.117188,-0.185547,-0.115234,0.207275,-0.107483,-0.778687,-0.582397,down
435303,4.285156,8.253906,-2.246094,-0.267578,-0.197266,-0.072266,0.20636,-0.107483,-0.778625,-0.582764,down
435308,4.285156,8.253906,-2.246094,-0.267578,-0.197266,-0.072266,0.204651,-0.107544,-0.778259,-0.583801,down
435313,4.285156,8.328125,-2.398438,-0.267578,-0.197266,-0.072266,0.204651,-0.107544,-0.778259,-0.583801,down
435318,4.246094,8.328125,-2.398438,-0.34375,-0.177734,-0.056641,0.204651,-0.107544,-0.778259,-0.583801,down
435323,4.246094,8.328125,-2.398438,-0.34375,-0.177734,-0.056641,0.202881,-0.108398,-0.777039,-0.585937,down
435328,4.246094,8.292969,-2.4375,-0.34375,-0.177734,-0.056641,0.202332,-0.108704,-0.776611,-0.586548,down
435333,4.246094,8.292969,-2.4375,-0.34375,-0.177734,-0.056641,0.202332,-0.108704,-0.776611,-0.586548,down
435338,4.246094,8.210938,-2.359375,-0.332031,-0.150391,-0.035156,0.202332,-0.108704,-0.776611,-0.586548,down
435343,4.246094,8.175781,-2.359375,-0.230469,-0.142578,-0.033203,0.201294,-0.109192,-0.775879,-0.58783,down
435348,4.246094,8.171875,-2.320313,-0.230469,-0.142578,-0.033203,0.200806,-0.109436,-0.775574,-0.588379,down
435354,4.207031,8.136719,-2.246094,-0.230469,-0.142578,-0.033203,0.199951,-0.109802,-0.775208,-0.58905,down
435360,4.167969,8.097656,-2.285156,-0.230469,-0.142578,-0.033203,0.199524,-0.109924,-0.775146,-0.589294,down
435365,4.167969,8.097656,-2.285156,-0.09375,-0.130859,-0.044922,0.199097,-0.110046,-0.775085,-0.589539,down
435370,4.132812,8.136719,-2.207031,-0.09375,-0.130859,-0.044922,0.198669,-0.110107,-0.775024,-0.589661,down
435375,4.246094,8.171875,-2.167969,-0.09375,-0.130859,-0.044922,0.198669,-0.110107,-0.775024,-0.589661,down
435380,4.207031,7.976562,-2.167969,-0.095703,-0.148437,-0.083984,0.198669,-0.110107,-0.775024,-0.589661,down
435386,4.246094,7.949219,-2.128906,-0.115234,-0.15625,-0.101563,0.198669,-0.110107,-0.775024,-0.589661,down
435391,4.246094,7.910156,-2.054688,-0.152344,-0.158203,-0.121094,0.198669,-0.110107,-0.775024,-0.589661,down
435397,4.167969,7.832031,-2.054688,-0.203125,-0.160156,-0.136719,0.198669,-0.110107,-0.775024,-0.589661,down
435403,4.207031,7.828125,-2.09375,-0.238281,-0.162109,-0.167969,0.198669,-0.110107,-0.775024,-0.589661,down
435408,4.207031,7.90625,-2.09375,-0.259766,-0.179687,-0.207031,0.198669,-0.110107,-0.775024,-0.589661,down
435413,4.207031,7.90625,-2.09375,-0.259766,-0.179687,-0.207031,0.193787,-0.110229,-0.774109,-0.592468,down
435418,4.207031,7.867187,-1.976563,-0.326172,-0.257813,-0.292969,0.192688,-0.110168,-0.773865,-0.59314,down
435423,4.246094,7.90625,-1.976563,-0.326172,-0.257813,-0.292969,0.19165,-0.110107,-0.773621,-0.593811,down
435429,4.207031,7.828125,-1.976563,-0.326172,-0.257813,-0.292969,0.189514,-0.109863,-0.773071,-0.595276,down
435434,4.207031,7.871094,-2.054688,-0.392578,-0.257813,-0.328125,0.188293,-0.109741,-0.772705,-0.596191,down
435439,4.207031,7.871094,-2.054688,-0.378906,-0.267578,-0.333984,0.187134,-0.109619,-0.772339,-0.597046,down
435444,4.207031,7.949219,-2.128906,-0.378906,-0.267578,-0.333984,0.185974,-0.109497,-0.772034,-0.597839,down
435449,4.167969,8.054688,-2.207031,-0.378906,-0.267578,-0.333984,0.18457,-0.109375,-0.771667,-0.598755,down
435455,4.207031,8.015625,-2.207031,-0.347656,-0.28125,-0.339844,0.18335,-0.109253,-0.771423,-0.599487,down
435460,4.207031,8.136719,-2.246094,-0.347656,-0.28125,-0.339844,0.182129,-0.109131,-0.771118,-0.60022,down
435465,4.246094,8.214844,-2.285156,-0.275391,-0.257813,-0.333984,0.182129,-0.109131,-0.771118,-0.60022,down
435471,4.246094,8.363281,-2.359375,-0.275391,-0.257813,-0.333984,0.182129,-0.109131,-0.771118,-0.60022,down
435477,4.246094,8.4375,-2.359375,-0.207031,-0.238281,-0.333984,0.182129,-0.109131,-0.771118,-0.60022,down
435483,4.207031,8.554688,-2.4375,-0.142578,-0.224609,-0.314453,0.182129,-0.109131,-0.771118,-0.60022,down
435488,4.207031,8.554688,-2.476563,-0.142578,-0.224609,-0.314453,0.17688,-0.108093,-0.770508,-0.602783,down
435494,4.207031,8.515625,-2.476563,-0.126953,-0.199219,-0.308594,0.174927,-0.107544,-0.770508,-0.603455,down
435499,4.207031,8.480469,-2.4375,-0.126953,-0.199219,-0.308594,0.174011,-0.107239,-0.770508,-0.60376,down
435504,4.207031,8.476563,-2.398438,-0.126953,-0.199219,-0.308594,0.173218,-0.106934,-0.770569,-0.604004,down
435509,4.167969,8.476563,-2.398438,-0.074219,-0.136719,-0.294922,0.173218,-0.106934,-0.770569,-0.604004,down
435514,4.167969,8.519531,-2.359375,-0.074219,-0.136719,-0.294922,0.171631,-0.10614,-0.77063,-0.604492,down
435519,4.09375,8.476563,-2.359375,-0.074219,-0.136719,-0.294922,0.170898,-0.105774,-0.770691,-0.604675,down
435525,4.09375,8.480469,-2.285156,-0.074219,-0.136719,-0.294922,0.170166,-0.105347,-0.770752,-0.604919,down
435530,4.054687,8.519531,-2.246094,-0.068359,-0.115234,-0.306641,0.169373,-0.104919,-0.770752,-0.605164,down
435535,4.054687,8.4375,-2.167969,-0.068359,-0.115234,-0.306641,0.168701,-0.104553,-0.770813,-0.605408,down
435540,3.976563,8.359375,-2.167969,-0.068359,-0.115234,-0.306641,0.168701,-0.104553,-0.770813,-0.605408,down
435545,3.976563,8.359375,-2.167969,-0.083984,-0.078125,-0.3125,0.168701,-0.104553,-0.770813,-0.605408,down
435550,3.976563,8.359375,-2.09375,-0.082031,-0.080078,-0.316406,0.168701,-0.104553,-0.770813,-0.605408,down
435555,3.941406,8.328125,-2.167969,-0.082031,-0.080078,-0.316406,0.165894,-0.102661,-0.770813,-0.606445,down
435561,3.902344,8.332031,-2.09375,-0.082031,-0.080078,-0.316406,0.165222,-0.102173,-0.770813,-0.60675,down
435567,3.863281,8.332031,-2.128906,-0.058594,-0.058594,-0.296875,0.165222,-0.102173,-0.770813,-0.60675,down
435573,3.863281,8.363281,-2.054688,-0.029297,-0.054687,-0.294922,0.165222,-0.102173,-0.770813,-0.60675,down
435578,3.824219,8.398438,-2.054688,-0.029297,-0.054687,-0.294922,0.162842,-0.10022,-0.770996,-0.607422,down
435583,3.824219,8.332031,-2.015625,-0.029297,-0.054687,-0.294922,0.162842,-0.10022,-0.770996,-0.607422,down
435589,3.746094,8.332031,-1.976563,0.017578,-0.042969,-0.273438,0.162842,-0.10022,-0.770996,-0.607422,down
435594,3.746094,8.328125,-2.015625,0.017578,-0.042969,-0.273438,0.161194,-0.098633,-0.771423,-0.607605,down
435599,3.710938,8.292969,-1.976563,0.068359,-0.052734,-0.287109,0.161194,-0.098633,-0.771423,-0.607605,down
435604,3.746094,8.292969,-1.9375,0.068359,-0.052734,-0.287109,0.160095,-0.097595,-0.771851,-0.607544,down
435609,3.710938,8.292969,-1.9375,0.068359,-0.052734,-0.287109,0.159546,-0.097107,-0.772034,-0.607544,down
435615,3.671875,8.289063,-1.902344,0.058594,-0.080078,-0.328125,0.158813,-0.096497,-0.772278,-0.607483,down
435620,3.632813,8.292969,-1.902344,0.041016,-0.082031,-0.333984,0.158081,-0.095947,-0.772461,-0.607544,down
435625,3.632813,8.214844,-1.9375,0.041016,-0.082031,-0.333984,0.15741,-0.095398,-0.772644,-0.607605,down
435631,3.59375,8.214844,-1.863281,0.041016,-0.082031,-0.333984,0.156616,-0.094788,-0.772766,-0.607666,down
435637,3.554688,8.175781,-1.902344,-0.017578,-0.107422,-0.375,0.156616,-0.094788,-0.772766,-0.607666,down
435643,3.519531,8.214844,-1.902344,-0.039063,-0.107422,-0.392578,0.156616,-0.094788,-0.772766,-0.607666,down
435648,3.554688,8.25,-1.9375,-0.039063,-0.107422,-0.392578,0.154053,-0.092957,-0.773071,-0.608215,down
435653,3.554688,8.25,-1.9375,-0.039063,-0.107422,-0.392578,0.153137,-0.092346,-0.773132,-0.608459,down
435659,3.519531,8.253906,-1.902344,-0.068359,-0.152344,-0.445312,0.15094,-0.091003,-0.773315,-0.60907,down
435665,3.519531,8.292969,-1.863281,-0.042969,-0.173828,-0.460937,0.149902,-0.090393,-0.773376,-0.609314,down
435670,3.441406,8.292969,-1.671875,-0.042969,-0.173828,-0.460937,0.148865,-0.089783,-0.773499,-0.609497,down
435675,3.441406,8.292969,-1.671875,0.013672,-0.21875,-0.46875,0.147705,-0.089111,-0.773682,-0.609619,down
435680,3.328125,8.328125,-1.671875,0.013672,-0.21875,-0.46875,0.146423,-0.088501,-0.773926,-0.60968,down
435686,3.25,8.402344,-1.824219,0.013672,-0.21875,-0.46875,0.145264,-0.087952,-0.77417,-0.609741,down
435692,3.210938,8.441406,-1.863281,0.03125,-0.269531,-0.490234,0.145264,-0.087952,-0.77417,-0.609741,down
435698,3.097656,8.558594,-1.863281,0.025391,-0.300781,-0.511719,0.145264,-0.087952,-0.77417,-0.609741,down
435704,3.136719,8.59375,-1.902344,-0.009766,-0.361328,-0.546875,0.145264,-0.087952,-0.77417,-0.609741,down
435709,3.136719,8.675781,-1.9375,-0.056641,-0.380859,-0.564453,0.139587,-0.085693,-0.775208,-0.610107,down
435714,3.136719,8.785156,-1.9375,-0.091797,-0.392578,-0.597656,0.137878,-0.085083,-0.775391,-0.610291,down
435720,3.136719,8.785156,-1.9375,-0.154297,-0.410156,-0.634766,0.134521,-0.084045,-0.775635,-0.610901,down
435725,3.097656,8.902344,-2.128906,-0.216797,-0.433594,-0.660156,0.132446,-0.083374,-0.775635,-0.61145,down
435731,3.097656,8.863281,-2.167969,-0.216797,-0.433594,-0.660156,0.130676,-0.082886,-0.775574,-0.612,down
435737,3.097656,8.863281,-2.167969,-0.320313,-0.451172,-0.691406,0.130676,-0.082886,-0.775574,-0.612,down
435742,3.058594,8.898438,-2.285156,-0.353516,-0.441406,-0.699219,0.130676,-0.082886,-0.775574,-0.612,down
435748,2.980469,8.980469,-2.359375,-0.382813,-0.412109,-0.695312,0.130676,-0.082886,-0.775574,-0.612,down
435753,2.980469,9.09375,-2.285156,-0.382813,-0.412109,-0.695312,0.122314,-0.080383,-0.774536,-0.615356,down
435758,2.980469,9.167969,-2.285156,-0.382813,-0.412109,-0.695312,0.120605,-0.079895,-0.774231,-0.61615,down
435764,2.945313,9.207031,-2.207031,-0.353516,-0.412109,-0.636719,0.120605,-0.079895,-0.774231,-0.61615,down
435769,2.867188,9.242188,-2.246094,-0.308594,-0.400391,-0.599609,0.115051,-0.078308,-0.773437,-0.618408,down
435774,2.828125,9.203125,-2.320313,-0.308594,-0.400391,-0.599609,0.113464,-0.077881,-0.773315,-0.618958,down
435779,2.789063,9.246094,-2.359375,-0.308594,-0.400391,-0.599609,0.113464,-0.077881,-0.773315,-0.618958,down
435784,2.789063,9.203125,-2.4375,-0.148437,-0.347656,-0.513672,0.113464,-0.077881,-0.773315,-0.618958,down
435789,2.753906,9.28125,-2.398438,-0.148437,-0.347656,-0.513672,0.110291,-0.076904,-0.773132,-0.619873,down
435794,2.714844,9.28125,-2.359375,-0.148437,-0.347656,-0.513672,0.108643,-0.076416,-0.773071,-0.620239,down
435799,2.753906,9.242188,-2.398438,-0.115234,-0.285156,-0.492187,0.108643,-0.076416,-0.773071,-0.620239,down
435804,2.714844,9.203125,-2.359375,-0.115234,-0.285156,-0.492187,0.105835,-0.075439,-0.773071,-0.62085,down
435809,2.675781,9.207031,-2.359375,-0.115234,-0.285156,-0.492187,0.104492,-0.074951,-0.773071,-0.621155,down
435815,2.714844,9.167969,-2.285156,-0.115234,-0.285156,-0.492187,0.101868,-0.073914,-0.77301,-0.621826,down
435820,2.675781,9.164063,-2.285156,-0.154297,-0.222656,-0.478516,0.100647,-0.073364,-0.772888,-0.622192,down
435826,2.636719,9.132813,-2.207031,-0.154297,-0.222656,-0.478516,0.099487,-0.072876,-0.772827,-0.622559,down
435831,2.597656,9.058594,-2.128906,-0.154297,-0.222656,-0.478516,0.098328,-0.072327,-0.772705,-0.622925,down
435837,2.558594,9.015625,-2.167969,-0.166016,-0.179687,-0.466797,0.098328,-0.072327,-0.772705,-0.622925,down
435842,2.558594,9.097656,-2.207031,-0.179687,-0.152344,-0.46875,0.098328,-0.072327,-0.772705,-0.622925,down
435847,2.484375,9.015625,-2.285156,-0.179687,-0.152344,-0.46875,0.095032,-0.070435,-0.772278,-0.624146,down
435852,2.484375,8.980469,-2.285156,-0.199219,-0.119141,-0.488281,0.095032,-0.070435,-0.772278,-0.624146,down
435858,2.484375,8.941406,-2.320313,-0.1875,-0.097656,-0.484375,0.095032,-0.070435,-0.772278,-0.624146,down
435863,2.40625,8.980469,-2.285156,-0.1875,-0.097656,-0.484375,0.091919,-0.068176,-0.771667,-0.62561,down
435869,2.332031,8.902344,-2.320313,-0.1875,-0.097656,-0.484375,0.090088,-0.066345,-0.77124,-0.626648,down
435874,2.367188,8.941406,-2.285156,-0.1875,-0.097656,-0.484375,0.090088,-0.066345,-0.77124,-0.626648,down
435879,2.332031,8.9375,-2.207031,-0.251953,0.017578,-0.580078,0.088196,-0.064087,-0.77063,-0.627869,down
435884,2.292969,8.9375,-2.285156,-0.251953,0.017578,-0.580078,0.088196,-0.064087,-0.77063,-0.627869,down
435889,2.292969,8.9375,-2.285156,-0.251953,0.017578,-0.580078,0.087219,-0.062744,-0.770142,-0.628723,down
435895,2.332031,8.785156,-2.320313,-0.445312,0.136719,-0.699219,0.085388,-0.059814,-0.768921,-0.630798,down
435900,2.367188,8.78125,-2.4375,-0.445312,0.136719,-0.699219,0.084534,-0.058167,-0.768127,-0.63208,down
435905,2.332031,8.671875,-2.515625,-0.445312,0.136719,-0.699219,0.083679,-0.056213,-0.76709,-0.633545,down
435910,2.367188,8.710938,-2.515625,-0.824219,0.453125,-0.957031,0.082764,-0.053772,-0.765808,-0.635437,down
435916,2.292969,8.753906,-2.515625,-0.824219,0.453125,-0.957031,0.082031,-0.051147,-0.764404,-0.637451,down
435921,2.214844,8.675781,-2.476563,-0.824219,0.453125,-0.957031,0.08136,-0.048645,-0.763,-0.639404,down
435926,2.214844,8.675781,-2.476563,-1.162109,0.748047,-1.244141,0.080627,-0.045105,-0.761108,-0.642029,down
435932,2.101563,8.671875,-2.398438,-1.259766,0.816406,-1.34375,0.080627,-0.045105,-0.761108,-0.642029,down
435937,1.871094,8.636719,-2.054688,-1.357422,0.871094,-1.435547,0.079163,-0.038208,-0.757141,-0.647278,down
435943,1.679688,8.441406,-1.519531,-1.357422,0.871094,-1.435547,0.079163,-0.038208,-0.757141,-0.647278,down
435948,1.601563,8.441406,-1.171875,-1.417969,0.865234,-1.560547,0.079163,-0.038208,-0.757141,-0.647278,down
435953,1.488281,8.253906,-0.445312,-1.416016,0.820312,-1.599609,0.079163,-0.038208,-0.757141,-0.647278,down
435958,1.335938,8.292969,-0.332031,-1.384766,0.792969,-1.619141,0.079163,-0.038208,-0.757141,-0.647278,down
435964,1.21875,8.332031,-0.332031,-1.347656,0.775391,-1.628906,0.079163,-0.038208,-0.757141,-0.647278,down
435969,1.066406,8.328125,-0.253906,-1.310547,0.726562,-1.625,0.07074,-0.009888,-0.740967,-0.667725,down
435974,0.914062,8.359375,-0.136719,-1.310547,0.726562,-1.625,0.07074,-0.009888,-0.740967,-0.667725,down
435979,0.875,8.4375,-0.023437,-1.310547,0.726562,-1.625,0.068909,-0.005798,-0.738647,-0.670532,down
435985,0.914062,8.402344,0.089844,-1.005859,0.367188,-1.558594,0.068909,-0.005798,-0.738647,-0.670532,down
435990,0.796875,8.441406,0.089844,-1.005859,0.367188,-1.558594,0.063293,0.004089,-0.733276,-0.677002,down
435995,0.722656,8.4375,0.015625,-0.779297,0.283203,-1.517578,0.061096,0.007629,-0.731628,-0.678894,down
436000,0.683594,8.476563,-0.023437,-0.693359,0.248047,-1.498047,0.059021,0.010681,-0.730347,-0.680481,down
436005,0.683594,8.554688,-0.0625,-0.630859,0.228516,-1.490234,0.059021,0.010681,-0.730347,-0.680481,down
436010,0.644531,8.597656,-0.136719,-0.630859,0.228516,-1.490234,0.054871,0.016602,-0.728027,-0.683105,down
436015,0.605469,8.675781,-0.136719,-0.554687,0.179687,-1.517578,0.054871,0.016602,-0.728027,-0.683105,down
436020,0.492187,8.753906,-0.136719,-0.546875,0.179687,-1.560547,0.05249,0.019836,-0.726929,-0.684448,down
436025,0.453125,8.785156,-0.175781,-0.546875,0.179687,-1.560547,0.047974,0.025818,-0.724854,-0.686707,down
436030,0.378906,8.820313,-0.214844,-0.546875,0.179687,-1.560547,0.045532,0.028992,-0.723755,-0.687927,down
436035,0.148437,9.136719,-0.253906,-0.619141,0.148437,-1.714844,0.045532,0.028992,-0.723755,-0.687927,down
436040,-0.007813,9.324219,-0.253906,-0.667969,0.119141,-1.789063,0.042786,0.03241,-0.722534,-0.68927,down
436045,-0.160156,9.476563,-0.175781,-0.667969,0.119141,-1.789063,0.037231,0.039001,-0.71991,-0.691956,down
436050,-0.234375,9.667969,-0.101563,-0.667969,0.119141,-1.789063,0.034119,0.042419,-0.718445,-0.693481,down
436055,-0.425781,9.898438,0.089844,-0.886719,-0.013672,-2.013672,0.034119,0.042419,-0.718445,-0.693481,down
436060,-0.582031,9.863281,0.246094,-0.978516,-0.056641,-2.064453,0.030579,0.046204,-0.716614,-0.695251,down
436066,-0.582031,9.863281,0.246094,-0.978516,-0.056641,-2.064453,0.023621,0.05304,-0.71283,-0.698914,down
436071,-0.582031,9.863281,0.246094,-1.162109,-0.15625,-2.166016,0.019836,0.056519,-0.710632,-0.70105,down
436076,-0.695312,9.78125,0.398438,-1.162109,-0.15625,-2.166016,0.019836,0.056519,-0.710632,-0.70105,down
436081,-0.847656,9.625,0.664062,-1.21875,-0.199219,-2.210938,0.015869,0.059998,-0.708252,-0.703247,down
436086,-0.847656,9.625,0.664062,-1.289063,-0.259766,-2.248047,0.011658,0.063599,-0.705627,-0.705627,down
436091,-0.964844,9.519531,0.855469,-1.289063,-0.259766,-2.248047,0.002197,0.070984,-0.699646,-0.710937,down
436096,-1.078125,9.359375,1.011719,-1.289063,-0.259766,-2.248047,0.002197,0.070984,-0.699646,-0.710937,down
436102,-1.230469,9.285156,1.011719,-1.289063,-0.259766,-2.248047,0.002197,0.070984,-0.699646,-0.710937,down
436107,-1.230469,9.285156,1.011719,-1.445313,-0.480469,-2.375,0.011169,-0.080566,0.690979,0.718262,down
436112,-1.386719,9.320313,0.972656,-1.445313,-0.480469,-2.375,0.011169,-0.080566,0.690979,0.718262,down
436118,-1.613281,9.480469,0.972656,-1.445313,-0.480469,-2.375,0.020935,-0.086853,0.684998,0.723022,down
436123,-1.691406,9.519531,0.972656,-1.257813,-0.626953,-2.390625,0.020935,-0.086853,0.684998,0.723022,down
436128,-1.804688,9.546875,0.972656,-1.210938,-0.662109,-2.394531,0.020935,-0.086853,0.684998,0.723022,down
436134,-1.921875,9.664063,0.894531,-1.210938,-0.662109,-2.394531,0.036804,-0.096069,0.67627,0.729431,down
436139,-1.996094,9.742188,1.011719,-1.210938,-0.662109,-2.394531,0.04187,-0.098877,0.673584,0.731262,down
436145,-2.152344,9.824219,0.972656,-1.146484,-0.722656,-2.40625,0.04187,-0.098877,0.673584,0.731262,down
436150,-2.152344,9.824219,0.972656,-1.148438,-0.726562,-2.412109,0.052612,-0.104614,0.667969,0.734924,down
436155,-2.34375,9.703125,1.011719,-1.195313,-0.724609,-2.419922,0.057861,-0.107422,0.6651,0.736694,down
436160,-2.34375,9.703125,1.011719,-1.195313,-0.724609,-2.419922,0.057861,-0.107422,0.6651,0.736694,down
436165,-2.417969,9.667969,1.085938,-1.322266,-0.675781,-2.40625,0.057861,-0.107422,0.6651,0.736694,down
436170,-2.496094,9.519531,1.085938,-1.431641,-0.556641,-2.392578,0.057861,-0.107422,0.6651,0.736694,down
436176,-2.648438,9.242188,1.164063,-1.431641,-0.556641,-2.392578,0.083862,-0.122803,0.648315,0.746704,down
436181,-2.726563,9.019531,1.203125,-1.472656,-0.4375,-2.388672,0.088745,-0.12616,0.644653,0.748779,down
436187,-2.800781,8.714844,1.125,-1.472656,-0.4375,-2.388672,0.093018,-0.129333,0.641357,0.750488,down
436192,-3.070313,8.332031,0.972656,-1.472656,-0.4375,-2.388672,0.097534,-0.132874,0.637939,0.752197,down
436198,-3.1875,8.132813,1.085938,-1.228516,-0.236328,-2.427734,0.097534,-0.132874,0.637939,0.752197,down
436203,-3.148438,8.136719,1.242188,-1.123047,-0.177734,-2.445313,0.097534,-0.132874,0.637939,0.752197,down
436208,-3.414063,8.554688,1.46875,-0.962891,-0.080078,-2.464844,0.097534,-0.132874,0.637939,0.752197,down
436213,-3.53125,8.980469,1.394531,-0.746094,0.064453,-2.482422,0.097534,-0.132874,0.637939,0.752197,down
436218,-3.605469,9.398438,1.316406,-0.486328,0.167969,-2.464844,0.097534,-0.132874,0.637939,0.752197,down
436224,-3.914063,9.824219,1.203125,-0.486328,0.167969,-2.464844,0.124023,-0.156982,0.622498,0.756653,down
436229,-4.257812,10.128906,1.355469,-0.486328,0.167969,-2.464844,0.124023,-0.156982,0.622498,0.756653,down
436234,-4.257812,10.128906,1.355469,0.148437,0.144531,-2.289063,0.132385,-0.164551,0.621277,0.754578,down
436239,-4.257812,10.128906,1.355469,0.632812,0.082031,-1.976563,0.136353,-0.167725,0.62146,0.753052,down
436245,-4.910156,11.394531,1.394531,0.705078,0.119141,-1.771484,0.14325,-0.173218,0.62262,0.749573,down
436250,-4.984375,11.507813,1.316406,0.705078,0.119141,-1.771484,0.14325,-0.173218,0.62262,0.749573,down
436255,-4.984375,11.542969,1.355469,0.650391,0.070312,-1.316406,0.14856,-0.177124,0.623901,0.746521,down
436260,-5.023437,11.429688,1.507813,0.650391,0.070312,-1.316406,0.14856,-0.177124,0.623901,0.746521,down
436265,-4.984375,11.273438,1.507813,0.326172,0.027344,-0.683594,0.14856,-0.177124,0.623901,0.746521,down
436270,-4.792969,11.125,1.46875,0.326172,0.027344,-0.683594,0.152283,-0.179687,0.624817,0.744385,down
436275,-4.757812,10.933594,1.394531,0.167969,0.068359,-0.505859,0.154175,-0.181458,0.625061,0.743347,down
436280,-4.601562,10.585938,1.277344,0.167969,0.068359,-0.505859,0.154175,-0.181458,0.625061,0.743347,down
436285,-4.527344,10.433594,1.203125,-0.068359,0.207031,-0.058594,0.15448,-0.182068,0.625,0.743164,down
436290,-4.488281,10.324219,1.125,-0.068359,0.207031,-0.058594,0.153992,-0.183105,0.624939,0.743103,down
436295,-4.449219,10.164063,0.855469,-0.068359,0.207031,-0.058594,0.153992,-0.183105,0.624939,0.743103,down
436300,-4.449219,10.128906,0.78125,-0.068359,0.207031,-0.058594,0.15332,-0.183594,0.625061,0.743042,down
436305,-4.449219,10.089844,0.742187,-0.068359,0.207031,-0.058594,0.152527,-0.18396,0.625366,0.742859,down
436311,-4.410156,10.050781,0.703125,0.267578,0.417969,0.25,0.150452,-0.18457,0.627014,0.741699,down
436316,-4.375,10.007813,0.703125,0.267578,0.417969,0.25,0.149414,-0.184753,0.628235,0.740845,down
436322,-4.375,9.941406,0.78125,0.267578,0.417969,0.25,0.148499,-0.184875,0.629578,0.739868,down
436327,-4.375,9.941406,0.78125,0.761719,0.458984,0.361328,0.147339,-0.184875,0.631348,0.738586,down
436332,-4.375,9.859375,1.085938,0.761719,0.458984,0.361328,0.146423,-0.184875,0.632996,0.737366,down
436338,-4.335937,9.667969,1.316406,0.761719,0.458984,0.361328,0.145447,-0.184753,0.634766,0.736084,down
436344,-4.335937,9.589844,1.355469,0.724609,0.367188,0.375,0.145447,-0.184753,0.634766,0.736084,down
436349,-4.335937,9.359375,1.507813,0.628906,0.326172,0.375,0.145447,-0.184753,0.634766,0.736084,down
436355,-4.257812,9.058594,1.699219,0.509766,0.263672,0.369141,0.145447,-0.184753,0.634766,0.736084,down
436360,-4.257812,8.941406,1.777344,0.228516,0.148437,0.333984,0.145447,-0.184753,0.634766,0.736084,down
436365,-4.179687,8.824219,1.816406,0.228516,0.148437,0.333984,0.140991,-0.183472,0.641174,0.731689,down
436370,-4.105469,8.59375,1.738281,0.228516,0.148437,0.333984,0.14032,-0.183105,0.641663,0.731445,down
436375,-4.144531,8.597656,1.660156,0.228516,0.148437,0.333984,0.139709,-0.182739,0.641907,0.731506,down
436380,-4.105469,8.519531,1.625,-0.097656,-0.083984,0.208984,0.139709,-0.182739,0.641907,0.731506,down
436385,-4.179687,8.558594,1.625,-0.097656,-0.083984,0.208984,0.138733,-0.181824,0.641907,0.731873,down
436391,-3.988281,8.398438,1.433594,-0.097656,-0.083984,0.208984,0.138489,-0.180908,0.641663,0.732361,down
436396,-4.105469,8.476563,1.394531,-0.007813,-0.189453,0.074219,0.138611,-0.18042,0.641602,0.732544,down
436401,-4.105469,8.480469,1.316406,0.021484,-0.214844,0.023437,0.138855,-0.179932,0.641541,0.732666,down
436406,-4.066406,8.4375,1.277344,0.021484,-0.214844,0.023437,0.139221,-0.179565,0.641541,0.732666,down
436411,-3.988281,8.480469,1.203125,0.021484,-0.214844,0.023437,0.139709,-0.179138,0.641541,0.732666,down
436416,-3.953125,8.480469,1.203125,0.109375,-0.267578,-0.123047,0.140381,-0.178772,0.641602,0.732605,down
436422,-3.988281,8.480469,1.242188,0.109375,-0.267578,-0.123047,0.141174,-0.178467,0.641663,0.732483,down
436427,-3.914063,8.515625,1.277344,0.109375,-0.267578,-0.123047,0.141907,-0.178223,0.641663,0.732361,down
436432,-3.953125,8.558594,1.316406,0.041016,-0.277344,-0.248047,0.142883,-0.17804,0.641602,0.7323,down
436437,-4.027344,8.675781,1.355469,0.041016,-0.277344,-0.248047,0.143738,-0.177979,0.641418,0.7323,down
436442,-4.027344,8.75,1.355469,-0.152344,-0.273438,-0.337891,0.143738,-0.177979,0.641418,0.7323,down
436447,-4.144531,8.820313,1.355469,-0.152344,-0.273438,-0.337891,0.145691,-0.178162,0.640381,0.732788,down
436452,-4.21875,8.902344,1.355469,-0.152344,-0.273438,-0.337891,0.146729,-0.178406,0.639526,0.733215,down
436458,-4.257812,8.9375,1.355469,-0.445312,-0.271484,-0.464844,0.146729,-0.178406,0.639526,0.733215,down
436463,-4.410156,9.136719,1.394531,-0.445312,-0.271484,-0.464844,0.148926,-0.179199,0.637268,0.734558,down
436468,-4.488281,9.242188,1.46875,-0.574219,-0.294922,-0.558594,0.150146,-0.179749,0.635925,0.735352,down
436474,-4.566406,9.320313,1.46875,-0.599609,-0.310547,-0.603516,0.150146,-0.179749,0.635925,0.735352,down
436480,-4.679687,9.519531,1.585938,-0.613281,-0.324219,-0.664062,0.150146,-0.179749,0.635925,0.735352,down
436486,-4.757812,9.625,1.625,-0.619141,-0.376953,-0.777344,0.154297,-0.181641,0.631348,0.737976,down
436491,-4.71875,9.742188,1.625,-0.619141,-0.376953,-0.777344,0.155945,-0.182373,0.629761,0.73877,down
436496,-4.871094,10.050781,1.660156,-0.607422,-0.410156,-0.835937,0.155945,-0.182373,0.629761,0.73877,down
436502,-4.910156,10.242188,1.777344,-0.607422,-0.410156,-0.835937,0.161865,-0.184753,0.624695,0.741272,down
436507,-4.910156,10.242188,1.777344,-0.662109,-0.503906,-0.96875,0.164124,-0.185608,0.622803,0.742126,down
436512,-5.0625,10.351563,1.738281,-0.662109,-0.503906,-0.96875,0.166626,-0.186523,0.620667,0.743103,down
436518,-5.140625,10.429688,1.851563,-0.662109,-0.503906,-0.96875,0.168762,-0.187317,0.618774,0.744019,down
436523,-5.253906,10.429688,1.890625,-0.851562,-0.539062,-1.009766,0.168762,-0.187317,0.618774,0.744019,down
436529,-5.292969,10.351563,1.96875,-0.927734,-0.550781,-1.013672,0.168762,-0.187317,0.618774,0.744019,down
436534,-5.332031,10.324219,1.96875,-0.927734,-0.550781,-1.013672,0.175659,-0.190186,0.611572,0.747681,down
436539,-5.523437,10.203125,1.929688,-0.927734,-0.550781,-1.013672,0.175659,-0.190186,0.611572,0.747681,down
436544,-5.523437,10.089844,1.96875,-0.927734,-0.550781,-1.013672,0.17981,-0.192261,0.606262,0.750427,down
436550,-5.523437,10.089844,1.96875,-1.144531,-0.451172,-1.009766,0.181946,-0.193481,0.603394,0.751892,down
436555,-5.714844,9.746094,2.199219,-1.144531,-0.451172,-1.009766,0.181946,-0.193481,0.603394,0.751892,down
436560,-5.789062,9.589844,2.3125,-1.044922,-0.357422,-1.015625,0.185913,-0.195984,0.597839,0.7547,down
436566,-5.90625,9.4375,2.3125,-0.935547,-0.330078,-1.001953,0.189697,-0.198608,0.593079,0.756836,down
436571,-6.019531,9.28125,2.429688,-0.673828,-0.253906,-1.007813,0.19165,-0.199951,0.591003,0.757629,down
436576,-6.019531,9.09375,2.542969,-0.474609,-0.207031,-1.001953,0.19165,-0.199951,0.591003,0.757629,down
436581,-5.980469,9.203125,2.621094,-0.474609,-0.207031,-1.001953,0.193787,-0.201355,0.589172,0.758118,down
436586,-6.097656,9.441406,2.621094,-0.261719,-0.15625,-0.982422,0.197632,-0.203796,0.587097,0.758118,down
436591,-6.441406,9.585938,2.621094,-0.261719,-0.15625,-0.982422,0.199524,-0.204773,0.586792,0.757568,down
436596,-6.902344,10.167969,2.621094,-0.261719,-0.15625,-0.982422,0.199524,-0.204773,0.586792,0.757568,down
436601,-7.054687,10.625,2.582031,0.613281,-0.259766,-0.716797,0.199524,-0.204773,0.586792,0.757568,down
436606,-7.4375,11.046875,2.582031,0.613281,-0.259766,-0.716797,0.205627,-0.205994,0.588196,0.754517,down
436611,-8.011719,11.851563,2.351563,0.613281,-0.259766,-0.716797,0.205627,-0.205994,0.588196,0.754517,down
436616,-8.355469,12.082031,2.3125,0.800781,-0.5625,-0.224609,0.207764,-0.205627,0.589294,0.753174,down
436621,-8.511719,12.121094,2.582031,0.800781,-0.5625,-0.224609,0.209412,-0.204773,0.590332,0.752136,down
436626,-8.433594,12.117188,2.621094,0.767578,-0.792969,0.201172,0.210937,-0.203369,0.591431,0.751221,down
436631,-8.433594,12.117188,2.621094,0.767578,-0.792969,0.201172,0.213135,-0.199158,0.593628,0.75,down
436636,-8.28125,11.890625,2.695313,0.767578,-0.792969,0.201172,0.213135,-0.199158,0.593628,0.75,down
436641,-8.050781,11.390625,2.886719,0.650391,-0.796875,0.679687,0.213135,-0.199158,0.593628,0.75,down
436646,-7.707031,11.128906,2.886719,0.492187,-0.777344,1.107422,0.213623,-0.19342,0.595886,0.749573,down
436651,-7.4375,10.972656,2.8125,0.492187,-0.777344,1.107422,0.213196,-0.190186,0.596924,0.749695,down
436656,-7.285156,10.734375,2.621094,0.457031,-0.660156,1.484375,0.212158,-0.18634,0.598083,0.75,down
436662,-7.285156,10.734375,2.621094,0.460937,-0.619141,1.65625,0.209106,-0.179199,0.600403,0.750793,down
436667,-6.824219,10.203125,2.007813,0.523437,-0.578125,1.806641,0.206726,-0.174866,0.601929,0.751282,down
436673,-6.710937,10.246094,1.660156,0.523437,-0.578125,1.806641,0.20459,-0.171143,0.603333,0.751587,down
436679,-6.136719,10.164063,1.394531,0.757812,-0.542969,2.048828,0.20459,-0.171143,0.603333,0.751587,down
436685,-5.945312,10.320313,1.316406,0.896484,-0.486328,2.146484,0.20459,-0.171143,0.603333,0.751587,down
436690,-5.90625,10.472656,1.125,1.042969,-0.402344,2.253906,0.20459,-0.171143,0.603333,0.751587,down
436696,-5.636719,10.429688,0.972656,1.167969,-0.306641,2.357422,0.20459,-0.171143,0.603333,0.751587,down
436701,-5.597656,10.628906,1.011719,1.167969,-0.306641,2.357422,0.184509,-0.142273,0.619507,0.749634,down
436706,-5.5625,10.8125,1.050781,1.167969,-0.306641,2.357422,0.184509,-0.142273,0.619507,0.749634,down
436711,-5.523437,10.929688,1.050781,1.460938,-0.09375,2.828125,0.175659,-0.132324,0.626465,0.747803,down
436716,-5.367187,11.234375,1.050781,1.460938,-0.09375,2.828125,0.170105,-0.126587,0.630432,0.746704,down
436721,-5.175781,11.238281,1.011719,1.546875,0.082031,3.486328,0.170105,-0.126587,0.630432,0.746704,down
436726,-5.023437,11.3125,0.972656,1.546875,0.082031,3.486328,0.163696,-0.120178,0.634766,0.745544,down
436731,-4.566406,11.390625,1.085938,1.537109,0.115234,3.751953,0.163696,-0.120178,0.634766,0.745544,down
436736,-4.296875,11.316406,1.242188,1.537109,0.115234,3.751953,0.150574,-0.107727,0.642517,0.743591,down
436741,-4.027344,11.125,1.394531,1.552734,0.183594,4.662109,0.142456,-0.10022,0.646729,0.742554,down
436746,-3.796875,10.855469,1.46875,1.552734,0.183594,4.662109,0.134155,-0.09259,0.650818,0.741577,down
436751,-3.796875,10.855469,1.46875,1.552734,0.183594,4.662109,0.12561,-0.085022,0.654602,0.74054,down
436756,-3.414063,10.355469,0.972656,1.552734,0.183594,4.662109,0.12561,-0.085022,0.654602,0.74054,down
436761,-3.109375,9.667969,0.628906,1.541016,0.443359,5.554687,0.105713,-0.068359,0.662537,0.738403,down
436766,-2.992188,9.519531,0.589844,1.556641,0.4375,5.814453,0.083618,-0.049988,0.670166,0.735779,down
436771,-2.648438,8.898438,0.742187,1.556641,0.4375,5.814453,0.083618,-0.049988,0.670166,0.735779,down
436776,-2.34375,8.328125,0.78125,1.986328,0.277344,6.255859,0.071716,-0.039795,0.674255,0.733948,down
436781,-2.035156,8.019531,0.742187,1.986328,0.277344,6.255859,0.059509,-0.029053,0.678528,0.731567,down
436786,-1.730469,7.945312,0.472656,1.986328,0.277344,6.255859,0.035767,-0.008179,0.686768,0.725952,down
436791,-1.347656,7.671875,-0.175781,1.986328,0.277344,6.255859,0.035767,-0.008179,0.686768,0.725952,down
436796,-1.347656,7.671875,-0.175781,2.226563,0.416016,6.335937,0.024231,0.001648,0.690674,0.722778,down
436801,-1.003906,7.75,-0.332031,2.226563,0.416016,6.335937,0.011719,0.012268,0.694763,0.718994,down
436806,-1.003906,7.75,-0.332031,2.431641,0.435547,6.34375,0.000366,-0.022461,-0.69873,-0.715027,down
436811,0.183594,7.632812,-0.214844,2.431641,0.435547,6.34375,0.000366,-0.022461,-0.69873,-0.715027,down
436816,0.378906,7.671875,-0.332031,2.457031,0.673828,6.427734,0.000366,-0.022461,-0.69873,-0.715027,down
436821,0.453125,7.789062,-0.714844,2.408203,0.917969,6.501953,0.052185,-0.062378,-0.712952,-0.696472,down
436826,0.570312,7.671875,-1.480469,2.408203,0.917969,6.501953,0.052185,-0.062378,-0.712952,-0.696472,down
436832,0.683594,7.523437,-1.671875,2.054688,1.480469,6.675781,0.052185,-0.062378,-0.712952,-0.696472,down
436837,0.835937,7.449219,-1.554688,2.054688,1.480469,6.675781,0.096741,-0.090759,-0.719482,-0.681702,down
436842,0.914062,7.25,-1.171875,2.054688,1.480469,6.675781,0.110046,-0.099182,-0.720642,-0.677307,down
436848,1.371094,5.878906,-0.332031,2.054688,1.480469,6.675781,0.125549,-0.10907,-0.721436,-0.672241,down
436854,1.757813,4.496094,0.359375,1.623047,1.556641,6.802734,0.140442,-0.118347,-0.721741,-0.667358,down
436859,2.523438,2.582031,0.78125,1.632813,1.53125,6.738281,0.140442,-0.118347,-0.721741,-0.667358,down
436865,2.867188,1.851563,0.894531,1.699219,1.541016,6.638672,0.140442,-0.118347,-0.721741,-0.667358,down
436870,2.867188,1.851563,0.894531,1.876953,1.560547,6.554687,0.182556,-0.144287,-0.721741,-0.651917,down
436875,3.097656,1.238281,0.855469,2.138672,1.59375,6.470703,0.182556,-0.144287,-0.721741,-0.651917,down
436880,3.515625,0.820312,0.78125,2.138672,1.59375,6.470703,0.210999,-0.160461,-0.722229,-0.638855,down
436885,3.820313,1.585938,0.664062,2.138672,1.59375,6.470703,0.210999,-0.160461,-0.722229,-0.638855,down
436891,3.863281,1.777344,0.550781,3.474609,1.560547,6.183594,0.210999,-0.160461,-0.722229,-0.638855,down
436896,3.980469,2.199219,0.28125,4.480469,1.740234,6.099609,0.210999,-0.160461,-0.722229,-0.638855,down
436901,3.9375,3.039063,0.167969,4.480469,1.740234,6.099609,0.267151,-0.187195,-0.729065,-0.601685,down
436906,3.976563,2.925781,0.4375,4.953125,1.763672,6.048828,0.267151,-0.187195,-0.729065,-0.601685,down
436911,3.976563,2.925781,0.4375,5.417969,1.728516,5.980469,0.296204,-0.197266,-0.735352,-0.576721,down
436916,4.164062,2.199219,1.164063,5.855469,1.818359,5.849609,0.296204,-0.197266,-0.735352,-0.576721,down
436921,4.164062,2.199219,1.164063,6.277344,1.990234,5.699219,0.3255,-0.204712,-0.743103,-0.547668,down
436926,4.09375,2.160156,2.007813,6.664062,2.166016,5.515625,0.3255,-0.204712,-0.743103,-0.547668,down
436932,3.710938,1.585938,2.8125,6.664062,2.166016,5.515625,0.369324,-0.208801,-0.755676,-0.498962,down
436937,3.59375,1.011719,3.726563,6.664062,2.166016,5.515625,0.384277,-0.208679,-0.76001,-0.480774,down
436942,3.519531,1.046875,4.113281,6.574219,2.083984,4.332031,0.384277,-0.208679,-0.76001,-0.480774,down
436947,3.519531,0.894531,4.386719,6.574219,2.083984,4.332031,0.408936,-0.207397,-0.766479,-0.449707,down
436952,2.945313,0.589844,4.191406,6.574219,2.083984,4.332031,0.408936,-0.207397,-0.766479,-0.449707,down
436957,2.90625,0.664062,3.464844,5.480469,2.058594,3.548828,0.419495,-0.206421,-0.768738,-0.436462,down
436962,2.90625,0.664062,3.464844,3.972656,1.878906,2.8125,0.419495,-0.206421,-0.768738,-0.436462,down
436967,2.910156,0.78125,2.65625,3.972656,1.878906,2.8125,0.446655,-0.203552,-0.771667,-0.40448,down
436972,2.976563,1.085938,2.582031,3.972656,1.878906,2.8125,0.452637,-0.20343,-0.772034,-0.397095,down
436977,3.132813,1.011719,2.734375,1.984375,0.669922,1.595703,0.452637,-0.20343,-0.772034,-0.397095,down
436982,3.289063,0.855469,3.078125,1.386719,0.490234,1.148438,0.457703,-0.203491,-0.772461,-0.390442,down
436987,3.519531,0.664062,3.230469,1.386719,0.490234,1.148438,0.463196,-0.203735,-0.772766,-0.383118,down
436992,3.671875,0.320313,3.195313,1.386719,0.490234,1.148438,0.464966,-0.20343,-0.772461,-0.381775,down
436997,3.632813,-0.714844,2.464844,-0.130859,0.65625,-0.226562,0.464966,-0.20343,-0.772461,-0.381775,down
437002,3.359375,-1.328125,1.625,-0.130859,0.65625,-0.226562,0.466309,-0.202698,-0.771729,-0.381958,down
437008,3.359375,-1.328125,1.625,-0.916016,0.455078,-1.068359,0.466736,-0.2005,-0.770142,-0.385803,down
437013,2.714844,-1.902344,1.585938,-1.251953,0.34375,-1.443359,0.465637,-0.198792,-0.769165,-0.389893,down
437018,2.25,-2.246094,1.929688,-1.251953,0.34375,-1.443359,0.463928,-0.19696,-0.76825,-0.394653,down
437024,1.640625,-2.480469,2.238281,-1.251953,0.34375,-1.443359,0.462036,-0.194946,-0.767517,-0.399231,down
437030,1.449219,-1.941406,2.464844,-1.458984,0.208984,-2.435547,0.462036,-0.194946,-0.767517,-0.399231,down
437036,1.144531,-1.519531,2.8125,-1.199219,-0.005859,-2.734375,0.462036,-0.194946,-0.767517,-0.399231,down
437041,0.683594,-1.519531,3.765625,-0.429687,-0.660156,-3.294922,0.462036,-0.194946,-0.767517,-0.399231,down
437046,-0.042969,-2.015625,5.339844,-0.429687,-0.660156,-3.294922,0.447998,-0.179565,-0.768372,-0.420288,down
437051,-0.65625,-1.824219,5.21875,0.037109,-0.806641,-3.554688,0.447998,-0.179565,-0.768372,-0.420288,down
437056,-1.539063,-1.519531,4.652344,0.341797,-0.970703,-3.800781,0.447998,-0.179565,-0.768372,-0.420288,down
437062,-2.417969,-0.867187,4.070312,0.548828,-1.431641,-4.070312,0.423523,-0.15387,-0.780762,-0.432922,down
437067,-2.800781,-0.675781,4.003906,0.902344,-2.75,-4.6875,0.41394,-0.146606,-0.786011,-0.435181,down
437072,-2.800781,-0.675781,4.003906,0.902344,-2.75,-4.6875,0.41394,-0.146606,-0.786011,-0.435181,down
437077,-3.109375,-0.558594,3.886719,0.830078,-3.310547,-4.986328,0.41394,-0.146606,-0.786011,-0.435181,down
437082,-3.109375,-0.558594,3.886719,0.589844,-3.828125,-5.285156,0.390808,-0.13269,-0.797668,-0.439697,down
437087,-3.757813,0.242187,2.773438,0.589844,-3.828125,-5.285156,0.376465,-0.125732,-0.803894,-0.442871,down
437092,-4.339844,0.742187,1.660156,0.589844,-3.828125,-5.285156,0.343567,-0.11261,-0.815369,-0.452209,down
437097,-4.527344,0.855469,1.085938,0.589844,-3.828125,-5.285156,0.32489,-0.106323,-0.820251,-0.458679,down
437102,-5.253906,1.085938,0.4375,-2.162109,-6.044922,-7.3125,0.32489,-0.106323,-0.820251,-0.458679,down
437107,-5.710937,1.355469,0.207031,-2.162109,-6.044922,-7.3125,0.302307,-0.099365,-0.824829,-0.467285,down
437112,-6.136719,1.546875,0.054687,-2.957031,-6.822266,-8.357422,0.302307,-0.099365,-0.824829,-0.467285,down
437117,-6.136719,1.546875,0.054687,-2.957031,-6.822266,-8.357422,0.232788,-0.079224,-0.833252,-0.495239,down
437122,-7.859375,1.621094,-0.558594,-2.957031,-6.822266,-8.357422,0.232788,-0.079224,-0.833252,-0.495239,down
437127,-8.585938,1.777344,-1.171875,-3.615234,-7.613281,-9.994141,0.232788,-0.079224,-0.833252,-0.495239,down
437132,-8.585938,1.777344,-1.171875,-3.615234,-7.613281,-9.994141,0.176392,-0.061646,-0.835327,-0.517029,down
437137,-10.195313,2.390625,-2.09375,-3.615234,-7.613281,-9.994141,0.176392,-0.061646,-0.835327,-0.517029,down
437142,-11.152344,2.503906,-2.285156,-3.689453,-8.306641,-11.208984,0.176392,-0.061646,-0.835327,-0.517029,down
437147,-13.300781,3.269531,-2.820313,-3.931641,-8.353516,-12.554688,0.176392,-0.061646,-0.835327,-0.517029,down
437153,-16.054687,6.179687,-3.855469,-3.931641,-8.353516,-12.554688,0.006592,0.000244,-0.823486,-0.567261,down
437158,-16.707031,9.515625,-5.003906,-3.820313,-8.363281,-13.746094,0.029236,-0.015869,0.817505,0.574951,down
437163,-17.785156,13.5,-5.5,-3.820313,-8.363281,-13.746094,0.062378,-0.030151,0.811157,0.580688,down
437168,-19.117187,16.675781,-5.808594,-3.958984,-9.515625,-14.849609,0.10437,-0.047668,0.801697,0.586609,down
437173,-22.71875,18.859375,-6.113281,-3.958984,-9.515625,-14.849609,0.10437,-0.047668,0.801697,0.586609,down
437178,-23.566406,19.4375,-7.070312,-4.619141,-9.822266,-15.484375,0.143372,-0.064087,0.790833,0.591553,down
437183,-23.566406,19.4375,-7.070312,-4.619141,-9.822266,-15.484375,0.184937,-0.082092,0.776367,0.596863,down
437188,-24.488281,19.703125,-9.867188,-6.75,-10.464844,-16.701172,0.184937,-0.082092,0.776367,0.596863,down
437193,-24.25,18.746094,-9.484375,-8.878906,-11.310547,-17.449219,0.184937,-0.082092,0.776367,0.596863,down
437198,-23.023437,17.328125,-8.644531,-8.878906,-11.310547,-17.449219,0.364014,-0.164856,0.674561,0.620667,down
437204,-21.535156,16.792969,-7.648437,-10.736328,-11.072266,-17.035156,0.405762,-0.186096,0.639343,0.626099,down
437209,-17.128906,22.808594,-4.890625,-10.736328,-11.072266,-17.035156,0.438538,-0.204712,0.607056,0.63031,down
437214,-15.828125,21.621094,-3.894531,-12.091797,-8.601563,-15.517578,0.438538,-0.204712,0.607056,0.63031,down
437220,-15.445313,19.96875,-2.667969,-12.46875,-7.128906,-14.388672,0.438538,-0.204712,0.607056,0.63031,down
437225,-15.136719,18.636719,-1.402344,-12.46875,-7.128906,-14.388672,0.520874,-0.272217,0.494141,0.640686,down
437231,-14.984375,12.539063,2.390625,-12.46875,-7.128906,-14.388672,0.520874,-0.272217,0.494141,0.640686,down
437237,-15.976563,8.785156,5.070312,-10.392578,-4.138672,-7.388672,0.520874,-0.272217,0.494141,0.640686,down
437242,-18.246094,2.808594,8.75,-10.392578,-4.138672,-7.388672,0.568237,-0.340881,0.368286,0.652161,down
437247,-19.042969,0.550781,9.707031,-10.392578,-4.138672,-7.388672,0.572205,-0.351807,0.347656,0.654175,down
437252,-19.011719,-0.945312,11.007813,-10.392578,-4.138672,-7.388672,0.572205,-0.351807,0.347656,0.654175,down
437257,-17.054687,-1.710938,12.503906,-4.160156,-1.431641,-3.210938,0.572205,-0.351807,0.347656,0.654175,down
437262,-16.597656,-0.90625,11.738281,-4.160156,-1.431641,-3.210938,0.581299,-0.366699,0.323669,0.65033,down
437267,-17.28125,1.96875,10.816406,-4.160156,-1.431641,-3.210938,0.581299,-0.366699,0.323669,0.65033,down
437272,-18.125,4.34375,10.394531,3.111328,2.480469,-0.710937,0.585266,-0.367249,0.339233,0.638367,down
437277,-18.585937,6.871094,7.332031,3.111328,2.480469,-0.710937,0.585266,-0.367249,0.339233,0.638367,down
437282,-19.273437,8.941406,5.992187,3.111328,2.480469,-0.710937,0.586792,-0.365601,0.369019,0.621155,down
437287,-19.65625,10.355469,5.1875,3.111328,2.480469,-0.710937,0.586792,-0.365601,0.369019,0.621155,down
437292,-19.539062,10.738281,4.804687,7.96875,4.419922,0.351563,0.591675,-0.355042,0.40564,0.599426,down
437297,-19.964844,12.042969,3.882813,7.96875,4.419922,0.351563,0.591675,-0.355042,0.40564,0.599426,down
437303,-19.886719,12.503906,3.960938,10.044922,1.408203,0.064453,0.59668,-0.344788,0.425842,0.586304,down
437308,-19.660156,12.921875,4.957031,10.044922,1.408203,0.064453,0.609558,-0.319458,0.458496,0.562256,down
437313,-18.65625,14.148438,7.371094,10.044922,1.408203,0.064453,0.616089,-0.307556,0.468811,0.553284,down
437318,-14.984375,11.046875,11.007813,10.044922,1.408203,0.064453,0.620117,-0.300659,0.473267,0.548767,down
437323,-11.882813,10.816406,12.503906,-0.476562,0.775391,0.119141,0.620117,-0.300659,0.473267,0.548767,down
437328,-13.488281,8.59375,9.972656,-0.476562,0.775391,0.119141,0.618469,-0.302429,0.474915,0.548157,down
437334,-12.457031,5.570312,5.992187,-0.476562,0.775391,0.119141,0.616394,-0.305298,0.475159,0.548706,down
437339,-11.304688,5.109375,6.601562,-1.943359,-0.072266,0.382813,0.616394,-0.305298,0.475159,0.548706,down
437344,-10.542969,4.800781,7.371094,-2.576172,-0.314453,0.457031,0.616394,-0.305298,0.475159,0.548706,down
437349,-10.15625,4.226562,7.714844,-2.576172,-0.314453,0.457031,0.609497,-0.314514,0.466187,0.558838,down
437355,-9.660156,2.847656,6.871094,-2.576172,-0.314453,0.457031,0.605896,-0.319397,0.461365,0.563904,down
437361,-9.15625,2.199219,6.183594,-4.261719,0.234375,0.623047,0.605896,-0.319397,0.461365,0.563904,down
437367,-8.550781,0.855469,4.496094,-3.683594,0.316406,0.626953,0.605896,-0.319397,0.461365,0.563904,down
437372,-8.46875,0.628906,4.0,-2.574219,0.242187,0.638672,0.605896,-0.319397,0.461365,0.563904,down
437378,-8.390625,0.398438,3.960938,-1.335938,0.023437,0.669922,0.588745,-0.338257,0.444885,0.583984,down
437383,-7.941406,0.398438,4.6875,-1.335938,0.023437,0.669922,0.588379,-0.33667,0.44574,0.584656,down
437388,-7.820312,0.589844,4.996094,-1.335938,0.023437,0.669922,0.588745,-0.333984,0.447693,0.584229,down
437394,-7.742187,0.664062,4.957031,2.214844,0.0625,0.527344,0.589722,-0.3302,0.451233,0.582764,down
437399,-7.667969,0.703125,4.574219,2.515625,0.244141,0.478516,0.590759,-0.326355,0.455383,0.580627,down
437404,-7.707031,1.011719,3.84375,2.515625,0.244141,0.478516,0.591858,-0.322449,0.459961,0.578064,down
437410,-7.820312,1.429688,3.539063,2.515625,0.244141,0.478516,0.592896,-0.318787,0.464417,0.575439,down
437416,-8.007813,1.546875,3.5,2.847656,0.402344,0.40625,0.592896,-0.318787,0.464417,0.575439,down
437421,-8.007813,1.816406,3.617188,2.660156,0.417969,0.394531,0.592896,-0.318787,0.464417,0.575439,down
437426,-8.164063,2.199219,3.808594,2.660156,0.417969,0.394531,0.592896,-0.318787,0.464417,0.575439,down
437431,-8.28125,2.390625,3.84375,1.888672,0.546875,0.433594,0.592896,-0.318787,0.464417,0.575439,down
437436,-8.320313,2.503906,3.769531,1.4375,0.605469,0.460937,0.592896,-0.318787,0.464417,0.575439,down
437441,-8.546875,2.734375,3.347656,1.4375,0.605469,0.460937,0.595947,-0.300659,0.489563,0.561096,down
437446,-8.703125,2.695313,3.386719,0.865234,0.617187,0.513672,0.595947,-0.300659,0.489563,0.561096,down
437451,-8.777344,2.65625,3.460938,0.748047,0.556641,0.539062,0.595947,-0.300659,0.489563,0.561096,down
437456,-8.972656,2.695313,3.5,0.714844,0.498047,0.546875,0.595947,-0.300659,0.489563,0.561096,down
437461,-9.089844,2.695313,3.425781,0.714844,0.498047,0.546875,0.595947,-0.300659,0.489563,0.561096,down
437466,-9.125,2.734375,3.425781,0.714844,0.498047,0.546875,0.59198,-0.295166,0.50116,0.557922,down
437471,-9.128906,2.695313,3.425781,0.894531,0.230469,0.525391,0.59198,-0.295166,0.50116,0.557922,down
437476,-9.046875,2.695313,3.425781,0.894531,0.230469,0.525391,0.591248,-0.291809,0.50531,0.556763,down
437481,-8.894531,2.773438,3.425781,0.894531,0.230469,0.525391,0.591248,-0.291809,0.50531,0.556763,down
437486,-8.890625,2.734375,3.347656,0.894531,0.230469,0.525391,0.591187,-0.287781,0.508911,0.555542,down
437491,-8.929688,2.617188,3.230469,0.998047,-0.074219,0.498047,0.591187,-0.287781,0.508911,0.555542,down
437496,-8.933594,2.390625,3.117188,0.998047,-0.074219,0.498047,0.591187,-0.287781,0.508911,0.555542,down
437502,-8.890625,2.3125,3.15625,0.998047,-0.074219,0.498047,0.591431,-0.281555,0.51355,0.55426,down
437508,-8.777344,2.234375,3.269531,0.271484,-0.207031,0.417969,0.591431,-0.281555,0.51355,0.55426,down
437513,-8.589844,2.082031,3.308594,0.271484,-0.207031,0.417969,0.591309,-0.278503,0.515076,0.554504,down
437518,-8.628906,2.464844,3.039063,-0.107422,-0.167969,0.355469,0.591064,-0.277405,0.51532,0.555054,down
437524,-8.777344,2.3125,2.964844,-0.107422,-0.167969,0.355469,0.590454,-0.276245,0.515137,0.556519,down
437529,-8.355469,1.96875,2.925781,-0.183594,-0.191406,0.351563,0.590088,-0.275818,0.514832,0.557373,down
437535,-8.394531,2.082031,3.003906,-0.183594,-0.191406,0.351563,0.589661,-0.275513,0.514587,0.558167,down
437540,-8.472656,1.929688,2.847656,-0.257813,-0.058594,0.388672,0.589661,-0.275513,0.514587,0.558167,down
437545,-8.394531,1.777344,2.8125,-0.181641,-0.035156,0.375,0.589661,-0.275513,0.514587,0.558167,down
437550,-8.394531,1.777344,2.8125,-0.181641,-0.035156,0.375,0.589661,-0.275513,0.514587,0.558167,down
437556,-8.355469,1.816406,2.8125,0.230469,-0.042969,0.345703,0.589661,-0.275513,0.514587,0.558167,down
437561,-8.324219,1.929688,2.734375,0.412109,-0.027344,0.333984,0.589661,-0.275513,0.514587,0.558167,down
437567,-8.324219,2.082031,2.8125,0.412109,-0.027344,0.333984,0.587158,-0.271973,0.516296,0.561035,down
437573,-8.394531,2.3125,2.695313,0.412109,-0.027344,0.333984,0.586853,-0.269592,0.518433,0.560547,down
437578,-8.355469,2.390625,2.695313,0.412109,-0.027344,0.333984,0.586853,-0.269592,0.518433,0.560547,down
437583,-8.355469,2.503906,2.65625,0.597656,0.117188,0.400391,0.586182,-0.267151,0.520996,0.559998,down
437588,-8.585938,2.582031,2.621094,0.597656,0.117188,0.400391,0.585693,-0.265991,0.522461,0.559753,down
437593,-8.585938,2.503906,2.621094,0.597656,0.117188,0.400391,0.585693,-0.265991,0.522461,0.559753,down
437598,-8.585938,2.503906,2.621094,0.542969,0.25,0.498047,0.584351,-0.263794,0.525391,0.559387,down
437603,-8.625,2.503906,2.582031,0.542969,0.25,0.498047,0.583557,-0.262817,0.526855,0.559326,down
437608,-8.703125,2.542969,2.621094,0.542969,0.25,0.498047,0.582764,-0.261963,0.528259,0.559265,down
437613,-8.703125,2.582031,2.542969,0.542969,0.25,0.498047,0.582764,-0.261963,0.528259,0.559265,down
437619,-8.707031,2.808594,2.464844,0.46875,0.324219,0.515625,0.582764,-0.261963,0.528259,0.559265,down
437625,-8.667969,3.003906,2.390625,0.46875,0.324219,0.515625,0.5802,-0.259155,0.532776,0.558838,down
437630,-8.738281,3.003906,2.3125,0.623047,0.361328,0.533203,0.579346,-0.258057,0.534546,0.558594,down
437636,-8.777344,3.039063,2.273438,0.677734,0.376953,0.552734,0.579346,-0.258057,0.534546,0.558594,down
437641,-8.8125,3.003906,2.351563,0.677734,0.376953,0.552734,0.577698,-0.255737,0.538208,0.557922,down
437647,-8.707031,2.964844,2.390625,0.697266,0.392578,0.560547,0.577698,-0.255737,0.538208,0.557922,down
437652,-8.738281,2.964844,2.351563,0.708984,0.40625,0.550781,0.577698,-0.255737,0.538208,0.557922,down
437658,-8.625,3.003906,2.3125,0.734375,0.396484,0.527344,0.577698,-0.255737,0.538208,0.557922,down
437663,-8.589844,3.117188,2.238281,0.734375,0.396484,0.527344,0.574219,-0.250854,0.545959,0.556152,down
437668,-8.628906,3.230469,2.273438,0.710937,0.398438,0.521484,0.574219,-0.250854,0.545959,0.556152,down
437673,-8.628906,3.460938,2.238281,0.669922,0.394531,0.523437,0.574219,-0.250854,0.545959,0.556152,down
437678,-8.628906,3.5,2.3125,0.669922,0.394531,0.523437,0.571655,-0.247437,0.551575,0.554749,down
437683,-8.585938,3.578125,2.273438,0.669922,0.394531,0.523437,0.570679,-0.246277,0.553406,0.554443,down
