timestamp,ax,ay,az,gx,gy,gz,qw,qx,qy,qz,label
246471,4.089844,8.152344,-3.335938,-0.105469,-0.046875,-0.0625,0.344543,0.181763,-0.800476,-0.455505,down
246476,4.050781,8.113281,-3.296875,-0.138672,-0.054687,-0.144531,0.344299,0.181885,-0.800354,-0.455872,down
246482,4.015625,8.113281,-3.222656,-0.154297,-0.060547,-0.15625,0.344299,0.181885,-0.800354,-0.455872,down
246488,3.9375,8.070313,-3.144531,-0.154297,-0.060547,-0.15625,0.343811,0.18219,-0.799927,-0.456909,down
246493,3.898438,8.035156,-3.105469,-0.169922,-0.083984,-0.175781,0.343811,0.18219,-0.799927,-0.456909,down
246499,3.859375,8.03125,-2.992188,-0.173828,-0.09375,-0.179687,0.343811,0.18219,-0.799927,-0.456909,down
246504,3.859375,7.996094,-3.03125,-0.173828,-0.09375,-0.179687,0.342773,0.182556,-0.799255,-0.458618,down
246509,3.824219,8.03125,-2.953125,-0.171875,-0.117188,-0.189453,0.342773,0.182556,-0.799255,-0.458618,down
246514,3.785156,8.035156,-2.914063,-0.171875,-0.117188,-0.189453,0.34198,0.1828,-0.798889,-0.459839,down
246520,3.707031,7.992187,-2.914063,-0.171875,-0.117188,-0.189453,0.341187,0.183044,-0.798523,-0.460937,down
246525,3.746094,7.996094,-2.839844,-0.138672,-0.171875,-0.167969,0.340637,0.183105,-0.798401,-0.461487,down
246531,3.632813,8.113281,-2.800781,-0.138672,-0.171875,-0.167969,0.34021,0.183167,-0.798279,-0.461975,down
246536,3.59375,8.109375,-2.839844,-0.115234,-0.173828,-0.173828,0.34021,0.183167,-0.798279,-0.461975,down
246542,3.59375,8.1875,-3.03125,-0.115234,-0.173828,-0.173828,0.339172,0.183289,-0.798157,-0.462952,down
246547,3.554688,8.265625,-2.992188,-0.121094,-0.179687,-0.15625,0.339172,0.183289,-0.798157,-0.462952,down
246553,3.554688,8.265625,-3.03125,-0.132812,-0.1875,-0.160156,0.339172,0.183289,-0.798157,-0.462952,down
246558,3.632813,8.457031,-3.144531,-0.132812,-0.1875,-0.160156,0.339172,0.183289,-0.798157,-0.462952,down
246564,3.632813,8.492188,-3.261719,-0.148437,-0.175781,-0.162109,0.339172,0.183289,-0.798157,-0.462952,down
246569,3.667969,8.570313,-3.375,-0.205078,-0.140625,-0.154297,0.339172,0.183289,-0.798157,-0.462952,down
246575,3.667969,8.6875,-3.488281,-0.205078,-0.140625,-0.154297,0.335876,0.183289,-0.797302,-0.466797,down
246581,3.707031,8.648438,-3.605469,-0.205078,-0.140625,-0.154297,0.335571,0.183228,-0.796997,-0.467529,down
246586,3.667969,8.691406,-3.566406,-0.28125,-0.082031,-0.107422,0.335388,0.183167,-0.796753,-0.468201,down
246591,3.707031,8.613281,-3.488281,-0.28125,-0.082031,-0.107422,0.335205,0.183044,-0.796387,-0.468933,down
246597,3.707031,8.652344,-3.414063,-0.28125,-0.082031,-0.107422,0.335083,0.182983,-0.796082,-0.469482,down
246603,3.707031,8.570313,-3.335938,-0.210937,-0.035156,-0.039063,0.335083,0.182983,-0.796082,-0.469482,down
246609,3.707031,8.570313,-3.183594,-0.169922,-0.03125,-0.021484,0.335083,0.182983,-0.796082,-0.469482,down
246614,3.632813,8.570313,-3.183594,-0.169922,-0.03125,-0.021484,0.335022,0.182617,-0.795471,-0.470825,down
246620,3.632813,8.535156,-3.144531,0.007813,-0.044922,0.037109,0.335022,0.182617,-0.795471,-0.470825,down
246625,3.632813,8.492188,-3.105469,0.007813,-0.044922,0.037109,0.3349,0.182251,-0.795471,-0.471008,down
246631,3.632813,8.378906,-2.953125,0.007813,-0.044922,0.037109,0.334778,0.182129,-0.795654,-0.470886,down
246636,3.632813,8.339844,-2.992188,0.099609,-0.087891,0.068359,0.334656,0.182007,-0.795837,-0.470703,down
246642,3.667969,8.378906,-3.03125,0.089844,-0.105469,0.072266,0.334656,0.182007,-0.795837,-0.470703,down
246647,3.667969,8.335938,-3.070313,0.089844,-0.105469,0.072266,0.33429,0.181641,-0.796265,-0.470398,down
246653,3.632813,8.339844,-3.144531,0.005859,-0.107422,0.060547,0.33429,0.181641,-0.796265,-0.470398,down
246658,3.667969,8.339844,-3.144531,-0.048828,-0.107422,0.048828,0.33429,0.181641,-0.796265,-0.470398,down
246664,3.667969,8.335938,-3.222656,-0.103516,-0.121094,0.029297,0.33429,0.181641,-0.796265,-0.470398,down
246670,3.707031,8.335938,-3.222656,-0.185547,-0.126953,0.015625,0.33429,0.181641,-0.796265,-0.470398,down
246675,3.746094,8.335938,-3.261719,-0.185547,-0.126953,0.015625,0.333252,0.179993,-0.796204,-0.471741,down
246680,3.746094,8.265625,-3.261719,-0.185547,-0.126953,0.015625,0.333252,0.179993,-0.796204,-0.471741,down
246685,3.707031,8.230469,-3.296875,-0.185547,-0.126953,0.015625,0.332947,0.179382,-0.795837,-0.472839,down
246690,3.746094,8.148438,-3.261719,-0.234375,-0.132812,-0.019531,0.332947,0.179382,-0.795837,-0.472839,down
246695,3.746094,8.191406,-3.261719,-0.212891,-0.121094,-0.013672,0.332764,0.179016,-0.795654,-0.47345,down
246700,3.746094,8.148438,-3.261719,-0.212891,-0.121094,-0.013672,0.332397,0.178467,-0.795349,-0.474426,down
246705,3.785156,8.152344,-3.335938,-0.212891,-0.121094,-0.013672,0.332275,0.178284,-0.795227,-0.474792,down
246710,3.746094,8.113281,-3.375,-0.056641,-0.080078,0.009766,0.332275,0.178284,-0.795227,-0.474792,down
246715,3.785156,8.152344,-3.375,-0.007813,-0.064453,0.029297,0.332153,0.178101,-0.795227,-0.474976,down
246721,3.785156,8.152344,-3.375,0.029297,-0.056641,0.050781,0.331909,0.177856,-0.795288,-0.475098,down
246726,3.746094,8.226563,-3.335938,0.060547,-0.044922,0.0625,0.331848,0.177734,-0.79541,-0.475037,down
246731,3.707031,8.109375,-3.296875,0.060547,-0.044922,0.0625,0.331787,0.177612,-0.795532,-0.474854,down
246736,3.707031,8.109375,-3.222656,0.107422,-0.046875,0.078125,0.331787,0.177612,-0.795532,-0.474854,down
246741,3.667969,8.070313,-3.183594,0.107422,-0.046875,0.078125,0.331787,0.177612,-0.795532,-0.474854,down
246746,3.667969,8.070313,-3.183594,0.126953,-0.058594,0.076172,0.331543,0.177307,-0.796143,-0.474182,down
246751,3.667969,8.070313,-3.144531,0.115234,-0.064453,0.072266,0.331421,0.177185,-0.796326,-0.473938,down
246757,3.632813,7.996094,-3.105469,0.115234,-0.064453,0.072266,0.331299,0.177124,-0.796509,-0.473755,down
246763,3.554688,7.953125,-3.105469,0.066406,-0.070312,0.037109,0.331299,0.177124,-0.796509,-0.473755,down
246768,3.59375,7.953125,-3.144531,0.035156,-0.080078,0.015625,0.331299,0.177124,-0.796509,-0.473755,down
246773,3.554688,7.957031,-3.144531,0.013672,-0.097656,-0.021484,0.331299,0.177124,-0.796509,-0.473755,down
246779,3.59375,8.035156,-3.183594,0.013672,-0.097656,-0.021484,0.331299,0.177124,-0.796509,-0.473755,down
246784,3.554688,8.113281,-3.222656,-0.044922,-0.123047,-0.09375,0.331299,0.177124,-0.796509,-0.473755,down
246790,3.515625,8.113281,-3.261719,-0.082031,-0.128906,-0.119141,0.331299,0.177124,-0.796509,-0.473755,down
246795,3.59375,8.109375,-3.296875,-0.082031,-0.128906,-0.119141,0.328918,0.177002,-0.796692,-0.475098,down
246800,3.59375,8.113281,-3.335938,-0.082031,-0.128906,-0.119141,0.328918,0.177002,-0.796692,-0.475098,down
246805,3.59375,8.070313,-3.335938,-0.148437,-0.101563,-0.158203,0.328918,0.177002,-0.796692,-0.475098,down
246810,3.554688,8.03125,-3.414063,-0.148437,-0.101563,-0.158203,0.327942,0.177246,-0.796204,-0.476501,down
246815,3.59375,8.070313,-3.375,-0.148437,-0.101563,-0.158203,0.327637,0.177429,-0.796021,-0.47699,down
246820,3.59375,8.113281,-3.375,-0.148437,-0.101563,-0.158203,0.327637,0.177429,-0.796021,-0.47699,down
246825,3.59375,8.113281,-3.335938,-0.019531,-0.048828,-0.117188,0.327637,0.177429,-0.796021,-0.47699,down
246830,3.515625,8.074219,-3.183594,-0.019531,-0.048828,-0.117188,0.327087,0.177734,-0.795837,-0.477539,down
246835,3.515625,8.074219,-3.183594,0.029297,-0.029297,-0.105469,0.326843,0.177917,-0.795837,-0.477661,down
246840,3.515625,8.074219,-3.183594,0.121094,-0.029297,-0.068359,0.32666,0.178101,-0.795837,-0.477661,down
246845,3.441406,8.070313,-3.105469,0.121094,-0.029297,-0.068359,0.326477,0.178345,-0.795959,-0.4776,down
246851,3.441406,8.070313,-3.105469,0.121094,-0.029297,-0.068359,0.325928,0.178833,-0.796326,-0.477051,down
246856,3.441406,8.074219,-3.03125,0.207031,-0.050781,-0.048828,0.325684,0.179016,-0.79657,-0.476746,down
246861,3.363281,8.109375,-3.105469,0.207031,-0.050781,-0.048828,0.325439,0.17926,-0.796875,-0.47644,down
246866,3.324219,8.113281,-3.070313,0.207031,-0.050781,-0.048828,0.325195,0.179443,-0.797058,-0.476135,down
246871,3.324219,8.113281,-3.070313,0.205078,-0.080078,-0.072266,0.324829,0.179749,-0.797363,-0.47583,down
246877,3.324219,8.109375,-2.992188,0.205078,-0.080078,-0.072266,0.324463,0.179932,-0.797668,-0.475525,down
246882,3.285156,8.152344,-2.992188,0.205078,-0.080078,-0.072266,0.324097,0.180176,-0.797852,-0.475342,down
246887,3.246094,8.113281,-3.03125,0.126953,-0.109375,-0.128906,0.323608,0.18042,-0.798035,-0.47522,down
246893,3.246094,8.113281,-3.03125,0.089844,-0.134766,-0.158203,0.323608,0.18042,-0.798035,-0.47522,down
246898,3.246094,8.113281,-3.03125,0.058594,-0.142578,-0.171875,0.323608,0.18042,-0.798035,-0.47522,down
246903,3.210938,8.109375,-3.070313,0.058594,-0.142578,-0.171875,0.323608,0.18042,-0.798035,-0.47522,down
246909,3.210938,8.03125,-3.070313,-0.007813,-0.150391,-0.230469,0.323608,0.18042,-0.798035,-0.47522,down
246915,3.210938,8.035156,-3.03125,-0.044922,-0.173828,-0.267578,0.323608,0.18042,-0.798035,-0.47522,down
246920,3.171875,7.917969,-2.914063,-0.044922,-0.173828,-0.267578,0.319641,0.182312,-0.79834,-0.476746,down
246925,3.171875,7.996094,-2.914063,-0.035156,-0.175781,-0.279297,0.319641,0.182312,-0.79834,-0.476746,down
246930,3.132813,7.992187,-2.953125,-0.035156,-0.175781,-0.279297,0.31897,0.182617,-0.798279,-0.477173,down
246935,3.054688,8.035156,-2.878906,-0.023437,-0.177734,-0.279297,0.31897,0.182617,-0.798279,-0.477173,down
246940,3.09375,8.074219,-2.878906,-0.023437,-0.177734,-0.279297,0.317566,0.18335,-0.798218,-0.477905,down
246945,3.09375,8.113281,-2.914063,-0.023437,-0.177734,-0.279297,0.316772,0.183655,-0.798279,-0.47821,down
246951,3.09375,8.1875,-2.953125,0.058594,-0.203125,-0.244141,0.316772,0.183655,-0.798279,-0.47821,down
246957,3.054688,8.230469,-3.03125,0.058594,-0.203125,-0.244141,0.314636,0.184509,-0.798645,-0.478638,down
246962,3.054688,8.269531,-3.070313,0.138672,-0.222656,-0.203125,0.314636,0.184509,-0.798645,-0.478638,down
246967,3.019531,8.339844,-3.144531,0.162109,-0.232422,-0.195312,0.314636,0.184509,-0.798645,-0.478638,down
246972,3.054688,8.335938,-3.144531,0.179687,-0.244141,-0.195312,0.314636,0.184509,-0.798645,-0.478638,down
246977,3.054688,8.375,-3.144531,0.179687,-0.244141,-0.195312,0.314636,0.184509,-0.798645,-0.478638,down
246982,3.054688,8.375,-3.144531,0.167969,-0.248047,-0.210937,0.314636,0.184509,-0.798645,-0.478638,down
246987,3.019531,8.417969,-3.183594,0.158203,-0.263672,-0.228516,0.314636,0.184509,-0.798645,-0.478638,down
246992,3.019531,8.417969,-3.183594,0.158203,-0.263672,-0.228516,0.30896,0.18634,-0.800598,-0.478455,down
246998,3.019531,8.457031,-3.144531,0.158203,-0.263672,-0.228516,0.307983,0.186646,-0.800842,-0.478577,down
247004,3.019531,8.492188,-3.222656,0.064453,-0.292969,-0.285156,0.307983,0.186646,-0.800842,-0.478577,down
247010,2.941406,8.570313,-3.296875,-0.019531,-0.318359,-0.333984,0.307983,0.186646,-0.800842,-0.478577,down
247015,2.980469,8.570313,-3.261719,-0.019531,-0.318359,-0.333984,0.305054,0.187439,-0.801208,-0.479431,down
247021,3.019531,8.574219,-3.296875,-0.083984,-0.349609,-0.359375,0.305054,0.187439,-0.801208,-0.479431,down
247026,2.980469,8.609375,-3.335938,-0.083984,-0.349609,-0.359375,0.301758,0.188232,-0.80127,-0.48114,down
247032,2.941406,8.570313,-3.296875,-0.083984,-0.349609,-0.359375,0.300659,0.188477,-0.801208,-0.481812,down
247037,2.941406,8.535156,-3.222656,-0.09375,-0.369141,-0.373047,0.300659,0.188477,-0.801208,-0.481812,down
247042,2.902344,8.492188,-3.222656,-0.083984,-0.375,-0.367188,0.300659,0.188477,-0.801208,-0.481812,down
247048,2.863281,8.457031,-3.144531,-0.083984,-0.375,-0.367188,0.29718,0.189209,-0.801208,-0.483704,down
247053,2.828125,8.378906,-3.144531,-0.027344,-0.388672,-0.367188,0.29718,0.189209,-0.801208,-0.483704,down
247058,2.789063,8.378906,-3.144531,0.0,-0.394531,-0.363281,0.29718,0.189209,-0.801208,-0.483704,down
247063,2.75,8.375,-3.070313,0.005859,-0.390625,-0.373047,0.29718,0.189209,-0.801208,-0.483704,down
247070,2.671875,8.378906,-3.070313,0.005859,-0.390625,-0.373047,0.29718,0.189209,-0.801208,-0.483704,down
247075,2.671875,8.378906,-3.070313,0.039063,-0.40625,-0.398438,0.289551,0.190979,-0.801819,-0.486572,down
247080,2.636719,8.417969,-3.105469,0.039063,-0.40625,-0.398438,0.289551,0.190979,-0.801819,-0.486572,down
247085,2.597656,8.417969,-3.105469,-0.003906,-0.4375,-0.492187,0.289551,0.190979,-0.801819,-0.486572,down
247090,2.480469,8.453125,-3.144531,-0.003906,-0.4375,-0.492187,0.286743,0.191833,-0.802063,-0.487549,down
247096,2.519531,8.378906,-3.183594,-0.046875,-0.451172,-0.550781,0.283508,0.192871,-0.802002,-0.489075,down
247102,2.480469,8.296875,-3.296875,-0.046875,-0.451172,-0.550781,0.281982,0.193359,-0.80188,-0.48999,down
247107,2.480469,8.296875,-3.296875,-0.238281,-0.519531,-0.636719,0.280212,0.193848,-0.801636,-0.49115,down
247112,2.519531,8.300781,-3.296875,-0.238281,-0.519531,-0.636719,0.278564,0.194275,-0.801392,-0.492371,down
247117,2.519531,8.296875,-3.375,-0.238281,-0.519531,-0.636719,0.276733,0.194763,-0.801025,-0.493774,down
247122,2.558594,8.335938,-3.605469,-0.238281,-0.519531,-0.636719,0.276733,0.194763,-0.801025,-0.493774,down
247127,2.558594,8.335938,-3.605469,-0.373047,-0.511719,-0.603516,0.276733,0.194763,-0.801025,-0.493774,down
247133,2.597656,8.378906,-3.679688,-0.373047,-0.511719,-0.603516,0.276733,0.194763,-0.801025,-0.493774,down
247138,2.597656,8.457031,-3.679688,-0.373047,-0.511719,-0.603516,0.270447,0.196045,-0.7995,-0.499268,down
247144,2.597656,8.453125,-3.71875,-0.240234,-0.433594,-0.515625,0.270447,0.196045,-0.7995,-0.499268,down
247149,2.597656,8.453125,-3.71875,-0.128906,-0.390625,-0.486328,0.270447,0.196045,-0.7995,-0.499268,down
247155,2.558594,8.417969,-3.644531,0.007813,-0.378906,-0.449219,0.270447,0.196045,-0.7995,-0.499268,down
247160,2.558594,8.378906,-3.527344,0.126953,-0.359375,-0.431641,0.270447,0.196045,-0.7995,-0.499268,down
247165,2.519531,8.378906,-3.527344,0.234375,-0.349609,-0.414062,0.270447,0.196045,-0.7995,-0.499268,down
247170,2.445313,8.335938,-3.375,0.328125,-0.326172,-0.408203,0.270447,0.196045,-0.7995,-0.499268,down
247175,2.40625,8.339844,-3.414063,0.328125,-0.326172,-0.408203,0.260925,0.199402,-0.800049,-0.502075,down
247180,2.328125,8.339844,-3.375,0.328125,-0.326172,-0.408203,0.259521,0.200195,-0.800598,-0.501648,down
247186,2.25,8.457031,-3.414063,0.382813,-0.296875,-0.447266,0.259521,0.200195,-0.800598,-0.501648,down
247191,2.175781,8.496094,-3.375,0.382813,-0.296875,-0.447266,0.255554,0.202454,-0.801941,-0.50061,down
247196,2.097656,8.53125,-3.414063,0.382813,-0.296875,-0.447266,0.254028,0.203308,-0.802307,-0.500427,down
247201,2.097656,8.574219,-3.414063,0.189453,-0.320313,-0.501953,0.254028,0.203308,-0.802307,-0.500427,down
247206,2.058594,8.570313,-3.453125,0.097656,-0.328125,-0.521484,0.252686,0.204041,-0.802551,-0.500427,down
247211,2.023438,8.613281,-3.527344,0.097656,-0.328125,-0.521484,0.250061,0.205383,-0.802673,-0.501038,down
247216,1.945313,8.609375,-3.527344,-0.025391,-0.349609,-0.566406,0.250061,0.205383,-0.802673,-0.501038,down
247221,1.90625,8.570313,-3.453125,-0.0625,-0.371094,-0.587891,0.248596,0.206116,-0.802612,-0.501587,down
247226,1.867188,8.535156,-3.453125,-0.0625,-0.371094,-0.587891,0.245728,0.207458,-0.802307,-0.50293,down
247231,1.832031,8.492188,-3.414063,-0.0625,-0.371094,-0.587891,0.244263,0.20813,-0.802124,-0.503601,down
247236,1.753906,8.378906,-3.296875,-0.0625,-0.371094,-0.587891,0.244263,0.20813,-0.802124,-0.503601,down
247241,1.714844,8.339844,-3.261719,-0.041016,-0.441406,-0.664062,0.240784,0.209656,-0.80188,-0.505066,down
247246,1.640625,8.265625,-3.070313,-0.041016,-0.441406,-0.664062,0.240784,0.209656,-0.80188,-0.505066,down
247251,1.601563,8.230469,-2.992188,0.048828,-0.507812,-0.732422,0.238953,0.210449,-0.801819,-0.505676,down
247256,1.601563,8.230469,-2.992188,0.091797,-0.558594,-0.773437,0.236877,0.211365,-0.801819,-0.506287,down
247261,1.449219,8.191406,-2.761719,0.136719,-0.603516,-0.8125,0.232056,0.213318,-0.802002,-0.507385,down
247266,1.292969,8.148438,-2.609375,0.136719,-0.603516,-0.8125,0.229614,0.214233,-0.802124,-0.507874,down
247271,1.292969,8.109375,-2.53125,0.236328,-0.826172,-0.982422,0.229614,0.214233,-0.802124,-0.507874,down
247276,1.140625,8.03125,-2.378906,0.234375,-0.923828,-1.041016,0.226379,0.215393,-0.802368,-0.508423,down
247282,0.757812,8.453125,-2.300781,0.234375,-0.923828,-1.041016,0.219971,0.217529,-0.802795,-0.509705,down
247288,0.605469,8.417969,-2.53125,0.234375,-0.923828,-1.041016,0.216614,0.218628,-0.802917,-0.510498,down
247293,0.527344,8.414063,-2.648438,0.009766,-1.101563,-1.332031,0.21283,0.21991,-0.802856,-0.511597,down
247298,0.453125,8.335938,-2.53125,-0.140625,-1.230469,-1.429688,0.21283,0.21991,-0.802856,-0.511597,down
247303,0.375,8.375,-2.53125,-0.302734,-1.339844,-1.509766,0.21283,0.21991,-0.802856,-0.511597,down
247309,0.296875,8.378906,-2.53125,-0.457031,-1.439453,-1.613281,0.21283,0.21991,-0.802856,-0.511597,down
247315,0.105469,8.496094,-2.53125,-0.591797,-1.523438,-1.714844,0.21283,0.21991,-0.802856,-0.511597,down
247321,0.03125,8.492188,-2.53125,-0.738281,-1.585938,-1.808594,0.18457,0.227112,-0.798096,-0.526672,down
247326,0.03125,8.574219,-2.53125,-0.738281,-1.585938,-1.808594,0.18457,0.227112,-0.798096,-0.526672,down
247331,-0.085937,8.691406,-2.609375,-1.015625,-1.681641,-1.996094,0.173706,0.229675,-0.794617,-0.534485,down
247336,-0.277344,8.652344,-2.722656,-1.015625,-1.681641,-1.996094,0.173706,0.229675,-0.794617,-0.534485,down
247341,-0.390625,8.691406,-2.722656,-1.460938,-1.806641,-2.228516,0.168152,0.230957,-0.79248,-0.538879,down
247346,-0.46875,8.722656,-2.761719,-1.460938,-1.806641,-2.228516,0.156677,0.233643,-0.787354,-0.548523,down
247351,-0.660156,8.574219,-2.800781,-1.460938,-1.806641,-2.228516,0.156677,0.233643,-0.787354,-0.548523,down
247356,-0.699219,8.570313,-2.800781,-1.460938,-1.806641,-2.228516,0.144287,0.236755,-0.781067,-0.559509,down
247361,-0.8125,8.492188,-2.800781,-1.796875,-1.841797,-2.501953,0.144287,0.236755,-0.781067,-0.559509,down
247366,-0.851562,8.457031,-2.839844,-1.796875,-1.841797,-2.501953,0.138367,0.238342,-0.777832,-0.56488,down
247371,-0.851562,8.457031,-2.839844,-1.796875,-1.841797,-2.501953,0.132568,0.239929,-0.774536,-0.570068,down
247376,-1.042969,8.53125,-2.800781,-1.796875,-1.841797,-2.501953,0.132568,0.239929,-0.774536,-0.570068,down
247381,-1.082031,8.652344,-2.722656,-1.828125,-1.867188,-2.664063,0.132568,0.239929,-0.774536,-0.570068,down
247386,-1.386719,8.992188,-2.648438,-1.818359,-1.863281,-2.707031,0.1073,0.247314,-0.759705,-0.591797,down
247391,-1.65625,9.417969,-2.648438,-1.818359,-1.863281,-2.707031,0.1073,0.247314,-0.759705,-0.591797,down
247396,-1.769531,9.644531,-2.722656,-1.804688,-1.863281,-2.779297,0.100159,0.249512,-0.755371,-0.597595,down
247401,-1.886719,9.800781,-2.683594,-1.804688,-1.863281,-2.779297,0.093811,0.251465,-0.751526,-0.602661,down
247406,-1.921875,9.910156,-2.648438,-1.865234,-1.849609,-2.791016,0.087341,0.253418,-0.747437,-0.607849,down
247411,-1.921875,9.910156,-2.648438,-1.841797,-1.837891,-2.763672,0.080811,0.255371,-0.743225,-0.613098,down
247416,-2.304688,10.179688,-2.722656,-1.908203,-1.849609,-2.712891,0.074646,0.257202,-0.739136,-0.618042,down
247421,-2.421875,10.289063,-2.722656,-1.908203,-1.849609,-2.712891,0.067627,0.259216,-0.734436,-0.623596,down
247426,-2.535156,10.675781,-2.914063,-1.908203,-1.849609,-2.712891,0.061279,0.260925,-0.729858,-0.628845,down
247432,-2.574219,10.871094,-3.03125,-2.070313,-1.810547,-2.5625,0.049927,0.263733,-0.720825,-0.638977,down
247438,-2.652344,11.40625,-3.183594,-2.070313,-1.810547,-2.5625,0.043945,0.265076,-0.715393,-0.64502,down
247443,-2.726563,11.671875,-3.261719,-2.070313,-1.810547,-2.5625,0.039124,0.266113,-0.710449,-0.65033,down
247449,-2.726563,11.976563,-3.144531,-2.070313,-1.810547,-2.5625,0.034729,0.266968,-0.705322,-0.655762,down
247455,-2.691406,11.980469,-3.03125,-2.746094,-1.521484,-1.880859,0.034729,0.266968,-0.705322,-0.655762,down
247460,-2.613281,11.445313,-2.570313,-2.941406,-1.435547,-1.724609,0.034729,0.266968,-0.705322,-0.655762,down
247466,-2.535156,11.023438,-2.265625,-3.429688,-1.099609,-1.416016,0.034729,0.266968,-0.705322,-0.655762,down
247471,-2.535156,11.023438,-2.265625,-3.429688,-1.099609,-1.416016,0.021362,0.268799,-0.68103,-0.680786,down
247476,-2.460938,10.605469,-2.074219,-3.65625,-0.876953,-1.28125,0.021362,0.268799,-0.68103,-0.680786,down
247481,-2.460938,10.605469,-2.074219,-3.804688,-0.634766,-1.158203,0.018921,0.269775,-0.667053,-0.694214,down
247487,-2.726563,9.101563,-1.652344,-3.804688,-0.634766,-1.158203,0.018677,0.270508,-0.659424,-0.701172,down
247492,-2.996094,8.269531,-1.191406,-3.849609,-0.285156,-0.966797,0.019592,0.272339,-0.643677,-0.714905,down
247497,-3.074219,7.992187,-0.960937,-3.849609,-0.285156,-0.966797,0.020203,0.273254,-0.637573,-0.720032,down
247503,-3.417969,7.6875,-0.273438,-3.849609,-0.285156,-0.966797,0.021118,0.274475,-0.630554,-0.725708,down
247508,-3.496094,7.726562,-0.117188,-2.59375,0.177734,-0.701172,0.021851,0.275635,-0.625366,-0.729736,down
247513,-3.609375,7.917969,0.109375,-2.046875,0.25,-0.636719,0.021851,0.275635,-0.625366,-0.729736,down
247518,-3.722656,8.230469,0.1875,-2.046875,0.25,-0.636719,0.021851,0.275635,-0.625366,-0.729736,down
247524,-3.953125,8.953125,0.300781,-2.046875,0.25,-0.636719,0.023499,0.279846,-0.614319,-0.737366,down
247530,-4.070312,9.335938,0.339844,-0.023437,0.449219,-0.427734,0.023499,0.279846,-0.614319,-0.737366,down
247536,-4.105469,10.066406,0.53125,0.546875,0.46875,-0.351563,0.023499,0.279846,-0.614319,-0.737366,down
247541,-4.144531,10.261719,0.417969,0.976562,0.480469,-0.279297,0.023499,0.279846,-0.614319,-0.737366,down
247546,-4.144531,10.40625,0.339844,1.519531,0.457031,-0.126953,0.023499,0.279846,-0.614319,-0.737366,down
247551,-4.144531,10.644531,0.265625,1.519531,0.457031,-0.126953,0.021851,0.286499,-0.61908,-0.730896,down
247556,-4.105469,10.710938,0.300781,1.519531,0.457031,-0.126953,0.021179,0.287537,-0.621887,-0.728088,down
247562,-4.144531,10.753906,0.300781,1.376953,0.271484,0.0,0.021179,0.287537,-0.621887,-0.728088,down
247567,-4.144531,10.789063,0.339844,1.376953,0.271484,0.0,0.019409,0.289551,-0.629639,-0.720642,down
247572,-4.105469,10.753906,0.417969,1.376953,0.271484,0.0,0.019165,0.289917,-0.631226,-0.719116,down
247577,-4.070312,10.566406,0.609375,0.298828,0.210937,0.015625,0.019165,0.290283,-0.632141,-0.71814,down
247582,-4.070312,10.449219,0.53125,-0.083984,0.234375,-0.001953,0.01947,0.29071,-0.632324,-0.717834,down
247587,-3.992188,9.984375,0.378906,-0.083984,0.234375,-0.001953,0.01947,0.29071,-0.632324,-0.717834,down
247592,-3.953125,9.796875,0.339844,-0.083984,0.234375,-0.001953,0.02063,0.291565,-0.630859,-0.718689,down
247597,-3.914063,9.679688,0.417969,-0.744141,0.193359,-0.09375,0.02063,0.291565,-0.630859,-0.718689,down
247602,-3.878906,9.523438,0.492187,-0.775391,0.173828,-0.130859,0.021362,0.291992,-0.629639,-0.719604,down
247607,-3.839844,9.378906,0.492187,-0.775391,0.173828,-0.130859,0.022522,0.292969,-0.626709,-0.721741,down
247612,-3.839844,9.414063,0.457031,-0.775391,0.173828,-0.130859,0.02301,0.293518,-0.625366,-0.722717,down
247617,-3.800781,9.21875,0.492187,-0.5,0.179687,-0.234375,0.02301,0.293518,-0.625366,-0.722717,down
247622,-3.800781,9.179688,0.378906,-0.5,0.179687,-0.234375,0.023315,0.294189,-0.623962,-0.723572,down
247627,-3.722656,9.144531,0.417969,-0.5,0.179687,-0.234375,0.023376,0.295471,-0.622498,-0.724304,down
247632,-3.761719,9.21875,0.457031,0.0625,0.115234,-0.279297,0.023376,0.295471,-0.622498,-0.724304,down
247637,-3.722656,9.179688,0.492187,0.160156,0.117188,-0.300781,0.023071,0.296204,-0.622253,-0.724243,down
247642,-3.761719,9.261719,0.492187,0.160156,0.117188,-0.300781,0.022156,0.297485,-0.622375,-0.723633,down
247647,-3.722656,9.261719,0.492187,0.160156,0.117188,-0.300781,0.021606,0.298157,-0.622559,-0.723206,down
247652,-3.800781,9.300781,0.53125,0.251953,0.101563,-0.306641,0.021606,0.298157,-0.622559,-0.723206,down
247657,-3.800781,9.339844,0.570312,0.197266,0.09375,-0.306641,0.020935,0.298889,-0.622803,-0.722717,down
247662,-3.839844,9.457031,0.53125,0.197266,0.09375,-0.306641,0.019958,0.30011,-0.622986,-0.722107,down
247667,-3.839844,9.417969,0.648437,-0.109375,0.072266,-0.285156,0.019958,0.30011,-0.622986,-0.722107,down
247672,-3.878906,9.335938,0.722656,-0.109375,0.072266,-0.285156,0.019531,0.30072,-0.622742,-0.722107,down
247677,-3.878906,9.183594,0.761719,-0.279297,0.091797,-0.265625,0.019531,0.30072,-0.622742,-0.722107,down
247682,-3.878906,9.183594,0.761719,-0.279297,0.091797,-0.265625,0.019348,0.302368,-0.620361,-0.723389,down
247687,-3.914063,9.035156,0.761719,-0.279297,0.091797,-0.265625,0.019348,0.302368,-0.620361,-0.723389,down
247692,-3.914063,8.917969,0.839844,-0.578125,0.117188,-0.224609,0.019775,0.303467,-0.61792,-0.725037,down
247698,-3.878906,8.757813,0.839844,-0.578125,0.117188,-0.224609,0.02002,0.304016,-0.616821,-0.725769,down
247703,-3.914063,8.761719,0.878906,-0.578125,0.117188,-0.224609,0.020203,0.304565,-0.615723,-0.72644,down
247708,-3.914063,8.761719,0.878906,-0.302734,0.103516,-0.201172,0.020264,0.304993,-0.61499,-0.726868,down
247713,-3.914063,8.839844,0.878906,-0.302734,0.103516,-0.201172,0.020203,0.305542,-0.61438,-0.727173,down
247719,-3.953125,8.917969,0.839844,-0.302734,0.103516,-0.201172,0.020081,0.305969,-0.614075,-0.727295,down
247725,-3.953125,8.917969,0.878906,0.046875,0.09375,-0.199219,0.020081,0.305969,-0.614075,-0.727295,down
247730,-4.03125,8.953125,0.800781,0.115234,0.087891,-0.189453,0.020081,0.305969,-0.614075,-0.727295,down
247735,-4.105469,9.074219,0.761719,0.115234,0.087891,-0.189453,0.019287,0.307312,-0.613953,-0.726807,down
247741,-4.070312,9.105469,0.800781,0.154297,0.0625,-0.173828,0.019287,0.307312,-0.613953,-0.726807,down
247746,-4.070312,9.144531,0.761719,0.134766,0.074219,-0.158203,0.019287,0.307312,-0.613953,-0.726807,down
247751,-4.183594,9.179688,0.722656,0.097656,0.091797,-0.126953,0.019287,0.307312,-0.613953,-0.726807,down
247757,-4.105469,9.144531,0.722656,0.039063,0.103516,-0.097656,0.018372,0.309143,-0.614319,-0.725708,down
247762,-4.144531,9.179688,0.761719,0.039063,0.103516,-0.097656,0.018372,0.309143,-0.614319,-0.725708,down
247767,-4.105469,9.144531,0.761719,-0.097656,0.138672,-0.033203,0.018372,0.309143,-0.614319,-0.725708,down
247772,-4.144531,9.144531,0.683594,-0.097656,0.138672,-0.033203,0.018921,0.309998,-0.613831,-0.725769,down
247777,-4.144531,9.21875,0.683594,-0.082031,0.134766,-0.013672,0.018921,0.309998,-0.613831,-0.725769,down
247782,-4.105469,9.21875,0.722656,-0.044922,0.126953,-0.013672,0.019226,0.310303,-0.613647,-0.72583,down
247788,-4.144531,9.222656,0.722656,-0.044922,0.126953,-0.013672,0.019592,0.310791,-0.613464,-0.725769,down
247794,-4.183594,9.339844,0.722656,-0.044922,0.126953,-0.013672,0.019775,0.310974,-0.613525,-0.725647,down
247799,-4.144531,9.300781,0.683594,0.103516,0.085937,-0.013672,0.019775,0.310974,-0.613525,-0.725647,down
247804,-4.144531,9.257813,0.683594,0.119141,0.068359,-0.013672,0.019775,0.310974,-0.613525,-0.725647,down
247809,-4.144531,9.144531,0.648437,0.119141,0.068359,-0.013672,0.019836,0.311462,-0.614014,-0.724976,down
247814,-4.105469,9.070313,0.648437,0.097656,0.0625,-0.027344,0.019836,0.311462,-0.614014,-0.724976,down
247819,-4.105469,9.070313,0.648437,0.074219,0.060547,-0.035156,0.019836,0.311462,-0.614014,-0.724976,down
247824,-4.144531,9.101563,0.609375,0.037109,0.060547,-0.041016,0.019836,0.311462,-0.614014,-0.724976,down
247830,-4.105469,9.183594,0.570312,0.037109,0.060547,-0.041016,0.019775,0.312134,-0.614441,-0.724365,down
247836,-4.144531,9.257813,0.492187,-0.044922,0.070312,-0.0625,0.019775,0.312134,-0.614441,-0.724365,down
247842,-4.105469,9.378906,0.492187,-0.072266,0.060547,-0.072266,0.019775,0.312134,-0.614441,-0.724365,down
247847,-4.144531,9.453125,0.492187,-0.119141,0.078125,-0.087891,0.019897,0.312744,-0.613953,-0.724487,down
247852,-4.144531,9.417969,0.417969,-0.119141,0.078125,-0.087891,0.019897,0.313049,-0.613708,-0.724609,down
247858,-4.144531,9.339844,0.417969,-0.15625,0.09375,-0.101563,0.019897,0.313049,-0.613708,-0.724609,down
247864,-4.105469,9.257813,0.378906,-0.15625,0.09375,-0.101563,0.020203,0.314026,-0.612488,-0.725098,down
247869,-4.105469,9.257813,0.378906,-0.15625,0.09375,-0.101563,0.020203,0.314026,-0.612488,-0.725098,down
247875,-4.105469,9.300781,0.378906,-0.244141,0.121094,-0.210937,0.020203,0.314026,-0.612488,-0.725098,down
247880,-4.144531,9.378906,0.417969,-0.259766,0.113281,-0.25,0.020203,0.314026,-0.612488,-0.725098,down
247886,-4.222656,9.601563,0.339844,-0.259766,0.113281,-0.25,0.020203,0.316101,-0.610046,-0.726257,down
247892,-4.296875,9.644531,0.417969,-0.298828,0.125,-0.292969,0.020203,0.316101,-0.610046,-0.726257,down
247898,-4.375,9.722656,0.339844,-0.322266,0.154297,-0.298828,0.02002,0.318115,-0.607666,-0.727417,down
247904,-4.527344,10.101563,0.300781,-0.322266,0.154297,-0.298828,0.020081,0.318909,-0.606812,-0.727783,down
247909,-4.566406,10.222656,0.074219,-0.357422,0.236328,-0.242187,0.020203,0.319641,-0.606018,-0.728149,down
247914,-4.644531,10.332031,-0.042969,-0.357422,0.236328,-0.242187,0.020508,0.320435,-0.605103,-0.728516,down
247920,-4.683594,10.75,-0.273438,-0.357422,0.236328,-0.242187,0.020874,0.32135,-0.604248,-0.728821,down
247926,-4.757812,11.027344,-0.503906,-0.462891,0.460937,-0.21875,0.020874,0.32135,-0.604248,-0.728821,down
247932,-4.910156,11.519531,-1.039063,-0.529297,0.611328,-0.21875,0.020874,0.32135,-0.604248,-0.728821,down
247938,-5.066406,11.871094,-1.113281,-0.595703,0.722656,-0.220703,0.024658,0.326904,-0.599426,-0.730225,down
247943,-5.140625,12.097656,-1.152344,-0.787109,0.886719,-0.259766,0.024658,0.326904,-0.599426,-0.730225,down
247948,-5.21875,12.285156,-1.0,-0.787109,0.886719,-0.259766,0.027588,0.330688,-0.596069,-0.73114,down
247954,-5.257812,12.210938,-0.308594,-0.787109,0.886719,-0.259766,0.029236,0.332764,-0.593933,-0.731873,down
247959,-5.410156,12.214844,-0.082031,-1.304688,1.037109,-0.306641,0.029236,0.332764,-0.593933,-0.731873,down
247965,-5.484375,12.210938,0.109375,-1.490234,1.117188,-0.271484,0.029236,0.332764,-0.593933,-0.731873,down
247970,-5.753906,12.132813,0.378906,-1.490234,1.117188,-0.271484,0.036011,0.3396,-0.585327,-0.735352,down
247976,-5.871094,12.253906,0.609375,-1.785156,1.173828,-0.138672,0.036011,0.3396,-0.585327,-0.735352,down
247981,-5.90625,12.28125,0.878906,-1.904297,1.152344,-0.056641,0.036011,0.3396,-0.585327,-0.735352,down
247986,-6.0625,12.214844,1.183594,-1.904297,1.152344,-0.056641,0.045349,0.345825,-0.574524,-0.740479,down
247992,-6.136719,12.28125,1.488281,-1.814453,0.994141,0.232422,0.048706,0.347412,-0.570923,-0.742249,down
247997,-6.136719,12.480469,1.71875,-1.814453,0.994141,0.232422,0.052124,0.348755,-0.567505,-0.744019,down
248003,-6.214844,12.480469,1.71875,-1.626953,0.960937,0.310547,0.059021,0.351074,-0.561646,-0.746887,down
248008,-6.214844,12.398438,1.414063,-1.626953,0.960937,0.310547,0.062134,0.351929,-0.55957,-0.747803,down
248014,-5.945312,12.402344,1.261719,-1.626953,0.960937,0.310547,0.065491,0.3526,-0.5578,-0.748474,down
248019,-5.792969,12.28125,1.183594,-0.759766,0.740234,0.693359,0.06842,0.353027,-0.556702,-0.74884,down
248024,-5.640625,12.253906,1.070313,-0.759766,0.740234,0.693359,0.071411,0.353149,-0.555969,-0.749023,down
248030,-5.449219,11.941406,0.839844,-0.759766,0.740234,0.693359,0.074585,0.35321,-0.555603,-0.749023,down
248035,-5.371094,11.828125,0.722656,-0.451172,0.728516,1.039063,0.074585,0.35321,-0.555603,-0.749023,down
248041,-5.257812,11.636719,0.609375,-0.433594,0.753906,1.154297,0.074585,0.35321,-0.555603,-0.749023,down
248046,-5.101562,11.445313,0.609375,-0.458984,0.787109,1.261719,0.074585,0.35321,-0.555603,-0.749023,down
248052,-5.101562,11.445313,0.609375,-0.511719,0.824219,1.369141,0.08905,0.352112,-0.555603,-0.747925,down
248057,-5.066406,11.289063,0.683594,-0.589844,0.896484,1.496094,0.08905,0.352112,-0.555603,-0.747925,down
248062,-5.066406,11.289063,0.683594,-0.650391,1.001953,1.599609,0.098267,0.351013,-0.555603,-0.747253,down
248067,-5.21875,11.0625,0.492187,-0.650391,1.001953,1.599609,0.103333,0.350525,-0.555542,-0.746887,down
248073,-5.292969,11.0625,0.609375,-0.650391,1.001953,1.599609,0.11438,0.349243,-0.555359,-0.746033,down
248078,-5.21875,11.097656,0.992187,-0.650391,1.001953,1.599609,0.119934,0.348328,-0.55542,-0.745544,down
248083,-5.21875,11.023438,1.296875,-0.650391,1.001953,1.599609,0.126038,0.347107,-0.555725,-0.744873,down
248088,-5.140625,10.949219,1.527344,-0.429687,0.869141,2.113281,0.126038,0.347107,-0.555725,-0.744873,down
248093,-5.140625,10.789063,1.757813,-0.429687,0.869141,2.113281,0.136597,0.344299,-0.55719,-0.743225,down
248098,-4.835937,10.527344,1.988281,-0.429687,0.869141,2.113281,0.143066,0.342163,-0.558594,-0.741882,down
248103,-4.757812,10.292969,2.101563,-0.072266,0.607422,2.449219,0.143066,0.342163,-0.558594,-0.741882,down
248109,-4.527344,10.0625,2.027344,-0.072266,0.607422,2.449219,0.153564,0.337646,-0.56189,-0.739319,down
248115,-3.992188,9.683594,1.71875,-0.072266,0.607422,2.449219,0.158691,0.335083,-0.563904,-0.737976,down
248120,-3.839844,9.378906,1.488281,0.148437,0.402344,2.863281,0.158691,0.335083,-0.563904,-0.737976,down
248125,-3.648438,9.105469,1.296875,0.207031,0.373047,3.029297,0.170288,0.328491,-0.568909,-0.734497,down
248130,-3.648438,9.105469,1.296875,0.216797,0.378906,3.230469,0.176331,0.324829,-0.571655,-0.732544,down
248135,-3.109375,8.757813,0.992187,0.216797,0.378906,3.230469,0.176331,0.324829,-0.571655,-0.732544,down
248140,-3.109375,8.757813,0.992187,0.263672,0.550781,3.654297,0.189941,0.316711,-0.577698,-0.727966,down
248145,-2.613281,8.414063,0.457031,0.263672,0.550781,3.654297,0.197571,0.312378,-0.580933,-0.725159,down
248150,-2.152344,8.074219,0.1875,0.359375,0.746094,4.064453,0.197571,0.312378,-0.580933,-0.725159,down
248155,-1.769531,7.535156,0.1875,0.359375,0.746094,4.064453,0.197571,0.312378,-0.580933,-0.725159,down
248160,-1.578125,7.308594,0.1875,0.640625,0.927734,4.501953,0.197571,0.312378,-0.580933,-0.725159,down
248165,-1.425781,7.082031,0.300781,0.869141,1.017578,4.716797,0.197571,0.312378,-0.580933,-0.725159,down
248170,-1.15625,6.386719,0.683594,0.869141,1.017578,4.716797,0.197571,0.312378,-0.580933,-0.725159,down
248176,-0.964844,6.199219,0.914062,1.435547,1.111328,5.134766,0.197571,0.312378,-0.580933,-0.725159,down
248181,-0.8125,5.855469,0.992187,1.744141,1.167969,5.306641,0.197571,0.312378,-0.580933,-0.725159,down
248187,-0.773437,5.355469,1.070313,1.744141,1.167969,5.306641,0.270325,0.274658,-0.617737,-0.685486,down
248192,-0.621094,4.929687,1.144531,1.744141,1.167969,5.306641,0.270325,0.274658,-0.617737,-0.685486,down
248197,-0.390625,4.773437,1.261719,2.349609,1.246094,5.667969,0.270325,0.274658,-0.617737,-0.685486,down
248202,-0.390625,4.773437,1.261719,2.978516,1.287109,6.041016,0.300171,0.259216,-0.639221,-0.658875,down
248207,0.222656,4.738281,0.914062,2.978516,1.287109,6.041016,0.310608,0.253723,-0.647461,-0.64801,down
248212,0.261719,4.351562,0.53125,2.978516,1.287109,6.041016,0.310608,0.253723,-0.647461,-0.64801,down
248218,0.605469,4.546875,0.378906,4.072266,1.554688,7.035156,0.310608,0.253723,-0.647461,-0.64801,down
248223,0.910156,4.351562,0.1875,4.072266,1.554688,7.035156,0.342529,0.236877,-0.673645,-0.610535,down
248228,1.027344,4.167969,-0.082031,4.568359,1.949219,7.615234,0.353638,0.230835,-0.682739,-0.596252,down
248233,1.21875,4.046875,-0.347656,4.568359,1.949219,7.615234,0.365112,0.224792,-0.691772,-0.580994,down
248239,1.523438,3.242188,-0.082031,4.568359,1.949219,7.615234,0.390747,0.211304,-0.710815,-0.545349,down
248245,1.867188,3.203125,0.300781,4.568359,1.949219,7.615234,0.402222,0.205078,-0.719177,-0.528198,down
248250,1.867188,3.203125,0.300781,5.798828,2.429688,8.707031,0.4151,0.19812,-0.728516,-0.507568,down
248255,1.867188,3.203125,0.300781,6.173828,2.535156,8.791016,0.42749,0.191589,-0.737549,-0.486389,down
248260,2.097656,1.867188,1.527344,6.173828,2.535156,8.791016,0.42749,0.191589,-0.737549,-0.486389,down
248265,2.214844,1.753906,2.066406,6.578125,2.597656,8.792969,0.439575,0.185303,-0.746399,-0.464111,down
248270,2.175781,1.714844,2.5625,7.238281,2.710938,8.585938,0.451233,0.179382,-0.755005,-0.440674,down
248275,1.640625,1.40625,2.949219,7.423828,2.757813,8.367188,0.451233,0.179382,-0.755005,-0.440674,down
248280,0.871094,0.910156,3.675781,7.423828,2.757813,8.367188,0.451233,0.179382,-0.755005,-0.440674,down
248285,0.605469,0.910156,4.136719,7.423828,2.490234,7.732422,0.451233,0.179382,-0.755005,-0.440674,down
248290,0.605469,0.910156,4.136719,7.25,2.271484,7.326172,0.500183,0.156494,-0.791199,-0.315186,down
248296,0.03125,0.71875,4.59375,6.896484,2.033203,6.875,0.507324,0.152832,-0.796692,-0.29071,down
248301,0.03125,0.71875,4.59375,6.394531,1.71875,6.390625,0.507324,0.152832,-0.796692,-0.29071,down
248307,-0.351563,0.640625,4.824219,6.394531,1.71875,6.390625,0.517822,0.145996,-0.805603,-0.247986,down
248312,-0.429687,0.335938,5.015625,5.265625,0.945312,5.396484,0.517822,0.145996,-0.805603,-0.247986,down
248318,-0.390625,0.21875,4.980469,3.982422,0.101563,4.351562,0.517822,0.145996,-0.805603,-0.247986,down
248323,-0.507812,0.027344,4.785156,3.982422,0.101563,4.351562,0.525635,0.135376,-0.816467,-0.196899,down
248328,-0.734375,-0.203125,4.359375,2.4375,-0.542969,3.236328,0.525635,0.135376,-0.816467,-0.196899,down
248333,-1.15625,-0.277344,4.015625,2.4375,-0.542969,3.236328,0.526184,0.12793,-0.822632,-0.173279,down
248338,-1.886719,-0.621094,3.519531,1.746094,-0.863281,2.662109,0.525391,0.124329,-0.825317,-0.165405,down
248343,-1.886719,-0.621094,3.519531,1.746094,-0.863281,2.662109,0.525391,0.124329,-0.825317,-0.165405,down
248348,-2.765625,-1.007813,3.328125,0.716797,-1.373047,1.544922,0.525391,0.124329,-0.825317,-0.165405,down
248353,-3.453125,-0.890625,3.214844,0.410156,-1.576172,0.998047,0.515625,0.113525,-0.835571,-0.151978,down
248358,-3.839844,-1.007813,3.136719,0.410156,-1.576172,0.998047,0.515625,0.113525,-0.835571,-0.151978,down
248363,-4.183594,-1.007813,3.023438,0.125,-1.902344,-0.056641,0.507629,0.112549,-0.840454,-0.152588,down
248368,-4.601562,-1.160156,3.023438,0.125,-1.902344,-0.056641,0.507629,0.112549,-0.840454,-0.152588,down
248373,-5.640625,-0.585937,3.445313,0.166016,-2.976563,-1.503906,0.507629,0.112549,-0.840454,-0.152588,down
248378,-6.0625,0.105469,3.941406,0.380859,-3.605469,-2.046875,0.496155,0.115051,-0.846252,-0.15625,down
248383,-6.941406,0.910156,4.402344,0.380859,-3.605469,-2.046875,0.487671,0.118103,-0.85022,-0.159058,down
248388,-7.480469,0.949219,4.171875,0.380859,-3.605469,-2.046875,0.478516,0.121826,-0.85437,-0.162109,down
248394,-8.125,0.792969,3.980469,-0.068359,-5.59375,-3.71875,0.478516,0.121826,-0.85437,-0.162109,down
248399,-8.972656,0.757812,3.75,-0.068359,-5.59375,-3.71875,0.439941,0.137756,-0.869202,-0.178955,down
248404,-9.738281,0.984375,3.289063,-0.068359,-5.59375,-3.71875,0.424561,0.144104,-0.874084,-0.187134,down
248410,-10.65625,2.402344,2.292969,-0.068359,-5.59375,-3.71875,0.403381,0.152771,-0.879822,-0.199707,down
248415,-10.65625,2.402344,2.292969,-2.427734,-9.148438,-7.613281,0.403381,0.152771,-0.879822,-0.199707,down
248421,-10.65625,2.402344,2.292969,-2.427734,-9.148438,-7.613281,0.358887,0.171143,-0.887939,-0.231262,down
248426,-12.382813,4.472656,0.148437,-4.988281,-11.121094,-10.513672,0.330505,0.182922,-0.890259,-0.254517,down
248432,-13.796875,6.730469,-2.839844,-4.988281,-11.121094,-10.513672,0.300354,0.195801,-0.890076,-0.281372,down
248437,-14.761719,8.300781,-5.0625,-8.019531,-12.4375,-13.935547,0.300354,0.195801,-0.890076,-0.281372,down
248442,-15.675781,10.753906,-7.359375,-8.019531,-12.4375,-13.935547,0.228943,0.228699,-0.87854,-0.35144,down
248447,-15.632813,14.890625,-10.691406,-11.046875,-13.523438,-17.251953,0.228943,0.228699,-0.87854,-0.35144,down
248452,-15.789063,17.1875,-12.300781,-12.539063,-13.919922,-18.755859,0.228943,0.228699,-0.87854,-0.35144,down
248458,-16.863281,22.324219,-14.675781,-12.539063,-13.919922,-18.755859,0.111877,0.285645,-0.825989,-0.472839,down
248463,-16.75,23.164062,-14.789063,-12.539063,-13.919922,-18.755859,0.069946,0.306946,-0.796265,-0.516602,down
248468,-16.289062,23.625,-15.058594,-16.417969,-12.644531,-21.658203,0.069946,0.306946,-0.796265,-0.516602,down
248474,-16.558594,22.746094,-15.097656,-17.529297,-11.439453,-22.365234,0.050903,-0.375793,0.66571,0.642639,down
248479,-21.882812,16.691406,-11.34375,-17.529297,-11.439453,-22.365234,0.090759,-0.401184,0.60675,0.680237,down
248484,-26.402344,15.621094,-8.085938,-16.820312,-8.839844,-22.414062,0.090759,-0.401184,0.60675,0.680237,down
248489,-31.230469,16.578125,-4.90625,-16.820312,-8.839844,-22.414062,0.157227,-0.441345,0.497986,0.729736,down
248494,-35.328125,20.101562,-3.375,-16.820312,-8.839844,-22.414062,0.185425,-0.457092,0.450378,0.744202,down
248499,-35.476562,28.261719,-2.109375,-16.820312,-8.839844,-22.414062,0.216736,-0.471741,0.398682,0.755981,down
248504,-31.113281,30.367187,-0.960937,-8.09375,-6.65625,-14.8125,0.216736,-0.471741,0.398682,0.755981,down
248509,-25.980469,29.257812,0.226562,-8.09375,-6.65625,-14.8125,0.262878,-0.482971,0.327332,0.768433,down
248515,-15.449219,12.746094,3.175781,-8.09375,-6.65625,-14.8125,0.279358,-0.483093,0.301758,0.77301,down
248520,-16.367187,7.078125,2.371094,-2.195313,-2.902344,-4.341797,0.279358,-0.483093,0.301758,0.77301,down
248525,-17.554687,-0.125,1.644531,0.59375,-0.189453,-1.505859,0.279358,-0.483093,0.301758,0.77301,down
248530,-17.554687,-0.125,1.644531,4.451172,2.326172,0.472656,0.299622,-0.482422,0.282898,0.772949,down
248536,-15.5625,2.75,-3.566406,4.451172,2.326172,0.472656,0.303589,-0.48291,0.301025,0.764221,down
248542,-18.242187,11.710938,-0.695312,9.476563,4.392578,2.091797,0.303589,-0.48291,0.301025,0.764221,down
248548,-19.699219,17.417969,2.90625,8.949219,4.535156,1.943359,0.303589,-0.48291,0.301025,0.764221,down
248553,-18.664062,21.441406,4.25,9.548828,4.898437,1.119141,0.303589,-0.48291,0.301025,0.764221,down
248558,-16.75,20.140625,3.519531,9.548828,4.898437,1.119141,0.318604,-0.482605,0.388123,0.71759,down
248564,-15.5625,16.460937,3.980469,9.402344,4.214844,1.011719,0.328979,-0.480103,0.429871,0.690247,down
248569,-14.683594,10.945313,4.285156,9.402344,4.214844,1.011719,0.328979,-0.480103,0.429871,0.690247,down
248574,-13.835938,10.523438,2.832031,7.705078,1.011719,0.599609,0.328979,-0.480103,0.429871,0.690247,down
248579,-12.769531,10.371094,1.835938,7.705078,1.011719,0.599609,0.34906,-0.465088,0.477417,0.658752,down
248584,-10.234375,9.566406,3.175781,7.705078,1.011719,0.599609,0.34906,-0.465088,0.477417,0.658752,down
248589,-9.207031,8.109375,4.324219,7.705078,1.011719,0.599609,0.360596,-0.454468,0.491699,0.649414,down
248594,-9.207031,7.382812,4.515625,1.474609,-0.28125,-0.056641,0.360596,-0.454468,0.491699,0.649414,down
248599,-9.050781,6.234375,4.746094,-0.03125,0.330078,-0.052734,0.364197,-0.451233,0.495178,0.646912,down
248605,-10.539063,4.777344,3.558594,-0.03125,0.330078,-0.052734,0.363708,-0.452209,0.495544,0.64624,down
248610,-11.15625,4.546875,3.597656,-2.492188,0.849609,0.144531,0.360168,-0.455383,0.49292,0.64801,down
248616,-11.621094,5.007812,3.597656,-2.492188,0.849609,0.144531,0.355774,-0.458862,0.48938,0.650696,down
248621,-11.265625,5.890625,4.132812,-4.761719,0.771484,0.548828,0.349487,-0.463257,0.483826,0.65509,down
248626,-11.425781,6.15625,3.636719,-4.761719,0.771484,0.548828,0.341736,-0.468201,0.477051,0.660645,down
248632,-11.425781,5.851562,2.675781,-4.939453,0.910156,0.634766,0.341736,-0.468201,0.477051,0.660645,down
248638,-10.617188,4.933594,1.796875,-4.021484,0.701172,0.681641,0.341736,-0.468201,0.477051,0.660645,down
248643,-10.011719,4.585937,1.796875,-2.794922,0.384766,0.753906,0.341736,-0.468201,0.477051,0.660645,down
248648,-9.238281,4.472656,1.796875,-2.794922,0.384766,0.753906,0.315674,-0.482056,0.456726,0.677795,down
248653,-8.628906,4.472656,1.757813,0.302734,0.132812,0.869141,0.315674,-0.482056,0.456726,0.677795,down
248658,-7.824219,4.625,0.878906,0.302734,0.132812,0.869141,0.312927,-0.480408,0.459778,0.678162,down
248663,-7.519531,4.664062,0.265625,0.302734,0.132812,0.869141,0.313293,-0.478638,0.463867,0.676453,down
248669,-7.398437,4.664062,-0.117188,2.777344,0.453125,0.861328,0.313293,-0.478638,0.463867,0.676453,down
248674,-7.210937,4.546875,-0.308594,3.111328,0.404297,0.814453,0.317993,-0.471069,0.482178,0.666687,down
248679,-7.054687,4.128906,-0.042969,3.111328,0.404297,0.814453,0.317993,-0.471069,0.482178,0.666687,down
248684,-7.132812,3.9375,0.226562,2.998047,0.232422,0.587891,0.320374,-0.467896,0.489136,0.662659,down
248689,-7.402344,3.859375,0.300781,2.998047,0.232422,0.587891,0.322571,-0.46521,0.494995,0.65918,down
248695,-7.941406,3.78125,0.570312,2.998047,0.232422,0.587891,0.326599,-0.460388,0.505005,0.653015,down
248700,-8.324219,3.78125,0.953125,2.998047,0.232422,0.587891,0.327881,-0.458618,0.508362,0.65094,down
248705,-8.550781,3.859375,0.992187,0.839844,0.083984,0.337891,0.327881,-0.458618,0.508362,0.65094,down
248710,-8.707031,3.898438,1.105469,0.111328,0.136719,0.328125,0.327881,-0.458618,0.508362,0.65094,down
248715,-9.011719,3.667969,1.183594,0.111328,0.136719,0.328125,0.327454,-0.456848,0.512268,0.649353,down
248720,-9.316406,3.515625,1.105469,0.111328,0.136719,0.328125,0.325684,-0.457397,0.51178,0.650269,down
248725,-9.46875,3.589844,1.070313,-1.216797,0.294922,0.472656,0.323242,-0.458252,0.510681,0.651733,down
248731,-9.585938,3.550781,1.144531,-1.216797,0.294922,0.472656,0.320801,-0.459106,0.509521,0.653259,down
248736,-9.816406,3.628906,1.144531,-1.216797,0.294922,0.472656,0.317566,-0.460083,0.508057,0.655273,down
248741,-9.695313,3.78125,1.03125,-1.208984,0.394531,0.650391,0.31488,-0.460876,0.507019,0.656738,down
248746,-9.585938,3.9375,0.878906,-0.935547,0.400391,0.685547,0.312073,-0.461548,0.506348,0.658142,down
248752,-9.550781,4.164062,0.648437,-0.935547,0.400391,0.685547,0.309509,-0.461975,0.506287,0.659119,down
248757,-9.546875,4.320312,0.492187,-0.091797,0.421875,0.689453,0.309509,-0.461975,0.506287,0.659119,down
248762,-9.546875,4.394531,0.378906,0.361328,0.427734,0.681641,0.309509,-0.461975,0.506287,0.659119,down
248767,-9.394531,4.355469,0.378906,0.730469,0.410156,0.640625,0.309509,-0.461975,0.506287,0.659119,down
248773,-9.472656,4.433594,0.457031,1.042969,0.414062,0.585937,0.309509,-0.461975,0.506287,0.659119,down
248778,-9.546875,4.433594,0.457031,1.308594,0.423828,0.527344,0.309509,-0.461975,0.506287,0.659119,down
248784,-9.96875,4.664062,-0.082031,1.578125,0.4375,0.464844,0.309509,-0.461975,0.506287,0.659119,down
248789,-10.042969,4.738281,-0.082031,1.578125,0.4375,0.464844,0.305298,-0.457581,0.522278,0.651672,down
248794,-10.199219,4.855469,0.074219,0.917969,-0.042969,0.275391,0.305298,-0.457581,0.522278,0.651672,down
248799,-10.316406,4.933594,0.339844,0.537109,-0.146484,0.177734,0.306824,-0.4552,0.527588,0.648315,down
248804,-10.316406,4.933594,0.339844,0.140625,-0.232422,0.107422,0.307434,-0.454163,0.529053,0.647522,down
248809,-10.011719,4.933594,0.839844,0.140625,-0.232422,0.107422,0.3078,-0.453491,0.529602,0.6474,down
248815,-9.851563,4.816406,0.878906,-0.238281,-0.279297,0.052734,0.307861,-0.45282,0.528625,0.648621,down
248820,-9.695313,4.625,0.683594,-0.238281,-0.279297,0.052734,0.307495,-0.452759,0.527527,0.64978,down
248825,-9.355469,4.28125,0.761719,-0.238281,-0.279297,0.052734,0.306824,-0.452881,0.526062,0.651123,down
248830,-9.164063,3.9375,0.839844,-1.150391,-0.285156,0.125,0.305847,-0.453125,0.52417,0.653015,down
248836,-8.703125,3.476563,0.722656,-1.150391,-0.285156,0.125,0.304688,-0.45343,0.522339,0.654785,down
248841,-8.402344,3.09375,0.609375,-1.150391,-0.285156,0.125,0.303284,-0.453735,0.520447,0.656738,down
248846,-8.402344,2.941406,0.570312,-0.947266,-0.154297,0.273438,0.303284,-0.453735,0.520447,0.656738,down
248851,-8.324219,3.054688,0.53125,-0.654297,-0.105469,0.310547,0.303284,-0.453735,0.520447,0.656738,down
248856,-8.246094,3.207031,0.492187,-0.322266,-0.074219,0.369141,0.303284,-0.453735,0.520447,0.656738,down
248862,-8.359375,3.589844,0.457031,-0.322266,-0.074219,0.369141,0.298889,-0.453308,0.517456,0.661377,down
248868,-8.089844,3.476563,0.53125,0.326172,0.027344,0.445312,0.298889,-0.453308,0.517456,0.661377,down
248873,-8.324219,4.128906,0.457031,0.658203,0.085937,0.480469,0.298889,-0.453308,0.517456,0.661377,down
248879,-8.402344,4.011719,0.300781,0.658203,0.085937,0.480469,0.298889,-0.453308,0.517456,0.661377,down
248884,-8.324219,4.128906,0.570312,1.220703,0.111328,0.533203,0.298889,-0.453308,0.517456,0.661377,down
248889,-8.628906,4.472656,0.800781,1.220703,0.111328,0.533203,0.298523,-0.448242,0.526367,0.657959,down
248894,-9.164063,4.472656,0.457031,1.220703,0.111328,0.533203,0.298828,-0.446899,0.529114,0.656555,down
248899,-9.238281,4.511719,0.226562,1.220703,0.111328,0.533203,0.29895,-0.445679,0.531616,0.655212,down
248905,-9.273438,4.703125,0.226562,0.871094,-0.095703,0.349609,0.29895,-0.445679,0.531616,0.655212,down
248910,-9.164063,4.855469,0.417969,0.871094,-0.095703,0.349609,0.300232,-0.442017,0.537537,0.652283,down
248916,-8.890625,5.046875,0.683594,0.871094,-0.095703,0.349609,0.300781,-0.440857,0.538696,0.651855,down
248921,-8.851563,5.007812,0.683594,0.183594,-0.285156,0.253906,0.301147,-0.439819,0.539368,0.651855,down
248927,-8.824219,4.816406,0.570312,-0.224609,-0.285156,0.269531,0.301147,-0.439819,0.539368,0.651855,down
248932,-8.746094,4.355469,0.300781,-0.224609,-0.285156,0.269531,0.300598,-0.438477,0.53894,0.653381,down
248938,-8.625,4.089844,0.1875,-0.652344,-0.3125,0.292969,0.300598,-0.438477,0.53894,0.653381,down
248943,-8.46875,3.972656,0.226562,-0.654297,-0.339844,0.277344,0.300598,-0.438477,0.53894,0.653381,down
248949,-8.324219,3.972656,0.1875,-0.607422,-0.335938,0.273438,0.300598,-0.438477,0.53894,0.653381,down
248955,-8.285156,4.011719,0.109375,-0.462891,-0.257813,0.298828,0.300598,-0.438477,0.53894,0.653381,down
248960,-8.28125,4.050781,0.109375,-0.462891,-0.257813,0.298828,0.296448,-0.435791,0.533997,0.661133,down
248965,-8.207031,4.320312,-0.003906,-0.462891,-0.257813,0.298828,0.296448,-0.435791,0.533997,0.661133,down
248970,-8.207031,4.394531,0.035156,-0.462891,-0.257813,0.298828,0.29541,-0.434692,0.533936,0.662354,down
248975,-8.207031,4.546875,-0.042969,0.269531,-0.066406,0.388672,0.29541,-0.434692,0.533936,0.662354,down
248980,-8.242188,4.546875,-0.117188,0.46875,-0.042969,0.402344,0.295044,-0.433899,0.534607,0.662476,down
248985,-8.324219,4.738281,-0.003906,0.46875,-0.042969,0.402344,0.294739,-0.432129,0.536926,0.661926,down
248990,-8.320313,4.777344,0.035156,0.46875,-0.042969,0.402344,0.294739,-0.431152,0.53833,0.661438,down
248995,-8.363281,4.816406,-0.003906,0.46875,-0.042969,0.402344,0.294739,-0.431152,0.53833,0.661438,down
249000,-8.398438,4.96875,-0.003906,0.658203,0.019531,0.445312,0.294556,-0.429016,0.541565,0.660217,down
249005,-8.441406,5.085937,-0.042969,0.658203,0.019531,0.445312,0.294373,-0.427979,0.543213,0.659607,down
249010,-8.46875,5.125,-0.042969,0.658203,0.019531,0.445312,0.294128,-0.427185,0.544434,0.659241,down
249015,-8.511719,5.199219,-0.082031,0.658203,0.019531,0.445312,0.294128,-0.427185,0.544434,0.659241,down
249020,-8.546875,5.429687,-0.082031,0.367188,0.037109,0.460937,0.294128,-0.427185,0.544434,0.659241,down
249025,-8.625,5.542969,-0.042969,0.367188,0.037109,0.460937,0.387878,-0.337708,0.606567,0.606262,down
249030,-8.628906,5.582031,-0.117188,0.367188,0.037109,0.460937,0.401001,-0.32312,0.614868,0.597229,down
249035,-8.628906,5.582031,-0.117188,0.367188,0.037109,0.460937,0.401001,-0.32312,0.614868,0.597229,down
249040,-8.550781,5.542969,-0.082031,0.050781,0.046875,0.443359,0.401001,-0.32312,0.614868,0.597229,down
249045,-8.546875,5.46875,-0.117188,0.0625,0.052734,0.457031,0.418701,-0.301697,0.626282,0.58429,down
249050,-8.46875,5.351562,-0.082031,0.0625,0.052734,0.457031,0.417297,-0.300293,0.627319,0.584961,down
249055,-8.324219,5.046875,-0.117188,0.0625,0.052734,0.457031,0.417297,-0.300293,0.627319,0.584961,down
249060,-8.207031,5.046875,-0.082031,0.0625,0.052734,0.457031,0.415894,-0.298584,0.628601,0.585449,down
249065,-8.050781,4.933594,-0.042969,0.0625,0.052734,0.457031,0.415894,-0.298584,0.628601,0.585449,down
249070,-8.015625,4.933594,-0.042969,0.242187,0.060547,0.476562,0.415894,-0.298584,0.628601,0.585449,down
249075,-7.941406,5.007812,-0.15625,0.242187,0.060547,0.476562,0.414734,-0.296875,0.629944,0.585693,down
249080,-7.898437,4.96875,-0.15625,0.242187,0.060547,0.476562,0.414001,-0.295898,0.630859,0.585693,down
249085,-7.898437,4.894531,-0.117188,0.318359,0.095703,0.496094,0.414001,-0.295898,0.630859,0.585693,down
249090,-7.941406,4.816406,-0.042969,0.318359,0.095703,0.496094,0.412781,-0.294006,0.63269,0.585571,down
249096,-7.941406,4.816406,-0.042969,0.306641,0.144531,0.501953,0.411377,-0.292175,0.634583,0.585388,down
249101,-8.085938,4.703125,0.109375,0.300781,0.148437,0.5,0.410522,-0.291199,0.635681,0.585266,down
249107,-8.128906,4.703125,0.1875,0.300781,0.148437,0.5,0.409912,-0.290466,0.636475,0.585205,down
249113,-8.167969,4.816406,0.265625,0.28125,0.134766,0.480469,0.409912,-0.290466,0.636475,0.585205,down
249119,-8.164063,4.96875,0.300781,0.259766,0.125,0.460937,0.409912,-0.290466,0.636475,0.585205,down
249124,-8.164063,5.007812,0.300781,0.244141,0.113281,0.455078,0.409912,-0.290466,0.636475,0.585205,down
249129,-8.203125,4.96875,0.300781,0.222656,0.097656,0.441406,0.409912,-0.290466,0.636475,0.585205,down
249135,-8.242188,4.96875,0.300781,0.222656,0.097656,0.441406,0.409912,-0.290466,0.636475,0.585205,down
249140,-8.246094,4.96875,0.339844,0.130859,0.001953,0.402344,0.409912,-0.290466,0.636475,0.585205,down
249145,-8.207031,4.855469,0.300781,0.130859,0.001953,0.402344,0.405273,-0.284851,0.641907,0.585327,down
249150,-8.164063,4.703125,0.300781,0.130859,0.001953,0.402344,0.404724,-0.284058,0.642395,0.58551,down
249155,-8.125,4.703125,0.265625,-0.03125,-0.064453,0.359375,0.404297,-0.283386,0.6427,0.585815,down
249160,-8.046875,4.703125,0.226562,-0.03125,-0.064453,0.359375,0.403809,-0.282715,0.642944,0.586243,down
249166,-7.9375,4.625,0.148437,-0.03125,-0.064453,0.359375,0.402893,-0.281555,0.643127,0.587158,down
249171,-7.902344,4.585937,0.148437,-0.03125,-0.064453,0.359375,0.402466,-0.281006,0.643188,0.587646,down
249176,-7.824219,4.511719,0.109375,-0.082031,-0.050781,0.351563,0.401917,-0.280396,0.64325,0.588257,down
249181,-7.703125,4.355469,0.074219,-0.082031,-0.050781,0.351563,0.401428,-0.279846,0.643372,0.588745,down
249186,-7.667969,4.28125,0.109375,-0.082031,-0.050781,0.351563,0.40094,-0.279358,0.643555,0.589111,down
249191,-7.667969,4.203125,0.148437,0.009766,0.021484,0.34375,0.40033,-0.278809,0.64386,0.589478,down
249197,-7.597656,3.972656,0.109375,0.009766,0.021484,0.34375,0.399841,-0.27832,0.644165,0.589661,down
249203,-7.476562,4.011719,0.1875,0.146484,0.050781,0.306641,0.399841,-0.27832,0.644165,0.589661,down
249209,-7.519531,4.011719,0.226562,0.224609,0.0625,0.275391,0.399841,-0.27832,0.644165,0.589661,down
249214,-7.519531,4.050781,0.265625,0.302734,0.078125,0.263672,0.399841,-0.27832,0.644165,0.589661,down
249219,-7.558594,4.128906,0.226562,0.371094,0.091797,0.251953,0.399841,-0.27832,0.644165,0.589661,down
249224,-7.59375,4.203125,0.265625,0.40625,0.113281,0.230469,0.399841,-0.27832,0.644165,0.589661,down
249229,-7.636719,4.320312,0.300781,0.40625,0.113281,0.230469,0.397827,-0.274719,0.648437,0.588074,down
249235,-7.667969,4.472656,0.339844,0.458984,0.097656,0.1875,0.397522,-0.27356,0.650208,0.586792,down
249240,-7.78125,4.625,0.339844,0.458984,0.097656,0.1875,0.3974,-0.273071,0.651062,0.586182,down
249245,-7.859375,4.664062,0.339844,0.458984,0.097656,0.1875,0.3974,-0.273071,0.651062,0.586182,down
249250,-7.859375,4.703125,0.339844,0.263672,0.042969,0.058594,0.3974,-0.273071,0.651062,0.586182,down
249255,-7.898437,4.777344,0.378906,0.263672,0.042969,0.058594,0.3974,-0.272278,0.652405,0.585144,down
249260,-7.9375,4.816406,0.378906,0.263672,0.042969,0.058594,0.3974,-0.272034,0.652771,0.584717,down
249266,-7.980469,4.816406,0.300781,-0.042969,-0.052734,-0.035156,0.3974,-0.272034,0.652771,0.584717,down
249271,-7.941406,4.894531,0.378906,-0.042969,-0.052734,-0.035156,0.397644,-0.271912,0.652832,0.584595,down
249276,-7.941406,4.933594,0.339844,-0.042969,-0.052734,-0.035156,0.397766,-0.272034,0.652466,0.5849,down
249281,-7.976562,4.933594,0.300781,-0.310547,-0.132812,-0.078125,0.397888,-0.272278,0.651855,0.585388,down
249286,-8.015625,4.894531,0.300781,-0.355469,-0.138672,-0.078125,0.397949,-0.272522,0.651184,0.585876,down
249291,-8.019531,4.894531,0.226562,-0.355469,-0.138672,-0.078125,0.39801,-0.272827,0.650574,0.586426,down
