timestamp,ax,ay,az,gx,gy,gz,qw,qx,qy,qz,label
16022,-1.613281,9.320313,-3.125,0.152344,-0.064453,0.03125,0.204895,0.151917,0.789856,0.557739,down
16027,-1.578125,9.207031,-3.007813,0.189453,-0.052734,0.017578,0.204956,0.152283,0.790283,0.556946,down
16032,-1.613281,9.164063,-2.855469,0.160156,-0.078125,-0.03125,0.204956,0.152283,0.790283,0.556946,down
16037,-1.652344,9.167969,-2.777344,0.160156,-0.078125,-0.03125,0.205078,0.152405,0.790527,0.55658,down
16042,-1.652344,9.128906,-2.738281,0.0625,-0.113281,-0.058594,0.205261,0.152527,0.790649,0.556274,down
16047,-1.652344,9.128906,-2.703125,0.0625,-0.113281,-0.058594,0.205566,0.152649,0.790771,0.55603,down
16052,-1.652344,9.242188,-2.816406,0.0625,-0.113281,-0.058594,0.206299,0.152649,0.790649,0.555908,down
16057,-1.652344,9.28125,-2.816406,-0.173828,-0.146484,-0.121094,0.206299,0.152649,0.790649,0.555908,down
16062,-1.652344,9.28125,-2.855469,-0.173828,-0.146484,-0.121094,0.206848,0.152527,0.790405,0.556091,down
16067,-1.652344,9.207031,-2.894531,-0.230469,-0.144531,-0.144531,0.206848,0.152527,0.790405,0.556091,down
16072,-1.652344,9.207031,-2.894531,-0.230469,-0.144531,-0.144531,0.208557,0.151855,0.789368,0.557068,down
16077,-1.613281,9.050781,-2.855469,-0.230469,-0.144531,-0.144531,0.208557,0.151855,0.789368,0.557068,down
16082,-1.652344,9.046875,-2.894531,-0.238281,-0.107422,-0.138672,0.208557,0.151855,0.789368,0.557068,down
16088,-1.652344,8.859375,-2.816406,-0.238281,-0.107422,-0.138672,0.210144,0.151062,0.788269,0.558228,down
16094,-1.691406,8.898438,-2.777344,-0.238281,-0.107422,-0.138672,0.210632,0.150818,0.788025,0.558472,down
16099,-1.691406,8.96875,-2.777344,-0.078125,-0.068359,-0.074219,0.210876,0.150696,0.787903,0.558594,down
16104,-1.730469,8.96875,-2.738281,-0.019531,-0.044922,-0.056641,0.210876,0.150696,0.787903,0.558594,down
16109,-1.84375,9.128906,-2.738281,-0.019531,-0.044922,-0.056641,0.210876,0.150696,0.787903,0.558594,down
16114,-1.804688,9.164063,-2.703125,0.101563,-0.044922,-0.007813,0.210876,0.150696,0.787903,0.558594,down
16120,-1.882813,9.285156,-2.703125,0.134766,-0.052734,-0.009766,0.210876,0.150696,0.787903,0.558594,down
16125,-1.921875,9.394531,-2.738281,0.134766,-0.052734,-0.009766,0.211548,0.150879,0.788269,0.5578,down
16130,-1.921875,9.433594,-2.777344,0.162109,-0.087891,-0.005859,0.211548,0.150879,0.788269,0.5578,down
16135,-1.921875,9.429688,-2.816406,0.142578,-0.082031,-0.017578,0.211548,0.150879,0.788269,0.5578,down
16140,-1.882813,9.507813,-2.816406,0.111328,-0.097656,-0.035156,0.211548,0.150879,0.788269,0.5578,down
16145,-1.84375,9.550781,-2.929688,0.111328,-0.097656,-0.035156,0.211548,0.150879,0.788269,0.5578,down
16150,-1.84375,9.589844,-2.96875,0.013672,-0.095703,-0.048828,0.211548,0.150879,0.788269,0.5578,down
16155,-1.804688,9.550781,-2.96875,-0.046875,-0.095703,-0.054687,0.211548,0.150879,0.788269,0.5578,down
16160,-1.804688,9.546875,-3.046875,-0.101563,-0.080078,-0.044922,0.211548,0.150879,0.788269,0.5578,down
16165,-1.769531,9.511719,-3.085938,-0.101563,-0.080078,-0.044922,0.211548,0.150879,0.788269,0.5578,down
16171,-1.769531,9.546875,-3.160156,-0.101563,-0.080078,-0.044922,0.213501,0.151367,0.788269,0.556885,down
16177,-1.804688,9.46875,-3.085938,-0.162109,-0.025391,-0.001953,0.213501,0.151367,0.788269,0.556885,down
16183,-1.804688,9.429688,-3.046875,-0.126953,-0.021484,0.029297,0.213806,0.151306,0.787659,0.557678,down
16188,-1.769531,9.390625,-2.96875,-0.019531,0.019531,0.068359,0.213684,0.151367,0.787537,0.557861,down
16193,-1.769531,9.429688,-2.96875,-0.019531,0.019531,0.068359,0.213684,0.151367,0.787537,0.557861,down
16198,-1.769531,9.429688,-2.96875,0.119141,0.033203,0.107422,0.213379,0.151611,0.787659,0.5578,down
16203,-1.804688,9.472656,-2.929688,0.119141,0.033203,0.107422,0.213074,0.151917,0.787842,0.557556,down
16208,-1.804688,9.507813,-2.894531,0.119141,0.033203,0.107422,0.212769,0.1521,0.788086,0.557251,down
16213,-1.804688,9.628906,-2.855469,0.119141,0.033203,0.107422,0.212402,0.152405,0.788391,0.556885,down
16219,-1.730469,9.589844,-2.855469,0.119141,0.033203,0.107422,0.212097,0.152588,0.788696,0.556519,down
16225,-1.730469,9.46875,-2.777344,0.197266,0.048828,0.097656,0.211731,0.152893,0.789001,0.556091,down
16232,-1.769531,9.363281,-2.703125,0.15625,0.035156,0.087891,0.211731,0.152893,0.789001,0.556091,down
16238,-1.769531,9.285156,-2.703125,0.101563,0.027344,0.085937,0.211121,0.153442,0.78949,0.555542,down
16244,-1.691406,9.164063,-2.625,0.101563,0.027344,0.085937,0.210999,0.153564,0.78949,0.555542,down
16249,-1.730469,9.125,-2.664063,-0.056641,-0.027344,0.054687,0.210999,0.153564,0.78949,0.555542,down
16255,-1.730469,9.007813,-2.625,-0.056641,-0.027344,0.054687,0.210999,0.153748,0.789307,0.555725,down
16260,-1.652344,8.972656,-2.664063,-0.105469,-0.037109,0.039063,0.210999,0.153748,0.789307,0.555725,down
16265,-1.691406,8.941406,-2.625,-0.103516,-0.039063,0.03125,0.210999,0.153748,0.789307,0.555725,down
16271,-1.691406,8.898438,-2.625,-0.103516,-0.039063,0.03125,0.211243,0.153992,0.788757,0.556335,down
16276,-1.652344,8.820313,-2.625,-0.103516,-0.039063,0.03125,0.211243,0.153992,0.788757,0.556335,down
16281,-1.613281,8.820313,-2.585938,-0.033203,-0.044922,0.007813,0.211243,0.153992,0.788757,0.556335,down
16287,-1.652344,8.785156,-2.625,0.003906,-0.039063,0.001953,0.211243,0.153992,0.788757,0.556335,down
16292,-1.652344,8.820313,-2.585938,0.003906,-0.039063,0.001953,0.21167,0.154175,0.788452,0.55658,down
16297,-1.691406,8.824219,-2.625,0.005859,-0.037109,-0.011719,0.21167,0.154175,0.788452,0.55658,down
16303,-1.691406,8.898438,-2.664063,0.011719,-0.03125,-0.015625,0.211975,0.154236,0.788452,0.556458,down
16308,-1.730469,8.859375,-2.777344,0.011719,-0.03125,-0.015625,0.212097,0.154236,0.788452,0.556396,down
16313,-1.730469,8.898438,-2.777344,0.011719,-0.035156,0.005859,0.212097,0.154236,0.788452,0.556396,down
16318,-1.769531,9.011719,-2.777344,0.011719,-0.035156,0.005859,0.212219,0.154358,0.788452,0.556335,down
16323,-1.84375,9.046875,-2.777344,0.011719,-0.035156,0.005859,0.21228,0.154419,0.788452,0.556274,down
16328,-1.882813,9.128906,-2.777344,0.035156,-0.042969,0.019531,0.212341,0.154541,0.788452,0.556213,down
16333,-1.882813,9.164063,-2.816406,0.041016,-0.041016,0.035156,0.212341,0.154541,0.788452,0.556213,down
16338,-1.882813,9.164063,-2.816406,0.041016,-0.041016,0.035156,0.212463,0.154785,0.788513,0.55603,down
16343,-1.921875,9.246094,-2.816406,0.041016,-0.041016,0.035156,0.212524,0.154907,0.788574,0.555908,down
16348,-1.882813,9.242188,-2.855469,0.082031,-0.080078,0.017578,0.212524,0.154907,0.788574,0.555908,down
16353,-1.921875,9.246094,-2.816406,0.082031,-0.080078,0.017578,0.212585,0.15509,0.788635,0.555725,down
16358,-1.882813,9.242188,-2.855469,0.097656,-0.097656,-0.007813,0.212585,0.15509,0.788635,0.555725,down
16363,-1.882813,9.203125,-2.855469,0.097656,-0.097656,-0.007813,0.213074,0.155579,0.788879,0.555054,down
16368,-1.84375,9.164063,-2.816406,0.089844,-0.121094,-0.017578,0.213074,0.155579,0.788879,0.555054,down
16373,-1.84375,9.203125,-2.816406,0.082031,-0.109375,-0.03125,0.213318,0.155762,0.78894,0.55481,down
16378,-1.84375,9.242188,-2.816406,0.082031,-0.109375,-0.03125,0.213806,0.156067,0.789062,0.554382,down
16383,-1.84375,9.285156,-2.894531,0.082031,-0.109375,-0.03125,0.21405,0.156128,0.789062,0.554199,down
16388,-1.84375,9.28125,-2.929688,0.029297,-0.117188,-0.015625,0.21405,0.156128,0.789062,0.554199,down
16393,-1.804688,9.28125,-2.96875,0.029297,-0.117188,-0.015625,0.214294,0.156311,0.789062,0.554077,down
16398,-1.769531,9.320313,-2.96875,0.029297,-0.117188,-0.015625,0.214783,0.156555,0.789001,0.553894,down
16403,-1.804688,9.320313,-3.046875,0.029297,-0.117188,-0.015625,0.214783,0.156555,0.789001,0.553894,down
16408,-1.804688,9.28125,-3.125,-0.005859,-0.111328,0.015625,0.21521,0.156921,0.788879,0.553833,down
16413,-1.730469,9.324219,-3.160156,-0.005859,-0.111328,0.015625,0.215393,0.157104,0.788818,0.553833,down
16418,-1.769531,9.320313,-3.160156,-0.005859,-0.111328,0.015625,0.215454,0.157227,0.788757,0.553772,down
16423,-1.691406,9.324219,-3.160156,-0.005859,-0.111328,0.015625,0.215454,0.157227,0.788757,0.553772,down
16428,-1.691406,9.324219,-3.160156,0.046875,-0.058594,0.042969,0.215576,0.157593,0.788818,0.553589,down
16433,-1.691406,9.28125,-3.160156,0.046875,-0.058594,0.042969,0.215576,0.157776,0.788879,0.553467,down
16438,-1.652344,9.285156,-3.160156,0.046875,-0.058594,0.042969,0.215515,0.157959,0.78894,0.553284,down
16443,-1.652344,9.285156,-3.125,0.046875,-0.058594,0.042969,0.215515,0.157959,0.78894,0.553284,down
16448,-1.652344,9.285156,-3.125,0.117188,-0.023437,0.060547,0.215393,0.158386,0.789246,0.552856,down
16453,-1.652344,9.285156,-3.125,0.117188,-0.023437,0.060547,0.215271,0.15863,0.789368,0.552612,down
16458,-1.652344,9.246094,-3.125,0.117188,-0.023437,0.060547,0.21521,0.158875,0.78949,0.552429,down
16463,-1.652344,9.242188,-3.046875,0.117188,-0.023437,0.060547,0.21521,0.158875,0.78949,0.552429,down
16468,-1.613281,9.203125,-3.046875,0.136719,-0.041016,0.083984,0.21521,0.158875,0.78949,0.552429,down
16473,-1.652344,9.167969,-3.085938,0.136719,-0.041016,0.083984,0.215027,0.15979,0.789856,0.551697,down
16478,-1.613281,9.128906,-3.085938,0.136719,-0.041016,0.083984,0.214966,0.160034,0.789978,0.551453,down
16483,-1.613281,9.085938,-3.046875,0.130859,-0.068359,0.099609,0.214966,0.160034,0.789978,0.551453,down
16488,-1.613281,9.085938,-3.046875,0.130859,-0.068359,0.099609,0.214905,0.160767,0.790222,0.550964,down
16493,-1.578125,9.125,-3.046875,0.130859,-0.068359,0.099609,0.214905,0.160767,0.790222,0.550964,down
16498,-1.539063,9.085938,-3.046875,0.150391,-0.080078,0.089844,0.214905,0.160767,0.790222,0.550964,down
16503,-1.539063,9.089844,-3.007813,0.158203,-0.095703,0.089844,0.214905,0.160767,0.790222,0.550964,down
16508,-1.539063,9.050781,-3.046875,0.158203,-0.095703,0.089844,0.214905,0.161926,0.790588,0.550049,down
16513,-1.5,9.011719,-2.96875,0.183594,-0.140625,0.080078,0.214966,0.162354,0.79071,0.549683,down
16518,-1.5,9.011719,-2.96875,0.183594,-0.140625,0.080078,0.215027,0.162781,0.790894,0.549377,down
16524,-1.5,9.011719,-2.96875,0.214844,-0.177734,0.087891,0.215271,0.163696,0.791199,0.548523,down
16529,-1.460938,8.863281,-2.894531,0.226562,-0.203125,0.083984,0.215454,0.164307,0.791382,0.548035,down
16534,-1.460938,8.824219,-2.855469,0.240234,-0.238281,0.083984,0.215698,0.164917,0.791565,0.547485,down
16540,-1.421875,8.78125,-2.777344,0.240234,-0.238281,0.083984,0.216003,0.165466,0.791687,0.546997,down
16545,-1.460938,8.707031,-2.703125,0.240234,-0.238281,0.083984,0.21637,0.166199,0.791809,0.546448,down
16551,-1.460938,8.707031,-2.738281,0.283203,-0.365234,0.103516,0.21637,0.166199,0.791809,0.546448,down
16556,-1.421875,8.746094,-2.855469,0.287109,-0.388672,0.101563,0.21637,0.166199,0.791809,0.546448,down
16562,-1.460938,8.9375,-3.160156,0.287109,-0.388672,0.101563,0.217834,0.168701,0.792236,0.544434,down
16567,-1.5,8.972656,-3.238281,0.253906,-0.380859,0.099609,0.217834,0.168701,0.792236,0.544434,down
16573,-1.5,9.089844,-3.277344,0.238281,-0.384766,0.101563,0.219482,0.171204,0.79248,0.542664,down
16578,-1.460938,9.167969,-3.351563,0.238281,-0.384766,0.101563,0.219482,0.171204,0.79248,0.542664,down
16584,-1.460938,9.242188,-3.390625,0.121094,-0.3125,0.083984,0.219482,0.171204,0.79248,0.542664,down
16589,-1.460938,9.242188,-3.316406,0.121094,-0.3125,0.083984,0.221008,0.17334,0.792419,0.541443,down
16594,-1.460938,9.359375,-3.316406,0.121094,-0.3125,0.083984,0.221436,0.173828,0.792358,0.54126,down
16599,-1.5,9.320313,-3.277344,0.121094,-0.3125,0.083984,0.221802,0.174194,0.792236,0.541138,down
16604,-1.5,9.285156,-3.277344,-0.044922,-0.169922,0.009766,0.222229,0.1745,0.792114,0.541077,down
16610,-1.578125,9.285156,-3.238281,-0.044922,-0.169922,0.009766,0.222534,0.174683,0.791931,0.541138,down
16616,-1.652344,9.128906,-3.238281,-0.044922,-0.169922,0.009766,0.2229,0.174622,0.791687,0.541321,down
16622,-1.652344,8.898438,-3.316406,-0.224609,-0.048828,-0.091797,0.2229,0.174622,0.791687,0.541321,down
16627,-1.691406,9.046875,-3.390625,-0.273438,-0.019531,-0.140625,0.2229,0.174622,0.791687,0.541321,down
16633,-1.691406,9.285156,-3.199219,-0.257813,-0.099609,-0.205078,0.2229,0.174622,0.791687,0.541321,down
16638,-1.691406,9.324219,-3.160156,-0.257813,-0.099609,-0.205078,0.224548,0.173279,0.790527,0.542786,down
16643,-1.730469,9.320313,-3.199219,-0.189453,-0.103516,-0.240234,0.224548,0.173279,0.790527,0.542786,down
16648,-1.769531,9.390625,-3.238281,-0.189453,-0.103516,-0.240234,0.22583,0.172424,0.789978,0.543335,down
16654,-1.804688,9.472656,-3.199219,-0.144531,-0.111328,-0.25,0.227112,0.17157,0.789673,0.543518,down
16659,-1.804688,9.511719,-3.199219,-0.033203,-0.095703,-0.251953,0.227112,0.17157,0.789673,0.543518,down
16664,-1.84375,9.589844,-3.160156,-0.033203,-0.095703,-0.251953,0.227661,0.171143,0.789612,0.543457,down
16670,-1.921875,9.742188,-3.160156,-0.033203,-0.095703,-0.251953,0.228638,0.170471,0.789795,0.543091,down
16675,-1.960938,9.773438,-3.125,0.044922,-0.052734,-0.208984,0.229065,0.170105,0.789856,0.542847,down
16680,-1.996094,9.773438,-3.160156,0.029297,-0.058594,-0.1875,0.229431,0.1698,0.789978,0.542603,down
16685,-1.996094,9.773438,-3.125,0.029297,-0.058594,-0.1875,0.229858,0.169495,0.790039,0.542419,down
16690,-1.996094,9.855469,-3.238281,0.029297,-0.058594,-0.1875,0.229858,0.169495,0.790039,0.542419,down
16696,-2.074219,9.851563,-3.238281,-0.09375,-0.015625,-0.138672,0.229858,0.169495,0.790039,0.542419,down
16702,-2.074219,9.816406,-3.199219,-0.132812,-0.005859,-0.130859,0.230774,0.16864,0.789917,0.542542,down
16708,-2.074219,9.703125,-3.160156,-0.132812,-0.005859,-0.130859,0.231201,0.167969,0.789551,0.54303,down
16713,-2.113281,9.707031,-3.125,-0.132812,-0.005859,-0.130859,0.231201,0.167969,0.789551,0.54303,down
16718,-2.113281,9.664063,-3.046875,-0.179687,0.021484,-0.089844,0.231201,0.167969,0.789551,0.54303,down
16723,-2.113281,9.550781,-2.929688,-0.179687,0.021484,-0.089844,0.231567,0.167358,0.789185,0.54364,down
16728,-2.113281,9.511719,-2.96875,-0.179687,0.021484,-0.089844,0.23175,0.166992,0.789001,0.543945,down
16734,-2.074219,9.472656,-2.929688,-0.107422,0.033203,-0.076172,0.23175,0.166992,0.789001,0.543945,down
16739,-2.074219,9.394531,-2.894531,-0.107422,0.033203,-0.076172,0.232056,0.166138,0.788635,0.544617,down
16744,-2.113281,9.324219,-2.816406,-0.107422,0.033203,-0.076172,0.232117,0.165955,0.788635,0.544678,down
16749,-2.074219,9.28125,-2.703125,-0.001953,0.033203,-0.060547,0.232117,0.165955,0.788635,0.544678,down
16754,-2.074219,9.242188,-2.703125,0.017578,0.035156,-0.039063,0.232178,0.165771,0.788635,0.544678,down
16759,-2.074219,9.242188,-2.703125,0.017578,0.035156,-0.039063,0.232178,0.165466,0.788757,0.544617,down
16764,-2.113281,9.207031,-2.738281,0.017578,0.035156,-0.039063,0.232178,0.165344,0.788818,0.544556,down
16769,-2.152344,9.246094,-2.664063,0.001953,0.056641,-0.042969,0.232178,0.165344,0.788818,0.544556,down
16774,-2.152344,9.285156,-2.664063,0.001953,0.056641,-0.042969,0.232117,0.165222,0.788879,0.544556,down
16779,-2.152344,9.285156,-2.664063,0.001953,0.056641,-0.042969,0.232056,0.164856,0.788879,0.544617,down
16784,-2.152344,9.246094,-2.664063,0.001953,0.056641,-0.042969,0.232056,0.164856,0.788879,0.544617,down
16789,-2.152344,9.246094,-2.625,-0.080078,0.0625,-0.046875,0.231995,0.164368,0.788818,0.544922,down
16794,-2.1875,9.246094,-2.585938,-0.080078,0.0625,-0.046875,0.231995,0.164124,0.788696,0.545166,down
16799,-2.1875,9.167969,-2.664063,-0.080078,0.0625,-0.046875,0.232056,0.163879,0.788574,0.54541,down
16804,-2.1875,9.167969,-2.703125,-0.162109,0.037109,-0.054687,0.232056,0.163879,0.788574,0.54541,down
16809,-2.152344,9.128906,-2.625,-0.164062,0.025391,-0.050781,0.232117,0.163574,0.788391,0.545776,down
16815,-2.152344,9.128906,-2.625,-0.15625,0.021484,-0.056641,0.2323,0.163147,0.788025,0.546326,down
16820,-2.1875,9.046875,-2.625,-0.140625,0.021484,-0.064453,0.232422,0.162842,0.787842,0.546631,down
16825,-2.1875,9.128906,-2.625,-0.140625,0.021484,-0.064453,0.232544,0.162659,0.78772,0.546814,down
16830,-2.1875,9.125,-2.546875,-0.140625,0.021484,-0.064453,0.232666,0.162476,0.787598,0.546997,down
16835,-2.152344,9.128906,-2.585938,-0.140625,0.021484,-0.064453,0.232788,0.162292,0.787476,0.547119,down
16841,-2.1875,9.167969,-2.625,-0.140625,0.021484,-0.064453,0.23291,0.162109,0.787415,0.547241,down
16848,-2.1875,9.167969,-2.664063,-0.054687,-0.009766,-0.046875,0.23291,0.162109,0.787415,0.547241,down
16853,-2.1875,9.128906,-2.664063,-0.054687,-0.009766,-0.046875,0.23291,0.162109,0.787415,0.547241,down
16859,-2.226563,9.089844,-2.664063,-0.050781,-0.013672,-0.046875,0.23291,0.162109,0.787415,0.547241,down
16864,-2.226563,9.128906,-2.664063,-0.042969,-0.025391,-0.046875,0.233582,0.16156,0.787109,0.547546,down
16869,-2.226563,9.207031,-2.664063,-0.042969,-0.025391,-0.046875,0.233765,0.161438,0.787048,0.547607,down
16874,-2.226563,9.246094,-2.703125,-0.068359,-0.027344,-0.056641,0.233765,0.161438,0.787048,0.547607,down
16879,-2.226563,9.246094,-2.703125,-0.068359,-0.027344,-0.056641,0.23407,0.161194,0.786865,0.547791,down
16884,-2.226563,9.320313,-2.777344,-0.068359,-0.027344,-0.056641,0.23407,0.161194,0.786865,0.547791,down
16889,-2.226563,9.363281,-2.777344,-0.089844,-0.027344,-0.074219,0.23407,0.161194,0.786865,0.547791,down
16894,-2.265625,9.363281,-2.816406,-0.089844,-0.027344,-0.074219,0.234558,0.160889,0.786621,0.548035,down
16899,-2.226563,9.324219,-2.816406,-0.089844,-0.027344,-0.074219,0.234741,0.160706,0.78656,0.548096,down
16904,-2.226563,9.320313,-2.777344,-0.095703,-0.035156,-0.087891,0.234741,0.160706,0.78656,0.548096,down
16910,-2.265625,9.363281,-2.855469,-0.095703,-0.035156,-0.087891,0.235413,0.160156,0.786194,0.548462,down
16915,-2.226563,9.324219,-2.816406,-0.138672,-0.041016,-0.097656,0.235718,0.159973,0.786011,0.548645,down
16921,-2.226563,9.285156,-2.738281,-0.138672,-0.041016,-0.097656,0.235962,0.159729,0.785889,0.548828,down
16926,-2.226563,9.246094,-2.703125,-0.138672,-0.041016,-0.097656,0.236267,0.159546,0.785706,0.549011,down
16931,-2.226563,9.285156,-2.738281,-0.144531,-0.052734,-0.099609,0.236267,0.159546,0.785706,0.549011,down
16936,-2.226563,9.28125,-2.816406,-0.148437,-0.060547,-0.089844,0.236267,0.159546,0.785706,0.549011,down
16941,-2.226563,9.324219,-2.816406,-0.148437,-0.060547,-0.089844,0.237183,0.158936,0.785095,0.549622,down
16947,-2.1875,9.246094,-2.777344,-0.148437,-0.060547,-0.089844,0.237183,0.158936,0.785095,0.549622,down
16952,-2.1875,9.246094,-2.777344,-0.150391,-0.064453,-0.064453,0.237183,0.158936,0.785095,0.549622,down
16958,-2.1875,9.242188,-2.855469,-0.152344,-0.039063,-0.0625,0.237183,0.158936,0.785095,0.549622,down
16963,-2.1875,9.164063,-2.816406,-0.136719,-0.03125,-0.042969,0.237183,0.158936,0.785095,0.549622,down
16969,-2.152344,9.089844,-2.777344,-0.091797,-0.021484,-0.029297,0.237183,0.158936,0.785095,0.549622,down
16974,-2.1875,9.089844,-2.738281,-0.091797,-0.021484,-0.029297,0.238647,0.158081,0.783936,0.550903,down
16979,-2.1875,9.089844,-2.738281,-0.052734,0.001953,-0.003906,0.238708,0.15802,0.783813,0.551025,down
16984,-2.1875,9.046875,-2.777344,-0.052734,0.001953,-0.003906,0.23877,0.157959,0.783752,0.551147,down
16989,-2.1875,9.167969,-2.738281,-0.041016,0.009766,0.003906,0.23877,0.157898,0.78363,0.551331,down
16994,-2.226563,9.089844,-2.625,-0.041016,0.009766,0.003906,0.23877,0.157898,0.78363,0.551331,down
16999,-2.152344,9.128906,-2.664063,0.015625,0.003906,0.029297,0.23877,0.157898,0.78363,0.551331,down
17004,-2.1875,9.128906,-2.703125,0.015625,0.003906,0.029297,0.238708,0.157959,0.783691,0.55127,down
17009,-2.152344,9.128906,-2.703125,0.015625,0.003906,0.029297,0.238708,0.157959,0.783691,0.55127,down
17014,-2.152344,9.128906,-2.664063,0.039063,-0.009766,0.025391,0.238647,0.15802,0.783691,0.551208,down
17019,-2.152344,9.089844,-2.664063,0.039063,-0.009766,0.025391,0.238647,0.158081,0.783752,0.551147,down
17024,-2.113281,9.046875,-2.664063,0.039063,-0.009766,0.025391,0.238647,0.158142,0.783813,0.551086,down
17029,-2.152344,9.046875,-2.703125,0.035156,-0.017578,0.017578,0.238647,0.158142,0.783813,0.551086,down
17034,-2.074219,8.96875,-2.664063,0.035156,-0.017578,0.017578,0.238647,0.158325,0.783813,0.550964,down
17039,-2.113281,9.011719,-2.664063,0.035156,-0.017578,0.017578,0.238647,0.158386,0.783875,0.550964,down
17045,-2.074219,8.96875,-2.625,0.017578,-0.021484,0.015625,0.238647,0.158386,0.783875,0.550964,down
17051,-2.074219,8.96875,-2.664063,0.017578,-0.021484,0.015625,0.23877,0.158508,0.783813,0.550842,down
17057,-2.113281,8.972656,-2.664063,0.0,-0.027344,0.003906,0.23877,0.158508,0.783813,0.550842,down
17063,-2.113281,9.011719,-2.703125,0.001953,-0.035156,0.003906,0.238892,0.15863,0.783813,0.550842,down
17069,-2.074219,9.007813,-2.703125,0.009766,-0.048828,0.013672,0.238953,0.158691,0.783752,0.550842,down
17074,-2.074219,9.050781,-2.664063,0.009766,-0.048828,0.013672,0.239075,0.158752,0.783752,0.550842,down
17079,-2.113281,9.128906,-2.703125,-0.005859,-0.054687,-0.005859,0.239075,0.158752,0.783752,0.550842,down
17084,-2.113281,9.167969,-2.738281,-0.005859,-0.054687,-0.005859,0.239258,0.158875,0.783691,0.550781,down
17089,-2.074219,9.164063,-2.738281,-0.005859,-0.054687,-0.005859,0.239441,0.158936,0.78363,0.55072,down
17095,-2.113281,9.128906,-2.703125,-0.023437,-0.072266,-0.007813,0.239441,0.158936,0.78363,0.55072,down
17100,-2.074219,9.164063,-2.703125,-0.023437,-0.072266,-0.007813,0.239929,0.159119,0.783447,0.550781,down
17105,-2.113281,9.167969,-2.738281,-0.023437,-0.072266,-0.007813,0.240051,0.159119,0.783386,0.550781,down
17110,-2.113281,9.167969,-2.738281,-0.044922,-0.060547,-0.009766,0.240234,0.15918,0.783264,0.550842,down
17115,-2.113281,9.128906,-2.777344,-0.041016,-0.058594,-0.019531,0.240417,0.15918,0.783203,0.550903,down
17120,-2.074219,9.164063,-2.777344,-0.042969,-0.050781,-0.021484,0.240417,0.15918,0.783203,0.550903,down
17125,-2.152344,9.128906,-2.777344,-0.042969,-0.050781,-0.021484,0.240784,0.15918,0.78302,0.550964,down
17130,-2.113281,9.167969,-2.738281,-0.029297,-0.027344,-0.021484,0.240784,0.15918,0.78302,0.550964,down
17135,-2.113281,9.128906,-2.738281,-0.029297,-0.027344,-0.021484,0.241028,0.159119,0.782898,0.551086,down
17140,-2.113281,9.128906,-2.777344,-0.029297,-0.027344,-0.021484,0.241028,0.159119,0.782898,0.551086,down
17145,-2.074219,9.125,-2.738281,-0.029297,-0.027344,-0.021484,0.241272,0.159058,0.782776,0.551086,down
17150,-2.113281,9.207031,-2.777344,-0.009766,-0.03125,-0.021484,0.241394,0.159058,0.782776,0.551086,down
17155,-2.074219,9.164063,-2.777344,-0.009766,-0.03125,-0.021484,0.241394,0.159058,0.782776,0.551086,down
17160,-2.074219,9.242188,-2.777344,-0.009766,-0.03125,-0.021484,0.241577,0.159058,0.782776,0.551025,down
17165,-2.074219,9.207031,-2.816406,0.001953,-0.027344,-0.015625,0.241577,0.159058,0.782776,0.551025,down
17170,-2.113281,9.242188,-2.816406,0.001953,-0.027344,-0.015625,0.241699,0.158997,0.782776,0.550964,down
17175,-2.113281,9.203125,-2.816406,0.001953,-0.027344,-0.015625,0.241821,0.158997,0.782715,0.550964,down
17180,-2.074219,9.207031,-2.855469,-0.019531,-0.005859,-0.027344,0.241882,0.158936,0.782715,0.550964,down
17185,-2.074219,9.207031,-2.855469,-0.019531,-0.005859,-0.027344,0.241882,0.158936,0.782715,0.550964,down
17190,-2.074219,9.207031,-2.816406,-0.021484,0.0,-0.023437,0.242004,0.158752,0.782715,0.551025,down
17196,-2.074219,9.203125,-2.777344,-0.021484,0.0,-0.023437,0.242065,0.158691,0.782654,0.551025,down
17202,-2.035156,9.203125,-2.816406,-0.044922,0.005859,-0.054687,0.242187,0.158508,0.782654,0.551086,down
17207,-2.074219,9.164063,-2.777344,-0.048828,0.007813,-0.050781,0.242187,0.158508,0.782654,0.551086,down
17212,-2.074219,9.207031,-2.816406,-0.060547,0.001953,-0.056641,0.242187,0.158508,0.782654,0.551086,down
17217,-2.074219,9.207031,-2.816406,-0.056641,0.001953,-0.058594,0.242187,0.158508,0.782654,0.551086,down
17222,-2.074219,9.207031,-2.816406,-0.0625,0.011719,-0.076172,0.242615,0.157898,0.78241,0.551392,down
17228,-2.074219,9.167969,-2.816406,-0.068359,0.003906,-0.074219,0.242615,0.157898,0.78241,0.551392,down
17234,-2.035156,9.167969,-2.777344,-0.068359,0.003906,-0.074219,0.243042,0.157288,0.782227,0.551636,down
17239,-2.035156,9.089844,-2.738281,-0.068359,0.003906,-0.074219,0.243042,0.157288,0.782227,0.551636,down
17244,-2.074219,9.125,-2.738281,-0.056641,-0.007813,-0.074219,0.243042,0.157288,0.782227,0.551636,down
17249,-2.074219,9.203125,-2.703125,-0.056641,-0.001953,-0.074219,0.243469,0.156738,0.782104,0.551819,down
17254,-2.074219,9.242188,-2.777344,-0.056641,-0.001953,-0.074219,0.243469,0.156738,0.782104,0.551819,down
17259,-2.074219,9.246094,-2.855469,-0.054687,0.0,-0.076172,0.243469,0.156738,0.782104,0.551819,down
17265,-2.074219,9.285156,-2.816406,-0.068359,0.007813,-0.068359,0.243469,0.156738,0.782104,0.551819,down
17270,-2.074219,9.28125,-2.777344,-0.068359,0.007813,-0.068359,0.244019,0.155945,0.78186,0.552124,down
17275,-2.113281,9.285156,-2.777344,-0.078125,-0.021484,-0.083984,0.244019,0.155945,0.78186,0.552124,down
17280,-2.113281,9.285156,-2.777344,-0.078125,-0.021484,-0.083984,0.244446,0.155579,0.781677,0.552307,down
17285,-2.074219,9.28125,-2.738281,-0.078125,-0.021484,-0.083984,0.244629,0.155334,0.781555,0.552429,down
17290,-2.152344,9.320313,-2.703125,-0.103516,-0.023437,-0.091797,0.244629,0.155334,0.781555,0.552429,down
17295,-2.113281,9.285156,-2.703125,-0.103516,-0.023437,-0.091797,0.244873,0.15509,0.781433,0.552551,down
17300,-2.113281,9.285156,-2.738281,-0.111328,-0.03125,-0.087891,0.244873,0.15509,0.781433,0.552551,down
17305,-2.152344,9.320313,-2.703125,-0.111328,-0.03125,-0.087891,0.245544,0.15448,0.781067,0.552979,down
17310,-2.152344,9.285156,-2.738281,-0.107422,-0.033203,-0.089844,0.245544,0.15448,0.781067,0.552979,down
17315,-2.113281,9.285156,-2.664063,-0.105469,-0.037109,-0.085937,0.24585,0.154236,0.780945,0.553101,down
17320,-2.152344,9.285156,-2.664063,-0.105469,-0.037109,-0.085937,0.246338,0.15387,0.78064,0.553406,down
17325,-2.113281,9.285156,-2.664063,-0.105469,-0.037109,-0.085937,0.246521,0.153687,0.780518,0.553528,down
17330,-2.113281,9.246094,-2.703125,-0.095703,-0.033203,-0.078125,0.246521,0.153687,0.780518,0.553528,down
17335,-2.152344,9.207031,-2.664063,-0.095703,-0.033203,-0.078125,0.246704,0.153503,0.780457,0.553589,down
17340,-2.1875,9.207031,-2.664063,-0.095703,-0.033203,-0.078125,0.247009,0.153198,0.780396,0.55365,down
17345,-2.152344,9.167969,-2.703125,-0.095703,-0.033203,-0.078125,0.247131,0.153015,0.780396,0.553589,down
17350,-2.1875,9.207031,-2.703125,-0.095703,-0.033203,-0.078125,0.247131,0.153015,0.780396,0.553589,down
17355,-2.1875,9.207031,-2.664063,-0.056641,-0.009766,-0.066406,0.247131,0.153015,0.780396,0.553589,down
17361,-2.226563,9.207031,-2.625,-0.056641,-0.009766,-0.066406,0.247437,0.152588,0.780457,0.553528,down
17366,-2.226563,9.207031,-2.585938,-0.056641,-0.009766,-0.066406,0.247498,0.152466,0.780457,0.553467,down
17371,-2.226563,9.207031,-2.585938,-0.029297,0.0,-0.0625,0.247498,0.152466,0.780457,0.553467,down
17376,-2.265625,9.203125,-2.585938,-0.029297,0.0,-0.0625,0.24762,0.152161,0.780579,0.553406,down
17381,-2.226563,9.207031,-2.585938,-0.029297,0.0,-0.0625,0.247681,0.152039,0.780579,0.553406,down
17386,-2.265625,9.164063,-2.625,-0.052734,0.003906,-0.074219,0.247803,0.151855,0.780579,0.553406,down
17392,-2.226563,9.207031,-2.585938,-0.052734,0.003906,-0.074219,0.247864,0.151672,0.780579,0.553406,down
17397,-2.304688,9.128906,-2.546875,-0.052734,0.003906,-0.074219,0.247986,0.151489,0.780579,0.553406,down
17403,-2.265625,9.164063,-2.585938,-0.072266,0.003906,-0.089844,0.248108,0.151245,0.780579,0.553467,down
17409,-2.304688,9.128906,-2.546875,-0.083984,0.0,-0.091797,0.248108,0.151245,0.780579,0.553467,down
17414,-2.265625,9.089844,-2.511719,-0.083984,0.0,-0.091797,0.248108,0.151245,0.780579,0.553467,down
17420,-2.304688,9.046875,-2.472656,-0.095703,-0.001953,-0.103516,0.248108,0.151245,0.780579,0.553467,down
17425,-2.34375,9.125,-2.472656,-0.097656,0.007813,-0.113281,0.248108,0.151245,0.780579,0.553467,down
17431,-2.34375,9.085938,-2.472656,-0.097656,0.007813,-0.113281,0.249023,0.149719,0.780273,0.553833,down
17437,-2.378906,9.085938,-2.472656,-0.097656,0.007813,-0.113281,0.249207,0.149414,0.780212,0.553894,down
17442,-2.378906,9.085938,-2.472656,-0.097656,0.011719,-0.115234,0.249329,0.149109,0.780212,0.554016,down
17447,-2.34375,9.085938,-2.472656,-0.097656,0.011719,-0.115234,0.249512,0.148743,0.780151,0.554077,down
17454,-2.417969,9.050781,-2.472656,-0.097656,0.011719,-0.115234,0.249512,0.148743,0.780151,0.554077,down
17459,-2.417969,9.050781,-2.472656,-0.083984,0.023437,-0.121094,0.249512,0.148743,0.780151,0.554077,down
17465,-2.417969,9.011719,-2.433594,-0.072266,0.021484,-0.121094,0.249512,0.148743,0.780151,0.554077,down
17470,-2.378906,9.011719,-2.433594,-0.072266,0.021484,-0.121094,0.250122,0.147522,0.780029,0.55426,down
17475,-2.417969,9.011719,-2.394531,-0.054687,0.025391,-0.123047,0.250122,0.147522,0.780029,0.55426,down
17480,-2.457031,9.011719,-2.394531,-0.048828,0.025391,-0.126953,0.250122,0.147522,0.780029,0.55426,down
17485,-2.457031,8.96875,-2.355469,-0.046875,0.021484,-0.132812,0.250122,0.147522,0.780029,0.55426,down
17490,-2.457031,8.96875,-2.355469,-0.046875,0.021484,-0.132812,0.250732,0.14624,0.780151,0.55426,down
17496,-2.496094,8.96875,-2.320313,-0.044922,0.013672,-0.162109,0.250732,0.14624,0.780151,0.55426,down
17501,-2.496094,8.96875,-2.355469,-0.044922,0.013672,-0.162109,0.251404,0.145142,0.780212,0.554077,down
17507,-2.609375,8.96875,-2.394531,-0.044922,0.013672,-0.162109,0.251648,0.144775,0.780212,0.554077,down
17512,-2.570313,8.96875,-2.355469,-0.083984,-0.017578,-0.189453,0.251648,0.144775,0.780212,0.554077,down
17519,-2.570313,8.941406,-2.320313,-0.089844,-0.03125,-0.201172,0.251648,0.144775,0.780212,0.554077,down
17525,-2.570313,8.941406,-2.355469,-0.089844,-0.03125,-0.201172,0.252747,0.143494,0.78009,0.554077,down
17530,-2.609375,8.902344,-2.320313,-0.117188,-0.050781,-0.236328,0.252747,0.143494,0.78009,0.554077,down
17535,-2.609375,8.898438,-2.242188,-0.117188,-0.050781,-0.236328,0.253601,0.142517,0.779907,0.554199,down
17540,-2.609375,8.898438,-2.28125,-0.117188,-0.050781,-0.236328,0.25415,0.142029,0.779785,0.55426,down
17545,-2.609375,8.898438,-2.28125,-0.117188,-0.050781,-0.236328,0.254639,0.141602,0.779663,0.554321,down
17550,-2.609375,8.824219,-2.242188,-0.130859,-0.080078,-0.271484,0.254639,0.141602,0.779663,0.554321,down
17555,-2.609375,8.78125,-2.203125,-0.136719,-0.087891,-0.283203,0.254639,0.141602,0.779663,0.554321,down
17560,-2.609375,8.78125,-2.203125,-0.126953,-0.099609,-0.298828,0.25647,0.140015,0.779236,0.554443,down
17565,-2.609375,8.703125,-2.203125,-0.126953,-0.099609,-0.298828,0.257141,0.139465,0.779114,0.554443,down
17571,-2.609375,8.703125,-2.242188,-0.128906,-0.107422,-0.314453,0.258545,0.138306,0.77887,0.554443,down
17577,-2.648438,8.667969,-2.128906,-0.128906,-0.107422,-0.314453,0.259277,0.137817,0.778748,0.554382,down
17582,-2.648438,8.667969,-2.128906,-0.119141,-0.144531,-0.357422,0.260132,0.137207,0.778625,0.554321,down
17587,-2.648438,8.628906,-2.128906,-0.119141,-0.144531,-0.357422,0.260925,0.136658,0.778442,0.55426,down
17592,-2.648438,8.628906,-2.128906,-0.119141,-0.144531,-0.357422,0.261841,0.136047,0.77832,0.554199,down
17597,-2.6875,8.625,-2.128906,-0.119141,-0.144531,-0.357422,0.261841,0.136047,0.77832,0.554199,down
17602,-2.726563,8.667969,-2.164063,-0.119141,-0.208984,-0.417969,0.261841,0.136047,0.77832,0.554199,down
17607,-2.765625,8.628906,-2.128906,-0.126953,-0.222656,-0.445312,0.261841,0.136047,0.77832,0.554199,down
17613,-2.839844,8.625,-2.089844,-0.126953,-0.222656,-0.445312,0.266052,0.133545,0.77771,0.553711,down
17619,-2.839844,8.628906,-2.050781,-0.144531,-0.25,-0.472656,0.266052,0.133545,0.77771,0.553711,down
17624,-2.839844,8.589844,-2.050781,-0.152344,-0.261719,-0.478516,0.266052,0.133545,0.77771,0.553711,down
17630,-2.917969,8.558594,-2.050781,-0.158203,-0.275391,-0.505859,0.266052,0.133545,0.77771,0.553711,down
17635,-2.957031,8.554688,-2.011719,-0.144531,-0.294922,-0.515625,0.266052,0.133545,0.77771,0.553711,down
17640,-2.957031,8.554688,-1.972656,-0.132812,-0.306641,-0.521484,0.266052,0.133545,0.77771,0.553711,down
17645,-3.03125,8.667969,-1.972656,-0.109375,-0.316406,-0.527344,0.266052,0.133545,0.77771,0.553711,down
17650,-3.070313,8.746094,-2.050781,-0.109375,-0.316406,-0.527344,0.275208,0.128723,0.776245,0.552429,down
17655,-3.070313,8.742188,-2.011719,-0.109375,-0.316406,-0.527344,0.276733,0.128052,0.776062,0.552002,down
17661,-3.183594,8.820313,-2.011719,0.03125,-0.404297,-0.550781,0.276733,0.128052,0.776062,0.552002,down
17666,-3.222656,8.941406,-1.972656,0.03125,-0.404297,-0.550781,0.281189,0.126526,0.775879,0.550415,down
17671,-3.261719,8.96875,-1.972656,0.03125,-0.404297,-0.550781,0.282959,0.126038,0.775818,0.549683,down
17676,-3.300781,9.007813,-2.050781,0.087891,-0.476562,-0.5625,0.282959,0.126038,0.775818,0.549683,down
17681,-3.339844,9.011719,-2.050781,0.087891,-0.476562,-0.5625,0.286194,0.125305,0.775757,0.548279,down
17686,-3.339844,9.050781,-2.011719,0.087891,-0.476562,-0.5625,0.287903,0.124939,0.775696,0.547546,down
17691,-3.375,8.96875,-2.050781,0.087891,-0.476562,-0.5625,0.287903,0.124939,0.775696,0.547546,down
17696,-3.414063,9.011719,-2.089844,0.064453,-0.542969,-0.548828,0.287903,0.124939,0.775696,0.547546,down
17701,-3.414063,9.046875,-2.089844,0.064453,-0.542969,-0.548828,0.293335,0.124023,0.77533,0.54541,down
17706,-3.453125,9.050781,-2.050781,0.064453,-0.542969,-0.548828,0.295166,0.123779,0.775085,0.544739,down
17711,-3.453125,9.089844,-2.089844,0.064453,-0.542969,-0.548828,0.295166,0.123779,0.775085,0.544739,down
17716,-3.492188,9.085938,-2.050781,0.041016,-0.601562,-0.521484,0.299011,0.123413,0.774658,0.543396,down
17722,-3.53125,9.089844,-2.089844,0.035156,-0.601562,-0.494141,0.300781,0.123291,0.774414,0.542786,down
17727,-3.566406,9.164063,-2.128906,0.035156,-0.601562,-0.494141,0.302551,0.123169,0.77417,0.542175,down
17732,-3.605469,9.164063,-2.128906,0.058594,-0.59375,-0.476562,0.302551,0.123169,0.77417,0.542175,down
17737,-3.683594,9.207031,-2.128906,0.058594,-0.59375,-0.476562,0.306213,0.122986,0.773743,0.540833,down
17742,-3.644531,9.164063,-2.164063,0.058594,-0.59375,-0.476562,0.307922,0.122864,0.77356,0.5401,down
17747,-3.722656,9.246094,-2.164063,0.111328,-0.574219,-0.453125,0.309875,0.122803,0.773376,0.539246,down
17753,-3.761719,9.28125,-2.128906,0.111328,-0.574219,-0.453125,0.311401,0.122803,0.773254,0.538574,down
17758,-3.796875,9.28125,-2.128906,0.111328,-0.574219,-0.453125,0.31311,0.122742,0.773132,0.53772,down
17764,-3.835938,9.242188,-2.164063,0.158203,-0.542969,-0.453125,0.31311,0.122742,0.773132,0.53772,down
17769,-3.875,9.285156,-2.089844,0.15625,-0.541016,-0.439453,0.31311,0.122742,0.773132,0.53772,down
17774,-3.761719,9.324219,-2.128906,0.158203,-0.541016,-0.441406,0.31311,0.122742,0.773132,0.53772,down
17779,-3.835938,9.320313,-2.128906,0.15625,-0.525391,-0.447266,0.31311,0.122742,0.773132,0.53772,down
17784,-3.875,9.320313,-2.089844,0.140625,-0.525391,-0.433594,0.31311,0.122742,0.773132,0.53772,down
17806,-4.027344,9.46875,-2.203125,0.029297,-0.509766,-0.466797,0.325928,0.122253,0.772339,0.531311,down
17811,-4.066406,9.546875,-2.164063,0.011719,-0.525391,-0.492187,0.329102,0.121887,0.771973,0.529968,down
17816,-4.105469,9.667969,-2.164063,0.011719,-0.525391,-0.492187,0.33075,0.121643,0.771729,0.529358,down
17821,-4.144531,9.742188,-2.203125,-0.078125,-0.570312,-0.53125,0.33075,0.121643,0.771729,0.529358,down
17826,-4.179687,9.929688,-2.203125,-0.078125,-0.570312,-0.53125,0.33429,0.121033,0.771057,0.528259,down
17831,-4.179687,9.929688,-2.203125,-0.078125,-0.570312,-0.53125,0.338196,0.120117,0.77002,0.527527,down
17836,-4.21875,10.007813,-2.203125,-0.078125,-0.570312,-0.53125,0.338196,0.120117,0.77002,0.527527,down
17841,-4.21875,10.007813,-2.203125,-0.404297,-0.669922,-0.669922,0.338196,0.120117,0.77002,0.527527,down
17846,-4.21875,10.007813,-2.203125,-0.404297,-0.669922,-0.669922,0.34259,0.118835,0.768494,0.527222,down
17851,-4.21875,9.96875,-2.242188,-0.404297,-0.669922,-0.669922,0.34259,0.118835,0.768494,0.527222,down
17856,-4.257812,9.816406,-2.320313,-0.650391,-0.701172,-0.769531,0.34259,0.118835,0.768494,0.527222,down
17861,-4.257812,9.359375,-2.242188,-0.794922,-0.732422,-0.833984,0.352905,0.114319,0.763489,0.528687,down
17866,-4.105469,9.050781,-1.972656,-0.794922,-0.732422,-0.833984,0.352905,0.114319,0.763489,0.528687,down
17871,-4.144531,8.859375,-1.78125,-1.101563,-0.890625,-1.080078,0.356445,0.112488,0.761475,0.529541,down
17876,-4.179687,8.667969,-1.550781,-1.101563,-0.890625,-1.080078,0.35968,0.110718,0.759644,0.530334,down
17881,-4.179687,8.363281,-1.398438,-1.291016,-0.935547,-1.326172,0.36322,0.108704,0.75769,0.531189,down
17887,-4.179687,8.363281,-1.398438,-1.351563,-1.017578,-1.449219,0.370789,0.104004,0.753357,0.53302,down
17892,-4.296875,8.207031,-0.824219,-1.400391,-1.095703,-1.560547,0.37561,0.101013,0.750671,0.534058,down
17897,-4.449219,8.441406,-0.746094,-1.400391,-1.095703,-1.560547,0.380371,0.098083,0.748047,0.534912,down
17902,-4.527344,8.746094,-0.863281,-1.400391,-1.095703,-1.560547,0.384827,0.095398,0.745667,0.535522,down
17908,-4.640625,9.433594,-0.902344,-1.400391,-1.095703,-1.560547,0.390198,0.092163,0.742798,0.536194,down
17913,-4.640625,9.628906,-0.824219,-1.701172,-1.507813,-2.09375,0.390198,0.092163,0.742798,0.536194,down
17919,-4.871094,9.890625,-0.519531,-1.962891,-1.609375,-2.195313,0.390198,0.092163,0.742798,0.536194,down
17925,-4.910156,10.011719,-0.402344,-2.279297,-1.6875,-2.287109,0.390198,0.092163,0.742798,0.536194,down
17930,-4.984375,10.085938,-0.402344,-2.667969,-1.734375,-2.365234,0.390198,0.092163,0.742798,0.536194,down
17936,-5.175781,10.046875,-0.554687,-3.091797,-1.794922,-2.412109,0.390198,0.092163,0.742798,0.536194,down
17941,-5.292969,9.929688,-0.59375,-4.078125,-1.882813,-2.464844,0.429626,0.066101,0.716125,0.546082,down
17946,-5.292969,9.929688,-0.59375,-4.078125,-1.882813,-2.464844,0.437561,0.05957,0.708618,0.550293,down
17951,-5.292969,9.929688,-0.59375,-4.542969,-1.902344,-2.474609,0.444336,0.053589,0.701599,0.554504,down
17956,-5.445312,9.472656,-0.363281,-4.542969,-1.902344,-2.474609,0.451904,0.046387,0.692932,0.559875,down
17961,-5.597656,8.628906,-0.25,-4.542969,-1.902344,-2.474609,0.459045,0.039001,0.684021,0.565552,down
17967,-5.558594,8.363281,-0.097656,-5.652344,-1.744141,-2.447266,0.459045,0.039001,0.684021,0.565552,down
17972,-5.636719,7.675781,0.324219,-5.652344,-1.744141,-2.447266,0.480408,0.013916,0.65332,0.584961,down
17977,-5.675781,7.210937,0.632812,-5.652344,-1.744141,-2.447266,0.486267,0.006348,0.64386,0.590698,down
17982,-5.636719,6.871094,0.976562,-5.472656,-1.662109,-2.292969,0.492859,-0.002136,0.632874,0.597107,down
17987,-5.636719,6.871094,0.976562,-4.949219,-1.519531,-2.208984,0.498413,-0.009399,0.623535,0.602234,down
17992,-5.597656,5.949219,1.015625,-5.578125,-1.839844,-2.111328,0.504089,-0.016846,0.613403,0.607727,down
17997,-5.367187,5.335937,2.777344,-5.578125,-1.839844,-2.111328,0.510193,-0.025024,0.601746,0.614014,down
18002,-5.25,4.53125,3.007813,-5.578125,-1.839844,-2.111328,0.510193,-0.025024,0.601746,0.614014,down
18007,-5.675781,5.488281,3.121094,-3.228516,-1.146484,-2.003906,0.514526,-0.030701,0.594299,0.617371,down
18012,-5.675781,5.488281,3.121094,-3.228516,-1.146484,-2.003906,0.518982,-0.035217,0.589111,0.618347,down
18017,-6.820312,5.796875,2.316406,-0.318359,-0.625,-1.810547,0.522827,-0.037903,0.58667,0.61731,down
18022,-7.015625,7.210937,2.507813,-0.007813,-0.892578,-1.621094,0.530334,-0.041138,0.58252,0.614624,down
18028,-6.25,6.710937,4.613281,-0.007813,-0.892578,-1.621094,0.533325,-0.043823,0.578613,0.615479,down
18033,-6.480469,6.488281,4.269531,-0.007813,-0.892578,-1.621094,0.535522,-0.047363,0.575134,0.616577,down
18038,-7.015625,6.789062,3.082031,-1.205078,0.050781,-0.835937,0.536804,-0.050476,0.572998,0.617187,down
18043,-7.054687,6.675781,3.121094,-1.205078,0.050781,-0.835937,0.53772,-0.052795,0.571411,0.617676,down
18048,-7.128906,7.441406,4.195312,-1.205078,0.050781,-0.835937,0.538513,-0.054565,0.570251,0.617981,down
18053,-7.398437,7.59375,4.230469,-0.380859,0.199219,-0.267578,0.538513,-0.054565,0.570251,0.617981,down
18058,-7.628906,7.632812,4.078125,-0.335938,0.347656,-0.080078,0.538513,-0.054565,0.570251,0.617981,down
18064,-7.742187,7.558594,3.847656,-0.222656,0.447266,0.107422,0.538086,-0.058105,0.569397,0.618713,down
18069,-7.96875,7.671875,3.617188,-0.222656,0.447266,0.107422,0.538086,-0.058105,0.569397,0.618713,down
18075,-7.902344,7.785156,3.65625,0.322266,0.474609,0.404297,0.538086,-0.058105,0.569397,0.618713,down
18080,-7.859375,7.898437,3.808594,0.621094,0.460937,0.535156,0.538086,-0.058105,0.569397,0.618713,down
18085,-7.78125,8.058594,3.925781,0.621094,0.460937,0.535156,0.538086,-0.058105,0.569397,0.618713,down
18090,-7.707031,8.019531,3.847656,0.925781,0.529297,0.736328,0.538086,-0.058105,0.569397,0.618713,down
18095,-7.742187,8.09375,3.65625,1.023438,0.597656,0.798828,0.538086,-0.058105,0.569397,0.618713,down
18100,-7.742187,8.132813,3.425781,1.023438,0.597656,0.798828,0.527649,-0.052612,0.581177,0.617249,down
18106,-7.742187,8.28125,3.3125,1.023438,0.597656,0.798828,0.523376,-0.048767,0.586792,0.615967,down
18111,-7.707031,8.285156,3.351563,1.023438,0.597656,0.798828,0.523376,-0.048767,0.586792,0.615967,down
18116,-7.589844,8.402344,3.160156,1.185547,0.626953,1.0,0.523376,-0.048767,0.586792,0.615967,down
18121,-7.515625,8.398438,3.121094,1.185547,0.626953,1.0,0.518677,-0.044678,0.592285,0.614929,down
18126,-7.476562,8.363281,3.007813,1.185547,0.626953,1.0,0.516052,-0.042664,0.595032,0.614685,down
18132,-7.476562,8.4375,2.96875,0.886719,0.681641,1.150391,0.510864,-0.039185,0.599609,0.614807,down
18137,-7.398437,8.558594,2.890625,0.886719,0.681641,1.150391,0.508057,-0.037354,0.601746,0.615112,down
18142,-7.324219,8.664063,2.777344,0.886719,0.681641,1.150391,0.508057,-0.037354,0.601746,0.615112,down
18147,-7.324219,8.664063,2.777344,0.71875,0.65625,1.359375,0.505127,-0.035522,0.603821,0.615662,down
18152,-7.324219,8.664063,2.777344,0.701172,0.638672,1.445313,0.505127,-0.035522,0.603821,0.615662,down
18158,-7.09375,8.363281,2.585938,0.773437,0.619141,1.513672,0.505127,-0.035522,0.603821,0.615662,down
18164,-7.128906,8.320313,2.585938,0.839844,0.628906,1.591797,0.492126,-0.026306,0.612244,0.618286,down
18170,-7.054687,8.203125,2.507813,0.839844,0.628906,1.591797,0.488281,-0.023254,0.614868,0.618896,down
18176,-6.902344,8.285156,2.585938,0.839844,0.628906,1.591797,0.488281,-0.023254,0.614868,0.618896,down
18181,-6.863281,8.207031,2.621094,0.859375,0.548828,1.785156,0.488281,-0.023254,0.614868,0.618896,down
18187,-6.746094,8.058594,2.621094,0.783203,0.539062,1.794922,0.474243,-0.011902,0.623108,0.621826,down
18192,-6.554687,7.902344,2.507813,0.783203,0.539062,1.794922,0.470703,-0.008972,0.625061,0.62262,down
18197,-6.441406,7.976562,2.46875,0.876953,0.457031,1.804688,0.466736,-0.005615,0.627197,0.623474,down
18202,-6.328125,8.015625,2.429688,0.876953,0.457031,1.804688,0.466736,-0.005615,0.627197,0.623474,down
18207,-6.289062,8.058594,2.46875,0.949219,0.388672,1.814453,0.460205,0.000854,0.630981,0.624573,down
18212,-6.136719,8.09375,2.355469,0.949219,0.388672,1.814453,0.456665,0.004761,0.633057,0.625,down
18217,-6.058594,7.980469,2.394531,1.240234,0.183594,1.886719,0.456665,0.004761,0.633057,0.625,down
18222,-5.980469,7.941406,2.355469,1.240234,0.183594,1.886719,0.450195,0.012817,0.637268,0.625366,down
18227,-5.941406,7.902344,2.238281,1.240234,0.183594,1.886719,0.447021,0.017151,0.639526,0.625244,down
18232,-5.675781,8.019531,1.933594,1.607422,0.117188,2.021484,0.447021,0.017151,0.639526,0.625244,down
18237,-5.558594,8.097656,1.820313,1.607422,0.117188,2.021484,0.443298,0.022278,0.642212,0.624939,down
18242,-5.445312,8.242188,1.742188,1.792969,0.072266,2.072266,0.443298,0.022278,0.642212,0.624939,down
18247,-5.292969,8.558594,1.589844,1.792969,0.072266,2.072266,0.436523,0.032166,0.647339,0.623962,down
18252,-5.292969,8.558594,1.589844,1.8125,0.0625,2.078125,0.433105,0.037292,0.650024,0.623352,down
18257,-5.214844,8.664063,1.550781,1.8125,0.0625,2.078125,0.429626,0.04248,0.652649,0.622681,down
18262,-4.949219,8.859375,1.207031,1.697266,0.095703,2.060547,0.426086,0.047546,0.655151,0.62207,down
18267,-4.910156,8.785156,1.128906,1.566406,0.152344,2.03125,0.418884,0.057129,0.659851,0.621216,down
18272,-4.871094,8.785156,1.089844,1.566406,0.152344,2.03125,0.418884,0.057129,0.659851,0.621216,down
18277,-4.832031,8.824219,1.015625,1.330078,0.199219,1.966797,0.411682,0.065857,0.663757,0.620972,down
18282,-4.71875,8.742188,1.015625,1.330078,0.199219,1.966797,0.411682,0.065857,0.663757,0.620972,down
18287,-4.640625,8.703125,0.9375,1.005859,0.275391,1.839844,0.411682,0.065857,0.663757,0.620972,down
18292,-4.5625,8.667969,0.9375,0.935547,0.285156,1.798828,0.404724,0.073547,0.666992,0.621216,down
18298,-4.410156,8.78125,0.898437,0.888672,0.291016,1.753906,0.400879,0.077515,0.668579,0.621521,down
18303,-4.410156,8.78125,0.898437,0.888672,0.291016,1.753906,0.394348,0.084045,0.671143,0.62207,down
18308,-4.335937,9.050781,0.824219,0.908203,0.246094,1.714844,0.390747,0.087708,0.672546,0.622375,down
18314,-4.257812,9.128906,0.746094,0.908203,0.246094,1.714844,0.387756,0.090759,0.673706,0.622498,down
18319,-4.144531,9.128906,0.707031,0.908203,0.246094,1.714844,0.384399,0.094299,0.674988,0.622681,down
18324,-3.988281,9.089844,0.667969,0.908203,0.246094,1.714844,0.381409,0.097473,0.676208,0.622742,down
18329,-3.914063,9.128906,0.667969,0.878906,0.222656,1.587891,0.381409,0.097473,0.676208,0.622742,down
18334,-3.796875,9.050781,0.667969,0.847656,0.207031,1.544922,0.381409,0.097473,0.676208,0.622742,down
18340,-3.644531,8.972656,0.746094,0.847656,0.207031,1.544922,0.372375,0.106873,0.679565,0.622986,down
18345,-3.644531,8.972656,0.746094,0.705078,0.181641,1.429688,0.372375,0.106873,0.679565,0.622986,down
18350,-3.53125,8.902344,0.746094,0.705078,0.181641,1.429688,0.369629,0.10968,0.680542,0.623108,down
18355,-3.375,8.667969,0.707031,0.462891,0.179687,1.310547,0.36438,0.114868,0.681885,0.623718,down
18360,-3.300781,8.519531,0.746094,0.462891,0.179687,1.310547,0.362,0.117126,0.682312,0.624268,down
18366,-3.148438,8.402344,0.746094,0.462891,0.179687,1.310547,0.362,0.117126,0.682312,0.624268,down
18372,-3.109375,8.320313,0.707031,0.181641,0.132812,1.162109,0.362,0.117126,0.682312,0.624268,down
18377,-3.070313,8.242188,0.785156,0.111328,0.089844,1.083984,0.35553,0.123169,0.682678,0.626404,down
18382,-3.03125,8.320313,0.785156,0.111328,0.089844,1.083984,0.353394,0.125183,0.682617,0.627319,down
18387,-2.917969,8.324219,0.707031,0.111328,0.089844,1.083984,0.351685,0.12677,0.682495,0.628052,down
18392,-2.917969,8.398438,0.667969,0.158203,0.080078,1.023438,0.349731,0.128601,0.682434,0.628845,down
18397,-2.878906,8.398438,0.667969,0.158203,0.080078,1.023438,0.348022,0.13031,0.682373,0.629517,down
18402,-2.878906,8.441406,0.667969,0.248047,0.037109,0.984375,0.348022,0.13031,0.682373,0.629517,down
18407,-2.765625,8.519531,0.632812,0.248047,0.037109,0.984375,0.344543,0.13385,0.682434,0.630615,down
18412,-2.765625,8.519531,0.632812,0.248047,0.037109,0.984375,0.341248,0.137573,0.682617,0.631348,down
18417,-2.648438,8.476563,0.667969,0.248047,0.037109,0.984375,0.341248,0.137573,0.682617,0.631348,down
18422,-2.609375,8.476563,0.632812,0.287109,0.015625,0.875,0.341248,0.137573,0.682617,0.631348,down
18428,-2.535156,8.480469,0.59375,0.287109,0.015625,0.875,0.33667,0.142822,0.683105,0.632202,down
18433,-2.496094,8.519531,0.554687,0.232422,0.023437,0.796875,0.335144,0.14447,0.683228,0.632446,down
18438,-2.496094,8.558594,0.554687,0.193359,0.03125,0.759766,0.33374,0.145996,0.683289,0.632812,down
18444,-2.457031,8.625,0.476562,0.193359,0.03125,0.759766,0.332581,0.147217,0.683289,0.633118,down
18449,-2.417969,8.664063,0.476562,0.193359,0.03125,0.759766,0.331421,0.148376,0.683228,0.633484,down
18454,-2.417969,8.628906,0.441406,0.003906,0.035156,0.634766,0.331421,0.148376,0.683228,0.633484,down
18459,-2.417969,8.585938,0.402344,-0.064453,0.039063,0.607422,0.329285,0.150452,0.6828,0.634583,down
18465,-2.34375,8.628906,0.441406,-0.064453,0.039063,0.607422,0.328308,0.151367,0.682495,0.635254,down
18470,-2.378906,8.667969,0.441406,-0.091797,0.035156,0.576172,0.328308,0.151367,0.682495,0.635254,down
18476,-2.34375,8.664063,0.476562,-0.076172,0.025391,0.572266,0.328308,0.151367,0.682495,0.635254,down
18481,-2.34375,8.742188,0.476562,-0.064453,0.03125,0.570312,0.328308,0.151367,0.682495,0.635254,down
18487,-2.304688,8.742188,0.441406,-0.044922,0.037109,0.541016,0.328308,0.151367,0.682495,0.635254,down
18492,-2.304688,8.746094,0.402344,-0.044922,0.037109,0.541016,0.323669,0.15564,0.680908,0.638245,down
18498,-2.226563,8.859375,0.363281,-0.019531,0.027344,0.529297,0.323669,0.15564,0.680908,0.638245,down
18503,-2.1875,8.941406,0.363281,-0.019531,0.027344,0.529297,0.321106,0.158081,0.680298,0.639587,down
18508,-2.1875,9.011719,0.324219,0.035156,0.013672,0.466797,0.321106,0.158081,0.680298,0.639587,down
18513,-2.1875,9.050781,0.363281,0.027344,0.005859,0.443359,0.32019,0.158997,0.680115,0.640015,down
18518,-2.113281,9.125,0.363281,0.027344,0.005859,0.443359,0.318848,0.160461,0.679871,0.640625,down
18524,-2.113281,9.089844,0.324219,0.027344,0.005859,0.443359,0.318115,0.161194,0.679626,0.641052,down
18529,-2.074219,9.050781,0.324219,-0.09375,0.013672,0.392578,0.317444,0.161804,0.679321,0.641541,down
18534,-1.996094,8.96875,0.402344,-0.09375,0.013672,0.392578,0.316956,0.162292,0.679077,0.641968,down
18540,-1.921875,8.898438,0.441406,-0.09375,0.013672,0.392578,0.316345,0.162842,0.67865,0.642517,down
18545,-1.882813,8.820313,0.441406,-0.154297,0.015625,0.394531,0.315735,0.16333,0.678284,0.643066,down
18551,-1.882813,8.742188,0.476562,-0.150391,0.019531,0.404297,0.315735,0.16333,0.678284,0.643066,down
18557,-1.804688,8.785156,0.476562,-0.085937,0.058594,0.414062,0.315735,0.16333,0.678284,0.643066,down
18562,-1.804688,8.824219,0.441406,-0.085937,0.058594,0.414062,0.313843,0.164917,0.677185,0.644775,down
18567,-1.84375,8.898438,0.402344,0.056641,0.060547,0.421875,0.313843,0.164917,0.677185,0.644775,down
18572,-1.804688,9.089844,0.363281,0.056641,0.060547,0.421875,0.312317,0.166138,0.676819,0.645569,down
18577,-1.804688,9.128906,0.402344,0.056641,0.060547,0.421875,0.311462,0.166809,0.676819,0.645813,down
18583,-1.769531,9.203125,0.363281,0.193359,0.074219,0.40625,0.311462,0.166809,0.676819,0.645813,down
18588,-1.769531,9.324219,0.285156,0.244141,0.078125,0.412109,0.311462,0.166809,0.676819,0.645813,down
18593,-1.804688,9.429688,0.285156,0.244141,0.078125,0.412109,0.307861,0.1698,0.677917,0.64563,down
18598,-1.769531,9.46875,0.285156,0.244141,0.078125,0.412109,0.307861,0.1698,0.677917,0.64563,down
18603,-1.769531,9.550781,0.285156,0.234375,0.089844,0.351563,0.307861,0.1698,0.677917,0.64563,down
18608,-1.769531,9.585938,0.246094,0.234375,0.089844,0.351563,0.306152,0.171143,0.678589,0.645386,down
18613,-1.769531,9.585938,0.246094,0.171875,0.09375,0.335938,0.30542,0.171692,0.678772,0.645386,down
18618,-1.769531,9.585938,0.210937,0.083984,0.097656,0.314453,0.304688,0.17218,0.678894,0.645447,down
18623,-1.769531,9.585938,0.210937,0.083984,0.097656,0.314453,0.303467,0.172852,0.678772,0.645996,down
18628,-1.730469,9.589844,0.210937,0.083984,0.097656,0.314453,0.302917,0.173035,0.678528,0.646484,down
18633,-1.652344,9.472656,0.324219,0.083984,0.097656,0.314453,0.302917,0.173035,0.678528,0.646484,down
18638,-1.691406,9.507813,0.324219,-0.232422,0.068359,0.25,0.302917,0.173035,0.678528,0.646484,down
18643,-1.691406,9.511719,0.285156,-0.232422,0.068359,0.25,0.301575,0.173462,0.677307,0.648254,down
18648,-1.730469,9.507813,0.324219,-0.232422,0.068359,0.25,0.301208,0.173645,0.67688,0.648804,down
18653,-1.691406,9.433594,0.324219,-0.232422,0.068359,0.25,0.301208,0.173645,0.67688,0.648804,down
18658,-1.691406,9.429688,0.402344,-0.15625,0.017578,0.253906,0.301208,0.173645,0.67688,0.648804,down
18663,-1.652344,9.394531,0.363281,-0.15625,0.017578,0.253906,0.300537,0.174194,0.676025,0.649841,down
18668,-1.652344,9.394531,0.363281,-0.126953,0.003906,0.251953,0.299805,0.174805,0.675415,0.650696,down
18673,-1.613281,9.433594,0.363281,-0.072266,-0.013672,0.21875,0.299805,0.174805,0.675415,0.650696,down
18678,-1.652344,9.46875,0.285156,-0.072266,-0.013672,0.21875,0.2995,0.175171,0.67511,0.651001,down
18684,-1.652344,9.46875,0.285156,-0.078125,-0.019531,0.185547,0.29895,0.175781,0.674683,0.65155,down
18689,-1.652344,9.585938,0.285156,-0.091797,-0.011719,0.162109,0.298767,0.176086,0.674438,0.651855,down
18695,-1.652344,9.585938,0.285156,-0.091797,-0.011719,0.162109,0.298584,0.17627,0.674194,0.6521,down
18701,-1.613281,9.550781,0.285156,-0.091797,-0.011719,0.162109,0.298401,0.176392,0.673889,0.652466,down
18707,-1.613281,9.507813,0.285156,-0.208984,0.011719,0.128906,0.298401,0.176392,0.673889,0.652466,down
18713,-1.578125,9.46875,0.285156,-0.253906,0.03125,0.125,0.297974,0.176392,0.672607,0.653931,down
18718,-1.578125,9.394531,0.285156,-0.253906,0.03125,0.125,0.297852,0.17627,0.672119,0.654541,down
18723,-1.613281,9.363281,0.324219,-0.253906,0.03125,0.125,0.297668,0.176086,0.671631,0.655212,down
18728,-1.652344,9.363281,0.324219,-0.253906,0.03125,0.125,0.297668,0.176086,0.671631,0.655212,down
18733,-1.613281,9.320313,0.324219,-0.298828,0.107422,0.115234,0.297241,0.175659,0.670715,0.656494,down
18739,-1.652344,9.363281,0.324219,-0.298828,0.107422,0.115234,0.296875,0.175476,0.670288,0.657104,down
18744,-1.652344,9.363281,0.324219,-0.136719,0.132812,0.148437,0.29657,0.175354,0.670044,0.657532,down
18749,-1.652344,9.433594,0.363281,-0.054687,0.140625,0.164062,0.296082,0.175354,0.669922,0.657898,down
18755,-1.691406,9.546875,0.402344,-0.054687,0.140625,0.164062,0.295593,0.175354,0.669922,0.658081,down
18760,-1.652344,9.703125,0.363281,0.076172,0.140625,0.191406,0.295593,0.175354,0.669922,0.658081,down
18765,-1.730469,9.746094,0.285156,0.095703,0.146484,0.205078,0.294495,0.175659,0.670166,0.658264,down
18771,-1.730469,9.816406,0.285156,0.107422,0.138672,0.208984,0.294495,0.175659,0.670166,0.658264,down
18777,-1.691406,10.011719,0.210937,0.107422,0.138672,0.208984,0.294495,0.175659,0.670166,0.658264,down
18782,-1.730469,10.050781,0.171875,0.078125,0.121094,0.210937,0.294495,0.175659,0.670166,0.658264,down
18788,-1.730469,10.199219,0.132812,0.050781,0.115234,0.201172,0.294495,0.175659,0.670166,0.658264,down
18794,-1.691406,10.234375,0.132812,0.050781,0.115234,0.201172,0.290955,0.176758,0.670715,0.658936,down
18799,-1.652344,10.3125,0.09375,-0.101563,0.134766,0.173828,0.290527,0.176758,0.670593,0.659302,down
18805,-1.652344,10.3125,0.09375,-0.101563,0.134766,0.173828,0.2901,0.176697,0.67041,0.659668,down
18810,-1.613281,10.273438,0.054687,-0.101563,0.134766,0.173828,0.289673,0.176636,0.670166,0.660156,down
18815,-1.578125,10.277344,0.09375,-0.214844,0.177734,0.167969,0.289673,0.176636,0.670166,0.660156,down
18821,-1.578125,10.238281,0.09375,-0.222656,0.197266,0.175781,0.289673,0.176636,0.670166,0.660156,down
18826,-1.539063,10.351563,0.09375,-0.195312,0.199219,0.199219,0.288147,0.176147,0.66925,0.661865,down
18831,-1.539063,10.3125,0.132812,-0.160156,0.216797,0.214844,0.288147,0.176147,0.66925,0.661865,down
18836,-1.539063,10.355469,0.171875,-0.123047,0.226562,0.238281,0.288147,0.176147,0.66925,0.661865,down
18841,-1.539063,10.3125,0.210937,-0.091797,0.238281,0.261719,0.288147,0.176147,0.66925,0.661865,down
18846,-1.5,10.351563,0.210937,-0.091797,0.238281,0.261719,0.288147,0.176147,0.66925,0.661865,down
18852,-1.5,10.394531,0.210937,-0.091797,0.238281,0.261719,0.284424,0.175903,0.668579,0.664246,down
18857,-1.539063,10.3125,0.210937,-0.013672,0.273438,0.324219,0.284424,0.175903,0.668579,0.664246,down
18862,-1.460938,10.3125,0.246094,-0.013672,0.273438,0.324219,0.282471,0.176025,0.668579,0.664978,down
18868,-1.460938,10.238281,0.285156,-0.013672,0.273438,0.324219,0.280396,0.17627,0.66864,0.665771,down
18873,-1.421875,10.234375,0.246094,-0.013672,0.273438,0.324219,0.280396,0.17627,0.66864,0.665771,down
18878,-1.421875,10.199219,0.285156,-0.033203,0.261719,0.376953,0.280396,0.17627,0.66864,0.665771,down
18883,-1.382813,10.15625,0.324219,-0.033203,0.261719,0.376953,0.27832,0.176636,0.668518,0.666626,down
18888,-1.382813,10.125,0.363281,-0.033203,0.261719,0.376953,0.277161,0.17688,0.668457,0.667114,down
18894,-1.347656,10.125,0.324219,-0.039063,0.236328,0.429687,0.275024,0.17749,0.668274,0.66803,down
18899,-1.269531,10.046875,0.324219,-0.039063,0.236328,0.429687,0.273865,0.177856,0.668152,0.668518,down
18904,-1.230469,10.046875,0.285156,-0.039063,0.236328,0.429687,0.272705,0.178223,0.668091,0.668945,down
18909,-1.191406,10.050781,0.324219,0.027344,0.240234,0.519531,0.272705,0.178223,0.668091,0.668945,down
18914,-1.15625,10.011719,0.324219,0.027344,0.240234,0.519531,0.271362,0.178772,0.66803,0.669434,down
18920,-1.117188,9.972656,0.324219,0.027344,0.240234,0.519531,0.268799,0.179687,0.66803,0.670227,down
18925,-1.117188,9.972656,0.324219,0.052734,0.271484,0.533203,0.267456,0.180176,0.66803,0.670593,down
18930,-1.0,9.890625,0.324219,0.052734,0.271484,0.533203,0.266113,0.180603,0.668091,0.670959,down
18935,-0.925781,9.890625,0.324219,0.052734,0.271484,0.533203,0.266113,0.180603,0.668091,0.670959,down
18940,-0.925781,9.890625,0.324219,0.101563,0.298828,0.535156,0.266113,0.180603,0.668091,0.670959,down
18945,-0.925781,9.890625,0.324219,0.105469,0.291016,0.53125,0.266113,0.180603,0.668091,0.670959,down
18950,-0.925781,9.894531,0.402344,0.083984,0.306641,0.519531,0.266113,0.180603,0.668091,0.670959,down
18955,-0.925781,9.851563,0.402344,0.083984,0.306641,0.519531,0.266113,0.180603,0.668091,0.670959,down
18960,-0.925781,9.773438,0.441406,0.0,0.324219,0.519531,0.266113,0.180603,0.668091,0.670959,down
18965,-0.886719,9.8125,0.441406,-0.046875,0.332031,0.507812,0.256165,0.183472,0.668518,0.673706,down
18970,-0.886719,9.773438,0.402344,-0.046875,0.332031,0.507812,0.2547,0.183716,0.668335,0.674316,down
18975,-0.847656,9.777344,0.441406,-0.046875,0.332031,0.507812,0.2547,0.183716,0.668335,0.674316,down
18980,-0.847656,9.777344,0.441406,-0.119141,0.310547,0.470703,0.2547,0.183716,0.668335,0.674316,down
18985,-0.808594,9.742188,0.476562,-0.119141,0.310547,0.470703,0.2547,0.183716,0.668335,0.674316,down
18990,-0.808594,9.742188,0.476562,-0.119141,0.310547,0.470703,0.249756,0.184448,0.66748,0.676819,down
18995,-0.808594,9.746094,0.515625,-0.119141,0.310547,0.470703,0.248596,0.184631,0.667175,0.67749,down
19000,-0.773437,9.742188,0.476562,-0.1875,0.257813,0.417969,0.248596,0.184631,0.667175,0.67749,down
19006,-0.773437,9.707031,0.515625,-0.197266,0.238281,0.410156,0.248596,0.184631,0.667175,0.67749,down
19012,-0.695312,9.625,0.554687,-0.197266,0.238281,0.410156,0.245544,0.185059,0.666077,0.679565,down
19018,-0.65625,9.589844,0.515625,-0.224609,0.220703,0.394531,0.245544,0.185059,0.666077,0.679565,down
19023,-0.582031,9.472656,0.59375,-0.242187,0.214844,0.384766,0.245544,0.185059,0.666077,0.679565,down
19029,-0.542969,9.429688,0.59375,-0.248047,0.195312,0.378906,0.241943,0.185608,0.664185,0.682495,down
19034,-0.503906,9.394531,0.554687,-0.28125,0.203125,0.359375,0.241943,0.185608,0.664185,0.682495,down
19039,-0.464844,9.320313,0.632812,-0.294922,0.201172,0.349609,0.241028,0.18573,0.663635,0.68335,down
19044,-0.464844,9.320313,0.632812,-0.294922,0.201172,0.349609,0.239502,0.185791,0.662598,0.684937,down
19049,-0.464844,9.390625,0.59375,-0.294922,0.201172,0.349609,0.23877,0.185791,0.662048,0.685669,down
19054,-0.425781,9.585938,0.59375,-0.326172,0.220703,0.296875,0.23877,0.185791,0.662048,0.685669,down
19059,-0.464844,9.742188,0.554687,-0.326172,0.220703,0.296875,0.237976,0.18573,0.661438,0.686584,down
19064,-0.542969,9.8125,0.554687,-0.326172,0.220703,0.296875,0.236633,0.185547,0.660278,0.688171,down
19069,-0.542969,9.851563,0.554687,-0.326172,0.220703,0.296875,0.236633,0.185547,0.660278,0.688171,down
19074,-0.503906,9.894531,0.515625,-0.398438,0.210937,0.255859,0.235413,0.185181,0.658936,0.690002,down
19079,-0.503906,9.933594,0.515625,-0.398438,0.210937,0.255859,0.234863,0.184937,0.658203,0.690918,down
19084,-0.464844,9.96875,0.515625,-0.398438,0.210937,0.255859,0.234375,0.184692,0.657471,0.691833,down
19089,-0.464844,9.96875,0.554687,-0.490234,0.214844,0.203125,0.234375,0.184692,0.657471,0.691833,down
19094,-0.425781,10.011719,0.515625,-0.53125,0.224609,0.1875,0.233826,0.184387,0.656616,0.692993,down
19099,-0.425781,10.007813,0.59375,-0.53125,0.224609,0.1875,0.232971,0.183594,0.654907,0.695068,down
19104,-0.425781,9.96875,0.667969,-0.623047,0.232422,0.152344,0.232971,0.183594,0.654907,0.695068,down
19109,-0.425781,9.96875,0.667969,-0.623047,0.232422,0.152344,0.232544,0.183105,0.65387,0.696289,down
19114,-0.425781,9.96875,0.632812,-0.660156,0.238281,0.138672,0.232544,0.183105,0.65387,0.696289,down
19119,-0.425781,9.96875,0.632812,-0.716797,0.242187,0.109375,0.231934,0.181946,0.651733,0.698792,down
19124,-0.425781,9.933594,0.746094,-0.716797,0.242187,0.109375,0.23175,0.181274,0.650574,0.700134,down
19129,-0.464844,9.8125,0.898437,-0.804687,0.232422,0.0625,0.231445,0.179687,0.647888,0.703125,down
19134,-0.503906,9.777344,1.015625,-0.804687,0.232422,0.0625,0.231445,0.179687,0.647888,0.703125,down
19139,-0.503906,9.777344,1.015625,-0.896484,0.265625,0.033203,0.231384,0.178772,0.646423,0.704712,down
19145,-0.542969,9.777344,1.050781,-0.896484,0.265625,0.033203,0.231201,0.17688,0.643555,0.707886,down
19150,-0.617187,9.851563,1.167969,-0.896484,0.265625,0.033203,0.231201,0.175964,0.642212,0.709351,down
19155,-0.617187,9.855469,1.242188,-0.896484,0.265625,0.033203,0.23114,0.174927,0.640747,0.710937,down
19160,-0.65625,9.929688,1.242188,-0.875,0.294922,0.005859,0.231018,0.173828,0.63916,0.712646,down
19166,-0.65625,10.046875,1.28125,-0.875,0.294922,0.005859,0.230896,0.172913,0.637939,0.71405,down
19172,-0.695312,10.125,1.398438,-0.875,0.294922,0.005859,0.230774,0.171814,0.636536,0.715576,down
19177,-0.65625,10.234375,1.433594,-0.792969,0.304688,-0.005859,0.230774,0.171814,0.636536,0.715576,down
19182,-0.695312,10.351563,1.433594,-0.775391,0.320313,0.001953,0.230774,0.171814,0.636536,0.715576,down
19188,-0.773437,10.433594,1.511719,-0.755859,0.324219,-0.005859,0.230774,0.171814,0.636536,0.715576,down
19193,-0.734375,10.472656,1.550781,-0.755859,0.324219,-0.005859,0.230103,0.167786,0.631714,0.721008,down
19198,-0.65625,10.429688,1.550781,-0.800781,0.326172,-0.005859,0.230103,0.167786,0.631714,0.721008,down
19203,-0.65625,10.433594,1.589844,-0.837891,0.320313,0.007813,0.230103,0.167786,0.631714,0.721008,down
19209,-0.65625,10.394531,1.628906,-0.884766,0.324219,0.011719,0.230103,0.167786,0.631714,0.721008,down
19214,-0.695312,10.433594,1.78125,-0.964844,0.328125,0.017578,0.229431,0.163513,0.626343,0.726868,down
19219,-0.65625,10.429688,1.703125,-0.964844,0.328125,0.017578,0.229248,0.162292,0.624695,0.728638,down
19224,-0.65625,10.390625,1.78125,-0.964844,0.328125,0.017578,0.229004,0.160034,0.621399,0.731995,down
19229,-0.695312,10.355469,1.855469,-0.964844,0.328125,0.017578,0.228882,0.158936,0.61969,0.733704,down
19234,-0.734375,10.433594,1.855469,-0.964844,0.328125,0.017578,0.228882,0.158936,0.61969,0.733704,down
19240,-0.886719,10.617188,1.820313,-1.089844,0.345703,0.023437,0.228882,0.158936,0.61969,0.733704,down
19245,-0.886719,10.617188,1.820313,-1.007813,0.365234,0.025391,0.228394,0.155273,0.614319,0.739197,down
19250,-0.925781,10.738281,1.855469,-1.007813,0.365234,0.025391,0.228149,0.154053,0.612671,0.740845,down
19255,-0.925781,10.777344,1.855469,-0.957031,0.371094,0.025391,0.227905,0.152771,0.610962,0.742615,down
19260,-0.925781,10.851563,2.011719,-0.957031,0.371094,0.025391,0.2276,0.15155,0.609375,0.744263,down
19266,-0.964844,10.890625,2.046875,-0.957031,0.371094,0.025391,0.227356,0.150391,0.607971,0.745728,down
19271,-0.964844,10.851563,2.164063,-0.957031,0.371094,0.025391,0.226929,0.14917,0.606445,0.747314,down
19278,-1.0,10.773438,2.238281,-0.941406,0.441406,0.087891,0.226929,0.14917,0.606445,0.747314,down
19283,-0.964844,10.578125,2.429688,-0.941406,0.441406,0.087891,0.226929,0.14917,0.606445,0.747314,down
19288,-0.925781,10.433594,2.546875,-0.996094,0.453125,0.160156,0.226929,0.14917,0.606445,0.747314,down
19294,-0.847656,9.96875,2.585938,-0.996094,0.453125,0.160156,0.22467,0.144226,0.599731,0.754333,down
19299,-0.808594,9.773438,2.660156,-1.134766,0.5,0.330078,0.223938,0.143066,0.597961,0.756165,down
19304,-0.808594,9.585938,2.699219,-1.134766,0.5,0.330078,0.223083,0.142029,0.596191,0.757996,down
19309,-0.808594,9.429688,2.777344,-1.134766,0.5,0.330078,0.221924,0.14093,0.593994,0.760315,down
19315,-0.808594,9.285156,2.96875,-1.078125,0.488281,0.478516,0.221924,0.14093,0.593994,0.760315,down
19320,-0.808594,9.320313,3.007813,-1.078125,0.488281,0.478516,0.217896,0.138672,0.588318,0.766296,down
19326,-0.886719,9.433594,3.007813,-1.078125,0.488281,0.478516,0.216553,0.138306,0.586914,0.767822,down
19331,-0.886719,9.507813,3.007813,-0.654297,0.427734,0.691406,0.214844,0.138062,0.585571,0.769348,down
19336,-0.925781,9.667969,3.007813,-0.654297,0.427734,0.691406,0.214844,0.138062,0.585571,0.769348,down
19341,-0.964844,9.742188,3.042969,-0.412109,0.369141,0.751953,0.214844,0.138062,0.585571,0.769348,down
19347,-0.925781,9.773438,2.96875,-0.322266,0.345703,0.771484,0.209412,0.138245,0.582642,0.77301,down
19352,-0.886719,9.773438,2.890625,-0.242187,0.314453,0.808594,0.209412,0.138245,0.582642,0.77301,down
19358,-0.773437,9.742188,2.929688,-0.181641,0.28125,0.841797,0.209412,0.138245,0.582642,0.77301,down
19363,-0.734375,9.628906,2.96875,-0.142578,0.238281,0.886719,0.209412,0.138245,0.582642,0.77301,down
19368,-0.734375,9.628906,2.96875,-0.144531,0.181641,0.962891,0.201477,0.140686,0.580444,0.776367,down
19373,-0.617187,9.429688,2.96875,-0.144531,0.181641,0.962891,0.201477,0.140686,0.580444,0.776367,down
19378,-0.542969,9.394531,3.007813,-0.152344,0.15625,1.03125,0.197144,0.142883,0.579285,0.777893,down
19383,-0.542969,9.324219,3.007813,-0.175781,0.130859,1.189453,0.197144,0.142883,0.579285,0.777893,down
19388,-0.425781,8.820313,3.042969,-0.167969,0.109375,1.275391,0.197144,0.142883,0.579285,0.777893,down
19393,-0.390625,8.628906,3.121094,-0.167969,0.109375,1.275391,0.189514,0.147339,0.577087,0.780579,down
19398,-0.273438,8.441406,3.199219,-0.052734,0.033203,1.513672,0.189514,0.147339,0.577087,0.780579,down
19403,-0.234375,8.398438,3.234375,-0.052734,0.033203,1.513672,0.18335,0.151611,0.575806,0.782166,down
19409,-0.195312,8.398438,3.042969,-0.052734,0.033203,1.513672,0.176392,0.156738,0.5755,0.78302,down
19414,-0.121094,8.359375,3.082031,-0.052734,0.033203,1.513672,0.176392,0.156738,0.5755,0.78302,down
19419,0.03125,8.359375,3.042969,0.712891,-0.035156,2.03125,0.167969,0.16333,0.576599,0.782715,down
19424,0.109375,8.324219,2.96875,0.712891,-0.035156,2.03125,0.167969,0.16333,0.576599,0.782715,down
19429,0.261719,8.4375,2.738281,1.205078,-0.042969,2.296875,0.158081,0.171082,0.579346,0.781067,down
19434,0.339844,8.476563,2.585938,1.205078,-0.042969,2.296875,0.158081,0.171082,0.579346,0.781067,down
19439,0.492187,8.519531,2.546875,1.675781,-0.009766,2.515625,0.146912,0.179687,0.583618,0.778137,down
19444,0.835937,8.519531,2.316406,1.675781,-0.009766,2.515625,0.146912,0.179687,0.583618,0.778137,down
19450,1.027344,8.515625,2.238281,2.160156,0.025391,2.759766,0.146912,0.179687,0.583618,0.778137,down
19455,1.21875,8.664063,2.125,2.160156,0.025391,2.759766,0.12738,0.194214,0.592224,0.771545,down
19460,1.296875,8.746094,1.703125,2.160156,0.025391,2.759766,0.12738,0.194214,0.592224,0.771545,down
19465,1.410156,8.820313,1.589844,2.160156,0.025391,2.759766,0.120483,0.199219,0.595398,0.768982,down
19470,1.410156,8.820313,1.589844,2.423828,0.095703,2.914063,0.11438,0.203491,0.598206,0.766602,down
19475,1.449219,8.972656,1.550781,2.425781,0.105469,2.960938,0.11438,0.203491,0.598206,0.766602,down
19480,1.640625,8.859375,1.320313,2.380859,0.126953,2.994141,0.100159,0.213318,0.604431,0.760986,down
19485,1.71875,8.78125,1.242188,2.337891,0.140625,3.039063,0.100159,0.213318,0.604431,0.760986,down
19490,1.792969,8.785156,1.089844,2.248047,0.222656,3.208984,0.100159,0.213318,0.604431,0.760986,down
19495,2.023438,8.4375,0.898437,2.216797,0.271484,3.302734,0.077637,0.228271,0.612732,0.752563,down
19501,2.484375,8.242188,0.707031,2.216797,0.271484,3.302734,0.062378,0.237854,0.617126,0.747437,down
19506,2.484375,8.242188,0.707031,2.179688,0.412109,3.550781,0.053772,0.242981,0.619202,0.744751,down
19512,2.753906,8.015625,0.859375,2.179688,0.412109,3.550781,0.053772,0.242981,0.619202,0.744751,down
19518,3.019531,7.632812,1.167969,2.179688,0.412109,3.550781,0.036133,0.253235,0.622925,0.739258,down
19523,3.25,7.292969,1.242188,2.314453,0.439453,4.001953,0.036133,0.253235,0.622925,0.739258,down
19528,3.25,7.292969,1.242188,2.345703,0.470703,4.126953,0.016907,0.264465,0.626343,0.733093,down
19533,3.402344,6.636719,0.898437,2.392578,0.548828,4.257812,0.006592,0.270325,0.62793,0.729797,down
19538,3.402344,6.636719,0.898437,2.392578,0.548828,4.257812,0.006592,0.270325,0.62793,0.729797,down
19544,3.519531,5.90625,0.476562,2.410156,0.652344,4.361328,0.014404,-0.281494,-0.630737,-0.723022,down
19549,4.015625,5.375,-0.210937,2.689453,0.8125,4.533203,0.014404,-0.281494,-0.630737,-0.723022,down
19554,4.246094,5.449219,-0.210937,2.998047,0.896484,4.644531,0.014404,-0.281494,-0.630737,-0.723022,down
19559,4.398437,5.484375,-0.171875,2.998047,0.896484,4.644531,0.048889,-0.298035,-0.635498,-0.710571,down
19565,4.628906,5.679687,-0.210937,3.210938,1.097656,4.675781,0.048889,-0.298035,-0.635498,-0.710571,down
19570,4.820312,5.90625,-0.210937,3.210938,1.097656,4.675781,0.073486,-0.308594,-0.639099,-0.700684,down
19575,4.898437,5.984375,-0.136719,3.210938,1.097656,4.675781,0.073486,-0.308594,-0.639099,-0.700684,down
19580,4.898437,5.984375,-0.136719,3.367188,1.169922,4.6875,0.09845,-0.317993,-0.643005,-0.689758,down
19585,5.050781,5.101562,0.476562,3.746094,1.214844,4.597656,0.124268,-0.326599,-0.647705,-0.677063,down
19590,5.203125,4.914062,0.476562,3.746094,1.214844,4.597656,0.137573,-0.330383,-0.650269,-0.670105,down
19595,5.285156,5.144531,0.324219,3.746094,1.214844,4.597656,0.137573,-0.330383,-0.650269,-0.670105,down
19600,4.859375,4.261719,0.554687,4.269531,1.259766,4.199219,0.137573,-0.330383,-0.650269,-0.670105,down
19605,5.46875,4.570312,0.441406,4.332031,1.210938,4.076172,0.163391,-0.337036,-0.655762,-0.655518,down
19611,5.203125,5.183594,0.09375,4.275391,1.087891,3.912109,0.176086,-0.340027,-0.658813,-0.647522,down
19616,5.550781,5.183594,0.019531,4.275391,1.087891,3.912109,0.200073,-0.345581,-0.664917,-0.631226,down
19621,5.851562,5.640625,-0.136719,4.275391,1.087891,3.912109,0.211182,-0.347961,-0.667725,-0.62323,down
19626,5.894531,5.796875,-0.136719,4.275391,1.087891,3.912109,0.220276,-0.349731,-0.669983,-0.616699,down
19631,5.894531,5.796875,-0.136719,4.275391,1.087891,3.912109,0.220276,-0.349731,-0.669983,-0.616699,down
19636,5.816406,5.410156,-0.097656,3.527344,0.931641,3.035156,0.220276,-0.349731,-0.669983,-0.616699,down
19642,5.816406,5.410156,-0.097656,2.929688,0.875,2.515625,0.24707,-0.354309,-0.676025,-0.596985,down
19647,6.433594,5.183594,-0.632812,2.929688,0.875,2.515625,0.254639,-0.355347,-0.677551,-0.591431,down
19653,6.511719,5.027344,-0.480469,2.240234,0.654297,1.929688,0.254639,-0.355347,-0.677551,-0.591431,down
19659,6.695312,4.761719,-0.136719,1.847656,0.537109,1.660156,0.254639,-0.355347,-0.677551,-0.591431,down
19665,6.65625,4.453125,-0.136719,1.474609,0.433594,1.373047,0.254639,-0.355347,-0.677551,-0.591431,down
19670,6.578125,4.1875,-0.328125,0.931641,0.306641,0.824219,0.254639,-0.355347,-0.677551,-0.591431,down
19675,6.390625,3.957031,-0.402344,0.931641,0.306641,0.824219,0.27771,-0.358887,-0.681519,-0.574097,down
19680,6.390625,3.957031,-0.402344,0.931641,0.306641,0.824219,0.281311,-0.359314,-0.682312,-0.571167,down
19685,6.277344,3.726563,-0.136719,0.931641,0.306641,0.824219,0.281311,-0.359314,-0.682312,-0.571167,down
19690,6.277344,3.535156,-0.097656,0.486328,0.019531,0.109375,0.281311,-0.359314,-0.682312,-0.571167,down
19695,6.15625,3.457031,-0.019531,0.435547,-0.03125,-0.089844,0.281311,-0.359314,-0.682312,-0.571167,down
19700,6.050781,3.34375,0.171875,0.435547,-0.03125,-0.089844,0.282166,-0.357666,-0.68512,-0.568298,down
19705,6.089844,3.304688,0.171875,0.261719,-0.212891,-0.572266,0.282166,-0.357666,-0.68512,-0.568298,down
19710,6.089844,3.304688,0.171875,0.261719,-0.212891,-0.572266,0.281494,-0.356934,-0.686035,-0.568054,down
19715,5.96875,3.457031,-0.097656,0.224609,-0.275391,-0.722656,0.281494,-0.356934,-0.686035,-0.568054,down
19720,5.96875,3.421875,0.09375,0.224609,-0.275391,-0.722656,0.27887,-0.35498,-0.688293,-0.567871,down
19725,5.894531,3.496094,0.054687,0.224609,-0.275391,-0.722656,0.276611,-0.354004,-0.689514,-0.568054,down
19731,5.742187,3.535156,-0.097656,-0.201172,-0.740234,-1.179688,0.276611,-0.354004,-0.689514,-0.568054,down
19736,5.546875,3.457031,-0.210937,-0.201172,-0.740234,-1.179688,0.267639,-0.351379,-0.693237,-0.569519,down
19741,5.46875,3.421875,-0.210937,-0.417969,-0.917969,-1.353516,0.267639,-0.351379,-0.693237,-0.569519,down
19746,5.390625,3.382813,-0.363281,-0.417969,-0.917969,-1.353516,0.26001,-0.349792,-0.695618,-0.571106,down
19752,5.242187,3.226563,-0.480469,-0.417969,-0.917969,-1.353516,0.256104,-0.34906,-0.696655,-0.572021,down
19757,5.128906,3.226563,-0.519531,-0.417969,-0.917969,-1.353516,0.251648,-0.348267,-0.697876,-0.573059,down
19762,5.046875,3.226563,-0.710937,-0.568359,-1.064453,-1.621094,0.251648,-0.348267,-0.697876,-0.573059,down
19767,5.011719,3.265625,-0.941406,-0.542969,-1.052734,-1.671875,0.251648,-0.348267,-0.697876,-0.573059,down
19773,4.859375,3.074219,-1.285156,-0.542969,-1.052734,-1.671875,0.23761,-0.345154,-0.701721,-0.576233,down
19779,4.78125,3.113281,-1.359375,-0.369141,-0.998047,-1.746094,0.23761,-0.345154,-0.701721,-0.576233,down
19785,4.78125,3.304688,-1.4375,-0.238281,-0.960937,-1.783203,0.23761,-0.345154,-0.701721,-0.576233,down
19790,4.859375,3.957031,-1.859375,-0.033203,-0.916016,-1.822266,0.219727,-0.338501,-0.708923,-0.57843,down
19795,4.898437,4.414062,-2.089844,-0.033203,-0.916016,-1.822266,0.219727,-0.338501,-0.708923,-0.57843,down
19800,4.898437,4.761719,-2.164063,0.472656,-0.947266,-1.984375,0.219727,-0.338501,-0.708923,-0.57843,down
19805,4.9375,5.066406,-2.320313,0.472656,-0.947266,-1.984375,0.211426,-0.333923,-0.71405,-0.577881,down
19810,4.898437,5.71875,-2.546875,0.472656,-0.947266,-1.984375,0.207214,-0.331482,-0.71698,-0.577148,down
19815,4.898437,5.71875,-2.546875,0.6875,-1.052734,-2.132813,0.202942,-0.328857,-0.720154,-0.576233,down
19820,4.898437,5.984375,-2.625,0.6875,-1.052734,-2.132813,0.198303,-0.32605,-0.723572,-0.575134,down
19825,4.707031,6.40625,-3.046875,0.669922,-1.162109,-2.328125,0.198303,-0.32605,-0.723572,-0.575134,down
19830,4.628906,6.367187,-3.199219,0.601562,-1.169922,-2.421875,0.198303,-0.32605,-0.723572,-0.575134,down
19836,4.707031,6.371094,-3.085938,0.457031,-1.201172,-2.486328,0.177307,-0.313904,-0.736938,-0.571777,down
19841,4.628906,6.5625,-2.894531,0.457031,-1.201172,-2.486328,0.171509,-0.31073,-0.739807,-0.571533,down
19846,4.515625,6.675781,-2.738281,0.007813,-1.277344,-2.769531,0.171509,-0.31073,-0.739807,-0.571533,down
19851,4.4375,6.597656,-2.625,0.007813,-1.277344,-2.769531,0.158508,-0.303894,-0.7453,-0.571899,down
19856,4.324219,6.632812,-2.585938,0.007813,-1.277344,-2.769531,0.151855,-0.300415,-0.74762,-0.57251,down
19861,3.863281,6.25,-2.511719,0.007813,-1.277344,-2.769531,0.14563,-0.297058,-0.749634,-0.573242,down
19867,3.824219,5.984375,-2.433594,-0.470703,-1.173828,-3.068359,0.138306,-0.292969,-0.75177,-0.574341,down
19872,3.480469,5.867187,-2.28125,-0.470703,-1.173828,-3.068359,0.131653,-0.289185,-0.753662,-0.575317,down
19877,3.328125,6.214844,-2.242188,-0.333984,-1.177734,-3.162109,0.131653,-0.289185,-0.753662,-0.575317,down
19882,3.136719,7.171875,-2.011719,-0.333984,-1.177734,-3.162109,0.131653,-0.289185,-0.753662,-0.575317,down
19887,3.136719,7.171875,-2.011719,-0.333984,-1.177734,-3.162109,0.131653,-0.289185,-0.753662,-0.575317,down
19892,3.136719,7.558594,-1.898438,-0.083984,-1.376953,-3.212891,0.102966,-0.272705,-0.762878,-0.577087,down
19897,2.753906,8.320313,-1.972656,-0.083984,-1.376953,-3.212891,0.102966,-0.272705,-0.762878,-0.577087,down
19902,2.523438,8.625,-2.011719,0.046875,-1.693359,-3.253906,0.087036,-0.265137,-0.768188,-0.576172,down
19908,2.332031,8.820313,-2.089844,0.046875,-1.693359,-3.253906,0.078552,-0.261841,-0.770874,-0.575317,down
19913,1.71875,9.929688,-2.546875,0.046875,-1.693359,-3.253906,0.06958,-0.25885,-0.77356,-0.57428,down
19918,1.601563,10.007813,-3.007813,-0.025391,-2.652344,-3.283203,0.06958,-0.25885,-0.77356,-0.57428,down
19924,1.527344,9.96875,-3.582031,-0.224609,-2.71875,-3.318359,0.06958,-0.25885,-0.77356,-0.57428,down
19929,1.410156,10.007813,-4.3125,-0.507812,-2.636719,-3.300781,0.06958,-0.25885,-0.77356,-0.57428,down
19936,1.449219,10.238281,-5.078125,-0.507812,-2.636719,-3.300781,0.019348,-0.245605,-0.782471,-0.571838,down
19941,1.679688,10.046875,-4.847656,-1.21875,-2.464844,-3.195313,0.019348,-0.245605,-0.782471,-0.571838,down
19946,1.832031,9.667969,-4.425781,-1.21875,-2.464844,-3.195313,0.001038,0.240051,0.783081,0.57373,down
19951,1.871094,9.125,-3.851563,-1.21875,-2.464844,-3.195313,0.001038,0.240051,0.783081,0.57373,down
19956,1.871094,9.125,-3.851563,-1.21875,-2.464844,-3.195313,0.001038,0.240051,0.783081,0.57373,down
19961,1.71875,8.863281,-3.699219,-1.242188,-1.882813,-3.267578,0.001038,0.240051,0.783081,0.57373,down
19966,1.527344,8.203125,-3.238281,-1.240234,-1.664063,-3.300781,0.037415,0.225159,0.783142,0.57843,down
19972,0.570312,8.097656,-2.929688,-1.240234,-1.664063,-3.300781,0.045471,0.22052,0.783203,0.579529,down
19977,0.570312,8.097656,-2.929688,-0.923828,-1.193359,-3.341797,0.045471,0.22052,0.783203,0.579529,down
19982,0.03125,8.703125,-2.777344,-0.923828,-1.193359,-3.341797,0.061584,0.210327,0.783813,0.581055,down
19988,-0.160156,9.394531,-2.703125,-0.482422,-1.34375,-3.291016,0.061584,0.210327,0.783813,0.581055,down
19993,-0.542969,10.429688,-2.320313,-0.482422,-1.34375,-3.291016,0.076477,0.201477,0.785278,0.580444,down
20000,-0.808594,10.738281,-2.320313,-0.048828,-1.685547,-3.205078,0.076477,0.201477,0.785278,0.580444,down
20005,-1.347656,11.082031,-2.625,0.087891,-1.818359,-3.177734,0.076477,0.201477,0.785278,0.580444,down
20010,-1.421875,11.234375,-2.816406,0.173828,-1.953125,-3.144531,0.076477,0.201477,0.785278,0.580444,down
20015,-1.539063,11.3125,-3.046875,0.21875,-2.117188,-3.09375,0.076477,0.201477,0.785278,0.580444,down
20020,-1.730469,11.3125,-3.351563,0.21875,-2.117188,-3.09375,0.118286,0.183899,0.791138,0.571167,down
20025,-1.84375,11.273438,-3.507813,0.140625,-2.423828,-3.033203,0.118286,0.183899,0.791138,0.571167,down
20030,-1.882813,11.15625,-3.46875,0.140625,-2.423828,-3.033203,0.136719,0.178772,0.792664,0.566528,down
20035,-1.804688,11.195313,-3.507813,-0.240234,-2.759766,-3.046875,0.136719,0.178772,0.792664,0.566528,down
20040,-1.804688,11.039063,-3.699219,-0.240234,-2.759766,-3.046875,0.156067,0.174316,0.792664,0.562988,down
20045,-1.691406,10.773438,-3.699219,-0.240234,-2.759766,-3.046875,0.165833,0.171936,0.791992,0.561829,down
20050,-1.691406,10.773438,-3.699219,-0.240234,-2.759766,-3.046875,0.176453,0.169006,0.790894,0.561035,down
20055,-1.5,10.582031,-3.734375,-1.177734,-2.716797,-3.328125,0.186401,0.166016,0.789551,0.560608,down
20060,-1.5,10.582031,-3.734375,-1.326172,-2.630859,-3.431641,0.197205,0.162415,0.787903,0.560364,down
20066,-1.269531,10.199219,-3.351563,-1.326172,-2.630859,-3.431641,0.207581,0.158447,0.786011,0.560303,down
20071,-1.347656,9.746094,-3.046875,-1.326172,-2.630859,-3.431641,0.228516,0.148621,0.781555,0.561096,down
20076,-1.730469,9.164063,-2.894531,-1.326172,-2.630859,-3.431641,0.228516,0.148621,0.781555,0.561096,down
20081,-1.996094,9.011719,-2.894531,-1.326172,-2.630859,-3.431641,0.249329,0.135498,0.775818,0.563599,down
20086,-2.226563,8.742188,-2.855469,-1.326172,-2.630859,-3.431641,0.249329,0.135498,0.775818,0.563599,down
20091,-2.457031,8.4375,-2.738281,-2.755859,-1.296875,-4.236328,0.249329,0.135498,0.775818,0.563599,down
20097,-3.261719,8.558594,-2.703125,-2.755859,-1.296875,-4.236328,0.276917,0.112549,0.765869,0.569275,down
20102,-5.023437,10.273438,-3.582031,-2.755859,-1.296875,-4.236328,0.287048,0.102905,0.762085,0.571228,down
20107,-5.023437,10.273438,-3.582031,-3.134766,-1.664063,-4.548828,0.296021,0.09491,0.758423,0.572876,down
20112,-4.296875,10.65625,0.171875,-3.134766,-1.664063,-4.548828,0.307495,0.085449,0.752136,0.576538,down
20118,-5.292969,9.429688,-1.628906,-3.134766,-1.664063,-4.548828,0.316711,0.077209,0.747131,0.579285,down
20124,-5.253906,10.429688,-3.925781,-0.296875,-0.607422,-4.714844,0.316711,0.077209,0.747131,0.579285,down
20129,-5.253906,10.429688,-3.925781,-0.474609,-1.017578,-4.652344,0.333862,0.060547,0.744385,0.575134,down
20134,-6.019531,12.003906,-1.132813,-0.474609,-1.017578,-4.652344,0.333862,0.060547,0.744385,0.575134,down
20139,-6.136719,11.660156,-0.941406,-1.636719,-1.949219,-4.644531,0.343262,0.053223,0.742371,0.572937,down
20144,-6.402344,12.148438,-0.402344,-2.40625,-2.041016,-4.609375,0.343262,0.053223,0.742371,0.572937,down
20150,-6.9375,11.421875,-0.402344,-2.857422,-1.996094,-4.679687,0.343262,0.053223,0.742371,0.572937,down
20156,-6.710937,11.921875,-0.402344,-3.134766,-1.960938,-4.787109,0.395996,0.012573,0.717163,0.573364,down
20161,-6.671875,11.539063,-1.167969,-3.134766,-1.960938,-4.787109,0.395996,0.012573,0.717163,0.573364,down
20166,-6.746094,11.121094,-0.019531,-4.03125,-2.121094,-4.716797,0.417053,-0.006409,0.702393,0.576782,down
20171,-7.707031,10.507813,-0.402344,-4.03125,-2.121094,-4.716797,0.417053,-0.006409,0.702393,0.576782,down
20176,-7.859375,9.164063,-0.554687,-3.111328,-1.982422,-5.041016,0.427368,-0.015625,0.695618,0.577209,down
20181,-7.859375,9.164063,-0.554687,-3.0,-1.945313,-5.210937,0.437927,-0.024902,0.688904,0.577087,down
20186,-7.972656,9.359375,-0.632812,-3.0,-1.945313,-5.210937,0.448975,-0.034424,0.681946,0.576355,down
20191,-8.855469,8.9375,0.09375,-2.162109,-1.982422,-5.337891,0.448975,-0.034424,0.681946,0.576355,down
20196,-8.546875,8.132813,0.667969,-2.162109,-1.982422,-5.337891,0.470459,-0.051941,0.669434,0.572571,down
20201,-8.96875,8.285156,1.015625,-2.162109,-1.982422,-5.337891,0.482239,-0.06189,0.662354,0.570007,down
20206,-9.007813,7.59375,1.820313,-2.162109,-1.982422,-5.337891,0.492676,-0.07135,0.655518,0.567871,down
20211,-9.007813,7.59375,1.820313,-3.123047,-1.482422,-5.453125,0.50177,-0.08075,0.648804,0.566345,down
20216,-9.433594,7.175781,1.589844,-2.974609,-1.150391,-5.435547,0.50177,-0.08075,0.648804,0.566345,down
20221,-10.039063,7.289062,1.933594,-2.962891,-0.966797,-5.328125,0.519592,-0.102661,0.634705,0.562683,down
20227,-10.121094,7.402344,2.011719,-2.773438,-0.78125,-5.224609,0.527527,-0.113342,0.628174,0.560608,down
20232,-10.238281,7.671875,2.46875,-2.466797,-0.619141,-4.833984,0.527527,-0.113342,0.628174,0.560608,down
20237,-10.238281,7.671875,2.46875,-2.564453,-0.578125,-4.519531,0.527527,-0.113342,0.628174,0.560608,down
20242,-10.347656,7.863281,2.816406,-2.603516,-0.501953,-4.1875,0.55481,-0.153503,0.603943,0.55127,down
20247,-10.804688,8.246094,3.082031,-2.712891,-0.4375,-3.839844,0.55481,-0.153503,0.603943,0.55127,down
20252,-11.078125,7.941406,3.425781,-2.712891,-0.4375,-3.839844,0.565002,-0.171997,0.591675,0.548767,down
20257,-11.308594,7.519531,3.503906,-2.712891,-0.4375,-3.839844,0.569092,-0.179565,0.586304,0.547852,down
20262,-11.53125,7.136719,3.464844,-2.712891,-0.4375,-3.839844,0.572632,-0.185547,0.581787,0.546997,down
20267,-11.691406,6.753906,3.542969,-1.689453,-0.666016,-2.355469,0.576355,-0.191284,0.576965,0.546204,down
20272,-11.691406,6.753906,3.542969,-1.541016,-0.808594,-1.941406,0.579468,-0.195496,0.572815,0.545776,down
20277,-11.460938,5.871094,4.039062,-1.541016,-0.808594,-1.941406,0.579468,-0.195496,0.572815,0.545776,down
20282,-11.460938,5.871094,4.039062,-1.607422,-0.888672,-1.558594,0.582275,-0.199097,0.568604,0.545898,down
20287,-11.269531,5.21875,4.117187,-1.607422,-0.888672,-1.558594,0.584656,-0.202209,0.564331,0.546631,down
20293,-11.039063,4.414062,3.925781,-1.607422,-0.888672,-1.558594,0.588196,-0.206482,0.557129,0.548584,down
20299,-10.699219,4.339844,3.695313,-1.607422,-0.888672,-1.558594,0.5896,-0.207703,0.55426,0.549561,down
20304,-10.804688,4.300781,3.695313,-0.527344,-0.798828,-0.341797,0.5896,-0.207703,0.55426,0.549561,down
20310,-10.304688,4.148437,3.886719,-0.533203,-0.773437,-0.248047,0.5896,-0.207703,0.55426,0.549561,down
20316,-10.234375,4.222656,3.503906,-0.533203,-0.773437,-0.248047,0.5896,-0.207703,0.55426,0.549561,down
20321,-9.777344,4.378906,3.65625,-0.101563,-0.597656,-0.154297,0.5896,-0.207703,0.55426,0.549561,down
20326,-9.816406,4.261719,3.582031,0.580078,-0.173828,-0.101563,0.5896,-0.207703,0.55426,0.549561,down
20331,-9.695313,4.414062,3.042969,0.580078,-0.173828,-0.101563,0.595764,-0.206726,0.545898,0.551697,down
20336,-9.777344,4.339844,2.929688,0.580078,-0.173828,-0.101563,0.596375,-0.205688,0.54657,0.55072,down
20342,-9.195313,4.53125,2.851563,1.160156,0.099609,-0.029297,0.596375,-0.205688,0.54657,0.55072,down
20347,-9.390625,4.492187,2.929688,1.160156,0.099609,-0.029297,0.598022,-0.201233,0.551147,0.545959,down
20352,-9.234375,4.570312,2.777344,1.160156,0.099609,-0.029297,0.598389,-0.199646,0.553101,0.54425,down
20357,-8.972656,4.453125,2.929688,1.458984,0.328125,0.070312,0.598389,-0.199646,0.553101,0.54425,down
20362,-8.929688,4.378906,2.738281,1.523438,0.376953,0.107422,0.598633,-0.197693,0.555603,0.542053,down
20367,-8.855469,4.378906,2.660156,1.523438,0.376953,0.107422,0.598816,-0.193909,0.560852,0.537842,down
20372,-8.894531,4.339844,2.699219,1.523438,0.376953,0.107422,0.598816,-0.192017,0.563416,0.535828,down
20377,-8.734375,4.453125,2.699219,1.414063,0.382813,0.216797,0.598816,-0.192017,0.563416,0.535828,down
20382,-8.734375,4.378906,2.738281,1.259766,0.386719,0.261719,0.598694,-0.189941,0.566284,0.533691,down
20387,-8.585938,4.339844,2.699219,1.259766,0.386719,0.261719,0.598145,-0.186584,0.570862,0.53064,down
20392,-8.511719,4.261719,2.738281,1.259766,0.386719,0.261719,0.598145,-0.186584,0.570862,0.53064,down
20397,-8.394531,4.148437,2.660156,0.994141,0.380859,0.322266,0.597107,-0.183533,0.575012,0.52832,down
20402,-8.589844,4.03125,2.546875,0.994141,0.380859,0.322266,0.596436,-0.18219,0.576965,0.527405,down
20407,-8.816406,3.957031,2.585938,0.994141,0.380859,0.322266,0.595886,-0.181091,0.57843,0.526794,down
20412,-8.8125,3.765625,2.585938,0.662109,0.228516,0.298828,0.595886,-0.181091,0.57843,0.526794,down
20417,-8.707031,3.917969,2.585938,0.669922,0.179687,0.246094,0.595337,-0.179871,0.580017,0.526123,down
20423,-8.664063,4.03125,2.738281,0.669922,0.179687,0.246094,0.594788,-0.177612,0.58252,0.524719,down
20428,-8.589844,4.1875,2.585938,0.669922,0.179687,0.246094,0.594727,-0.176392,0.583801,0.523743,down
20433,-8.511719,4.261719,2.585938,0.839844,0.03125,0.099609,0.594727,-0.176392,0.583801,0.523743,down
20438,-8.433594,4.300781,2.585938,0.816406,-0.033203,0.076172,0.594727,-0.176392,0.583801,0.523743,down
20444,-8.316406,4.453125,2.546875,0.816406,-0.033203,0.076172,0.595459,-0.172302,0.587219,0.520508,down
20449,-8.285156,4.492187,2.429688,0.724609,-0.109375,0.054687,0.595825,-0.170959,0.588074,0.519531,down
20454,-8.355469,4.414062,2.429688,0.638672,-0.146484,0.050781,0.595825,-0.170959,0.588074,0.519531,down
20459,-8.28125,4.339844,2.429688,0.638672,-0.146484,0.050781,0.59668,-0.168579,0.589294,0.517944,down
20465,-8.207031,4.222656,2.507813,0.414062,-0.234375,0.044922,0.59668,-0.168579,0.589294,0.517944,down
20470,-8.167969,4.148437,2.546875,0.28125,-0.240234,0.025391,0.597595,-0.166626,0.589722,0.517029,down
20475,-8.128906,4.03125,2.546875,0.175781,-0.244141,0.025391,0.597595,-0.166626,0.589722,0.517029,down
20481,-8.128906,4.109375,2.429688,0.175781,-0.244141,0.025391,0.597595,-0.166626,0.589722,0.517029,down
20486,-7.96875,3.839844,2.507813,-0.023437,-0.248047,0.0,0.597595,-0.166626,0.589722,0.517029,down
20492,-7.929687,3.957031,2.355469,0.080078,-0.210937,-0.009766,0.599548,-0.164246,0.588623,0.516785,down
20497,-8.011719,4.070312,2.46875,0.080078,-0.210937,-0.009766,0.599915,-0.163757,0.58844,0.516785,down
20502,-8.011719,3.917969,2.585938,0.080078,-0.210937,-0.009766,0.599915,-0.163757,0.58844,0.516785,down
20507,-7.96875,3.804688,2.546875,-0.03125,-0.154297,0.044922,0.599915,-0.163757,0.58844,0.516785,down
20512,-8.007813,3.765625,2.394531,0.011719,-0.105469,0.056641,0.599915,-0.163757,0.58844,0.516785,down
20517,-7.972656,3.765625,2.46875,0.011719,-0.105469,0.056641,0.600403,-0.162598,0.587891,0.517151,down
20522,-7.96875,3.765625,2.546875,0.142578,-0.027344,0.085937,0.600403,-0.162598,0.587891,0.517151,down
20527,-7.96875,3.804688,2.546875,0.142578,-0.027344,0.085937,0.600403,-0.162292,0.588013,0.517151,down
20532,-8.046875,3.957031,2.394531,0.230469,0.011719,0.089844,0.600403,-0.162292,0.588013,0.517151,down
20537,-8.128906,3.996094,2.46875,0.328125,0.048828,0.125,0.600342,-0.161377,0.588623,0.516785,down
20542,-8.125,3.996094,2.429688,0.328125,0.048828,0.125,0.60022,-0.160767,0.589172,0.516479,down
20547,-8.207031,4.03125,2.429688,0.410156,0.095703,0.146484,0.600159,-0.160095,0.589783,0.516113,down
20553,-8.207031,4.03125,2.429688,0.417969,0.105469,0.154297,0.599854,-0.158752,0.591125,0.51532,down
20558,-8.394531,4.148437,2.507813,0.402344,0.130859,0.150391,0.599609,-0.15802,0.59198,0.514893,down
20563,-8.390625,4.222656,2.46875,0.390625,0.142578,0.15625,0.599365,-0.157349,0.592773,0.514465,down
20569,-8.429688,4.222656,2.46875,0.353516,0.130859,0.15625,0.599121,-0.156799,0.593384,0.514099,down
20574,-8.507813,4.414062,2.507813,0.353516,0.130859,0.15625,0.598877,-0.156189,0.594116,0.513794,down
20581,-8.507813,4.414062,2.46875,0.339844,0.123047,0.175781,0.598877,-0.156189,0.594116,0.513794,down
20587,-8.625,4.492187,2.507813,0.382813,0.099609,0.199219,0.598877,-0.156189,0.594116,0.513794,down
20592,-8.625,4.53125,2.507813,0.382813,0.099609,0.199219,0.598022,-0.154297,0.596191,0.512939,down
20597,-8.625,4.53125,2.507813,0.398438,0.089844,0.207031,0.597534,-0.152649,0.597656,0.512268,down
20602,-8.625,4.570312,2.546875,0.398438,0.089844,0.207031,0.597534,-0.152649,0.597656,0.512268,down
20607,-8.589844,4.570312,2.46875,0.345703,0.064453,0.222656,0.59729,-0.151855,0.598389,0.511963,down
20612,-8.625,4.609375,2.507813,0.345703,0.064453,0.222656,0.596802,-0.150391,0.599609,0.511597,down
20617,-8.589844,4.570312,2.46875,0.345703,0.064453,0.222656,0.596802,-0.150391,0.599609,0.511597,down
20622,-8.589844,4.570312,2.507813,0.271484,0.052734,0.224609,0.596802,-0.150391,0.599609,0.511597,down
20628,-8.550781,4.53125,2.46875,0.207031,0.058594,0.210937,0.596252,-0.148987,0.600586,0.511414,down
20633,-8.546875,4.53125,2.429688,0.207031,0.058594,0.210937,0.595703,-0.147888,0.60144,0.511353,down
20638,-8.46875,4.453125,2.46875,0.207031,0.058594,0.210937,0.595398,-0.147339,0.601868,0.511353,down
20644,-8.429688,4.453125,2.429688,0.207031,0.058594,0.210937,0.595154,-0.146912,0.602234,0.511414,down
20649,-8.429688,4.453125,2.429688,0.158203,0.064453,0.191406,0.594849,-0.146423,0.6026,0.511475,down
20654,-8.394531,4.339844,2.429688,0.158203,0.064453,0.191406,0.594604,-0.146057,0.602966,0.511475,down
20660,-8.433594,4.414062,2.394531,0.158203,0.064453,0.191406,0.594299,-0.145569,0.603333,0.511475,down
20665,-8.429688,4.378906,2.394531,0.15625,0.056641,0.158203,0.594299,-0.145569,0.603333,0.511475,down
20670,-8.390625,4.339844,2.46875,0.167969,0.041016,0.15625,0.594299,-0.145569,0.603333,0.511475,down
20675,-8.390625,4.300781,2.429688,0.164062,0.037109,0.134766,0.594299,-0.145569,0.603333,0.511475,down
20681,-8.355469,4.378906,2.394531,0.164062,0.037109,0.134766,0.593506,-0.143921,0.604614,0.511353,down
20686,-8.351563,4.378906,2.429688,0.166016,0.007813,0.117188,0.593506,-0.143921,0.604614,0.511353,down
20691,-8.351563,4.453125,2.394531,0.173828,0.007813,0.109375,0.593506,-0.143921,0.604614,0.511353,down
20697,-8.351563,4.53125,2.394531,0.167969,-0.013672,0.103516,0.593506,-0.143921,0.604614,0.511353,down
20702,-8.351563,4.492187,2.394531,0.167969,-0.013672,0.103516,0.593201,-0.142273,0.605652,0.510925,down
20707,-8.351563,4.492187,2.394531,0.111328,-0.03125,0.107422,0.593201,-0.142273,0.605652,0.510925,down
20712,-8.316406,4.453125,2.429688,0.111328,-0.03125,0.107422,0.59314,-0.141418,0.606018,0.510864,down
20717,-8.316406,4.414062,2.429688,0.111328,-0.03125,0.107422,0.593079,-0.141052,0.60614,0.510864,down
20723,-8.3125,4.414062,2.394531,0.050781,-0.033203,0.113281,0.593079,-0.141052,0.60614,0.510864,down
20728,-8.316406,4.453125,2.429688,0.050781,-0.033203,0.113281,0.592834,-0.140137,0.606323,0.511169,down
20733,-8.3125,4.453125,2.394531,0.050781,-0.033203,0.113281,0.592773,-0.139832,0.606323,0.511292,down
20738,-8.242188,4.453125,2.394531,0.033203,-0.039063,0.134766,0.592773,-0.139832,0.606323,0.511292,down
20743,-8.242188,4.414062,2.394531,0.033203,-0.039063,0.134766,0.592529,-0.139221,0.606445,0.511597,down
20748,-8.167969,4.414062,2.316406,0.033203,-0.039063,0.134766,0.592407,-0.138916,0.606506,0.51178,down
20753,-8.203125,4.378906,2.316406,0.033203,-0.039063,0.134766,0.592224,-0.13855,0.606628,0.511963,down
20758,-8.164063,4.378906,2.316406,0.0625,0.003906,0.171875,0.592224,-0.13855,0.606628,0.511963,down
20763,-8.164063,4.300781,2.277344,0.085937,0.0,0.181641,0.592041,-0.138123,0.60675,0.512146,down
20768,-8.285156,4.1875,2.277344,0.085937,0.0,0.181641,0.591675,-0.13739,0.607056,0.51239,down
20773,-8.207031,4.109375,2.316406,0.085937,0.0,0.181641,0.591431,-0.136963,0.607239,0.512512,down
20778,-8.167969,4.109375,2.355469,0.128906,0.017578,0.144531,0.591248,-0.136536,0.607544,0.512512,down
20783,-8.203125,4.109375,2.394531,0.128906,0.017578,0.144531,0.591248,-0.136536,0.607544,0.512512,down
20788,-8.207031,4.148437,2.355469,0.128906,0.017578,0.144531,0.590942,-0.135864,0.608032,0.512451,down
20793,-8.207031,4.1875,2.277344,0.199219,0.023437,0.083984,0.590942,-0.135864,0.608032,0.512451,down
20798,-8.207031,4.222656,2.238281,0.216797,0.021484,0.066406,0.590881,-0.135437,0.608337,0.512329,down
20803,-8.203125,4.378906,2.316406,0.216797,0.021484,0.066406,0.590759,-0.134644,0.609009,0.511841,down
20808,-8.167969,4.453125,2.355469,0.216797,0.021484,0.066406,0.590759,-0.134216,0.609375,0.511536,down
20813,-8.246094,4.492187,2.316406,0.216797,0.021484,0.066406,0.590759,-0.134216,0.609375,0.511536,down
20818,-8.285156,4.53125,2.316406,0.25,0.029297,0.041016,0.590698,-0.133423,0.610107,0.510925,down
20823,-8.285156,4.570312,2.238281,0.25,0.029297,0.041016,0.590698,-0.133057,0.610474,0.51062,down
20828,-8.285156,4.53125,2.316406,0.154297,0.015625,0.041016,0.590698,-0.133057,0.610474,0.51062,down
20833,-8.3125,4.53125,2.277344,0.154297,0.015625,0.041016,0.590637,-0.132446,0.610962,0.510254,down
20838,-8.3125,4.53125,2.277344,0.154297,0.015625,0.041016,0.590637,-0.132446,0.610962,0.510254,down
20843,-8.3125,4.570312,2.316406,0.154297,0.015625,0.041016,0.590576,-0.131958,0.611267,0.51001,down
20848,-8.355469,4.570312,2.277344,0.154297,0.015625,0.041016,0.590576,-0.131958,0.611267,0.51001,down
20853,-8.351563,4.609375,2.203125,0.099609,-0.019531,0.044922,0.590637,-0.13147,0.611511,0.509827,down
20858,-8.351563,4.644531,2.238281,0.099609,-0.019531,0.044922,0.590637,-0.131287,0.611633,0.509766,down
20863,-8.3125,4.683594,2.277344,0.074219,-0.03125,0.037109,0.590637,-0.131042,0.611694,0.509705,down
20868,-8.351563,4.683594,2.277344,0.074219,-0.03125,0.037109,0.590637,-0.131042,0.611694,0.509705,down
20873,-8.351563,4.683594,2.277344,0.074219,-0.035156,0.042969,0.590637,-0.130798,0.611755,0.509705,down
20878,-8.316406,4.722656,2.164063,0.066406,-0.035156,0.041016,0.590637,-0.130798,0.611755,0.509705,down
20883,-8.351563,4.609375,2.203125,0.0625,-0.046875,0.046875,0.590698,-0.130371,0.611816,0.509644,down
20888,-8.390625,4.570312,2.238281,0.060547,-0.044922,0.041016,0.590759,-0.129944,0.611877,0.509644,down
20893,-8.3125,4.609375,2.238281,0.060547,-0.044922,0.041016,0.590881,-0.129761,0.611877,0.509583,down
20898,-8.28125,4.609375,2.238281,0.041016,-0.048828,0.005859,0.590881,-0.129761,0.611877,0.509583,down
20903,-8.285156,4.570312,2.203125,0.041016,-0.048828,0.005859,0.590942,-0.129639,0.611816,0.509521,down
20908,-8.285156,4.570312,2.238281,0.039063,-0.041016,-0.015625,0.590942,-0.129639,0.611816,0.509521,down
20913,-8.242188,4.609375,2.164063,0.039063,-0.041016,-0.015625,0.591187,-0.129333,0.611816,0.509399,down
20918,-8.246094,4.570312,2.164063,0.041016,-0.033203,-0.021484,0.591187,-0.129333,0.611816,0.509399,down
20923,-8.242188,4.609375,2.203125,0.048828,-0.039063,-0.025391,0.591309,-0.129272,0.611755,0.509338,down
20928,-8.203125,4.644531,2.238281,0.048828,-0.039063,-0.025391,0.591492,-0.129089,0.611755,0.509155,down
20933,-8.203125,4.644531,2.164063,0.048828,-0.039063,-0.025391,0.591553,-0.128967,0.611816,0.509033,down
20938,-8.203125,4.683594,2.203125,0.048828,-0.039063,-0.025391,0.591553,-0.128967,0.611816,0.509033,down
20943,-8.203125,4.683594,2.277344,0.041016,-0.017578,0.0,0.591553,-0.128967,0.611816,0.509033,down
20948,-8.203125,4.644531,2.238281,0.041016,-0.017578,0.0,0.591675,-0.128723,0.611877,0.50885,down
20953,-8.164063,4.609375,2.203125,0.041016,-0.017578,0.0,0.591736,-0.128662,0.611877,0.508789,down
