timestamp,ax,ay,az,gx,gy,gz,qw,qx,qy,qz,label
661852,4.691406,7.578125,-2.894531,-0.142578,-0.039063,0.113281,0.143494,-0.22229,-0.787476,-0.556702,down
661858,4.652344,7.539062,-2.929688,-0.142578,-0.039063,0.113281,0.143433,-0.222839,-0.786987,-0.557129,down
661863,4.652344,7.539062,-2.929688,-0.082031,-0.052734,0.099609,0.143372,-0.223145,-0.786804,-0.557251,down
661868,4.652344,7.542969,-2.96875,-0.082031,-0.052734,0.099609,0.143311,-0.223389,-0.786682,-0.557373,down
661873,4.613281,7.621094,-3.007813,-0.082031,-0.052734,0.099609,0.14325,-0.223633,-0.786621,-0.557373,down
661878,4.613281,7.65625,-3.046875,-0.082031,-0.052734,0.099609,0.143188,-0.223816,-0.786621,-0.557373,down
661884,4.652344,7.65625,-3.046875,-0.021484,-0.074219,0.0625,0.143127,-0.22406,-0.78656,-0.557373,down
661889,4.652344,7.695312,-3.085938,-0.025391,-0.064453,0.046875,0.143127,-0.22406,-0.78656,-0.557373,down
661894,4.652344,7.660156,-3.085938,-0.054687,-0.052734,0.03125,0.143127,-0.22406,-0.78656,-0.557373,down
661900,4.726562,7.695312,-3.085938,-0.107422,-0.050781,0.025391,0.143127,-0.22406,-0.78656,-0.557373,down
661905,4.691406,7.65625,-3.121094,-0.152344,-0.037109,0.017578,0.143127,-0.22406,-0.78656,-0.557373,down
661910,4.691406,7.582031,-3.046875,-0.152344,-0.037109,0.017578,0.142456,-0.224731,-0.786011,-0.558044,down
661915,4.691406,7.621094,-3.046875,-0.179687,-0.021484,0.001953,0.142456,-0.224731,-0.786011,-0.558044,down
661920,4.691406,7.578125,-3.007813,-0.191406,-0.019531,-0.001953,0.142456,-0.224731,-0.786011,-0.558044,down
661925,4.691406,7.578125,-3.007813,-0.195312,-0.023437,0.001953,0.142456,-0.224731,-0.786011,-0.558044,down
661930,4.691406,7.539062,-2.96875,-0.195312,-0.023437,0.001953,0.142456,-0.224731,-0.786011,-0.558044,down
661936,4.691406,7.5,-2.96875,-0.195312,-0.023437,0.001953,0.141602,-0.225098,-0.784729,-0.559875,down
661942,4.652344,7.582031,-2.96875,-0.091797,-0.005859,0.011719,0.141602,-0.225098,-0.784729,-0.559875,down
661947,4.652344,7.621094,-3.007813,-0.091797,-0.005859,0.011719,0.141296,-0.225281,-0.784241,-0.560608,down
661952,4.652344,7.65625,-3.046875,-0.091797,-0.005859,0.011719,0.141235,-0.225342,-0.78418,-0.560608,down
661957,4.652344,7.695312,-3.007813,0.037109,-0.044922,0.013672,0.141235,-0.225342,-0.78418,-0.560608,down
661962,4.652344,7.8125,-3.121094,0.037109,-0.044922,0.013672,0.141174,-0.225403,-0.784241,-0.560608,down
661968,4.613281,7.777344,-3.160156,0.037109,-0.044922,0.013672,0.141052,-0.225525,-0.784363,-0.560425,down
661973,4.652344,7.8125,-3.160156,0.023437,-0.037109,0.029297,0.140991,-0.225586,-0.784363,-0.560303,down
661978,4.652344,7.8125,-3.238281,0.001953,-0.039063,0.029297,0.140991,-0.225586,-0.784363,-0.560303,down
661983,4.652344,7.855469,-3.199219,-0.021484,-0.052734,0.039063,0.140991,-0.225586,-0.784363,-0.560303,down
661988,4.691406,7.855469,-3.238281,-0.021484,-0.052734,0.039063,0.140991,-0.225586,-0.784363,-0.560303,down
661993,4.652344,7.886719,-3.277344,-0.054687,-0.066406,0.033203,0.140991,-0.225586,-0.784363,-0.560303,down
661998,4.652344,7.886719,-3.277344,-0.074219,-0.064453,0.029297,0.140503,-0.226257,-0.78418,-0.560425,down
662004,4.691406,7.816406,-3.351563,-0.074219,-0.064453,0.029297,0.140381,-0.22644,-0.784119,-0.560547,down
662009,4.691406,7.773437,-3.351563,-0.111328,-0.060547,0.035156,0.140259,-0.226562,-0.783936,-0.56073,down
662014,4.726562,7.738281,-3.3125,-0.117188,-0.054687,0.03125,0.140259,-0.226562,-0.783936,-0.56073,down
662019,4.765625,7.65625,-3.351563,-0.117188,-0.054687,0.03125,0.140259,-0.226562,-0.783936,-0.56073,down
662024,4.765625,7.617187,-3.351563,-0.09375,-0.021484,0.007813,0.140259,-0.226562,-0.783936,-0.56073,down
662029,4.726562,7.582031,-3.3125,-0.074219,-0.015625,0.007813,0.140259,-0.226562,-0.783936,-0.56073,down
662035,4.691406,7.617187,-3.238281,-0.050781,-0.003906,-0.011719,0.140259,-0.226562,-0.783936,-0.56073,down
662040,4.691406,7.617187,-3.160156,-0.050781,-0.003906,-0.011719,0.139526,-0.22699,-0.783203,-0.561768,down
662047,4.765625,7.578125,-3.085938,-0.009766,-0.009766,-0.011719,0.139526,-0.22699,-0.783203,-0.561768,down
662052,4.726562,7.503906,-3.007813,0.005859,-0.009766,-0.007813,0.139526,-0.22699,-0.783203,-0.561768,down
662057,4.691406,7.429687,-2.96875,0.005859,-0.009766,-0.007813,0.139282,-0.226807,-0.783264,-0.561829,down
662062,4.765625,7.429687,-2.96875,0.005859,-0.009766,-0.007813,0.139221,-0.226868,-0.783325,-0.561768,down
662067,4.765625,7.390625,-2.96875,0.005859,-0.009766,-0.007813,0.139221,-0.226868,-0.783325,-0.561768,down
662072,4.765625,7.394531,-2.929688,0.064453,-0.033203,0.046875,0.139221,-0.226868,-0.783325,-0.561768,down
662077,4.804687,7.390625,-2.96875,0.064453,-0.033203,0.046875,0.13916,-0.226929,-0.783447,-0.561523,down
662082,4.84375,7.433594,-3.007813,0.064453,-0.033203,0.046875,0.13916,-0.227051,-0.783569,-0.561401,down
662087,4.84375,7.433594,-3.007813,0.091797,-0.046875,0.0625,0.13916,-0.227051,-0.783569,-0.561401,down
662092,4.84375,7.503906,-3.007813,0.091797,-0.046875,0.0625,0.13916,-0.227295,-0.783752,-0.560974,down
662097,4.882812,7.464844,-3.007813,0.126953,-0.060547,0.052734,0.13916,-0.227417,-0.783936,-0.56073,down
662102,4.882812,7.460937,-3.046875,0.126953,-0.060547,0.052734,0.139099,-0.227478,-0.784058,-0.560486,down
662107,4.882812,7.460937,-3.046875,0.126953,-0.060547,0.052734,0.139099,-0.2276,-0.784241,-0.560181,down
662112,4.882812,7.464844,-3.085938,0.126953,-0.060547,0.052734,0.139038,-0.227722,-0.784424,-0.559937,down
662117,4.921875,7.460937,-3.085938,0.09375,-0.070312,0.001953,0.139038,-0.227722,-0.784424,-0.559937,down
662122,4.882812,7.464844,-3.121094,0.09375,-0.070312,0.001953,0.138916,-0.227844,-0.784729,-0.559448,down
662127,4.882812,7.464844,-3.007813,0.09375,-0.070312,0.001953,0.138733,-0.227844,-0.784851,-0.559265,down
662132,4.882812,7.5,-3.046875,0.027344,-0.107422,-0.058594,0.13855,-0.227844,-0.784973,-0.559143,down
662137,4.882812,7.542969,-3.085938,0.027344,-0.107422,-0.058594,0.138245,-0.227844,-0.785095,-0.559082,down
662142,4.882812,7.582031,-3.121094,-0.039063,-0.119141,-0.080078,0.137939,-0.227844,-0.785217,-0.559021,down
662147,4.882812,7.582031,-3.121094,-0.068359,-0.128906,-0.089844,0.137573,-0.227844,-0.785278,-0.559021,down
662152,4.957031,7.660156,-3.277344,-0.091797,-0.125,-0.101563,0.137146,-0.227844,-0.785278,-0.559143,down
662157,4.957031,7.695312,-3.238281,-0.091797,-0.125,-0.101563,0.136658,-0.227844,-0.785278,-0.559265,down
662162,4.957031,7.695312,-3.351563,-0.109375,-0.097656,-0.121094,0.136169,-0.227783,-0.785217,-0.559448,down
662167,4.996094,7.777344,-3.46875,-0.109375,-0.097656,-0.121094,0.135742,-0.227722,-0.785156,-0.559631,down
662173,4.996094,7.816406,-3.429688,-0.101563,-0.074219,-0.115234,0.135742,-0.227722,-0.785156,-0.559631,down
662178,5.035156,7.816406,-3.429688,-0.101563,-0.074219,-0.115234,0.13446,-0.227356,-0.785034,-0.560364,down
662183,5.035156,7.816406,-3.390625,-0.101563,-0.074219,-0.115234,0.134155,-0.227234,-0.785034,-0.560486,down
662188,4.957031,7.855469,-3.390625,-0.046875,-0.048828,-0.115234,0.133789,-0.227051,-0.785034,-0.560669,down
662194,4.957031,7.816406,-3.390625,-0.046875,-0.048828,-0.115234,0.133484,-0.226868,-0.785034,-0.560791,down
662199,4.957031,7.777344,-3.351563,-0.046875,-0.048828,-0.115234,0.133179,-0.226685,-0.785095,-0.560852,down
662205,4.921875,7.773437,-3.351563,-0.046875,-0.048828,-0.115234,0.132935,-0.226501,-0.785156,-0.560852,down
662211,4.882812,7.777344,-3.3125,0.021484,-0.046875,-0.087891,0.132935,-0.226501,-0.785156,-0.560852,down
662217,4.882812,7.8125,-3.277344,0.044922,-0.042969,-0.076172,0.132935,-0.226501,-0.785156,-0.560852,down
662222,4.882812,7.8125,-3.277344,0.048828,-0.046875,-0.068359,0.132263,-0.226074,-0.785461,-0.560791,down
662227,4.84375,7.8125,-3.277344,0.048828,-0.046875,-0.068359,0.13208,-0.226013,-0.785583,-0.560669,down
662233,4.804687,7.773437,-3.277344,0.042969,-0.046875,-0.060547,0.13208,-0.226013,-0.785583,-0.560669,down
662238,4.804687,7.773437,-3.238281,0.042969,-0.046875,-0.060547,0.13147,-0.225769,-0.785889,-0.560486,down
662243,4.84375,7.8125,-3.238281,0.042969,-0.046875,-0.060547,0.131348,-0.225708,-0.78595,-0.560486,down
662248,4.804687,7.882812,-3.3125,0.011719,-0.041016,-0.056641,0.131104,-0.225586,-0.786011,-0.560425,down
662253,4.804687,7.816406,-3.277344,0.011719,-0.041016,-0.056641,0.131104,-0.225586,-0.786011,-0.560425,down
662258,4.804687,7.777344,-3.199219,0.011719,-0.041016,-0.056641,0.130737,-0.225464,-0.786133,-0.560425,down
662263,4.765625,7.773437,-3.238281,0.011719,-0.029297,-0.056641,0.130737,-0.225464,-0.786133,-0.560425,down
662268,4.804687,7.699219,-3.3125,0.011719,-0.029297,-0.056641,0.130615,-0.225403,-0.786133,-0.560425,down
662274,4.765625,7.699219,-3.238281,0.011719,-0.029297,-0.056641,0.130371,-0.22522,-0.786255,-0.560425,down
662279,4.765625,7.695312,-3.199219,0.021484,-0.023437,-0.056641,0.130371,-0.22522,-0.786255,-0.560425,down
662285,4.726562,7.699219,-3.199219,0.027344,-0.017578,-0.048828,0.130371,-0.22522,-0.786255,-0.560425,down
662290,4.691406,7.617187,-3.238281,0.033203,-0.001953,-0.044922,0.130371,-0.22522,-0.786255,-0.560425,down
662297,4.691406,7.617187,-3.238281,0.052734,0.007813,-0.056641,0.130371,-0.22522,-0.786255,-0.560425,down
662302,4.691406,7.621094,-3.199219,0.074219,0.009766,-0.044922,0.130371,-0.22522,-0.786255,-0.560425,down
662308,4.691406,7.699219,-3.160156,0.076172,0.009766,-0.058594,0.129883,-0.224487,-0.786743,-0.560181,down
662313,4.652344,7.660156,-3.121094,0.076172,0.009766,-0.058594,0.129822,-0.224182,-0.786987,-0.559937,down
662318,4.613281,7.699219,-3.199219,0.054687,0.029297,-0.052734,0.129822,-0.224182,-0.786987,-0.559937,down
662323,4.652344,7.773437,-3.199219,0.054687,0.029297,-0.052734,0.129761,-0.223816,-0.787231,-0.559814,down
662329,4.652344,7.738281,-3.160156,0.054687,0.029297,-0.052734,0.129761,-0.223633,-0.787292,-0.559753,down
662334,4.652344,7.695312,-3.160156,0.039063,0.03125,-0.068359,0.129761,-0.223633,-0.787292,-0.559753,down
662339,4.652344,7.695312,-3.121094,0.033203,0.03125,-0.074219,0.129761,-0.223633,-0.787292,-0.559753,down
662344,4.691406,7.734375,-3.121094,0.033203,0.03125,-0.074219,0.1297,-0.222961,-0.787537,-0.559692,down
662350,4.613281,7.738281,-3.160156,0.033203,0.03125,-0.074219,0.129639,-0.222778,-0.787598,-0.559692,down
662355,4.613281,7.773437,-3.199219,0.015625,0.023437,-0.085937,0.129639,-0.222778,-0.787598,-0.559692,down
662361,4.652344,7.777344,-3.160156,0.025391,0.015625,-0.09375,0.129639,-0.222778,-0.787598,-0.559692,down
662367,4.613281,7.738281,-3.121094,0.021484,0.011719,-0.095703,0.129395,-0.222046,-0.787781,-0.559753,down
662373,4.613281,7.8125,-3.121094,0.021484,0.011719,-0.095703,0.129089,-0.221619,-0.787964,-0.559753,down
662378,4.574219,7.777344,-3.046875,0.021484,0.011719,-0.095703,0.129089,-0.221619,-0.787964,-0.559753,down
662383,4.535156,7.777344,-3.085938,0.021484,0.011719,-0.095703,0.128723,-0.221191,-0.788147,-0.559753,down
662388,4.535156,7.773437,-3.046875,0.021484,0.011719,-0.095703,0.128479,-0.221069,-0.788208,-0.559753,down
662393,4.535156,7.8125,-3.085938,0.003906,-0.050781,-0.105469,0.128479,-0.221069,-0.788208,-0.559753,down
662398,4.5,7.851562,-3.160156,0.003906,-0.050781,-0.105469,0.127991,-0.220764,-0.78833,-0.559814,down
662403,4.535156,7.855469,-3.199219,-0.019531,-0.068359,-0.101563,0.127991,-0.220764,-0.78833,-0.559814,down
662408,4.535156,7.851562,-3.238281,-0.019531,-0.068359,-0.101563,0.127686,-0.220642,-0.788391,-0.559875,down
662413,4.574219,7.882812,-3.238281,-0.03125,-0.068359,-0.103516,0.127686,-0.220642,-0.788391,-0.559875,down
662418,4.574219,7.882812,-3.238281,-0.03125,-0.068359,-0.103516,0.12677,-0.220276,-0.788452,-0.56012,down
662423,4.574219,7.855469,-3.3125,-0.041016,-0.060547,-0.095703,0.126465,-0.220154,-0.788513,-0.560181,down
662428,4.574219,7.855469,-3.3125,-0.041016,-0.060547,-0.095703,0.12616,-0.220032,-0.788513,-0.560303,down
662433,4.574219,7.855469,-3.277344,-0.029297,-0.042969,-0.091797,0.12616,-0.220032,-0.788513,-0.560303,down
662438,4.574219,7.855469,-3.277344,-0.029297,-0.042969,-0.091797,0.125671,-0.219788,-0.788574,-0.560425,down
662443,4.574219,7.773437,-3.3125,0.003906,-0.033203,-0.087891,0.125671,-0.219788,-0.788574,-0.560425,down
662448,4.535156,7.8125,-3.3125,0.003906,-0.033203,-0.087891,0.125488,-0.219666,-0.788574,-0.560486,down
662453,4.535156,7.8125,-3.238281,0.027344,-0.029297,-0.078125,0.125488,-0.219666,-0.788574,-0.560486,down
662458,4.535156,7.773437,-3.199219,0.027344,-0.029297,-0.078125,0.125,-0.219238,-0.788879,-0.560303,down
662463,4.535156,7.855469,-3.199219,0.027344,-0.029297,-0.078125,0.124878,-0.219177,-0.789062,-0.560181,down
662468,4.5,7.777344,-3.238281,0.103516,-0.041016,-0.046875,0.124878,-0.219177,-0.789062,-0.560181,down
662473,4.5,7.773437,-3.199219,0.103516,-0.041016,-0.046875,0.124756,-0.219055,-0.789246,-0.559998,down
662478,4.5,7.816406,-3.199219,0.103516,-0.041016,-0.046875,0.124573,-0.218872,-0.789612,-0.55957,down
662483,4.460937,7.773437,-3.199219,0.103516,-0.041016,-0.046875,0.124573,-0.218872,-0.789612,-0.55957,down
662488,4.460937,7.773437,-3.199219,0.107422,-0.039063,-0.044922,0.124573,-0.218872,-0.789612,-0.55957,down
662493,4.460937,7.777344,-3.238281,0.107422,-0.039063,-0.044922,0.12439,-0.218689,-0.789978,-0.559143,down
662498,4.5,7.777344,-3.238281,0.072266,-0.046875,-0.058594,0.124268,-0.218628,-0.790161,-0.55896,down
662503,4.5,7.773437,-3.199219,0.072266,-0.046875,-0.058594,0.124146,-0.218506,-0.790283,-0.558838,down
662509,4.460937,7.738281,-3.160156,0.072266,-0.046875,-0.058594,0.123779,-0.218384,-0.790588,-0.558594,down
662515,4.460937,7.695312,-3.121094,0.072266,-0.046875,-0.058594,0.123535,-0.218262,-0.79071,-0.558472,down
662521,4.421875,7.65625,-3.160156,0.033203,-0.068359,-0.089844,0.123535,-0.218262,-0.79071,-0.558472,down
662526,4.421875,7.695312,-3.199219,0.019531,-0.083984,-0.105469,0.123535,-0.218262,-0.79071,-0.558472,down
662531,4.382812,7.695312,-3.160156,0.011719,-0.087891,-0.123047,0.123535,-0.218262,-0.79071,-0.558472,down
662536,4.382812,7.699219,-3.199219,0.009766,-0.087891,-0.123047,0.123535,-0.218262,-0.79071,-0.558472,down
662542,4.421875,7.695312,-3.199219,0.005859,-0.09375,-0.134766,0.123535,-0.218262,-0.79071,-0.558472,down
662548,4.421875,7.738281,-3.199219,0.005859,-0.09375,-0.134766,0.121155,-0.217346,-0.791443,-0.558289,down
662553,4.382812,7.65625,-3.199219,0.005859,-0.09375,-0.134766,0.121155,-0.217346,-0.791443,-0.558289,down
662558,4.382812,7.65625,-3.199219,-0.005859,-0.083984,-0.173828,0.1203,-0.216919,-0.791626,-0.55835,down
662563,4.382812,7.578125,-3.199219,-0.005859,-0.083984,-0.173828,0.1203,-0.216919,-0.791626,-0.55835,down
662568,4.34375,7.542969,-3.160156,0.001953,-0.091797,-0.212891,0.1203,-0.216919,-0.791626,-0.55835,down
662573,4.308594,7.542969,-3.121094,0.001953,-0.091797,-0.212891,0.119385,-0.216309,-0.791931,-0.558411,down
662579,4.269531,7.539062,-3.046875,0.001953,-0.091797,-0.212891,0.118408,-0.215637,-0.792236,-0.558411,down
662585,4.269531,7.542969,-3.007813,0.001953,-0.091797,-0.212891,0.11792,-0.215332,-0.792419,-0.558411,down
662590,4.230469,7.5,-3.007813,0.033203,-0.113281,-0.253906,0.11731,-0.214966,-0.792664,-0.55835,down
662596,4.191406,7.429687,-2.96875,0.039063,-0.113281,-0.263672,0.11731,-0.214966,-0.792664,-0.55835,down
662601,4.191406,7.433594,-2.929688,0.035156,-0.128906,-0.28125,0.11731,-0.214966,-0.792664,-0.55835,down
662607,4.152344,7.390625,-2.929688,0.044922,-0.146484,-0.291016,0.11731,-0.214966,-0.792664,-0.55835,down
662613,4.152344,7.394531,-2.894531,0.027344,-0.164062,-0.332031,0.11731,-0.214966,-0.792664,-0.55835,down
662619,4.117187,7.390625,-2.929688,0.027344,-0.164062,-0.332031,0.11322,-0.212524,-0.794067,-0.558044,down
662625,4.078125,7.390625,-2.929688,0.027344,-0.164062,-0.332031,0.112366,-0.212036,-0.794373,-0.558044,down
662631,4.117187,7.429687,-2.855469,0.005859,-0.224609,-0.408203,0.112366,-0.212036,-0.794373,-0.558044,down
662636,4.078125,7.429687,-2.816406,0.005859,-0.224609,-0.408203,0.110291,-0.210999,-0.794922,-0.558044,down
662641,4.039062,7.429687,-2.855469,-0.001953,-0.263672,-0.457031,0.110291,-0.210999,-0.794922,-0.558044,down
662646,4.0,7.429687,-2.855469,-0.011719,-0.291016,-0.480469,0.110291,-0.210999,-0.794922,-0.558044,down
662652,3.960938,7.429687,-2.855469,-0.011719,-0.291016,-0.480469,0.106689,-0.209412,-0.795837,-0.558044,down
662657,3.960938,7.394531,-2.777344,-0.011719,-0.291016,-0.480469,0.106689,-0.209412,-0.795837,-0.558044,down
662662,3.925781,7.355469,-2.816406,-0.011719,-0.291016,-0.480469,0.103882,-0.208191,-0.796509,-0.558105,down
662667,3.847656,7.390625,-2.777344,-0.0625,-0.376953,-0.601562,0.103882,-0.208191,-0.796509,-0.558105,down
662673,3.808594,7.429687,-2.929688,-0.0625,-0.376953,-0.601562,0.098816,-0.206177,-0.797424,-0.558472,down
662678,3.734375,7.433594,-2.894531,-0.0625,-0.376953,-0.601562,0.098816,-0.206177,-0.797424,-0.558472,down
662683,3.695313,7.464844,-2.929688,-0.232422,-0.4375,-0.779297,0.098816,-0.206177,-0.797424,-0.558472,down
662688,3.695313,7.542969,-2.929688,-0.232422,-0.4375,-0.779297,0.094971,-0.204529,-0.797852,-0.559082,down
662693,3.617188,7.539062,-2.929688,-0.232422,-0.4375,-0.779297,0.092651,-0.203552,-0.798035,-0.55957,down
662699,3.578125,7.582031,-2.96875,-0.349609,-0.464844,-0.894531,0.08783,-0.201355,-0.798157,-0.560974,down
662704,3.539063,7.582031,-2.96875,-0.472656,-0.5,-1.021484,0.085266,-0.200195,-0.798096,-0.561829,down
662709,3.464844,7.539062,-3.007813,-0.535156,-0.507812,-1.078125,0.085266,-0.200195,-0.798096,-0.561829,down
662714,3.464844,7.582031,-2.929688,-0.535156,-0.507812,-1.078125,0.07959,-0.19751,-0.797852,-0.563965,down
662719,3.386719,7.542969,-2.929688,-0.535156,-0.507812,-1.078125,0.076599,-0.196045,-0.797668,-0.565186,down
662724,3.386719,7.542969,-2.929688,-0.697266,-0.558594,-1.261719,0.073547,-0.194519,-0.797424,-0.566467,down
662730,3.195313,7.503906,-2.855469,-0.697266,-0.558594,-1.261719,0.070435,-0.192993,-0.797119,-0.567749,down
662735,3.15625,7.5,-2.816406,-0.738281,-0.589844,-1.388672,0.067017,-0.191223,-0.796814,-0.569214,down
662741,3.082031,7.503906,-2.816406,-0.753906,-0.611328,-1.439453,0.067017,-0.191223,-0.796814,-0.569214,down
662746,2.964844,7.578125,-2.703125,-0.753906,-0.611328,-1.439453,0.059753,-0.187439,-0.796204,-0.572144,down
662752,2.890625,7.542969,-2.664063,-0.75,-0.646484,-1.568359,0.059753,-0.187439,-0.796204,-0.572144,down
662757,2.773438,7.582031,-2.625,-0.757812,-0.673828,-1.632813,0.059753,-0.187439,-0.796204,-0.572144,down
662763,2.621094,7.773437,-2.585938,-0.751953,-0.736328,-1.78125,0.059753,-0.187439,-0.796204,-0.572144,down
662768,2.621094,7.773437,-2.585938,-0.751953,-0.736328,-1.78125,0.04364,-0.178772,-0.795227,-0.577759,down
662773,2.46875,7.964844,-2.546875,-0.757812,-0.779297,-1.851563,0.04364,-0.178772,-0.795227,-0.577759,down
662778,2.46875,7.964844,-2.546875,-0.794922,-0.826172,-1.9375,0.034424,-0.173767,-0.794739,-0.580505,down
662783,2.125,8.117188,-2.511719,-0.794922,-0.826172,-1.9375,0.029541,-0.171143,-0.794495,-0.581909,down
662789,1.894531,8.269531,-2.472656,-0.794922,-0.826172,-1.9375,0.018799,-0.165466,-0.79364,-0.585144,down
662794,1.777344,8.269531,-2.511719,-0.794922,-0.826172,-1.9375,0.012939,-0.162415,-0.79303,-0.586975,down
662799,1.703125,8.386719,-2.585938,-0.794922,-0.826172,-1.9375,0.00769,-0.159607,-0.792419,-0.588623,down
662804,1.625,8.539063,-2.546875,-1.193359,-1.046875,-2.423828,0.00769,-0.159607,-0.792419,-0.588623,down
662809,1.625,8.539063,-2.511719,-1.193359,-1.046875,-2.423828,0.004578,0.153076,0.790771,0.592651,down
662814,1.511719,8.503906,-2.320313,-1.193359,-1.046875,-2.423828,0.011536,0.149475,0.789551,0.595032,down
662819,1.472656,8.503906,-2.320313,-1.193359,-1.046875,-2.423828,0.017578,0.146301,0.788391,0.597229,down
662824,1.320313,8.464844,-2.320313,-1.597656,-1.117188,-2.685547,0.024475,0.142578,0.786926,0.599792,down
662829,1.28125,8.386719,-2.242188,-1.654297,-1.119141,-2.734375,0.024475,0.142578,0.786926,0.599792,down
662834,1.050781,8.304688,-2.203125,-1.654297,-1.119141,-2.734375,0.038269,0.134888,0.783691,0.605103,down
662839,0.898437,8.347656,-2.203125,-1.683594,-1.097656,-2.837891,0.038269,0.134888,0.783691,0.605103,down
662844,0.820312,8.34375,-2.203125,-1.683594,-1.097656,-2.837891,0.052368,0.126709,0.780151,0.610413,down
662849,0.820312,8.34375,-2.203125,-1.683594,-1.097656,-2.837891,0.052368,0.126709,0.780151,0.610413,down
662854,0.324219,8.617188,-2.089844,-1.679688,-1.103516,-2.929688,0.059082,0.122742,0.778381,0.612793,down
662859,0.324219,8.617188,-2.089844,-1.644531,-1.101563,-2.96875,0.066467,0.118347,0.776489,0.615356,down
662864,0.015625,8.804688,-2.125,-1.644531,-1.101563,-2.96875,0.073608,0.114014,0.774658,0.617615,down
662870,-0.367188,9.074219,-2.011719,-1.644531,-1.101563,-2.96875,0.088379,0.105103,0.770874,0.622009,down
662875,-0.558594,9.304688,-2.011719,-1.644531,-1.101563,-2.96875,0.096863,0.100037,0.768677,0.624329,down
662880,-0.671875,9.421875,-1.933594,-1.507813,-1.210938,-3.125,0.096863,0.100037,0.768677,0.624329,down
662885,-0.671875,9.421875,-1.933594,-1.511719,-1.234375,-3.132813,0.110962,0.091675,0.765015,0.627686,down
662890,-0.824219,9.574219,-1.898438,-1.511719,-1.234375,-3.132813,0.11853,0.087219,0.763,0.629456,down
662896,-1.171875,9.730469,-1.78125,-1.511719,-1.234375,-3.132813,0.126343,0.08252,0.760742,0.631287,down
662901,-1.324219,9.6875,-1.707031,-1.705078,-1.191406,-3.1875,0.126343,0.08252,0.760742,0.631287,down
662907,-1.476563,9.570313,-1.550781,-1.828125,-1.162109,-3.21875,0.126343,0.08252,0.760742,0.631287,down
662912,-1.628906,9.457031,-1.515625,-1.943359,-1.113281,-3.238281,0.126343,0.08252,0.760742,0.631287,down
662918,-1.707031,9.386719,-1.4375,-2.050781,-1.042969,-3.246094,0.126343,0.08252,0.760742,0.631287,down
662923,-1.820313,9.308594,-1.398438,-2.115234,-0.982422,-3.253906,0.126343,0.08252,0.760742,0.631287,down
662928,-1.859375,9.230469,-1.324219,-2.115234,-0.982422,-3.253906,0.126343,0.08252,0.760742,0.631287,down
662933,-1.859375,9.230469,-1.324219,-2.154297,-0.917969,-3.244141,0.178528,0.046875,0.739685,0.647095,down
662938,-1.859375,9.230469,-1.324219,-2.087891,-0.804687,-3.205078,0.185669,0.041138,0.736145,0.649536,down
662943,-2.28125,9.1875,-0.9375,-1.986328,-0.78125,-3.171875,0.185669,0.041138,0.736145,0.649536,down
662948,-2.550781,9.265625,-0.824219,-1.986328,-0.78125,-3.171875,0.185669,0.041138,0.736145,0.649536,down
662953,-2.703125,9.308594,-0.785156,-1.986328,-0.78125,-3.171875,0.206177,0.024414,0.726196,0.655396,down
662958,-2.816406,9.457031,-0.671875,-1.539063,-0.664062,-2.998047,0.206177,0.024414,0.726196,0.655396,down
662963,-3.046875,9.492188,-0.519531,-1.380859,-0.664062,-2.939453,0.206177,0.024414,0.726196,0.655396,down
662968,-3.164063,9.53125,-0.554687,-1.380859,-0.664062,-2.939453,0.224548,0.009338,0.718262,0.658447,down
662974,-3.277344,9.53125,-0.480469,-1.117188,-0.658203,-2.761719,0.235718,0.00061,0.713989,0.659302,down
662979,-3.507813,9.570313,-0.363281,-1.117188,-0.658203,-2.761719,0.24115,-0.00354,0.711914,0.659546,down
662984,-3.660156,9.613281,-0.289063,-1.117188,-0.658203,-2.761719,0.24646,-0.007507,0.7099,0.659729,down
662989,-3.777344,9.570313,-0.25,-1.117188,-0.658203,-2.761719,0.24646,-0.007507,0.7099,0.659729,down
662994,-3.890625,9.496094,-0.136719,-0.951172,-0.638672,-2.449219,0.256836,-0.015381,0.70575,0.660095,down
662999,-4.042969,9.308594,0.019531,-0.951172,-0.638672,-2.449219,0.256836,-0.015381,0.70575,0.660095,down
663004,-4.082031,9.230469,0.054687,-0.951172,-0.638672,-2.449219,0.262207,-0.019592,0.703308,0.660461,down
663009,-4.082031,9.230469,0.054687,-1.166016,-0.525391,-2.273438,0.266357,-0.022949,0.701233,0.660889,down
663014,-4.234375,8.921875,0.25,-1.246094,-0.474609,-2.228516,0.270935,-0.026978,0.69873,0.66156,down
663019,-4.234375,8.921875,0.25,-1.308594,-0.404297,-2.173828,0.275208,-0.030884,0.696167,0.662292,down
663025,-4.234375,8.804688,0.25,-1.332031,-0.292969,-2.046875,0.279419,-0.034973,0.693481,0.663208,down
663031,-4.464844,8.730469,0.324219,-1.332031,-0.292969,-2.046875,0.287292,-0.043274,0.687988,0.664978,down
663036,-4.617187,8.765625,0.476562,-1.332031,-0.292969,-2.046875,0.290466,-0.046692,0.685791,0.66571,down
663042,-4.695312,8.84375,0.59375,-1.089844,-0.214844,-1.824219,0.290466,-0.046692,0.685791,0.66571,down
663047,-4.808594,8.804688,0.59375,-0.96875,-0.195312,-1.748047,0.296936,-0.053711,0.681396,0.666809,down
663052,-4.964844,8.84375,0.667969,-0.96875,-0.195312,-1.748047,0.296936,-0.053711,0.681396,0.666809,down
663057,-5.117187,8.886719,0.667969,-0.716797,-0.236328,-1.625,0.296936,-0.053711,0.681396,0.666809,down
663062,-5.078125,8.921875,0.746094,-0.583984,-0.259766,-1.568359,0.296936,-0.053711,0.681396,0.666809,down
663068,-5.15625,8.925781,0.824219,-0.46875,-0.296875,-1.527344,0.296936,-0.053711,0.681396,0.666809,down
663073,-5.191406,9.0,0.785156,-0.46875,-0.296875,-1.527344,0.296936,-0.053711,0.681396,0.666809,down
663078,-5.347656,9.003906,0.859375,-0.46875,-0.296875,-1.527344,0.31488,-0.069763,0.672546,0.666077,down
663084,-5.382812,8.925781,0.859375,-0.314453,-0.375,-1.345703,0.31488,-0.069763,0.672546,0.666077,down
663090,-5.578125,8.84375,0.898437,-0.314453,-0.375,-1.345703,0.323425,-0.0755,0.669373,0.664551,down
663095,-5.613281,8.804688,0.9375,-0.4375,-0.376953,-1.273438,0.326355,-0.077515,0.66803,0.664246,down
663101,-5.691406,8.726563,1.089844,-0.4375,-0.376953,-1.273438,0.329041,-0.079407,0.666626,0.664062,down
663106,-5.730469,8.6875,1.128906,-0.4375,-0.376953,-1.273438,0.329041,-0.079407,0.666626,0.664062,down
663111,-5.769531,8.691406,1.089844,-0.607422,-0.322266,-1.199219,0.333557,-0.083191,0.663757,0.664246,down
663116,-5.769531,8.691406,1.089844,-0.607422,-0.322266,-1.199219,0.333557,-0.083191,0.663757,0.664246,down
663122,-5.652344,8.542969,1.167969,-0.738281,-0.212891,-1.134766,0.337708,-0.087463,0.660461,0.664856,down
663127,-5.652344,8.421875,1.207031,-0.738281,-0.212891,-1.134766,0.3396,-0.089539,0.658875,0.665222,down
663132,-5.613281,8.382813,1.242188,-0.634766,-0.136719,-1.005859,0.3396,-0.089539,0.658875,0.665222,down
663138,-5.5,8.382813,1.28125,-0.519531,-0.113281,-0.953125,0.3396,-0.089539,0.658875,0.665222,down
663143,-5.421875,8.199219,1.320313,-0.519531,-0.113281,-0.953125,0.3396,-0.089539,0.658875,0.665222,down
663148,-5.460937,8.15625,1.359375,-0.519531,-0.113281,-0.953125,0.346252,-0.09668,0.654236,0.665405,down
663153,-5.539062,8.15625,1.359375,-0.082031,-0.091797,-0.798828,0.346252,-0.09668,0.654236,0.665405,down
663158,-5.5,8.160156,1.320313,-0.082031,-0.091797,-0.798828,0.349121,-0.09906,0.653381,0.664368,down
663163,-5.578125,8.039063,1.28125,-0.082031,-0.091797,-0.798828,0.350464,-0.099915,0.653381,0.663513,down
663169,-5.652344,8.039063,1.28125,-0.082031,-0.091797,-0.798828,0.351746,-0.100586,0.653625,0.662537,down
663175,-5.730469,8.042969,1.242188,0.412109,-0.119141,-0.564453,0.354187,-0.101318,0.654419,0.660278,down
663180,-5.691406,8.078125,1.207031,0.412109,-0.119141,-0.564453,0.355591,-0.10144,0.655029,0.658997,down
663185,-5.769531,8.121094,1.207031,0.46875,-0.224609,-0.511719,0.355591,-0.10144,0.655029,0.658997,down
663190,-5.769531,8.117188,1.242188,0.46875,-0.224609,-0.511719,0.358154,-0.101563,0.655823,0.656738,down
663195,-5.804687,8.15625,1.320313,0.46875,-0.224609,-0.511719,0.358154,-0.101563,0.655823,0.656738,down
663200,-5.769531,8.15625,1.28125,0.46875,-0.224609,-0.511719,0.36084,-0.10199,0.656128,0.654907,down
663205,-5.804687,8.199219,1.320313,0.080078,-0.179687,-0.582031,0.36084,-0.10199,0.656128,0.654907,down
663210,-5.960937,8.160156,1.320313,0.080078,-0.179687,-0.582031,0.362061,-0.102417,0.656067,0.654236,down
663216,-5.882812,8.117188,1.359375,0.080078,-0.179687,-0.582031,0.364502,-0.103882,0.655334,0.653381,down
663221,-5.921875,8.082031,1.359375,-0.234375,-0.109375,-0.664062,0.365723,-0.104919,0.654724,0.653137,down
663226,-5.921875,8.082031,1.359375,-0.289063,-0.076172,-0.677734,0.366882,-0.106079,0.654053,0.652954,down
663231,-5.84375,8.039063,1.242188,-0.289063,-0.076172,-0.677734,0.367981,-0.107361,0.65332,0.652893,down
663236,-5.84375,8.039063,1.242188,-0.289063,-0.076172,-0.677734,0.36908,-0.108643,0.652588,0.652771,down
663241,-5.730469,8.082031,1.28125,-0.289063,-0.076172,-0.677734,0.370117,-0.109863,0.651855,0.652649,down
663247,-5.691406,8.078125,1.4375,-0.183594,-0.130859,-0.591797,0.370117,-0.109863,0.651855,0.652649,down
663253,-5.652344,8.042969,1.511719,-0.183594,-0.130859,-0.591797,0.372314,-0.111694,0.650696,0.652283,down
663258,-5.691406,7.921875,1.472656,-0.041016,-0.105469,-0.470703,0.372314,-0.111694,0.650696,0.652283,down
663263,-5.769531,7.851562,1.398438,0.035156,-0.080078,-0.408203,0.372314,-0.111694,0.650696,0.652283,down
663268,-5.84375,7.777344,1.359375,0.126953,-0.09375,-0.363281,0.372314,-0.111694,0.650696,0.652283,down
663273,-5.84375,7.542969,1.359375,0.126953,-0.09375,-0.363281,0.372314,-0.111694,0.650696,0.652283,down
663279,-5.882812,7.433594,1.359375,0.126953,-0.09375,-0.363281,0.376587,-0.113464,0.65033,0.649902,down
663285,-6.035156,7.3125,1.398438,0.429687,-0.173828,-0.28125,0.376587,-0.113464,0.65033,0.649902,down
663290,-6.152344,7.238281,1.398438,0.501953,-0.185547,-0.285156,0.379211,-0.112671,0.651855,0.647034,down
663295,-6.152344,7.238281,1.359375,0.587891,-0.195312,-0.316406,0.379211,-0.112671,0.651855,0.647034,down
663300,-6.1875,7.273437,1.320313,0.587891,-0.195312,-0.316406,0.380249,-0.112244,0.652527,0.645752,down
663305,-6.265625,7.394531,1.167969,0.595703,-0.179687,-0.332031,0.380249,-0.112244,0.652527,0.645752,down
663310,-6.378906,7.355469,1.128906,0.597656,-0.169922,-0.367188,0.383179,-0.111389,0.654541,0.642151,down
663315,-6.457031,7.3125,1.050781,0.585937,-0.162109,-0.433594,0.383179,-0.111389,0.654541,0.642151,down
663320,-6.265625,7.777344,0.667969,0.585937,-0.162109,-0.433594,0.384399,-0.111206,0.655273,0.640686,down
663326,-6.265625,7.777344,0.667969,0.552734,-0.099609,-0.451172,0.386475,-0.111084,0.656555,0.638184,down
663331,-6.1875,8.117188,0.324219,0.472656,-0.083984,-0.443359,0.387573,-0.111145,0.657227,0.63678,down
663336,-6.035156,8.238281,0.9375,0.472656,-0.083984,-0.443359,0.38855,-0.111267,0.657715,0.635681,down
663342,-5.84375,8.117188,1.015625,0.472656,-0.083984,-0.443359,0.389404,-0.111328,0.658081,0.634705,down
663347,-5.921875,7.960937,0.824219,0.359375,-0.083984,-0.412109,0.390381,-0.11145,0.658508,0.633728,down
663352,-6.035156,7.773437,0.707031,0.248047,-0.035156,-0.408203,0.390381,-0.11145,0.658508,0.633728,down
663359,-6.074219,7.433594,0.632812,0.121094,0.009766,-0.416016,0.390381,-0.11145,0.658508,0.633728,down
663365,-6.113281,7.117187,0.707031,0.015625,0.039063,-0.423828,0.390381,-0.11145,0.658508,0.633728,down
663370,-6.113281,6.972656,0.746094,-0.193359,0.109375,-0.509766,0.390381,-0.11145,0.658508,0.633728,down
663375,-6.417969,6.773437,0.632812,-0.193359,0.109375,-0.509766,0.393738,-0.114685,0.658569,0.630981,down
663380,-6.417969,6.773437,0.632812,-0.193359,0.109375,-0.509766,0.394775,-0.117676,0.657715,0.630615,down
663385,-6.496094,6.203125,0.898437,-0.193359,0.109375,-0.509766,0.394775,-0.117676,0.657715,0.630615,down
663390,-6.53125,6.164062,1.128906,-0.337891,0.193359,-0.794922,0.396423,-0.121643,0.656616,0.630005,down
663395,-6.453125,6.164062,1.128906,-0.337891,0.193359,-0.794922,0.396423,-0.121643,0.656616,0.630005,down
663400,-6.492187,6.164062,1.089844,-0.048828,0.289063,-1.138672,0.3974,-0.123779,0.65625,0.629395,down
663405,-6.457031,6.355469,1.089844,-0.048828,0.289063,-1.138672,0.398621,-0.126221,0.655945,0.628357,down
663410,-6.457031,6.355469,1.089844,0.123047,0.216797,-1.210938,0.399902,-0.128296,0.655945,0.627197,down
663415,-6.417969,6.699219,1.167969,0.289063,0.15625,-1.269531,0.399902,-0.128296,0.655945,0.627197,down
663420,-6.417969,6.699219,1.167969,0.425781,0.123047,-1.298828,0.403503,-0.132385,0.656311,0.623596,down
663425,-6.417969,7.316406,1.089844,0.425781,0.123047,-1.298828,0.403503,-0.132385,0.656311,0.623596,down
663430,-6.496094,7.277344,1.050781,0.40625,-0.041016,-1.154297,0.403503,-0.132385,0.656311,0.623596,down
663435,-6.570312,7.160156,1.015625,0.40625,-0.041016,-1.154297,0.409485,-0.137451,0.657349,0.617493,down
663440,-6.648437,7.078125,0.898437,0.257813,-0.136719,-1.041016,0.411621,-0.138855,0.657532,0.615601,down
663445,-6.726562,7.050781,0.898437,0.257813,-0.136719,-1.041016,0.413513,-0.140137,0.657471,0.614075,down
663450,-6.765625,6.8125,1.089844,0.257813,-0.136719,-1.041016,0.417114,-0.142334,0.65686,0.611755,down
663455,-6.839844,6.699219,1.128906,-0.113281,-0.242187,-0.941406,0.417114,-0.142334,0.65686,0.611755,down
663460,-6.957031,6.664062,1.050781,-0.113281,-0.242187,-0.941406,0.419067,-0.143677,0.656128,0.610901,down
663465,-6.992187,6.664062,1.089844,-0.341797,-0.267578,-0.917969,0.419067,-0.143677,0.656128,0.610901,down
663471,-7.113281,6.472656,1.128906,-0.341797,-0.267578,-0.917969,0.424133,-0.147766,0.653137,0.609619,down
663476,-7.183594,6.507812,1.128906,-0.375,-0.244141,-0.912109,0.425903,-0.149353,0.651917,0.609375,down
663482,-7.179687,6.472656,1.128906,-0.375,-0.244141,-0.912109,0.427551,-0.150879,0.650757,0.60907,down
663487,-7.21875,6.472656,0.898437,-0.375,-0.244141,-0.912109,0.429016,-0.152222,0.649841,0.608704,down
663492,-7.222656,6.394531,0.859375,-0.164062,-0.142578,-0.880859,0.429016,-0.152222,0.649841,0.608704,down
663497,-7.183594,6.355469,0.859375,-0.0625,-0.123047,-0.855469,0.429016,-0.152222,0.649841,0.608704,down
663503,-7.152344,6.316406,0.9375,0.035156,-0.152344,-0.841797,0.429016,-0.152222,0.649841,0.608704,down
663508,-6.992187,6.355469,1.050781,0.035156,-0.152344,-0.841797,0.429016,-0.152222,0.649841,0.608704,down
663513,-6.957031,6.355469,0.9375,0.205078,-0.107422,-0.769531,0.429016,-0.152222,0.649841,0.608704,down
663518,-6.878906,6.277344,0.859375,0.251953,-0.074219,-0.738281,0.429016,-0.152222,0.649841,0.608704,down
663524,-6.796875,6.203125,0.859375,0.251953,-0.074219,-0.738281,0.439087,-0.159546,0.647278,0.602295,down
663530,-6.839844,6.277344,0.898437,0.289063,0.039063,-0.601562,0.439087,-0.159546,0.647278,0.602295,down
663535,-6.875,6.316406,0.859375,0.289063,0.099609,-0.554687,0.441284,-0.16095,0.647583,0.599976,down
663540,-7.035156,6.203125,0.824219,0.289063,0.099609,-0.554687,0.4422,-0.161743,0.647888,0.598755,down
663545,-7.03125,6.277344,0.785156,0.285156,0.144531,-0.492187,0.442932,-0.162415,0.648254,0.597717,down
663550,-7.070312,6.277344,0.898437,0.285156,0.144531,-0.492187,0.443542,-0.163147,0.648621,0.596619,down
663555,-7.378906,6.433594,0.898437,0.285156,0.144531,-0.492187,0.444092,-0.163757,0.648987,0.595581,down
663560,-7.496094,6.507812,0.859375,0.287109,0.248047,-0.425781,0.44458,-0.164551,0.649475,0.594543,down
663565,-7.566406,6.625,0.824219,0.287109,0.248047,-0.425781,0.444885,-0.165222,0.649963,0.593567,down
663570,-7.644531,6.699219,0.859375,0.287109,0.248047,-0.425781,0.445251,-0.165955,0.650513,0.592468,down
663575,-7.683594,6.777344,0.976562,0.287109,0.248047,-0.425781,0.445557,-0.166626,0.651062,0.591431,down
663580,-7.722656,6.855469,0.976562,0.287109,0.248047,-0.425781,0.445862,-0.167236,0.651611,0.590454,down
663585,-7.71875,6.890625,0.898437,0.287109,0.248047,-0.425781,0.446167,-0.167847,0.652161,0.589417,down
663591,-7.71875,6.890625,0.898437,0.263672,0.212891,-0.349609,0.446716,-0.168945,0.653076,0.587708,down
663597,-7.492187,6.546875,1.050781,0.263672,0.212891,-0.349609,0.447021,-0.169434,0.653442,0.586975,down
663602,-7.496094,6.394531,1.050781,0.130859,0.125,-0.306641,0.447266,-0.169983,0.653687,0.586304,down
663607,-7.414062,6.316406,1.050781,0.078125,0.107422,-0.306641,0.447571,-0.170471,0.653809,0.585754,down
663612,-7.335937,6.203125,1.089844,0.027344,0.083984,-0.3125,0.447571,-0.170471,0.653809,0.585754,down
663618,-7.296875,6.011719,1.128906,0.027344,0.083984,-0.3125,0.448242,-0.171631,0.653809,0.5849,down
663624,-7.300781,5.859375,1.167969,-0.021484,0.0,-0.330078,0.448242,-0.171631,0.653809,0.5849,down
663629,-7.257812,5.859375,1.167969,-0.019531,-0.03125,-0.349609,0.448242,-0.171631,0.653809,0.5849,down
663635,-7.21875,5.859375,1.128906,-0.019531,-0.03125,-0.349609,0.448242,-0.171631,0.653809,0.5849,down
663641,-7.339844,5.820312,1.128906,0.066406,-0.101563,-0.378906,0.448242,-0.171631,0.653809,0.5849,down
663646,-7.375,6.011719,1.050781,0.066406,-0.101563,-0.378906,0.451904,-0.174438,0.652771,0.582458,down
663652,-7.496094,6.242187,1.050781,0.066406,-0.101563,-0.378906,0.452759,-0.174683,0.652649,0.581848,down
663657,-7.5625,6.277344,1.089844,0.224609,-0.226562,-0.435547,0.452759,-0.174683,0.652649,0.581848,down
663663,-7.679687,6.394531,1.050781,0.226562,-0.222656,-0.449219,0.452759,-0.174683,0.652649,0.581848,down
663668,-7.839844,6.585937,0.898437,0.226562,-0.222656,-0.449219,0.455994,-0.17511,0.652283,0.57959,down
663673,-7.878906,6.585937,0.898437,0.183594,-0.207031,-0.447266,0.455994,-0.17511,0.652283,0.57959,down
663678,-7.875,6.585937,0.976562,0.119141,-0.232422,-0.439453,0.455994,-0.17511,0.652283,0.57959,down
663683,-7.839844,6.699219,0.976562,0.119141,-0.232422,-0.439453,0.45929,-0.175781,0.65155,0.577576,down
663688,-7.878906,6.625,1.015625,0.119141,-0.232422,-0.439453,0.45929,-0.175781,0.65155,0.577576,down
663693,-7.835937,6.546875,1.015625,0.009766,-0.236328,-0.427734,0.45929,-0.175781,0.65155,0.577576,down
663698,-7.835937,6.546875,1.015625,-0.068359,-0.216797,-0.423828,0.462036,-0.17688,0.650208,0.576599,down
663703,-7.761719,6.316406,0.976562,-0.208984,-0.152344,-0.400391,0.462036,-0.17688,0.650208,0.576599,down
663710,-7.71875,6.125,1.167969,-0.208984,-0.152344,-0.400391,0.462036,-0.17688,0.650208,0.576599,down
663715,-7.71875,6.085937,1.128906,-0.222656,-0.078125,-0.375,0.462036,-0.17688,0.650208,0.576599,down
663720,-7.71875,6.050781,1.089844,-0.222656,-0.078125,-0.375,0.464661,-0.179687,0.647583,0.576538,down
663726,-7.800781,6.011719,1.050781,-0.222656,-0.078125,-0.375,0.46582,-0.181091,0.646606,0.576355,down
663731,-7.796875,6.050781,1.050781,-0.085937,-0.101563,-0.367188,0.46582,-0.181091,0.646606,0.576355,down
663736,-7.800781,6.050781,1.128906,-0.042969,-0.083984,-0.375,0.466431,-0.181702,0.646118,0.576172,down
663742,-7.800781,6.050781,1.128906,-0.017578,-0.097656,-0.369141,0.467712,-0.182678,0.645447,0.575562,down
663747,-7.988281,6.085937,1.167969,-0.005859,-0.109375,-0.380859,0.468445,-0.183167,0.645142,0.575134,down
663752,-8.140625,6.203125,1.167969,-0.005859,-0.109375,-0.380859,0.469116,-0.183594,0.644836,0.574829,down
663757,-8.222656,6.242187,1.207031,-0.037109,-0.140625,-0.414062,0.469116,-0.183594,0.644836,0.574829,down
663762,-8.339844,6.277344,1.320313,-0.037109,-0.140625,-0.414062,0.469116,-0.183594,0.644836,0.574829,down
663767,-8.339844,6.355469,1.398438,-0.117188,-0.214844,-0.466797,0.469116,-0.183594,0.644836,0.574829,down
663772,-8.339844,6.394531,1.4375,-0.212891,-0.261719,-0.476562,0.469116,-0.183594,0.644836,0.574829,down
663778,-8.367188,6.472656,1.550781,-0.212891,-0.261719,-0.476562,0.473572,-0.18634,0.641785,0.573669,down
663785,-8.296875,6.625,1.4375,-0.400391,-0.277344,-0.537109,0.473572,-0.18634,0.641785,0.573669,down
663790,-8.367188,6.585937,1.472656,-0.498047,-0.240234,-0.544922,0.473572,-0.18634,0.641785,0.573669,down
663796,-8.488281,6.355469,1.4375,-0.570312,-0.210937,-0.558594,0.477295,-0.190613,0.636841,0.574707,down
663801,-8.527344,6.242187,1.398438,-0.570312,-0.210937,-0.558594,0.477295,-0.190613,0.636841,0.574707,down
663806,-8.445313,6.203125,1.359375,-0.746094,-0.230469,-0.552734,0.477295,-0.190613,0.636841,0.574707,down
663811,-8.445313,6.164062,1.242188,-0.746094,-0.230469,-0.552734,0.478882,-0.19342,0.633789,0.575806,down
663817,-8.445313,6.164062,1.242188,-0.773437,-0.25,-0.544922,0.480469,-0.19635,0.630493,0.577148,down
663822,-8.339844,5.972656,1.398438,-0.753906,-0.267578,-0.535156,0.481323,-0.197815,0.628662,0.577942,down
663827,-8.21875,5.972656,1.511719,-0.753906,-0.267578,-0.535156,0.482056,-0.199036,0.627136,0.578552,down
663833,-8.335938,5.972656,1.472656,-0.753906,-0.267578,-0.535156,0.482849,-0.200317,0.625488,0.579163,down
663838,-8.367188,5.972656,1.398438,-0.701172,-0.238281,-0.492187,0.482849,-0.200317,0.625488,0.579163,down
663843,-8.445313,5.933594,1.28125,-0.691406,-0.210937,-0.484375,0.482849,-0.200317,0.625488,0.579163,down
663848,-8.445313,5.933594,1.28125,-0.685547,-0.210937,-0.466797,0.484985,-0.204041,0.620911,0.581055,down
663853,-8.527344,6.011719,1.207031,-0.685547,-0.210937,-0.466797,0.485596,-0.205322,0.619446,0.581726,down
663858,-8.527344,6.011719,1.320313,-0.708984,-0.162109,-0.435547,0.485596,-0.205322,0.619446,0.581726,down
663863,-8.5625,6.011719,1.320313,-0.742187,-0.125,-0.421875,0.485596,-0.205322,0.619446,0.581726,down
663868,-8.640625,5.933594,1.320313,-0.796875,-0.083984,-0.40625,0.485596,-0.205322,0.619446,0.581726,down
663873,-8.644531,5.859375,1.398438,-0.796875,-0.083984,-0.40625,0.485596,-0.205322,0.619446,0.581726,down
663879,-8.75,5.78125,1.472656,-0.892578,-0.023437,-0.408203,0.485596,-0.205322,0.619446,0.581726,down
663885,-8.789063,5.742187,1.472656,-0.892578,-0.023437,-0.408203,0.487488,-0.214111,0.610474,0.586365,down
663891,-8.871094,5.667969,1.511719,-0.892578,-0.023437,-0.408203,0.487549,-0.217712,0.6073,0.588318,down
663896,-8.871094,5.667969,1.589844,-0.892578,-0.023437,-0.408203,0.487549,-0.217712,0.6073,0.588318,down
663901,-8.910156,5.667969,1.628906,-0.978516,0.070312,-0.421875,0.487427,-0.221558,0.604126,0.59021,down
663906,-9.066406,5.820312,1.550781,-0.978516,0.070312,-0.421875,0.487427,-0.221558,0.604126,0.59021,down
663911,-9.140625,5.859375,1.628906,-0.951172,0.166016,-0.416016,0.487305,-0.223633,0.602539,0.591125,down
663916,-9.25,5.933594,1.628906,-0.951172,0.166016,-0.416016,0.487183,-0.225647,0.601074,0.592041,down
663922,-9.410156,6.050781,1.742188,-0.951172,0.166016,-0.416016,0.486755,-0.229431,0.598328,0.593689,down
663927,-9.371094,6.125,1.78125,-0.951172,0.166016,-0.416016,0.486511,-0.231384,0.596924,0.594543,down
663932,-9.445313,6.164062,1.742188,-0.974609,0.171875,-0.386719,0.486267,-0.233521,0.595337,0.595459,down
663937,-9.484375,6.164062,1.855469,-0.974609,0.171875,-0.386719,0.485962,-0.235596,0.59375,0.596436,down
663942,-9.558594,6.203125,1.855469,-0.974609,0.171875,-0.386719,0.485657,-0.237488,0.592285,0.597412,down
663947,-9.632813,6.242187,1.855469,-1.177734,0.191406,-0.347656,0.485168,-0.239807,0.590515,0.598694,down
663952,-9.789063,6.316406,1.78125,-1.177734,0.191406,-0.347656,0.485168,-0.239807,0.590515,0.598694,down
663957,-9.941406,6.472656,1.820313,-1.275391,0.193359,-0.318359,0.48468,-0.241821,0.588867,0.599854,down
663962,-9.941406,6.472656,1.820313,-1.388672,0.173828,-0.289063,0.48468,-0.241821,0.588867,0.599854,down
663967,-9.9375,6.472656,1.894531,-1.388672,0.173828,-0.289063,0.482422,-0.249146,0.582397,0.60498,down
663972,-10.058594,6.242187,1.855469,-1.388672,0.173828,-0.289063,0.482422,-0.249146,0.582397,0.60498,down
663977,-10.015625,6.050781,1.78125,-1.388672,0.173828,-0.289063,0.482422,-0.249146,0.582397,0.60498,down
663982,-9.9375,5.859375,1.855469,-1.388672,0.173828,-0.289063,0.478821,-0.257141,0.574646,0.611877,down
663987,-9.867188,5.78125,1.972656,-1.388672,0.173828,-0.289063,0.4776,-0.259399,0.572327,0.614014,down
663992,-9.867188,5.511719,2.203125,-1.388672,0.173828,-0.289063,0.476074,-0.262085,0.569458,0.61676,down
663998,-9.789063,5.4375,2.203125,-1.388672,0.173828,-0.289063,0.474731,-0.264221,0.567078,0.61908,down
664003,-9.832031,5.359375,2.203125,-1.712891,0.1875,0.080078,0.474731,-0.264221,0.567078,0.61908,down
664009,-9.871094,5.359375,2.203125,-1.634766,0.189453,0.123047,0.47168,-0.268494,0.562378,0.62384,down
664014,-9.980469,5.550781,2.277344,-1.634766,0.189453,0.123047,0.470032,-0.270447,0.560181,0.62616,down
664019,-10.097656,5.628906,2.316406,-1.425781,0.195312,0.226562,0.470032,-0.270447,0.560181,0.62616,down
664024,-10.175781,5.703125,2.316406,-1.347656,0.193359,0.273438,0.470032,-0.270447,0.560181,0.62616,down
664029,-10.175781,5.78125,2.316406,-1.283203,0.189453,0.324219,0.470032,-0.270447,0.560181,0.62616,down
664034,-10.292969,5.894531,2.277344,-1.246094,0.193359,0.384766,0.470032,-0.270447,0.560181,0.62616,down
664039,-10.292969,5.972656,2.316406,-1.220703,0.203125,0.457031,0.470032,-0.270447,0.560181,0.62616,down
664044,-10.289063,5.972656,2.277344,-1.210938,0.205078,0.542969,0.470032,-0.270447,0.560181,0.62616,down
664049,-10.359375,6.085937,2.277344,-1.210938,0.205078,0.542969,0.470032,-0.270447,0.560181,0.62616,down
664054,-10.398438,6.085937,2.238281,-1.222656,0.246094,0.753906,0.470032,-0.270447,0.560181,0.62616,down
664060,-10.4375,6.085937,2.316406,-1.228516,0.263672,0.892578,0.470032,-0.270447,0.560181,0.62616,down
664065,-10.4375,6.050781,2.355469,-1.228516,0.263672,0.892578,0.449768,-0.281433,0.545898,0.648499,down
664071,-10.171875,5.972656,2.355469,-1.228516,0.263672,0.892578,0.443176,-0.281982,0.544434,0.653992,down
664076,-10.019531,5.820312,2.394531,-1.228516,0.263672,0.892578,0.443176,-0.281982,0.544434,0.653992,down
664081,-9.941406,5.703125,2.394531,-1.128906,0.474609,1.546875,0.435181,-0.281738,0.543945,0.659851,down
664086,-9.753906,5.628906,2.316406,-1.128906,0.474609,1.546875,0.435181,-0.281738,0.543945,0.659851,down
664092,-9.753906,5.628906,2.316406,-0.875,0.607422,1.935547,0.430725,-0.281128,0.544312,0.662659,down
664097,-9.753906,5.4375,2.316406,-0.720703,0.664062,2.113281,0.430725,-0.281128,0.544312,0.662659,down
664102,-9.710938,5.667969,2.394531,-0.517578,0.710937,2.289063,0.420776,-0.279053,0.546326,0.668274,down
664107,-9.910156,5.820312,2.355469,-0.283203,0.755859,2.482422,0.415588,-0.277405,0.548096,0.670776,down
664112,-10.015625,5.972656,2.355469,-0.048828,0.798828,2.621094,0.404419,-0.272888,0.553223,0.675232,down
664117,-9.792969,6.164062,2.277344,-0.048828,0.798828,2.621094,0.404419,-0.272888,0.553223,0.675232,down
664122,-9.792969,6.277344,2.277344,-0.048828,0.798828,2.621094,0.393005,-0.266724,0.559875,0.678955,down
664128,-9.636719,6.394531,2.238281,0.621094,0.738281,3.052734,0.386841,-0.262939,0.563782,0.680725,down
664133,-9.75,6.546875,2.277344,0.621094,0.738281,3.052734,0.381409,-0.259521,0.567322,0.682129,down
664139,-9.636719,7.121094,2.277344,0.621094,0.738281,3.052734,0.374756,-0.255066,0.571655,0.683899,down
664145,-9.484375,7.199219,2.394531,0.621094,0.738281,3.052734,0.369141,-0.25116,0.575317,0.685303,down
664150,-9.445313,7.273437,2.355469,0.6875,0.617187,3.431641,0.369141,-0.25116,0.575317,0.685303,down
664155,-9.484375,7.429687,2.277344,0.619141,0.607422,3.537109,0.369141,-0.25116,0.575317,0.685303,down
664161,-9.449219,7.773437,2.203125,0.619141,0.607422,3.537109,0.369141,-0.25116,0.575317,0.685303,down
664166,-9.289063,7.773437,2.277344,0.533203,0.488281,3.761719,0.369141,-0.25116,0.575317,0.685303,down
664171,-9.289063,7.773437,2.277344,0.535156,0.380859,3.871094,0.335632,-0.226746,0.593872,0.69519,down
664176,-9.101563,7.734375,2.355469,0.542969,0.330078,3.982422,0.335632,-0.226746,0.593872,0.69519,down
664181,-9.101563,7.734375,2.355469,0.568359,0.298828,4.101562,0.321472,-0.21521,0.600647,0.699707,down
664187,-8.640625,7.851562,1.855469,0.568359,0.298828,4.101562,0.306458,-0.202271,0.607727,0.704163,down
664192,-8.261719,7.773437,1.703125,0.568359,0.298828,4.101562,0.29895,-0.195435,0.611328,0.706177,down
664197,-7.988281,7.734375,1.664063,0.568359,0.298828,4.101562,0.290527,-0.187561,0.615417,0.708313,down
664202,-7.722656,7.734375,1.628906,0.998047,0.142578,4.578125,0.290527,-0.187561,0.615417,0.708313,down
664207,-7.453125,7.777344,1.511719,0.998047,0.142578,4.578125,0.275024,-0.172729,0.623169,0.711487,down
664212,-6.839844,7.925781,1.167969,0.998047,0.142578,4.578125,0.275024,-0.172729,0.623169,0.711487,down
664217,-6.535156,8.15625,1.050781,1.271484,0.191406,4.808594,0.267151,-0.165161,0.627258,0.712708,down
664222,-6.535156,8.15625,1.050781,1.271484,0.191406,4.808594,0.267151,-0.165161,0.627258,0.712708,down
664227,-6.304687,8.34375,0.976562,1.492188,0.248047,5.054687,0.267151,-0.165161,0.627258,0.712708,down
664232,-5.578125,8.542969,0.9375,1.558594,0.283203,5.183594,0.267151,-0.165161,0.627258,0.712708,down
664237,-5.421875,8.539063,0.9375,1.546875,0.433594,5.416016,0.231262,-0.130798,0.645996,0.715637,down
664242,-5.308594,8.539063,0.824219,1.546875,0.433594,5.416016,0.210449,-0.112122,0.655701,0.71637,down
664247,-5.15625,8.347656,0.746094,1.431641,0.539062,5.613281,0.210449,-0.112122,0.655701,0.71637,down
664252,-4.734375,8.042969,0.707031,1.431641,0.539062,5.613281,0.189392,-0.094177,0.664185,0.71698,down
664257,-4.617187,7.882812,0.785156,1.320313,0.628906,5.783203,0.189392,-0.094177,0.664185,0.71698,down
664262,-4.503906,7.851562,0.785156,1.3125,0.673828,5.847656,0.178528,-0.085144,0.668152,0.717285,down
664267,-4.160156,7.777344,0.707031,1.3125,0.673828,5.847656,0.156494,-0.067383,0.675354,0.717529,down
664272,-4.160156,7.777344,0.707031,1.3125,0.673828,5.847656,0.156494,-0.067383,0.675354,0.717529,down
664277,-4.003906,7.777344,0.667969,1.308594,0.744141,5.947266,0.156494,-0.067383,0.675354,0.717529,down
664282,-4.003906,7.777344,0.667969,1.324219,0.773437,6.039062,0.132812,-0.048706,0.682373,0.717163,down
664287,-3.085938,7.964844,0.25,1.365234,0.816406,6.128906,0.132812,-0.048706,0.682373,0.717163,down
664292,-2.664063,8.195313,0.324219,1.435547,0.867187,6.232422,0.095581,-0.02002,0.692261,0.715027,down
664297,-2.320313,8.15625,0.324219,1.628906,0.835937,6.423828,0.095581,-0.02002,0.692261,0.715027,down
664303,-2.320313,7.734375,0.019531,1.628906,0.835937,6.423828,0.069519,0.000244,0.69873,0.711975,down
664308,-1.976563,7.621094,-0.136719,1.628906,0.835937,6.423828,0.055542,0.011047,0.701965,0.709961,down
664313,-1.976563,7.621094,-0.136719,1.628906,0.835937,6.423828,0.055542,0.011047,0.701965,0.709961,down
664318,-1.707031,7.578125,-0.210937,1.646484,0.826172,6.605469,0.055542,0.011047,0.701965,0.709961,down
664323,-1.132813,7.046875,-0.328125,1.673828,0.851562,6.666016,0.029785,0.031128,0.707153,0.70575,down
664328,-1.132813,7.046875,-0.328125,1.695313,0.912109,6.728516,0.016418,0.041443,0.709534,0.703247,down
664333,-0.902344,7.011719,-0.25,1.695313,0.912109,6.728516,0.011658,-0.062561,-0.713806,-0.697449,down
664339,-0.441406,5.890625,-0.136719,1.695313,0.912109,6.728516,0.02594,-0.072998,-0.715454,-0.694336,down
664345,-0.367188,5.441406,-0.097656,1.589844,1.277344,7.175781,0.02594,-0.072998,-0.715454,-0.694336,down
664350,-0.367188,5.441406,-0.097656,1.556641,1.433594,7.246094,0.056152,-0.094055,-0.717712,-0.687683,down
664356,-0.25,5.125,0.054687,1.626953,1.515625,7.259766,0.056152,-0.094055,-0.717712,-0.687683,down
664361,0.324219,4.597656,0.632812,1.626953,1.515625,7.259766,0.087402,-0.114502,-0.718994,-0.679932,down
664366,1.128906,3.132813,1.128906,1.626953,1.515625,7.259766,0.087402,-0.114502,-0.718994,-0.679932,down
664371,1.742188,2.605469,0.859375,1.908203,1.728516,6.896484,0.087402,-0.114502,-0.718994,-0.679932,down
664377,1.96875,2.605469,0.515625,2.064453,1.875,6.751953,0.134094,-0.142517,-0.720398,-0.665405,down
664382,2.238281,3.027344,0.25,2.560547,1.914063,6.492187,0.148682,-0.150208,-0.720825,-0.660095,down
664387,2.507813,3.554688,0.25,2.560547,1.914063,6.492187,0.165344,-0.158691,-0.721558,-0.65332,down
664392,2.507813,3.554688,0.25,2.560547,1.914063,6.492187,0.179016,-0.165527,-0.722534,-0.646912,down
664397,2.738281,4.09375,0.554687,2.560547,1.914063,6.492187,0.179016,-0.165527,-0.722534,-0.646912,down
664402,2.773438,4.175781,0.632812,3.400391,1.751953,6.259766,0.223328,-0.18512,-0.728577,-0.620483,down
664407,3.003906,3.867188,0.441406,3.400391,1.751953,6.259766,0.237976,-0.190491,-0.731079,-0.610413,down
664413,3.15625,3.328125,0.667969,3.400391,1.751953,6.259766,0.253052,-0.195557,-0.733887,-0.599304,down
664418,3.316406,3.136719,1.015625,4.744141,1.947266,5.689453,0.268799,-0.200562,-0.736877,-0.586975,down
664423,3.503906,3.101563,1.472656,4.851562,1.898438,5.548828,0.282776,-0.204773,-0.739624,-0.575378,down
664428,3.695313,2.753906,2.011719,4.851562,1.898438,5.548828,0.282776,-0.204773,-0.739624,-0.575378,down
664433,3.460938,1.835938,2.507813,4.802734,1.873047,5.410156,0.29541,-0.208435,-0.742065,-0.564453,down
664438,3.460938,1.835938,2.507813,4.802734,1.873047,5.410156,0.29541,-0.208435,-0.742065,-0.564453,down
664443,3.460938,1.835938,2.507813,4.650391,1.894531,5.240234,0.33429,-0.21875,-0.748535,-0.529236,down
664448,3.769531,1.300781,4.386719,4.650391,1.894531,5.240234,0.33429,-0.21875,-0.748535,-0.529236,down
664453,3.617188,1.261719,4.613281,4.650391,1.894531,5.240234,0.357971,-0.22467,-0.75293,-0.504456,down
664458,3.425781,1.335938,4.582031,4.369141,1.013672,3.943359,0.367981,-0.227051,-0.755127,-0.492737,down
664464,3.082031,1.875,3.355469,4.369141,1.013672,3.943359,0.376648,-0.229126,-0.757324,-0.48175,down
664469,2.734375,2.257813,2.585938,4.369141,1.013672,3.943359,0.383362,-0.230835,-0.759277,-0.472473,down
664474,2.734375,2.257813,2.585938,3.548828,0.181641,2.958984,0.389771,-0.232727,-0.761475,-0.462708,down
664479,2.390625,2.644531,2.085938,3.548828,0.181641,2.958984,0.389771,-0.232727,-0.761475,-0.462708,down
664484,2.699219,3.332031,1.933594,3.195313,-0.214844,2.630859,0.39502,-0.234802,-0.763794,-0.453308,down
664489,3.121094,3.101563,2.046875,2.753906,-0.611328,2.291016,0.401184,-0.239563,-0.768311,-0.4375,down
664495,3.847656,2.753906,1.472656,2.753906,-0.611328,2.291016,0.401184,-0.239563,-0.768311,-0.4375,down
664500,4.382812,2.105469,0.019531,0.958984,-1.306641,1.300781,0.401184,-0.239563,-0.768311,-0.4375,down
664505,4.613281,1.835938,-0.480469,0.349609,-1.457031,0.978516,0.401184,-0.239563,-0.768311,-0.4375,down
664510,4.726562,1.605469,-0.863281,-0.222656,-1.587891,0.660156,0.39917,-0.251282,-0.774414,-0.421631,down
664515,4.882812,1.566406,-1.207031,-0.730469,-1.630859,0.369141,0.39917,-0.251282,-0.774414,-0.421631,down
664521,5.035156,1.183594,-1.78125,-0.730469,-1.630859,0.369141,0.392761,-0.257568,-0.775635,-0.421631,down
664526,5.1875,1.03125,-1.933594,-0.730469,-1.630859,0.369141,0.388794,-0.260498,-0.775757,-0.423279,down
664531,5.191406,0.992187,-1.972656,-1.751953,-1.494141,-0.404297,0.388794,-0.260498,-0.775757,-0.423279,down
664536,5.191406,1.070313,-1.898438,-1.751953,-1.494141,-0.404297,0.379883,-0.265442,-0.775574,-0.42865,down
664541,5.414062,1.03125,-1.707031,-1.751953,-1.494141,-0.404297,0.379883,-0.265442,-0.775574,-0.42865,down
664546,5.457031,1.300781,-1.742188,-1.751953,-1.494141,-0.404297,0.370361,-0.268616,-0.776123,-0.43396,down
664551,5.265625,1.605469,-1.78125,-0.890625,-1.507813,-1.0625,0.370361,-0.268616,-0.776123,-0.43396,down
664556,5.152344,1.796875,-1.972656,-0.890625,-1.507813,-1.0625,0.36084,-0.269409,-0.778381,-0.437378,down
664561,4.882812,2.371094,-2.394531,-0.890625,-1.507813,-1.0625,0.36084,-0.269409,-0.778381,-0.437378,down
664566,4.804687,2.679688,-2.585938,-0.890625,-1.507813,-1.0625,0.351501,-0.268066,-0.782715,-0.438049,down
664572,4.804687,2.679688,-2.585938,0.375,-1.863281,-1.578125,0.346497,-0.266846,-0.785645,-0.437622,down
664577,4.808594,2.984375,-2.816406,0.375,-1.863281,-1.578125,0.346497,-0.266846,-0.785645,-0.437622,down
664582,4.886719,3.175781,-2.894531,0.464844,-1.988281,-1.705078,0.335449,-0.263672,-0.792236,-0.436157,down
664588,4.882812,3.484375,-2.929688,0.130859,-2.355469,-2.066406,0.335449,-0.263672,-0.792236,-0.436157,down
664593,4.808594,3.867188,-2.929688,0.130859,-2.355469,-2.066406,0.315674,-0.258667,-0.802429,-0.435425,down
664598,4.726562,3.75,-3.046875,0.130859,-2.355469,-2.066406,0.307007,-0.256897,-0.805847,-0.43634,down
664603,4.609375,3.789063,-3.277344,-0.841797,-2.529297,-2.402344,0.307007,-0.256897,-0.805847,-0.43634,down
664608,4.464844,3.828125,-3.542969,-1.158203,-2.578125,-2.511719,0.299194,-0.255432,-0.808411,-0.437866,down
664613,4.425781,3.828125,-3.890625,-1.392578,-2.630859,-2.585938,0.290894,-0.254028,-0.81073,-0.440002,down
664618,4.425781,4.019531,-4.117187,-1.392578,-2.630859,-2.585938,0.28241,-0.252686,-0.812683,-0.442627,down
664623,4.269531,4.171875,-4.195312,-1.392578,-2.630859,-2.585938,0.263306,-0.249695,-0.816345,-0.44928,down
664628,4.230469,4.359375,-4.273437,-1.587891,-2.761719,-2.841797,0.263306,-0.249695,-0.816345,-0.44928,down
664633,4.039062,4.632812,-3.925781,-1.587891,-2.761719,-2.841797,0.244324,-0.246399,-0.819702,-0.455688,down
664638,3.925781,4.9375,-3.890625,-1.294922,-2.775391,-2.962891,0.244324,-0.246399,-0.819702,-0.455688,down
664643,3.734375,5.167969,-3.890625,-1.054688,-2.759766,-3.015625,0.233459,-0.244263,-0.821777,-0.458862,down
664648,3.234375,5.625,-4.082031,-1.054688,-2.759766,-3.015625,0.214783,-0.239685,-0.825806,-0.463013,down
664653,3.234375,5.625,-4.082031,-1.054688,-2.759766,-3.015625,0.214783,-0.239685,-0.825806,-0.463013,down
664658,2.964844,5.746094,-4.042969,-0.548828,-2.974609,-3.054688,0.214783,-0.239685,-0.825806,-0.463013,down
664663,2.964844,5.746094,-4.042969,-0.314453,-3.138672,-3.039063,0.194641,-0.234497,-0.831238,-0.464966,down
664669,2.160156,6.507812,-3.390625,-0.314453,-3.138672,-3.039063,0.184448,-0.232056,-0.834229,-0.464966,down
664674,1.894531,6.816406,-3.46875,0.175781,-3.673828,-2.876953,0.161438,-0.227478,-0.841248,-0.463196,down
664679,1.472656,6.3125,-3.964844,0.175781,-3.673828,-2.876953,0.161438,-0.227478,-0.841248,-0.463196,down
664684,1.203125,5.96875,-4.539062,0.175781,-3.673828,-2.876953,0.140808,-0.224487,-0.847107,-0.460632,down
664690,0.859375,5.703125,-5.726562,0.175781,-3.673828,-2.876953,0.129944,-0.223083,-0.849792,-0.459595,down
664697,1.050781,5.859375,-6.152344,-0.34375,-3.623047,-2.591797,0.129944,-0.223083,-0.849792,-0.459595,down
664703,1.625,6.628906,-6.492187,-0.507812,-3.626953,-2.591797,0.096863,-0.219238,-0.855774,-0.458496,down
664708,1.777344,7.429687,-6.53125,-0.507812,-3.626953,-2.591797,0.096863,-0.219238,-0.855774,-0.458496,down
664713,1.777344,7.429687,-6.53125,-0.757812,-3.572266,-2.785156,0.085571,-0.217651,-0.8573,-0.458679,down
664718,2.046875,8.199219,-6.648437,-0.871094,-3.416016,-2.986328,0.085571,-0.217651,-0.8573,-0.458679,down
664723,1.855469,8.726563,-7.144531,-1.005859,-3.259766,-3.212891,0.063354,-0.213074,-0.859741,-0.459839,down
664729,1.703125,9.613281,-7.296875,-1.285156,-3.025391,-3.65625,0.063354,-0.213074,-0.859741,-0.459839,down
664735,1.550781,9.382813,-7.105469,-1.285156,-3.025391,-3.65625,0.028809,-0.201172,-0.862061,-0.464233,down
664740,1.128906,8.765625,-6.722656,-1.285156,-3.025391,-3.65625,0.017212,-0.196289,-0.862427,-0.466309,down
664746,0.898437,7.921875,-6.457031,-1.802734,-2.953125,-4.115234,0.017212,-0.196289,-0.862427,-0.466309,down
664751,0.898437,7.921875,-6.457031,-1.992188,-2.914063,-4.160156,0.006958,0.185547,0.862122,0.471436,down
664756,0.628906,7.695312,-6.074219,-2.148438,-2.84375,-4.154297,0.018921,0.179993,0.861511,0.474426,down
664761,0.628906,7.695312,-6.074219,-2.208984,-2.800781,-4.117187,0.030701,0.174377,0.860535,0.4776,down
664767,-0.175781,8.847656,-5.652344,-2.208984,-2.800781,-4.117187,0.030701,0.174377,0.860535,0.4776,down
664772,-1.019531,9.535156,-5.421875,-2.101563,-2.947266,-3.914063,0.030701,0.174377,0.860535,0.4776,down
664778,-1.363281,9.386719,-5.535156,-1.996094,-2.988281,-3.789063,0.078308,0.153748,0.855225,0.488708,down
664783,-1.667969,9.496094,-5.765625,-1.996094,-2.988281,-3.789063,0.078308,0.153748,0.855225,0.488708,down
664788,-1.859375,9.726563,-6.035156,-1.259766,-2.962891,-3.296875,0.078308,0.153748,0.855225,0.488708,down
664793,-2.089844,9.875,-6.339844,-1.259766,-2.962891,-3.296875,0.100464,0.145447,0.852539,0.491882,down
664798,-2.359375,10.71875,-6.683594,-0.878906,-3.029297,-3.177734,0.11145,0.141846,0.851562,0.492249,down
664803,-2.359375,10.71875,-6.683594,-0.878906,-3.029297,-3.177734,0.11145,0.141846,0.851562,0.492249,down
664808,-2.511719,11.257813,-7.222656,-0.369141,-2.894531,-3.132813,0.11145,0.141846,0.851562,0.492249,down
664814,-2.550781,11.449219,-7.296875,-0.242187,-2.832031,-3.173828,0.11145,0.141846,0.851562,0.492249,down
664819,-2.472656,11.375,-7.222656,-0.242187,-2.832031,-3.173828,0.163513,0.124939,0.849304,0.486206,down
664824,-2.550781,11.140625,-6.722656,-0.242187,-2.832031,-3.173828,0.173401,0.12146,0.848694,0.48468,down
664829,-2.703125,11.023438,-6.378906,-0.519531,-2.736328,-3.244141,0.173401,0.12146,0.848694,0.48468,down
664835,-2.933594,10.191406,-5.804687,-0.519531,-2.736328,-3.244141,0.1922,0.114136,0.846863,0.482544,down
664840,-3.164063,10.070313,-5.726562,-0.953125,-2.490234,-3.304688,0.20166,0.109863,0.84552,0.481995,down
664845,-3.429688,9.875,-5.613281,-1.228516,-2.419922,-3.275391,0.20166,0.109863,0.84552,0.481995,down
664851,-3.777344,9.34375,-5.0,-1.228516,-2.419922,-3.275391,0.220581,0.100586,0.841736,0.482422,down
664857,-4.042969,9.457031,-4.769531,-1.626953,-2.320313,-3.138672,0.220581,0.100586,0.841736,0.482422,down
664863,-4.65625,9.648438,-4.539062,-1.677734,-2.246094,-3.033203,0.220581,0.100586,0.841736,0.482422,down
664868,-4.886719,9.914063,-4.464844,-1.677734,-2.246094,-3.033203,0.247314,0.086731,0.833923,0.485657,down
664873,-4.886719,9.914063,-4.464844,-1.591797,-2.216797,-2.833984,0.255676,0.082458,0.831177,0.486755,down
664878,-5.191406,10.152344,-4.425781,-1.591797,-2.216797,-2.833984,0.263916,0.078369,0.828491,0.487671,down
664883,-5.804687,10.835938,-4.730469,-1.347656,-2.169922,-2.751953,0.272278,0.074219,0.825745,0.488342,down
664888,-5.84375,11.066406,-4.886719,-1.158203,-2.142578,-2.75,0.280212,0.070374,0.823242,0.488647,down
664893,-5.882812,11.375,-5.0,-1.158203,-2.142578,-2.75,0.288391,0.066467,0.820862,0.488525,down
664898,-5.691406,11.796875,-5.039062,-1.158203,-2.142578,-2.75,0.297119,0.062317,0.81842,0.487915,down
664903,-5.578125,11.445313,-5.113281,-1.158203,-2.142578,-2.75,0.30481,0.058655,0.816345,0.487061,down
664909,-5.421875,11.140625,-5.113281,-1.158203,-2.142578,-2.75,0.312927,0.054504,0.814209,0.486023,down
664915,-5.269531,9.835938,-5.0,-0.822266,-1.986328,-3.03125,0.327881,0.046082,0.809937,0.484192,down
664921,-5.269531,9.230469,-4.617187,-0.822266,-1.986328,-3.03125,0.335327,0.04126,0.807495,0.483521,down
664927,-5.539062,9.226563,-4.503906,-1.201172,-1.613281,-3.162109,0.335327,0.04126,0.807495,0.483521,down
664932,-5.804687,8.960938,-4.234375,-1.324219,-1.494141,-3.189453,0.335327,0.04126,0.807495,0.483521,down
664938,-5.84375,8.425781,-3.46875,-1.466797,-1.455078,-3.164063,0.335327,0.04126,0.807495,0.483521,down
664943,-5.960937,8.34375,-3.160156,-1.509766,-1.298828,-2.935547,0.335327,0.04126,0.807495,0.483521,down
664948,-6.226562,8.34375,-2.894531,-1.509766,-1.298828,-2.935547,0.369812,0.012939,0.793579,0.482971,down
664953,-6.226562,8.34375,-2.894531,-1.386719,-1.273438,-2.775391,0.375977,0.007385,0.790649,0.483154,down
664958,-6.726562,7.960937,-2.355469,-1.386719,-1.273438,-2.775391,0.375977,0.007385,0.790649,0.483154,down
664963,-7.375,7.699219,-1.859375,-1.193359,-1.291016,-2.634766,0.38739,-0.001953,0.785461,0.482727,down
664968,-7.683594,7.738281,-1.667969,-0.230469,-1.646484,-2.46875,0.38739,-0.001953,0.785461,0.482727,down
664973,-8.179688,8.421875,-1.359375,-0.230469,-1.646484,-2.46875,0.399231,-0.009277,0.781067,0.480103,down
664978,-8.527344,9.1875,-1.515625,-0.230469,-1.646484,-2.46875,0.405579,-0.012085,0.779175,0.477783,down
664984,-8.910156,9.953125,-1.820313,0.298828,-1.982422,-2.580078,0.419922,-0.017029,0.77533,0.471375,down
664989,-9.0625,10.679688,-2.125,0.353516,-2.285156,-2.589844,0.427246,-0.019043,0.773315,0.468079,down
664994,-9.101563,11.105469,-2.433594,0.189453,-2.416016,-2.537109,0.427246,-0.019043,0.773315,0.468079,down
664999,-8.679688,11.488281,-3.238281,0.189453,-2.416016,-2.537109,0.442871,-0.02301,0.767944,0.462158,down
665004,-8.410156,11.179688,-3.277344,0.189453,-2.416016,-2.537109,0.450439,-0.025085,0.764587,0.460266,down
665009,-7.953125,10.53125,-3.238281,-1.039063,-2.548828,-2.308594,0.45752,-0.027405,0.760864,0.459351,down
665015,-7.222656,8.308594,-2.625,-1.039063,-2.548828,-2.308594,0.464661,-0.030334,0.756348,0.459412,down
665020,-7.148437,7.503906,-2.320313,-2.101563,-2.185547,-2.224609,0.471375,-0.034058,0.751404,0.460449,down
665025,-7.109375,6.855469,-2.203125,-2.101563,-2.185547,-2.224609,0.478149,-0.039001,0.745605,0.462524,down
665030,-7.03125,6.242187,-2.011719,-2.101563,-2.185547,-2.224609,0.478149,-0.039001,0.745605,0.462524,down
665035,-7.21875,5.820312,-1.859375,-2.742188,-1.650391,-2.212891,0.478149,-0.039001,0.745605,0.462524,down
665040,-7.21875,5.820312,-1.859375,-2.816406,-1.494141,-2.21875,0.493408,-0.055359,0.729797,0.469971,down
665045,-7.378906,5.628906,-1.589844,-2.816406,-1.494141,-2.21875,0.497986,-0.061096,0.72467,0.47229,down
665051,-7.984375,4.9375,-0.632812,-2.816406,-1.494141,-2.21875,0.502502,-0.06665,0.71991,0.474121,down
665056,-8.222656,5.054687,-0.210937,-1.794922,-1.220703,-2.279297,0.502502,-0.06665,0.71991,0.474121,down
665062,-8.339844,5.398437,0.132812,-1.216797,-1.228516,-2.341797,0.502502,-0.06665,0.71991,0.474121,down
665068,-8.792969,5.398437,0.324219,-1.216797,-1.228516,-2.341797,0.502502,-0.06665,0.71991,0.474121,down
665073,-8.910156,5.78125,0.554687,-0.144531,-1.294922,-2.5625,0.502502,-0.06665,0.71991,0.474121,down
665079,-9.027344,6.433594,0.554687,0.197266,-1.439453,-2.679688,0.533203,-0.089661,0.701294,0.464661,down
665084,-9.332031,7.160156,0.054687,0.197266,-1.439453,-2.679688,0.539368,-0.092102,0.698914,0.46051,down
665090,-9.210938,7.582031,-0.289063,0.197266,-1.439453,-2.679688,0.545837,-0.094482,0.696228,0.456482,down
665095,-9.210938,7.582031,-0.289063,-0.03125,-2.074219,-2.824219,0.553528,-0.097351,0.692505,0.452332,down
665100,-8.679688,7.582031,-0.363281,-0.03125,-2.074219,-2.824219,0.559875,-0.099976,0.688782,0.449585,down
665106,-8.371094,7.082031,-0.136719,-0.03125,-2.074219,-2.824219,0.565796,-0.102966,0.68457,0.447876,down
665111,-8.371094,7.082031,-0.136719,-1.689453,-1.994141,-2.388672,0.571899,-0.106934,0.679321,0.447266,down
665116,-8.371094,5.550781,-0.097656,-2.265625,-1.808594,-2.216797,0.577087,-0.111511,0.673767,0.447815,down
665121,-8.371094,5.550781,-0.097656,-2.265625,-1.808594,-2.216797,0.577087,-0.111511,0.673767,0.447815,down
665127,-8.367188,4.210937,-0.136719,-2.712891,-1.652344,-2.060547,0.585815,-0.122498,0.661682,0.451721,down
665132,-8.140625,3.0625,0.402344,-2.712891,-1.652344,-2.060547,0.585815,-0.122498,0.661682,0.451721,down
665138,-8.222656,2.371094,0.746094,-2.941406,-1.380859,-1.8125,0.585815,-0.122498,0.661682,0.451721,down
665144,-8.222656,2.449219,0.824219,-2.25,-1.265625,-1.820313,0.585815,-0.122498,0.661682,0.451721,down
665149,-8.261719,2.640625,0.898437,-2.25,-1.265625,-1.820313,0.602905,-0.149109,0.63324,0.461853,down
665154,-8.367188,3.828125,0.859375,-0.835937,-1.220703,-1.898438,0.602905,-0.149109,0.63324,0.461853,down
665159,-8.449219,4.363281,0.898437,-0.119141,-1.214844,-1.927734,0.606628,-0.152588,0.62915,0.461365,down
665164,-8.410156,4.785156,0.9375,0.355469,-1.226563,-1.921875,0.610901,-0.155151,0.625732,0.459534,down
665169,-8.371094,5.246094,0.976562,0.355469,-1.226563,-1.921875,0.61499,-0.156555,0.623291,0.456909,down
665174,-8.910156,6.203125,0.554687,0.355469,-1.226563,-1.921875,0.623291,-0.157776,0.619507,0.450439,down
665179,-9.175781,6.433594,0.25,0.546875,-1.304688,-1.757813,0.623291,-0.157776,0.619507,0.450439,down
665184,-9.371094,6.355469,0.210937,0.546875,-1.304688,-1.757813,0.627808,-0.158203,0.61731,0.446899,down
665189,-9.289063,6.242187,0.363281,0.152344,-1.460938,-1.654297,0.635742,-0.159668,0.611877,0.442627,down
665194,-9.210938,5.589844,1.242188,0.152344,-1.460938,-1.654297,0.635742,-0.159668,0.611877,0.442627,down
665199,-9.210938,5.589844,1.242188,-1.214844,-1.490234,-1.332031,0.639282,-0.161438,0.607971,0.442261,down
665204,-9.289063,5.015625,1.472656,-1.214844,-1.490234,-1.332031,0.64209,-0.164307,0.603516,0.443237,down
665209,-9.175781,4.25,1.703125,-2.681641,-1.039063,-1.046875,0.64209,-0.164307,0.603516,0.443237,down
665214,-9.523438,1.988281,1.972656,-3.097656,-0.84375,-0.980469,0.646301,-0.17926,0.588074,0.452087,down
665219,-9.636719,1.71875,2.238281,-3.097656,-0.84375,-0.980469,0.646301,-0.17926,0.588074,0.452087,down
665224,-9.75,1.492188,2.546875,-3.322266,-0.730469,-0.984375,0.647644,-0.191223,0.577271,0.459106,down
665229,-10.015625,1.71875,2.625,-2.888672,-0.568359,-1.150391,0.647644,-0.191223,0.577271,0.459106,down
665234,-10.015625,1.914063,2.507813,-2.888672,-0.568359,-1.150391,0.648254,-0.19696,0.572266,0.461975,down
665239,-10.019531,2.140625,2.433594,-2.888672,-0.568359,-1.150391,0.650391,-0.207581,0.563232,0.465454,down
665244,-10.058594,3.175781,2.203125,-2.888672,-0.568359,-1.150391,0.650391,-0.207581,0.563232,0.465454,down
665249,-10.019531,3.828125,2.394531,-2.888672,-0.568359,-1.150391,0.654358,-0.212891,0.557739,0.464172,down
665254,-10.015625,4.09375,2.546875,-2.888672,-0.568359,-1.150391,0.654358,-0.212891,0.557739,0.464172,down
665259,-9.753906,4.132812,2.546875,0.458984,-0.640625,-1.335938,0.659424,-0.213867,0.555115,0.459595,down
665264,-9.632813,4.09375,2.585938,0.458984,-0.640625,-1.335938,0.659424,-0.213867,0.555115,0.459595,down
665269,-9.675781,3.828125,2.585938,0.458984,-0.640625,-1.335938,0.662048,-0.213501,0.554443,0.456848,down
665274,-9.523438,3.484375,2.625,0.75,-0.603516,-1.017578,0.666992,-0.212524,0.552917,0.451904,down
665279,-9.558594,2.90625,3.121094,0.75,-0.603516,-1.017578,0.666992,-0.212524,0.552917,0.451904,down
665284,-9.523438,2.792969,3.390625,0.75,-0.603516,-1.017578,0.670166,-0.213196,0.550781,0.449585,down
665289,-9.597656,2.640625,3.390625,0.75,-0.603516,-1.017578,0.670166,-0.213196,0.550781,0.449585,down
665294,-9.597656,2.640625,3.390625,-0.609375,-0.205078,-0.566406,0.670959,-0.214417,0.5495,0.44928,down
665299,-9.976563,2.488281,3.425781,-0.808594,-0.107422,-0.509766,0.671387,-0.216125,0.548218,0.449463,down
665304,-9.976563,2.488281,3.425781,-0.855469,-0.089844,-0.455078,0.671631,-0.218018,0.546875,0.449829,down
665310,-10.171875,2.714844,3.695313,-0.855469,-0.089844,-0.455078,0.671753,-0.219849,0.545532,0.450256,down
665316,-10.398438,3.101563,4.003906,-0.611328,-0.136719,-0.388672,0.672424,-0.222595,0.543335,0.450684,down
665322,-10.519531,3.941406,3.734375,-0.611328,-0.136719,-0.388672,0.672424,-0.222595,0.543335,0.450684,down
665328,-10.515625,4.09375,3.390625,0.509766,-0.222656,-0.412109,0.672424,-0.222595,0.543335,0.450684,down
665333,-10.363281,4.09375,2.96875,0.804687,-0.207031,-0.414062,0.672424,-0.222595,0.543335,0.450684,down
665338,-10.171875,3.710938,2.546875,0.804687,-0.207031,-0.414062,0.672424,-0.222595,0.543335,0.450684,down
665344,-10.019531,3.484375,2.433594,1.011719,-0.109375,-0.470703,0.672424,-0.222595,0.543335,0.450684,down
665349,-9.9375,3.328125,2.164063,0.716797,-0.005859,-0.546875,0.672424,-0.222595,0.543335,0.450684,down
665355,-9.714844,3.175781,2.011719,0.716797,-0.005859,-0.546875,0.680725,-0.217712,0.545288,0.43811,down
665360,-9.597656,3.101563,2.238281,0.123047,0.044922,-0.554687,0.681519,-0.218018,0.545349,0.436584,down
665366,-9.484375,2.871094,2.546875,0.123047,0.044922,-0.554687,0.682007,-0.218872,0.545105,0.435669,down
665372,-9.410156,2.753906,2.585938,-0.410156,0.136719,-0.486328,0.68219,-0.220093,0.5448,0.435181,down
665378,-9.367188,2.332031,2.699219,-0.410156,0.136719,-0.486328,0.68219,-0.220093,0.5448,0.435181,down
665383,-9.332031,2.027344,2.738281,-0.671875,0.181641,-0.398438,0.68219,-0.220093,0.5448,0.435181,down
665389,-9.210938,1.414063,2.890625,-0.685547,0.183594,-0.373047,0.68219,-0.220093,0.5448,0.435181,down
665395,-9.140625,1.222656,2.851563,-0.552734,0.171875,-0.369141,0.68219,-0.220093,0.5448,0.435181,down
665400,-9.105469,0.953125,2.816406,-0.552734,0.171875,-0.369141,0.681335,-0.23053,0.541321,0.435364,down
665405,-9.175781,0.878906,2.96875,-0.552734,0.171875,-0.369141,0.681335,-0.231812,0.541077,0.434998,down
665410,-9.101563,0.953125,2.96875,-0.552734,0.171875,-0.369141,0.681519,-0.232666,0.541016,0.434448,down
665415,-9.0625,1.070313,2.929688,0.130859,0.167969,-0.451172,0.681824,-0.233398,0.541077,0.433411,down
665420,-9.105469,1.261719,2.851563,0.21875,0.175781,-0.447266,0.68219,-0.233887,0.541321,0.432312,down
665425,-9.140625,1.375,2.929688,0.21875,0.175781,-0.447266,0.68219,-0.233887,0.541321,0.432312,down
665430,-9.140625,1.453125,2.890625,0.21875,0.175781,-0.447266,0.682922,-0.234375,0.541992,0.430054,down
665435,-9.140625,1.527344,2.890625,0.320313,0.148437,-0.330078,0.683289,-0.234497,0.542419,0.428833,down
665440,-9.171875,1.566406,2.890625,0.28125,0.142578,-0.271484,0.683594,-0.234558,0.542847,0.427856,down
665445,-9.171875,1.566406,2.890625,0.28125,0.142578,-0.271484,0.683777,-0.234558,0.543152,0.427063,down
665451,-9.253906,1.605469,2.890625,0.28125,0.142578,-0.271484,0.683899,-0.234558,0.543579,0.426392,down
665456,-9.25,1.605469,2.851563,0.107422,0.142578,-0.068359,0.683838,-0.234619,0.543945,0.425964,down
665461,-9.40625,1.261719,2.851563,0.107422,0.142578,-0.068359,0.683777,-0.234619,0.544189,0.42572,down
665467,-9.484375,1.070313,2.777344,0.107422,0.142578,-0.068359,0.683594,-0.23468,0.544556,0.425598,down
665472,-9.371094,1.070313,2.816406,0.078125,0.113281,0.066406,0.683594,-0.23468,0.544556,0.425598,down
665478,-9.367188,1.109375,2.816406,0.140625,0.089844,0.080078,0.683594,-0.23468,0.544556,0.425598,down
665484,-9.40625,1.183594,2.816406,0.140625,0.089844,0.080078,0.683594,-0.23468,0.544556,0.425598,down
665489,-9.445313,1.183594,2.738281,0.318359,0.101563,0.095703,0.683594,-0.23468,0.544556,0.425598,down
665495,-9.484375,1.261719,2.738281,0.429687,0.080078,0.109375,0.683044,-0.231995,0.547485,0.424133,down
665500,-9.554688,1.644531,2.851563,0.429687,0.080078,0.109375,0.683167,-0.230896,0.548279,0.423523,down
665505,-9.597656,1.757813,2.851563,0.673828,0.03125,0.101563,0.683411,-0.229553,0.549194,0.422729,down
665510,-9.554688,1.875,2.851563,0.673828,0.03125,0.101563,0.683594,-0.228394,0.549927,0.421997,down
665515,-9.527344,2.140625,2.816406,0.603516,0.003906,0.080078,0.683594,-0.228394,0.549927,0.421997,down
665520,-9.523438,2.105469,2.777344,0.603516,0.003906,0.080078,0.683899,-0.227051,0.550781,0.421204,down
665525,-9.59375,2.066406,2.777344,0.603516,0.003906,0.080078,0.684265,-0.225159,0.55188,0.420105,down
665530,-9.527344,2.027344,2.851563,0.199219,0.003906,0.058594,0.684265,-0.225159,0.55188,0.420105,down
665535,-9.527344,1.875,2.738281,0.199219,0.003906,0.058594,0.684326,-0.224304,0.552368,0.4198,down
665540,-9.371094,1.757813,2.777344,0.199219,0.003906,0.058594,0.684265,-0.224365,0.552368,0.419983,down
665545,-9.289063,1.757813,2.816406,-0.310547,0.0,0.054687,0.684265,-0.224365,0.552368,0.419983,down
665550,-9.214844,1.683594,2.738281,-0.310547,0.0,0.054687,0.683777,-0.225159,0.55188,0.420959,down
665555,-9.144531,1.527344,2.738281,-0.310547,0.0,0.054687,0.683411,-0.22583,0.551514,0.421692,down
665560,-9.0625,1.261719,2.699219,-0.310547,0.0,0.054687,0.683411,-0.22583,0.551514,0.421692,down
665565,-9.023438,1.109375,2.699219,-0.503906,0.037109,0.117188,0.682434,-0.227234,0.55072,0.423401,down
665571,-9.0625,1.03125,2.777344,-0.445312,0.044922,0.150391,0.681946,-0.227905,0.550415,0.424316,down
665576,-9.027344,0.800781,2.777344,-0.445312,0.044922,0.150391,0.681519,-0.228394,0.550171,0.425049,down
665581,-8.988281,0.839844,2.816406,-0.234375,0.029297,0.152344,0.681519,-0.228394,0.550171,0.425049,down
665586,-8.910156,0.839844,2.816406,-0.085937,0.015625,0.146484,0.681519,-0.228394,0.550171,0.425049,down
665591,-8.832031,0.800781,2.851563,-0.085937,0.015625,0.146484,0.680664,-0.228638,0.550049,0.426453,down
665596,-8.832031,0.839844,2.890625,-0.085937,0.015625,0.146484,0.680542,-0.228271,0.550293,0.426514,down
665601,-8.75,0.878906,2.851563,0.273438,0.011719,0.119141,0.680542,-0.227722,0.550659,0.426392,down
665606,-8.605469,0.992187,2.816406,0.273438,0.011719,0.119141,0.680542,-0.227051,0.551086,0.426208,down
665612,-8.484375,1.070313,2.851563,0.273438,0.011719,0.119141,0.680542,-0.226318,0.551575,0.425903,down
665617,-8.5625,1.183594,2.851563,0.365234,0.068359,0.146484,0.680542,-0.226318,0.551575,0.425903,down
665622,-8.527344,1.261719,2.816406,0.349609,0.085937,0.158203,0.68042,-0.224731,0.552856,0.425293,down
665628,-8.679688,1.300781,2.816406,0.349609,0.085937,0.158203,0.680298,-0.224121,0.553406,0.42511,down
665633,-8.71875,1.335938,2.851563,0.287109,0.111328,0.185547,0.680298,-0.224121,0.553406,0.42511,down
