timestamp,ax,ay,az,gx,gy,gz,qw,qx,qy,qz,label
99865,3.980469,7.890625,-3.804688,-0.482422,-0.119141,-0.193359,0.341675,0.180786,-0.809143,-0.442566,down
99870,4.019531,7.851562,-3.804688,-0.435547,-0.050781,-0.238281,0.341431,0.180786,-0.808533,-0.443848,down
99876,4.019531,7.855469,-3.84375,-0.435547,-0.050781,-0.238281,0.341187,0.180969,-0.807983,-0.445007,down
99881,4.019531,7.816406,-3.882813,-0.435547,-0.050781,-0.238281,0.341003,0.181274,-0.807495,-0.445923,down
99886,3.980469,7.734375,-3.804688,-0.224609,0.025391,-0.373047,0.341003,0.181274,-0.807495,-0.445923,down
99891,3.980469,7.8125,-3.769531,-0.152344,0.039063,-0.427734,0.341003,0.181274,-0.807495,-0.445923,down
99896,3.941406,7.773437,-3.730469,-0.083984,0.052734,-0.507812,0.341003,0.181274,-0.807495,-0.445923,down
99902,3.90625,7.734375,-3.578125,-0.083984,0.052734,-0.507812,0.339478,0.184509,-0.805786,-0.448853,down
99908,3.941406,7.8125,-3.382813,-0.025391,0.037109,-0.681641,0.339478,0.184509,-0.805786,-0.448853,down
99913,3.90625,7.851562,-3.191406,-0.021484,-0.017578,-0.751953,0.339478,0.184509,-0.805786,-0.448853,down
99918,3.828125,7.890625,-3.0,-0.021484,-0.017578,-0.751953,0.336975,0.188904,-0.804565,-0.450989,down
99924,3.714844,8.050781,-2.503906,-0.021484,-0.017578,-0.751953,0.33429,0.191772,-0.804016,-0.452759,down
99929,3.636719,7.96875,-2.273438,-0.021484,-0.017578,-0.751953,0.33429,0.191772,-0.804016,-0.452759,down
99934,3.484375,7.894531,-2.003906,-0.011719,-0.423828,-0.789062,0.33429,0.191772,-0.804016,-0.452759,down
99939,3.40625,7.8125,-2.042969,-0.011719,-0.423828,-0.789062,0.330811,0.194031,-0.803894,-0.45459,down
99945,3.292969,7.734375,-2.160156,-0.128906,-0.671875,-0.603516,0.330811,0.194031,-0.803894,-0.45459,down
99951,3.140625,7.628906,-2.390625,-0.128906,-0.671875,-0.603516,0.324768,0.195618,-0.804138,-0.457886,down
99957,3.101563,7.625,-2.65625,-0.128906,-0.671875,-0.603516,0.322876,0.195618,-0.80426,-0.458984,down
99962,3.140625,7.738281,-2.964844,-0.201172,-0.779297,-0.40625,0.322876,0.195618,-0.80426,-0.458984,down
99968,3.140625,7.816406,-3.269531,-0.201172,-0.738281,-0.361328,0.322876,0.195618,-0.80426,-0.458984,down
99974,3.214844,7.851562,-3.578125,-0.224609,-0.6875,-0.310547,0.322876,0.195618,-0.80426,-0.458984,down
99979,3.292969,7.890625,-3.730469,-0.224609,-0.6875,-0.310547,0.31543,0.194519,-0.804871,-0.463501,down
99985,3.292969,7.933594,-3.882813,-0.214844,-0.613281,-0.308594,0.312317,0.194092,-0.805054,-0.465515,down
99990,3.253906,8.089844,-4.152344,-0.214844,-0.613281,-0.308594,0.311096,0.194092,-0.805054,-0.466309,down
99995,3.214844,8.15625,-4.1875,-0.214844,-0.613281,-0.308594,0.309692,0.194214,-0.805054,-0.467163,down
100000,3.175781,8.238281,-4.113281,-0.103516,-0.363281,-0.384766,0.309692,0.194214,-0.805054,-0.467163,down
100005,3.175781,8.394531,-3.996094,-0.087891,-0.328125,-0.402344,0.308655,0.194458,-0.805054,-0.467834,down
100011,3.101563,8.507813,-3.804688,-0.087891,-0.328125,-0.402344,0.306396,0.19519,-0.804932,-0.469177,down
100016,3.023438,8.578125,-3.691406,-0.042969,-0.294922,-0.404297,0.306396,0.19519,-0.804932,-0.469177,down
100021,3.023438,8.621094,-3.539063,-0.019531,-0.314453,-0.384766,0.30426,0.196045,-0.804871,-0.470276,down
100026,2.984375,8.617188,-3.230469,-0.019531,-0.314453,-0.384766,0.30426,0.196045,-0.804871,-0.470276,down
100031,2.910156,8.578125,-3.15625,0.023437,-0.378906,-0.320313,0.30426,0.196045,-0.804871,-0.470276,down
100036,2.945313,8.539063,-3.15625,0.068359,-0.419922,-0.275391,0.30426,0.196045,-0.804871,-0.470276,down
100041,2.945313,8.429688,-3.078125,0.099609,-0.457031,-0.25,0.2995,0.19696,-0.805542,-0.471863,down
100047,2.910156,8.199219,-3.0,0.099609,-0.457031,-0.25,0.298218,0.19696,-0.805908,-0.472046,down
100053,2.910156,8.160156,-2.964844,0.169922,-0.550781,-0.207031,0.298218,0.19696,-0.805908,-0.472046,down
100058,2.832031,8.199219,-3.039063,0.181641,-0.568359,-0.189453,0.298218,0.19696,-0.805908,-0.472046,down
100063,2.792969,8.273438,-3.382813,0.181641,-0.568359,-0.189453,0.293884,0.196655,-0.807373,-0.472351,down
100068,2.832031,8.316406,-3.5,0.125,-0.535156,-0.183594,0.293884,0.196655,-0.807373,-0.472351,down
100073,2.832031,8.472656,-3.652344,0.082031,-0.527344,-0.191406,0.293884,0.196655,-0.807373,-0.472351,down
100079,2.871094,8.542969,-3.804688,0.082031,-0.527344,-0.191406,0.289734,0.196167,-0.808594,-0.472961,down
100085,2.945313,8.578125,-4.035156,0.082031,-0.527344,-0.191406,0.287231,0.196106,-0.80896,-0.473877,down
100090,2.945313,8.621094,-4.074219,0.082031,-0.527344,-0.191406,0.287231,0.196106,-0.80896,-0.473877,down
100095,2.984375,8.621094,-4.113281,-0.140625,-0.40625,-0.3125,0.284912,0.196228,-0.808899,-0.475342,down
100100,2.984375,8.621094,-4.113281,-0.140625,-0.40625,-0.3125,0.283936,0.19635,-0.808716,-0.476257,down
100105,2.984375,8.578125,-4.074219,-0.140625,-0.40625,-0.3125,0.282959,0.196411,-0.808411,-0.477295,down
100110,2.945313,8.617188,-3.996094,-0.322266,-0.283203,-0.326172,0.282959,0.196411,-0.808411,-0.477295,down
100115,2.871094,8.65625,-3.84375,-0.322266,-0.283203,-0.326172,0.282104,0.196533,-0.808044,-0.478394,down
100120,2.832031,8.695313,-3.730469,-0.322266,-0.283203,-0.326172,0.28064,0.196594,-0.807373,-0.480408,down
100125,2.832031,8.734375,-3.578125,-0.259766,-0.316406,-0.212891,0.28064,0.196594,-0.807373,-0.480408,down
100130,2.792969,8.699219,-3.460938,-0.183594,-0.347656,-0.164062,0.279846,0.196533,-0.807068,-0.481323,down
100136,2.792969,8.699219,-3.460938,-0.087891,-0.369141,-0.121094,0.278259,0.196167,-0.806946,-0.482605,down
100141,2.832031,8.582031,-3.230469,0.001953,-0.392578,-0.082031,0.277283,0.195862,-0.807129,-0.483032,down
100147,2.753906,8.433594,-3.230469,0.001953,-0.392578,-0.082031,0.276428,0.195557,-0.807373,-0.483215,down
100152,2.71875,8.390625,-3.269531,0.148437,-0.414062,-0.048828,0.275513,0.195312,-0.807739,-0.483276,down
100157,2.71875,8.3125,-3.230469,0.148437,-0.414062,-0.048828,0.274414,0.195007,-0.808228,-0.483154,down
100164,2.71875,8.3125,-3.230469,0.265625,-0.472656,-0.058594,0.274414,0.195007,-0.808228,-0.483154,down
100170,2.640625,8.390625,-3.191406,0.296875,-0.494141,-0.082031,0.274414,0.195007,-0.808228,-0.483154,down
100175,2.679688,8.429688,-3.191406,0.271484,-0.566406,-0.125,0.270752,0.194336,-0.809998,-0.482544,down
100180,2.640625,8.433594,-3.117188,0.271484,-0.566406,-0.125,0.267883,0.193848,-0.811218,-0.482239,down
100185,2.5625,8.429688,-3.078125,0.271484,-0.566406,-0.125,0.267883,0.193848,-0.811218,-0.482239,down
100190,2.527344,8.429688,-3.078125,0.271484,-0.566406,-0.125,0.266174,0.193542,-0.81189,-0.482239,down
100195,2.527344,8.472656,-3.15625,0.054687,-0.699219,-0.208984,0.264648,0.193298,-0.812317,-0.482361,down
100200,2.488281,8.429688,-3.117188,0.054687,-0.699219,-0.208984,0.261169,0.192566,-0.813171,-0.483154,down
100205,2.296875,8.472656,-3.191406,0.054687,-0.699219,-0.208984,0.261169,0.192566,-0.813171,-0.483154,down
100210,2.296875,8.511719,-3.191406,0.054687,-0.699219,-0.208984,0.257324,0.191528,-0.813782,-0.48468,down
100215,2.257813,8.46875,-3.191406,0.054687,-0.699219,-0.208984,0.257324,0.191528,-0.813782,-0.48468,down
100220,2.21875,8.394531,-3.191406,-0.292969,-0.888672,-0.308594,0.257324,0.191528,-0.813782,-0.48468,down
100226,2.144531,8.277344,-3.230469,-0.292969,-0.888672,-0.308594,0.251465,0.189819,-0.813965,-0.488037,down
100232,2.066406,8.234375,-3.230469,-0.292969,-0.888672,-0.308594,0.249146,0.189148,-0.813843,-0.489685,down
100237,2.027344,8.199219,-3.269531,-0.482422,-0.931641,-0.410156,0.247192,0.18866,-0.81366,-0.491211,down
100242,1.988281,8.3125,-3.347656,-0.509766,-0.962891,-0.445312,0.247192,0.18866,-0.81366,-0.491211,down
100248,1.953125,8.433594,-3.347656,-0.509766,-0.962891,-0.445312,0.242615,0.187439,-0.81311,-0.494873,down
100254,1.953125,8.390625,-3.308594,-0.556641,-1.03125,-0.507812,0.242615,0.187439,-0.81311,-0.494873,down
100259,1.953125,8.394531,-3.347656,-0.566406,-1.048828,-0.529297,0.242615,0.187439,-0.81311,-0.494873,down
100264,1.914063,8.351563,-3.421875,-0.566406,-1.048828,-0.529297,0.242615,0.187439,-0.81311,-0.494873,down
100270,1.914063,8.316406,-3.460938,-0.623047,-1.0625,-0.564453,0.242615,0.187439,-0.81311,-0.494873,down
100275,1.914063,8.273438,-3.460938,-0.605469,-1.068359,-0.560547,0.229919,0.184692,-0.811157,-0.505005,down
100280,1.875,8.316406,-3.578125,-0.605469,-1.068359,-0.560547,0.227112,0.184143,-0.810669,-0.507324,down
100285,1.835938,8.390625,-3.578125,-0.605469,-1.068359,-0.560547,0.224731,0.183655,-0.810242,-0.509155,down
100291,1.796875,8.46875,-3.613281,-0.533203,-1.0625,-0.546875,0.21936,0.182556,-0.809509,-0.513062,down
100296,1.757813,8.511719,-3.652344,-0.533203,-1.0625,-0.546875,0.216614,0.181946,-0.809265,-0.514832,down
100301,1.722656,8.507813,-3.652344,-0.533203,-1.0625,-0.546875,0.214233,0.181458,-0.809082,-0.516296,down
100306,1.683594,8.511719,-3.652344,-0.386719,-1.015625,-0.505859,0.211487,0.180969,-0.808838,-0.517944,down
100311,1.683594,8.582031,-3.730469,-0.386719,-1.015625,-0.505859,0.208801,0.180481,-0.808594,-0.519592,down
100316,1.683594,8.542969,-3.730469,-0.386719,-1.015625,-0.505859,0.206604,0.180115,-0.80835,-0.520996,down
100322,1.644531,8.65625,-3.769531,-0.373047,-0.908203,-0.539062,0.204041,0.179749,-0.808044,-0.522583,down
100327,1.605469,8.855469,-3.730469,-0.373047,-0.908203,-0.539062,0.201965,0.179565,-0.8078,-0.523865,down
100332,1.492188,8.816406,-3.652344,-0.416016,-0.851562,-0.587891,0.201965,0.179565,-0.8078,-0.523865,down
100337,1.492188,8.890625,-3.578125,-0.416016,-0.851562,-0.587891,0.201965,0.179565,-0.8078,-0.523865,down
100342,1.453125,9.0,-3.578125,-0.552734,-0.871094,-0.617187,0.201965,0.179565,-0.8078,-0.523865,down
100348,1.453125,8.925781,-3.5,-0.615234,-0.847656,-0.638672,0.201965,0.179565,-0.8078,-0.523865,down
100353,1.414063,8.855469,-3.613281,-0.615234,-0.847656,-0.638672,0.201965,0.179565,-0.8078,-0.523865,down
100358,1.414063,8.816406,-3.578125,-0.730469,-0.814453,-0.671875,0.201965,0.179565,-0.8078,-0.523865,down
100364,1.414063,8.855469,-3.613281,-0.755859,-0.814453,-0.671875,0.201965,0.179565,-0.8078,-0.523865,down
100369,1.414063,9.0,-3.578125,-0.755859,-0.814453,-0.671875,0.183594,0.178528,-0.802246,-0.539307,down
100374,1.300781,9.234375,-3.539063,-0.755859,-0.814453,-0.671875,0.183594,0.178528,-0.802246,-0.539307,down
100379,1.300781,9.34375,-3.539063,-0.755859,-0.814453,-0.671875,0.179321,0.178406,-0.800598,-0.543152,down
100384,1.222656,9.421875,-3.5,-0.572266,-0.779297,-0.591797,0.179321,0.178406,-0.800598,-0.543152,down
100389,0.957031,9.277344,-3.5,-0.572266,-0.779297,-0.591797,0.17511,0.178162,-0.799194,-0.546753,down
100394,0.957031,9.160156,-3.460938,-0.527344,-0.716797,-0.494141,0.17511,0.178162,-0.799194,-0.546753,down
100399,0.957031,9.078125,-3.421875,-0.492187,-0.732422,-0.457031,0.17511,0.178162,-0.799194,-0.546753,down
100404,0.992187,9.003906,-3.347656,-0.464844,-0.753906,-0.429687,0.17511,0.178162,-0.799194,-0.546753,down
100410,1.03125,8.851563,-3.191406,-0.464844,-0.753906,-0.429687,0.16571,0.176575,-0.796326,-0.554321,down
100415,0.957031,8.777344,-3.15625,-0.464844,-0.753906,-0.429687,0.16571,0.176575,-0.796326,-0.554321,down
100420,0.957031,8.773438,-3.191406,-0.490234,-0.675781,-0.408203,0.16571,0.176575,-0.796326,-0.554321,down
100425,0.957031,8.773438,-3.191406,-0.490234,-0.675781,-0.408203,0.16217,0.175781,-0.795166,-0.55719,down
100430,0.917969,8.894531,-3.269531,-0.490234,-0.675781,-0.408203,0.160461,0.175476,-0.794495,-0.558716,down
100436,0.878906,8.925781,-3.230469,-0.566406,-0.617187,-0.449219,0.160461,0.175476,-0.794495,-0.558716,down
100441,0.839844,9.0,-3.191406,-0.566406,-0.617187,-0.449219,0.15564,0.174866,-0.792297,-0.563416,down
100447,0.6875,8.925781,-3.230469,-0.566406,-0.617187,-0.449219,0.154175,0.174744,-0.791565,-0.564941,down
100452,0.609375,8.855469,-3.117188,-0.535156,-0.5,-0.445312,0.152771,0.174744,-0.790771,-0.566406,down
100457,0.570312,8.738281,-3.117188,-0.507812,-0.496094,-0.433594,0.152771,0.174744,-0.790771,-0.566406,down
100462,0.648437,8.699219,-3.0,-0.507812,-0.496094,-0.433594,0.152771,0.174744,-0.790771,-0.566406,down
100468,0.609375,8.660156,-2.847656,-0.507812,-0.496094,-0.433594,0.148376,0.174561,-0.788574,-0.570679,down
100474,0.570312,8.660156,-2.773438,-0.388672,-0.503906,-0.414062,0.148376,0.174561,-0.788574,-0.570679,down
100480,0.496094,8.851563,-2.808594,-0.326172,-0.5,-0.408203,0.148376,0.174561,-0.788574,-0.570679,down
100486,0.457031,8.921875,-2.808594,-0.222656,-0.513672,-0.404297,0.148376,0.174561,-0.788574,-0.570679,down
100491,0.378906,8.964844,-2.773438,-0.181641,-0.535156,-0.404297,0.142761,0.174377,-0.786682,-0.574768,down
100497,0.34375,9.078125,-2.695313,-0.181641,-0.535156,-0.404297,0.139587,0.174316,-0.786072,-0.576355,down
100502,0.265625,9.117188,-2.65625,-0.181641,-0.535156,-0.404297,0.138,0.174255,-0.785889,-0.577087,down
100507,0.226562,9.15625,-2.695313,-0.173828,-0.59375,-0.421875,0.138,0.174255,-0.785889,-0.577087,down
100513,0.152344,9.199219,-2.695313,-0.210937,-0.599609,-0.429687,0.134583,0.174072,-0.785339,-0.578674,down
100518,0.113281,9.195313,-2.65625,-0.210937,-0.599609,-0.429687,0.132935,0.17395,-0.784973,-0.57959,down
100524,0.113281,9.160156,-2.65625,-0.355469,-0.644531,-0.451172,0.132935,0.17395,-0.784973,-0.57959,down
100530,0.1875,9.082031,-2.617188,-0.443359,-0.664062,-0.466797,0.132935,0.17395,-0.784973,-0.57959,down
100535,0.152344,9.042969,-2.65625,-0.59375,-0.654297,-0.484375,0.132935,0.17395,-0.784973,-0.57959,down
100540,0.152344,8.960938,-2.695313,-0.59375,-0.654297,-0.484375,0.125793,0.173218,-0.782349,-0.5849,down
100545,0.152344,8.964844,-2.65625,-0.662109,-0.664062,-0.492187,0.125793,0.173218,-0.782349,-0.5849,down
100550,0.113281,8.851563,-2.617188,-0.662109,-0.664062,-0.492187,0.122375,0.172791,-0.780396,-0.588318,down
100556,0.074219,8.851563,-2.542969,-0.662109,-0.664062,-0.492187,0.118835,0.172363,-0.778442,-0.591797,down
100561,0.113281,8.855469,-2.464844,-0.662109,-0.664062,-0.492187,0.118835,0.172363,-0.778442,-0.591797,down
100566,0.074219,8.851563,-2.503906,-0.595703,-0.681641,-0.498047,0.115295,0.171875,-0.776611,-0.595032,down
100571,0.035156,8.925781,-2.464844,-0.595703,-0.681641,-0.498047,0.113403,0.171692,-0.775757,-0.596558,down
100576,-0.003906,8.921875,-2.503906,-0.431641,-0.683594,-0.511719,0.113403,0.171692,-0.775757,-0.596558,down
100581,-0.039063,8.960938,-2.464844,-0.431641,-0.683594,-0.511719,0.109619,0.171326,-0.774353,-0.599121,down
100586,-0.078125,9.082031,-2.425781,-0.431641,-0.683594,-0.511719,0.109619,0.171326,-0.774353,-0.599121,down
100591,-0.078125,9.121094,-2.425781,-0.431641,-0.683594,-0.511719,0.105469,0.171082,-0.773071,-0.601685,down
100596,-0.15625,9.121094,-2.390625,-0.431641,-0.683594,-0.511719,0.105469,0.171082,-0.773071,-0.601685,down
100601,-0.15625,9.039063,-2.3125,-0.355469,-0.716797,-0.583984,0.105469,0.171082,-0.773071,-0.601685,down
100607,-0.195312,9.003906,-2.160156,-0.355469,-0.716797,-0.583984,0.099487,0.170959,-0.77124,-0.60498,down
100613,-0.230469,8.894531,-2.121094,-0.355469,-0.716797,-0.583984,0.097168,0.170959,-0.770325,-0.606567,down
100619,-0.308594,8.855469,-2.082031,-0.658203,-0.732422,-0.683594,0.097168,0.170959,-0.770325,-0.606567,down
100624,-0.308594,8.699219,-2.121094,-0.791016,-0.736328,-0.726562,0.097168,0.170959,-0.770325,-0.606567,down
100629,-0.386719,8.660156,-2.121094,-0.912109,-0.734375,-0.753906,0.097168,0.170959,-0.770325,-0.606567,down
100634,-0.347656,8.582031,-2.121094,-0.998047,-0.724609,-0.775391,0.097168,0.170959,-0.770325,-0.606567,down
100640,-0.386719,8.542969,-2.160156,-1.064453,-0.722656,-0.800781,0.097168,0.170959,-0.770325,-0.606567,down
100645,-0.347656,8.46875,-2.160156,-1.064453,-0.722656,-0.800781,0.097168,0.170959,-0.770325,-0.606567,down
100650,-0.347656,8.46875,-2.160156,-1.052734,-0.708984,-0.802734,0.082214,0.171814,-0.759521,-0.621948,down
100656,-0.347656,8.46875,-2.160156,-0.919922,-0.683594,-0.787109,0.080139,0.172058,-0.757874,-0.624207,down
100662,-0.421875,8.433594,-2.082031,-0.791016,-0.681641,-0.742187,0.075867,0.172424,-0.754944,-0.628113,down
100667,-0.5,8.273438,-1.96875,-0.791016,-0.681641,-0.742187,0.073486,0.172546,-0.753723,-0.629883,down
100673,-0.5,8.011719,-1.777344,-0.791016,-0.681641,-0.742187,0.071655,0.172546,-0.753052,-0.630859,down
100678,-0.617187,7.96875,-1.738281,-0.791016,-0.681641,-0.742187,0.069153,0.172485,-0.752625,-0.631714,down
100684,-0.882812,7.511719,-1.699219,-0.791016,-0.681641,-0.742187,0.067017,0.172363,-0.752563,-0.632019,down
100689,-1.0,7.324219,-1.585938,0.392578,-0.802734,-0.587891,0.067017,0.172363,-0.752563,-0.632019,down
100694,-1.0,7.320312,-1.429688,0.613281,-0.855469,-0.640625,0.067017,0.172363,-0.752563,-0.632019,down
100699,-1.226563,7.46875,-1.085938,0.833984,-0.925781,-0.724609,0.067017,0.172363,-0.752563,-0.632019,down
100705,-1.34375,7.773437,-0.972656,1.0,-0.96875,-0.830078,0.067017,0.172363,-0.752563,-0.632019,down
100711,-1.535156,8.085938,-0.972656,1.125,-1.011719,-0.929687,0.047668,0.172913,-0.758606,-0.626343,down
100716,-1.6875,8.472656,-1.238281,1.125,-1.011719,-0.929687,0.047668,0.172913,-0.758606,-0.626343,down
100721,-1.726563,8.65625,-1.46875,1.125,-1.011719,-0.929687,0.043396,0.173523,-0.760071,-0.624695,down
100727,-1.765625,8.894531,-1.738281,1.068359,-1.056641,-1.208984,0.034119,0.17511,-0.762634,-0.621704,down
100732,-1.6875,9.039063,-1.8125,1.068359,-1.056641,-1.208984,0.029785,0.175903,-0.763489,-0.620667,down
100737,-1.609375,9.3125,-1.777344,1.068359,-1.056641,-1.208984,0.025452,0.176636,-0.764099,-0.619934,down
100742,-1.648438,9.765625,-1.851563,0.492187,-1.191406,-1.458984,0.025452,0.176636,-0.764099,-0.619934,down
100747,-1.765625,10.109375,-1.96875,0.492187,-1.191406,-1.458984,0.015625,0.17865,-0.764404,-0.619324,down
100753,-1.996094,10.769531,-2.160156,0.492187,-1.191406,-1.458984,0.011414,0.179565,-0.763977,-0.61969,down
100759,-2.03125,10.691406,-2.160156,-0.363281,-1.191406,-1.451172,0.011414,0.179565,-0.763977,-0.61969,down
100765,-2.070313,10.5,-2.160156,-0.699219,-1.181641,-1.421875,0.002625,0.181458,-0.761536,-0.622253,down
100771,-2.070313,9.808594,-1.851563,-0.699219,-1.181641,-1.421875,0.005432,-0.183105,0.757019,0.627258,down
100776,-2.03125,9.621094,-1.738281,-0.699219,-1.181641,-1.421875,0.005432,-0.183105,0.757019,0.627258,down
100781,-2.070313,9.382813,-1.621094,-1.822266,-1.203125,-1.525391,0.005432,-0.183105,0.757019,0.627258,down
100786,-2.070313,9.382813,-1.621094,-1.822266,-1.203125,-1.525391,0.013184,-0.184875,0.750549,0.634277,down
100791,-2.148438,8.964844,-1.621094,-1.822266,-1.203125,-1.525391,0.013184,-0.184875,0.750549,0.634277,down
100796,-2.300781,8.695313,-1.585938,-1.990234,-1.183594,-1.607422,0.020813,-0.187195,0.742737,0.642517,down
100801,-2.339844,8.65625,-1.46875,-2.152344,-1.109375,-1.847656,0.020813,-0.187195,0.742737,0.642517,down
100806,-2.414063,8.621094,-1.507813,-2.152344,-1.109375,-1.847656,0.028687,-0.190247,0.733887,0.651428,down
100811,-2.570313,8.773438,-1.507813,-2.152344,-1.109375,-1.847656,0.032715,-0.192017,0.729492,0.65564,down
100817,-2.644531,8.855469,-1.546875,-1.892578,-0.953125,-1.96875,0.041077,-0.196472,0.720825,0.663391,down
100822,-2.722656,9.0,-1.585938,-1.535156,-0.794922,-1.990234,0.045044,-0.198792,0.717102,0.666504,down
100827,-2.800781,9.003906,-1.585938,-1.535156,-0.794922,-1.990234,0.048767,-0.201111,0.713684,0.669189,down
100832,-2.800781,8.964844,-1.507813,-1.222656,-0.625,-2.025391,0.052979,-0.203979,0.710144,0.671753,down
100837,-2.835938,9.160156,-1.394531,-1.222656,-0.625,-2.025391,0.056946,-0.206787,0.70697,0.67395,down
100842,-2.875,9.347656,-1.238281,-1.007813,-0.462891,-2.072266,0.060425,-0.209473,0.704285,0.675598,down
100847,-3.183594,9.730469,-1.125,-1.007813,-0.462891,-2.072266,0.064514,-0.212891,0.701172,0.677429,down
100852,-3.296875,9.84375,-1.125,-1.007813,-0.462891,-2.072266,0.068176,-0.216248,0.698242,0.679016,down
100857,-3.601563,9.808594,-1.046875,-1.007813,-0.462891,-2.072266,0.071411,-0.219482,0.695435,0.680481,down
100862,-3.601563,9.65625,-0.855469,-1.007813,-0.462891,-2.072266,0.074341,-0.222656,0.692627,0.682068,down
100867,-3.71875,9.621094,-0.742187,-1.251953,-0.117188,-2.070313,0.074341,-0.222656,0.692627,0.682068,down
100872,-3.792969,9.539063,-0.589844,-1.251953,-0.117188,-2.070313,0.080627,-0.230164,0.685669,0.685852,down
100877,-4.023437,9.234375,-0.550781,-1.251953,-0.117188,-2.070313,0.080627,-0.230164,0.685669,0.685852,down
100882,-4.101562,9.160156,-0.625,-1.251953,-0.117188,-2.070313,0.083496,-0.234192,0.681824,0.687927,down
100887,-4.101562,9.160156,-0.625,-1.560547,0.140625,-2.238281,0.085999,-0.238037,0.678284,0.68988,down
100892,-4.179687,9.199219,-0.664062,-1.623047,0.21875,-2.347656,0.085999,-0.238037,0.678284,0.68988,down
100897,-4.40625,9.539063,-0.664062,-1.699219,0.330078,-2.484375,0.085999,-0.238037,0.678284,0.68988,down
100902,-4.753906,9.765625,-0.78125,-1.78125,0.472656,-2.640625,0.085999,-0.238037,0.678284,0.68988,down
100907,-4.980469,9.84375,-0.855469,-1.890625,0.621094,-2.792969,0.099548,-0.265686,0.654907,0.700378,down
100912,-5.328125,9.84375,-0.894531,-1.890625,0.621094,-2.792969,0.102173,-0.272644,0.649475,0.702454,down
100917,-5.671875,9.660156,-0.894531,-1.890625,0.621094,-2.792969,0.104614,-0.279419,0.644226,0.704285,down
100922,-5.902344,9.617188,-0.742187,-2.359375,1.044922,-3.466797,0.104614,-0.279419,0.644226,0.704285,down
100927,-6.09375,9.695313,-0.511719,-2.359375,1.044922,-3.466797,0.110107,-0.295288,0.631592,0.708374,down
100932,-6.589844,9.964844,0.140625,-2.359375,1.044922,-3.466797,0.11322,-0.303711,0.624634,0.710449,down
100937,-6.707031,9.964844,0.523437,-2.359375,1.044922,-3.466797,0.116516,-0.312256,0.61731,0.712646,down
100942,-6.898437,10.078125,0.789062,-2.359375,1.044922,-3.466797,0.116516,-0.312256,0.61731,0.712646,down
100947,-6.898437,10.078125,0.789062,-2.484375,0.832031,-3.474609,0.119385,-0.31958,0.610718,0.7146,down
100952,-7.089844,9.921875,1.210938,-2.533203,0.730469,-3.285156,0.119385,-0.31958,0.610718,0.7146,down
100957,-7.203125,9.578125,1.328125,-2.507813,0.607422,-3.074219,0.124756,-0.333374,0.596924,0.718994,down
100962,-7.203125,9.578125,1.328125,-2.404297,0.365234,-2.662109,0.127197,-0.339478,0.59021,0.721252,down
100967,-7.355469,9.042969,1.367188,-2.404297,0.365234,-2.662109,0.127197,-0.339478,0.59021,0.721252,down
100972,-7.433594,9.039063,1.25,-2.404297,0.365234,-2.662109,0.133667,-0.355408,0.570496,0.728271,down
100977,-7.511719,9.121094,1.058594,-2.404297,0.365234,-2.662109,0.133667,-0.355408,0.570496,0.728271,down
100982,-7.703125,9.199219,0.90625,-1.869141,0.396484,-2.1875,0.133667,-0.355408,0.570496,0.728271,down
100987,-7.855469,9.539063,0.445312,-1.869141,0.396484,-2.1875,0.138794,-0.36853,0.554504,0.733093,down
100992,-8.007813,9.65625,0.292969,-1.591797,0.552734,-2.087891,0.138794,-0.36853,0.554504,0.733093,down
100997,-8.085938,9.84375,0.253906,-1.591797,0.552734,-2.087891,0.140564,-0.373352,0.549194,0.734314,down
101002,-8.160156,9.882813,0.101563,-1.503906,0.765625,-2.013672,0.140564,-0.373352,0.549194,0.734314,down
101007,-8.277344,9.617188,-0.050781,-1.503906,0.765625,-2.013672,0.144348,-0.38678,0.536072,0.736328,down
101012,-8.316406,9.316406,-0.128906,-1.720703,0.935547,-1.962891,0.144348,-0.38678,0.536072,0.736328,down
101017,-8.238281,9.199219,-0.050781,-1.871094,1.003906,-1.923828,0.145203,-0.391907,0.531128,0.737,down
101022,-8.390625,9.15625,0.140625,-1.871094,1.003906,-1.923828,0.145935,-0.401917,0.521362,0.738525,down
101027,-8.582031,9.273438,0.371094,-1.871094,1.003906,-1.923828,0.145874,-0.407104,0.516174,0.739319,down
101032,-9.15625,9.042969,0.636719,-1.871094,1.003906,-1.923828,0.145874,-0.407104,0.516174,0.739319,down
101037,-9.316406,9.003906,0.945312,-2.205078,1.183594,-1.755859,0.144836,-0.41748,0.50531,0.741211,down
101042,-9.804688,9.003906,1.59375,-2.205078,1.183594,-1.755859,0.144836,-0.41748,0.50531,0.741211,down
101047,-9.804688,9.003906,1.59375,-2.224609,1.068359,-1.474609,0.143982,-0.422241,0.5,0.74231,down
101053,-10.042969,9.121094,1.976563,-2.222656,1.001953,-1.300781,0.143982,-0.422241,0.5,0.74231,down
101059,-10.042969,9.121094,1.976563,-2.146484,0.830078,-0.945312,0.140076,-0.434387,0.484863,0.746033,down
101064,-10.648438,8.699219,2.054688,-2.146484,0.830078,-0.945312,0.138489,-0.437561,0.480347,0.747437,down
101070,-10.609375,8.734375,2.015625,-1.945313,0.601562,-0.660156,0.138489,-0.437561,0.480347,0.747437,down
101075,-10.574219,8.8125,1.902344,-1.835938,0.533203,-0.556641,0.138489,-0.437561,0.480347,0.747437,down
101081,-10.613281,8.925781,1.402344,-1.835938,0.533203,-0.556641,0.133545,-0.444946,0.468201,0.751648,down
101086,-10.609375,9.042969,1.175781,-1.71875,0.517578,-0.375,0.131714,-0.447021,0.464539,0.752991,down
101092,-10.652344,9.121094,0.980469,-1.753906,0.53125,-0.285156,0.127502,-0.450806,0.45752,0.755737,down
101097,-10.5,9.042969,0.636719,-1.753906,0.53125,-0.285156,0.124878,-0.452637,0.453979,0.757202,down
101102,-10.574219,9.042969,0.40625,-1.753906,0.53125,-0.285156,0.121826,-0.454529,0.450378,0.758789,down
101107,-10.570313,8.964844,0.371094,-1.753906,0.53125,-0.285156,0.121826,-0.454529,0.450378,0.758789,down
101112,-10.460938,8.660156,0.214844,-2.349609,0.78125,0.201172,0.121826,-0.454529,0.450378,0.758789,down
101117,-10.382813,8.660156,0.214844,-2.349609,0.78125,0.201172,0.108704,-0.460571,0.437866,0.764465,down
101122,-10.269531,8.773438,0.40625,-2.349609,0.78125,0.201172,0.108704,-0.460571,0.437866,0.764465,down
101127,-10.269531,8.773438,0.40625,-2.699219,0.90625,0.738281,0.103882,-0.462158,0.434082,0.766296,down
101132,-10.265625,8.8125,0.828125,-2.699219,0.90625,0.738281,0.097961,-0.463623,0.430054,0.768433,down
101137,-10.347656,8.582031,1.75,-2.699219,0.90625,0.738281,0.091858,-0.464844,0.426575,0.770447,down
101142,-10.464844,8.507813,1.75,-2.4375,0.958984,1.943359,0.091858,-0.464844,0.426575,0.770447,down
101147,-10.574219,8.351563,1.902344,-2.4375,0.958984,1.943359,0.077576,-0.466125,0.420959,0.774292,down
101152,-10.574219,8.351563,1.902344,-2.4375,0.958984,1.943359,0.061523,-0.465698,0.417908,0.777588,down
101157,-10.574219,8.125,2.167969,-2.4375,0.958984,1.943359,0.061523,-0.465698,0.417908,0.777588,down
101162,-10.503906,8.007813,2.167969,-1.472656,0.808594,3.326172,0.061523,-0.465698,0.417908,0.777588,down
101168,-10.53125,7.894531,2.015625,-1.472656,0.808594,3.326172,0.03479,-0.461182,0.419739,0.781006,down
101174,-10.34375,7.738281,1.902344,-1.472656,0.808594,3.326172,0.024536,-0.458557,0.422302,0.781494,down
101180,-9.804688,7.472656,1.710938,-0.638672,0.78125,4.361328,0.014587,-0.455627,0.425659,0.781677,down
101186,-9.5,7.394531,1.558594,-0.382813,0.806641,4.699219,0.014587,-0.455627,0.425659,0.781677,down
101191,-9.042969,7.433594,1.441406,-0.382813,0.806641,4.699219,0.014587,-0.455627,0.425659,0.781677,down
101197,-8.777344,7.585937,1.441406,0.230469,0.84375,5.632812,0.014587,-0.455627,0.425659,0.781677,down
101202,-8.238281,7.738281,1.441406,0.230469,0.84375,5.632812,0.028259,0.440369,-0.446411,-0.778442,down
101207,-8.238281,7.738281,1.441406,0.417969,0.865234,5.910156,0.028259,0.440369,-0.446411,-0.778442,down
101213,-8.238281,7.738281,1.441406,0.417969,0.865234,5.910156,0.05249,0.430359,-0.460815,-0.774414,down
101218,-8.238281,7.738281,1.441406,0.710937,0.900391,6.433594,0.06488,0.424927,-0.468628,-0.77179,down
101223,-7.011719,7.589844,1.210938,0.710937,0.900391,6.433594,0.091309,0.41272,-0.485413,-0.76532,down
101229,-6.054687,7.125,0.90625,0.710937,0.900391,6.433594,0.104919,0.40625,-0.494019,-0.761475,down
101234,-5.824219,6.941406,0.867187,1.039063,1.039063,7.441406,0.104919,0.40625,-0.494019,-0.761475,down
101239,-5.59375,6.589844,0.867187,1.162109,1.050781,7.683594,0.104919,0.40625,-0.494019,-0.761475,down
101244,-5.25,6.4375,0.867187,1.162109,1.050781,7.683594,0.149048,0.384094,-0.522034,-0.746826,down
101250,-4.5625,5.9375,0.945312,1.162109,1.050781,7.683594,0.164001,0.376221,-0.531555,-0.740967,down
101257,-3.910156,5.019531,0.980469,1.449219,1.179688,8.314453,0.164001,0.376221,-0.531555,-0.740967,down
101263,-3.566406,4.710937,0.90625,1.707031,1.257813,8.65625,0.164001,0.376221,-0.531555,-0.740967,down
101268,-3.296875,4.367187,0.867187,1.707031,1.257813,8.65625,0.212585,0.349487,-0.562134,-0.718811,down
101273,-3.296875,4.367187,0.867187,2.148438,1.429688,8.904297,0.226562,0.341553,-0.570984,-0.711365,down
101278,-3.066406,3.945313,0.945312,2.148438,1.429688,8.904297,0.226562,0.341553,-0.570984,-0.711365,down
101283,-2.300781,3.257813,1.25,2.410156,1.449219,8.976563,0.258606,0.32312,-0.591675,-0.691833,down
101288,-1.574219,2.601563,1.976563,2.720703,1.451172,9.001953,0.289551,0.304626,-0.61322,-0.668823,down
101293,-1.191406,2.222656,2.28125,2.720703,1.451172,9.001953,0.304321,0.295898,-0.624023,-0.656067,down
101298,-0.5,1.800781,2.28125,2.720703,1.451172,9.001953,0.321106,0.286438,-0.636353,-0.640259,down
101303,-0.421875,1.457031,2.28125,2.720703,1.451172,9.001953,0.321106,0.286438,-0.636353,-0.640259,down
101308,-0.421875,1.457031,2.28125,4.011719,2.126953,8.878906,0.334045,0.27948,-0.645813,-0.627136,down
101313,-0.269531,0.882812,2.207031,4.306641,2.28125,8.798828,0.334045,0.27948,-0.645813,-0.627136,down
101318,0.152344,-0.035156,1.863281,4.306641,2.28125,8.798828,0.362732,0.264954,-0.667053,-0.59436,down
101323,0.226562,-0.265625,2.015625,4.771484,2.470703,8.621094,0.389526,0.252014,-0.687073,-0.559204,down
101328,0.226562,-0.417969,2.207031,4.771484,2.470703,8.621094,0.402954,0.245911,-0.696777,-0.540039,down
101333,0.378906,-0.726562,2.519531,4.771484,2.470703,8.621094,0.415649,0.24054,-0.705627,-0.521057,down
101338,0.226562,-0.800781,2.625,5.242187,3.109375,8.033203,0.415649,0.24054,-0.705627,-0.521057,down
101343,0.113281,-0.878906,2.746094,5.253906,3.183594,7.853516,0.429382,0.235046,-0.714661,-0.499695,down
101348,-0.230469,-1.148438,3.546875,5.253906,3.183594,7.853516,0.440674,0.230713,-0.721619,-0.481506,down
101354,-0.230469,-1.148438,3.546875,5.253906,3.207031,7.638672,0.452881,0.226196,-0.728882,-0.460937,down
101359,-0.84375,-1.414063,4.542969,5.253906,3.207031,7.638672,0.474854,0.218506,-0.74115,-0.421326,down
101364,-1.035156,-1.53125,4.964844,5.253906,3.207031,7.638672,0.485229,0.215149,-0.746765,-0.400757,down
101370,-1.765625,-2.027344,5.84375,5.253906,3.207031,7.638672,0.494385,0.212463,-0.751831,-0.381042,down
101375,-2.070313,-2.027344,6.082031,5.589844,2.845703,6.058594,0.494385,0.212463,-0.751831,-0.381042,down
101380,-2.222656,-2.027344,6.386719,5.626953,2.5625,5.640625,0.494385,0.212463,-0.751831,-0.381042,down
101385,-2.222656,-2.027344,6.386719,5.654297,2.208984,5.210937,0.516418,0.207458,-0.765564,-0.322693,down
101390,-2.570313,-1.605469,7.070312,5.654297,2.208984,5.210937,0.516418,0.207458,-0.765564,-0.322693,down
101395,-2.570313,-1.605469,7.070312,5.671875,1.794922,4.777344,0.52478,0.206543,-0.774536,-0.286316,down
101400,-3.21875,-0.800781,7.613281,5.544922,0.910156,3.890625,0.52478,0.206543,-0.774536,-0.286316,down
101406,-3.910156,-0.417969,6.886719,5.544922,0.910156,3.890625,0.527954,0.207153,-0.783691,-0.253357,down
101411,-4.0625,-0.304688,6.613281,5.060547,0.042969,3.072266,0.527954,0.207153,-0.783691,-0.253357,down
101416,-4.214844,-0.226562,6.421875,4.707031,-0.513672,2.65625,0.527954,0.207153,-0.783691,-0.253357,down
101422,-4.371094,-0.191406,6.1875,4.707031,-0.513672,2.65625,0.523987,0.208984,-0.797607,-0.213562,down
101427,-4.523437,-0.265625,5.804687,4.707031,-0.513672,2.65625,0.523987,0.208984,-0.797607,-0.213562,down
101432,-4.597656,-0.304688,5.382812,3.828125,-1.578125,1.769531,0.523987,0.208984,-0.797607,-0.213562,down
101437,-4.597656,-0.304688,5.382812,2.685547,-2.681641,0.798828,0.509644,0.210754,-0.812439,-0.18927,down
101442,-5.214844,-0.917969,4.160156,2.685547,-2.681641,0.798828,0.502502,0.211243,-0.817688,-0.185242,down
101447,-5.710937,-0.992187,3.394531,2.685547,-2.681641,0.798828,0.502502,0.211243,-0.817688,-0.185242,down
101453,-6.054687,-1.148438,2.9375,0.724609,-4.228516,-0.835937,0.475708,0.213013,-0.832703,-0.18689,down
101458,-6.898437,-1.683594,2.285156,0.724609,-4.228516,-0.835937,0.464478,0.214233,-0.837524,-0.192017,down
101463,-7.320312,-2.105469,1.976563,-0.925781,-5.539062,-2.851563,0.464478,0.214233,-0.837524,-0.192017,down
101468,-7.890625,-1.953125,1.671875,-1.242188,-5.931641,-3.605469,0.452637,0.216064,-0.841919,-0.199097,down
101474,-8.960938,-1.109375,1.328125,-1.242188,-5.931641,-3.605469,0.424011,0.222717,-0.849976,-0.219421,down
101479,-10.1875,-0.726562,0.714844,-1.242188,-5.931641,-3.605469,0.409546,0.227356,-0.852966,-0.230286,down
101484,-10.1875,-0.726562,0.714844,-1.242188,-5.931641,-3.605469,0.409546,0.227356,-0.852966,-0.230286,down
101489,-10.1875,-0.726562,0.714844,-1.693359,-7.730469,-7.017578,0.391663,0.234009,-0.855835,-0.243774,down
101494,-12.035156,1.152344,-1.277344,-1.693359,-7.730469,-7.017578,0.391663,0.234009,-0.855835,-0.243774,down
101499,-12.417969,2.53125,-2.273438,-1.789063,-8.287109,-7.943359,0.351868,0.250793,-0.859497,-0.273132,down
101505,-14.027344,6.4375,-4.113281,-1.789063,-8.287109,-7.943359,0.302734,0.273438,-0.85968,-0.307495,down
101511,-15.480469,9.273438,-6.71875,-2.261719,-10.501953,-10.90625,0.302734,0.273438,-0.85968,-0.307495,down
101517,-16.472656,11.339844,-8.824219,-2.990234,-10.837891,-11.958984,0.302734,0.273438,-0.85968,-0.307495,down
101522,-17.933594,12.683594,-11.121094,-3.751953,-11.238281,-12.935547,0.302734,0.273438,-0.85968,-0.307495,down
101528,-18.964844,14.175781,-13.34375,-4.712891,-11.673828,-14.099609,0.142456,0.346619,-0.8255,-0.422058,down
101533,-20.347656,18.429687,-16.449219,-4.712891,-11.673828,-14.099609,0.142456,0.346619,-0.8255,-0.422058,down
101538,-21.417969,20.152344,-16.371094,-8.050781,-13.300781,-17.669922,0.101318,0.364807,-0.806702,-0.453735,down
101543,-21.609375,23.25,-16.449219,-8.050781,-13.300781,-17.669922,0.062805,0.38147,-0.785156,-0.483765,down
101549,-21.683594,28.460937,-17.980469,-8.050781,-13.300781,-17.669922,0.014099,-0.417725,0.72699,0.544739,down
101555,-21.570312,29.042969,-19.625,-8.050781,-13.300781,-17.669922,0.056091,-0.440979,0.684326,0.578003,down
101560,-22.257812,26.894531,-19.820312,-12.863281,-10.193359,-22.300781,0.056091,-0.440979,0.684326,0.578003,down
101566,-23.566406,21.800781,-18.476562,-13.785156,-8.986328,-22.683594,0.056091,-0.440979,0.684326,0.578003,down
101572,-24.332031,20.152344,-15.453125,-14.0625,-7.949219,-22.431641,0.056091,-0.440979,0.684326,0.578003,down
101578,-24.976562,19.386719,-11.007813,-13.423828,-7.529297,-21.480469,0.056091,-0.440979,0.684326,0.578003,down
101583,-26.625,21.109375,-3.421875,-12.0,-7.242187,-19.726562,0.056091,-0.440979,0.684326,0.578003,down
101589,-27.351562,19.652344,-0.855469,-10.138672,-6.490234,-17.365234,0.252441,-0.569275,0.343811,0.702881,down
101594,-26.628906,16.894531,0.484375,-5.886719,-4.421875,-11.402344,0.271301,-0.576416,0.305847,0.70752,down
101600,-23.714844,11.609375,1.75,-5.886719,-4.421875,-11.402344,0.284546,-0.579712,0.280762,0.710022,down
101605,-22.828125,8.925781,1.976563,-1.386719,-2.792969,-5.068359,0.284546,-0.579712,0.280762,0.710022,down
101611,-20.730469,5.519531,1.058594,-1.386719,-2.792969,-5.068359,0.284546,-0.579712,0.280762,0.710022,down
101616,-19.804687,4.867187,-0.207031,3.660156,-0.28125,-0.324219,0.284546,-0.579712,0.280762,0.710022,down
101621,-19.042969,7.011719,-4.417969,3.660156,-0.28125,-0.324219,0.315918,-0.572388,0.270691,0.706604,down
101627,-19.15625,8.660156,-4.265625,9.027344,2.294922,2.269531,0.315918,-0.572388,0.270691,0.706604,down
101632,-18.777344,10.0,-2.964844,9.900391,2.798828,2.876953,0.315918,-0.572388,0.270691,0.706604,down
101637,-18.695312,12.222656,-1.507813,10.244141,3.46875,3.095703,0.315918,-0.572388,0.270691,0.706604,down
101643,-18.921875,13.066406,-1.96875,10.722656,4.333984,2.972656,0.315918,-0.572388,0.270691,0.706604,down
101648,-18.65625,13.484375,-2.234375,10.220703,3.763672,2.347656,0.315918,-0.572388,0.270691,0.706604,down
101653,-18.046875,13.101563,-1.507813,10.220703,3.763672,2.347656,0.354004,-0.543823,0.407043,0.642883,down
101658,-16.402344,10.882813,1.558594,8.998047,2.513672,2.015625,0.354004,-0.543823,0.407043,0.642883,down
101663,-15.214844,9.695313,2.746094,8.998047,2.513672,2.015625,0.366455,-0.531555,0.445679,0.620117,down
101669,-13.5625,8.542969,3.816406,6.060547,0.705078,1.279297,0.376892,-0.519348,0.470032,0.606018,down
101674,-11.191406,6.628906,4.429687,6.060547,0.705078,1.279297,0.379639,-0.515381,0.476868,0.602356,down
101680,-9.84375,5.363281,3.433594,6.060547,0.705078,1.279297,0.380066,-0.513428,0.48053,0.60083,down
101685,-9.84375,5.363281,3.433594,-0.398438,0.464844,0.892578,0.37854,-0.512878,0.4823,0.600891,down
101690,-9.769531,4.90625,2.398438,-0.398438,0.464844,0.892578,0.375488,-0.513184,0.482544,0.602356,down
101695,-8.777344,4.714844,2.554688,-0.398438,0.464844,0.892578,0.375488,-0.513184,0.482544,0.602356,down
101700,-8.777344,4.714844,2.554688,-3.248047,0.041016,1.238281,0.375488,-0.513184,0.482544,0.602356,down
101705,-8.777344,3.679688,2.363281,-3.248047,0.041016,1.238281,0.375488,-0.513184,0.482544,0.602356,down
101711,-8.894531,2.261719,1.367188,-5.144531,0.054687,1.400391,0.375488,-0.513184,0.482544,0.602356,down
101716,-8.617188,1.839844,0.445312,-5.398437,0.013672,1.332031,0.375488,-0.513184,0.482544,0.602356,down
101722,-8.390625,1.457031,-0.625,-4.683594,-0.0625,1.126953,0.375488,-0.513184,0.482544,0.602356,down
101727,-7.929687,1.382813,-1.199219,-3.242188,-0.291016,0.896484,0.375488,-0.513184,0.482544,0.602356,down
101733,-7.585937,1.726563,-0.433594,-0.240234,-0.810547,0.658203,0.375488,-0.513184,0.482544,0.602356,down
101738,-7.242187,1.957031,0.371094,-0.240234,-0.810547,0.658203,0.32135,-0.526672,0.446716,0.647949,down
101744,-7.128906,2.148438,0.714844,1.550781,-0.267578,0.539062,0.32135,-0.526672,0.446716,0.647949,down
101749,-7.285156,2.570313,0.023437,1.550781,-0.267578,0.539062,0.324219,-0.52002,0.453125,0.647339,down
101755,-7.433594,2.605469,-0.359375,1.550781,-0.267578,0.539062,0.32605,-0.5177,0.457275,0.645447,down
101760,-7.546875,2.722656,-0.589844,2.154297,-0.009766,0.576172,0.327881,-0.51532,0.461426,0.643433,down
101765,-7.703125,3.144531,-0.511719,2.154297,-0.009766,0.576172,0.329529,-0.513062,0.465332,0.641602,down
101771,-7.929687,3.335938,-0.359375,2.154297,-0.009766,0.576172,0.33136,-0.510376,0.469666,0.639587,down
101777,-8.128906,3.566406,-0.242187,1.929688,0.003906,0.683594,0.33136,-0.510376,0.469666,0.639587,down
101783,-8.355469,3.71875,-0.089844,1.621094,0.035156,0.730469,0.33136,-0.510376,0.469666,0.639587,down
101788,-8.695313,4.0625,0.0625,1.621094,0.035156,0.730469,0.33136,-0.510376,0.469666,0.639587,down
101794,-8.933594,4.101562,-0.050781,0.261719,0.169922,0.830078,0.33136,-0.510376,0.469666,0.639587,down
101799,-9.121094,3.984375,-0.472656,0.261719,0.169922,0.830078,0.333496,-0.500916,0.485168,0.634399,down
101804,-9.277344,3.910156,-0.550781,0.261719,0.169922,0.830078,0.330261,-0.499512,0.487549,0.635376,down
101809,-9.421875,3.832031,-0.359375,-0.601562,0.132812,0.947266,0.330261,-0.499512,0.487549,0.635376,down
101814,-9.542969,3.71875,-0.242187,-0.804687,0.126953,0.962891,0.32782,-0.498962,0.488098,0.636658,down
101819,-9.582031,3.640625,-0.207031,-0.882812,0.164062,0.953125,0.325256,-0.498596,0.488281,0.638062,down
101825,-9.582031,3.640625,-0.207031,-0.929687,0.171875,0.927734,0.319824,-0.498291,0.488159,0.641235,down
101830,-9.699219,3.757813,-0.320313,-0.914062,0.173828,0.880859,0.316711,-0.498169,0.487915,0.643005,down
101835,-9.660156,3.566406,-0.320313,-0.914062,0.173828,0.880859,0.314026,-0.498108,0.487732,0.64447,down
101842,-9.699219,3.375,-0.472656,-0.914062,0.173828,0.880859,0.31189,-0.498047,0.487732,0.645569,down
101847,-9.660156,3.296875,-0.589844,-0.263672,0.21875,0.652344,0.31189,-0.498047,0.487732,0.645569,down
101852,-9.542969,3.179688,-0.511719,0.037109,0.177734,0.580078,0.31189,-0.498047,0.487732,0.645569,down
101857,-9.582031,3.066406,-0.167969,0.318359,0.142578,0.525391,0.31189,-0.498047,0.487732,0.645569,down
101862,-9.808594,2.988281,-0.089844,0.550781,0.175781,0.488281,0.31189,-0.498047,0.487732,0.645569,down
101867,-9.808594,3.144531,0.023437,0.628906,0.154297,0.464844,0.31189,-0.498047,0.487732,0.645569,down
101872,-9.699219,3.179688,0.214844,0.623047,0.099609,0.4375,0.31189,-0.498047,0.487732,0.645569,down
101877,-9.582031,3.410156,0.332031,0.623047,0.099609,0.4375,0.31189,-0.498047,0.487732,0.645569,down
101882,-9.582031,3.527344,0.292969,0.623047,0.099609,0.4375,0.306885,-0.493042,0.498047,0.643982,down
101887,-9.503906,3.601563,0.445312,0.537109,0.068359,0.369141,0.306885,-0.493042,0.498047,0.643982,down
101892,-9.464844,3.527344,0.445312,0.537109,0.068359,0.369141,0.306763,-0.491516,0.500793,0.643005,down
101897,-9.382813,3.488281,0.40625,0.537109,0.068359,0.369141,0.306763,-0.491516,0.500793,0.643005,down
101902,-9.34375,3.375,0.40625,0.537109,0.068359,0.369141,0.306152,-0.490295,0.502869,0.642639,down
101907,-9.34375,3.257813,0.484375,0.007813,0.0,0.433594,0.306152,-0.490295,0.502869,0.642639,down
101912,-9.277344,3.144531,0.445312,0.007813,0.0,0.433594,0.304749,-0.489136,0.504089,0.64325,down
101917,-9.082031,3.144531,0.445312,-0.115234,-0.048828,0.443359,0.304749,-0.489136,0.504089,0.64325,down
101922,-9.078125,3.066406,0.445312,-0.107422,-0.056641,0.451172,0.304749,-0.489136,0.504089,0.64325,down
101927,-9.0,3.027344,0.40625,-0.060547,-0.060547,0.447266,0.304749,-0.489136,0.504089,0.64325,down
101932,-8.894531,3.066406,0.40625,-0.060547,-0.060547,0.447266,0.304749,-0.489136,0.504089,0.64325,down
101938,-8.851563,3.144531,0.445312,-0.060547,-0.060547,0.447266,0.301147,-0.486145,0.506104,0.645691,down
101944,-8.8125,3.179688,0.40625,0.103516,-0.099609,0.453125,0.301147,-0.486145,0.506104,0.645691,down
101949,-8.777344,3.144531,0.371094,0.103516,-0.099609,0.453125,0.2995,-0.483643,0.507996,0.646729,down
101954,-8.777344,3.105469,0.40625,0.103516,-0.099609,0.453125,0.2995,-0.483643,0.507996,0.646729,down
101959,-8.734375,3.027344,0.484375,0.191406,-0.158203,0.435547,0.2995,-0.483643,0.507996,0.646729,down
101964,-8.660156,2.988281,0.445312,0.183594,-0.181641,0.417969,0.298889,-0.481934,0.509399,0.647278,down
101970,-8.472656,2.988281,0.40625,0.183594,-0.181641,0.417969,0.29834,-0.480042,0.510681,0.647888,down
101975,-8.390625,3.027344,0.40625,0.080078,-0.179687,0.396484,0.298035,-0.479126,0.51123,0.648254,down
101980,-8.355469,3.066406,0.371094,0.027344,-0.169922,0.384766,0.297668,-0.478271,0.511719,0.648682,down
101986,-8.273438,2.988281,0.40625,0.027344,-0.169922,0.384766,0.297302,-0.4776,0.512024,0.649109,down
101992,-8.238281,3.027344,0.332031,-0.082031,-0.146484,0.386719,0.297302,-0.4776,0.512024,0.649109,down
101997,-8.277344,3.027344,0.332031,-0.105469,-0.132812,0.398438,0.296143,-0.476196,0.512512,0.650269,down
102002,-8.195313,2.953125,0.292969,-0.128906,-0.130859,0.402344,0.296143,-0.476196,0.512512,0.650269,down
102008,-8.195313,2.875,0.292969,-0.095703,-0.125,0.408203,0.296143,-0.476196,0.512512,0.650269,down
102013,-8.160156,2.875,0.332031,-0.066406,-0.128906,0.410156,0.296143,-0.476196,0.512512,0.650269,down
102019,-8.050781,2.914063,0.253906,-0.056641,-0.109375,0.412109,0.296143,-0.476196,0.512512,0.650269,down
102024,-8.128906,2.914063,0.179687,0.015625,-0.029297,0.388672,0.293091,-0.472961,0.513916,0.652954,down
102029,-8.195313,2.988281,0.214844,0.015625,-0.029297,0.388672,0.292419,-0.472351,0.514343,0.65332,down
102035,-8.238281,3.066406,0.140625,0.046875,0.0,0.384766,0.29126,-0.471252,0.515442,0.653748,down
102041,-8.390625,3.21875,0.140625,0.046875,0.0,0.384766,0.290833,-0.470825,0.516052,0.653809,down
102047,-8.433594,3.027344,0.0625,0.103516,0.058594,0.339844,0.290283,-0.470337,0.516663,0.65387,down
102052,-8.429688,2.953125,0.023437,0.115234,0.060547,0.322266,0.290283,-0.470337,0.516663,0.65387,down
102057,-8.46875,3.027344,0.214844,0.128906,0.027344,0.296875,0.290283,-0.470337,0.516663,0.65387,down
102062,-8.46875,3.066406,0.140625,0.144531,0.035156,0.265625,0.290283,-0.470337,0.516663,0.65387,down
102068,-8.433594,3.179688,0.179687,0.140625,0.050781,0.224609,0.290283,-0.470337,0.516663,0.65387,down
102073,-8.390625,3.410156,0.179687,0.140625,0.050781,0.224609,0.288391,-0.468506,0.519653,0.653687,down
102078,-8.472656,3.601563,0.140625,0.140625,0.050781,0.224609,0.288147,-0.468323,0.520142,0.653564,down
102083,-8.511719,3.640625,0.101563,0.126953,0.111328,0.150391,0.288147,-0.468323,0.520142,0.653564,down
102089,-8.542969,3.71875,0.0625,0.181641,0.097656,0.130859,0.288147,-0.468323,0.520142,0.653564,down
102094,-8.617188,3.792969,0.179687,0.179687,0.089844,0.107422,0.287415,-0.468018,0.521729,0.652832,down
102099,-8.695313,3.832031,0.253906,0.179687,0.089844,0.107422,0.287292,-0.467896,0.522278,0.652527,down
102104,-8.738281,3.792969,0.214844,0.125,0.0625,0.078125,0.287292,-0.467896,0.522278,0.652527,down
102109,-8.738281,3.832031,0.214844,0.125,0.0625,0.078125,0.287048,-0.467712,0.523193,0.651978,down
102115,-8.660156,3.910156,0.253906,0.125,0.0625,0.078125,0.286865,-0.467529,0.523804,0.651733,down
102120,-8.582031,3.832031,0.292969,0.007813,0.001953,0.042969,0.286804,-0.467407,0.523987,0.651672,down
102126,-8.621094,3.832031,0.292969,0.007813,0.001953,0.042969,0.286682,-0.467407,0.523987,0.651733,down
102131,-8.621094,3.871094,0.214844,0.007813,0.001953,0.042969,0.286499,-0.467407,0.523926,0.651917,down
102137,-8.539063,3.949219,0.292969,0.007813,0.001953,0.042969,0.286255,-0.467468,0.523743,0.652161,down
102142,-8.578125,3.949219,0.292969,-0.189453,-0.041016,0.037109,0.286255,-0.467468,0.523743,0.652161,down
102147,-8.621094,3.949219,0.140625,-0.212891,-0.019531,0.041016,0.286255,-0.467468,0.523743,0.652161,down
102152,-8.578125,3.949219,0.101563,-0.232422,-0.019531,0.042969,0.286255,-0.467468,0.523743,0.652161,down
102158,-8.511719,3.910156,0.140625,-0.228516,-0.029297,0.052734,0.286255,-0.467468,0.523743,0.652161,down
102164,-8.472656,3.949219,0.101563,-0.208984,-0.027344,0.0625,0.286255,-0.467468,0.523743,0.652161,down
102170,-8.433594,3.871094,0.0625,-0.177734,0.023437,0.072266,0.286255,-0.467468,0.523743,0.652161,down
102175,-8.46875,3.832031,0.0625,-0.177734,0.023437,0.072266,0.283569,-0.467896,0.521729,0.654541,down
102180,-8.472656,3.757813,0.023437,-0.177734,0.023437,0.072266,0.283569,-0.467896,0.521729,0.654541,down
102185,-8.472656,3.757813,0.023437,-0.105469,0.074219,0.066406,0.282898,-0.46814,0.521606,0.654785,down
102190,-8.578125,3.679688,0.101563,-0.105469,0.074219,0.066406,0.282532,-0.468262,0.521606,0.654846,down
102195,-8.617188,3.71875,0.140625,-0.058594,0.099609,0.039063,0.282532,-0.468262,0.521606,0.654846,down
102200,-8.539063,3.910156,0.179687,-0.058594,0.099609,0.039063,0.281921,-0.468628,0.521667,0.654785,down
102206,-8.578125,4.101562,0.179687,-0.058594,0.099609,0.039063,0.281738,-0.468811,0.52179,0.654663,down
102211,-8.621094,4.175781,0.140625,0.019531,0.150391,0.011719,0.281494,-0.469055,0.521912,0.65448,down
102216,-8.65625,4.253906,0.179687,0.044922,0.152344,0.011719,0.281311,-0.469238,0.522156,0.654236,down
102222,-8.695313,4.332031,0.253906,0.044922,0.152344,0.011719,0.281128,-0.469421,0.5224,0.653992,down
