timestamp,ax,ay,az,gx,gy,gz,qw,qx,qy,qz,label
356156,5.671875,7.597656,-2.578125,0.195312,0.027344,-0.162109,0.308655,-0.080139,-0.796204,-0.514221,down
356162,5.671875,7.597656,-2.539063,0.195312,0.027344,-0.162109,0.307434,-0.076355,-0.798157,-0.512451,down
356167,5.632812,7.519531,-2.539063,0.144531,-0.001953,-0.171875,0.307434,-0.076355,-0.798157,-0.512451,down
356173,5.59375,7.515625,-2.503906,0.144531,-0.001953,-0.171875,0.306702,-0.07489,-0.79895,-0.511902,down
356178,5.59375,7.476562,-2.539063,0.076172,-0.013672,-0.185547,0.306335,-0.074402,-0.799194,-0.51178,down
356183,5.59375,7.480469,-2.503906,0.046875,-0.005859,-0.193359,0.30603,-0.073975,-0.799316,-0.51178,down
356188,5.59375,7.554687,-2.464844,0.046875,-0.005859,-0.193359,0.305725,-0.073547,-0.799438,-0.511902,down
356194,5.519531,7.59375,-2.539063,0.046875,-0.005859,-0.193359,0.305359,-0.073059,-0.7995,-0.512024,down
356200,5.480469,7.558594,-2.503906,-0.039063,-0.001953,-0.232422,0.304993,-0.072571,-0.799561,-0.512268,down
356206,5.519531,7.554687,-2.503906,-0.052734,-0.009766,-0.248047,0.304993,-0.072571,-0.799561,-0.512268,down
356211,5.519531,7.515625,-2.503906,-0.052734,-0.009766,-0.248047,0.304993,-0.072571,-0.799561,-0.512268,down
356216,5.519531,7.558594,-2.539063,-0.052734,-0.011719,-0.246094,0.304993,-0.072571,-0.799561,-0.512268,down
356221,5.480469,7.554687,-2.578125,-0.050781,-0.003906,-0.246094,0.304993,-0.072571,-0.799561,-0.512268,down
356226,5.519531,7.632812,-2.65625,-0.050781,-0.003906,-0.246094,0.302979,-0.07019,-0.799683,-0.513611,down
356231,5.558594,7.597656,-2.695313,-0.025391,0.025391,-0.216797,0.302979,-0.07019,-0.799683,-0.513611,down
356236,5.519531,7.59375,-2.65625,-0.001953,0.03125,-0.193359,0.302979,-0.07019,-0.799683,-0.513611,down
356241,5.441406,7.636719,-2.65625,-0.001953,0.03125,-0.193359,0.302185,-0.068787,-0.799805,-0.514099,down
356246,5.402344,7.632812,-2.65625,0.074219,0.078125,-0.150391,0.302185,-0.068787,-0.799805,-0.514099,down
356251,5.402344,7.632812,-2.617188,0.074219,0.078125,-0.150391,0.301941,-0.06781,-0.799988,-0.514038,down
356256,5.402344,7.554687,-2.464844,0.166016,0.074219,-0.095703,0.301941,-0.06781,-0.799988,-0.514038,down
356261,5.367187,7.519531,-2.425781,0.166016,0.074219,-0.095703,0.301941,-0.066895,-0.800415,-0.51355,down
356266,5.328125,7.554687,-2.347656,0.166016,0.074219,-0.095703,0.301941,-0.066895,-0.800415,-0.51355,down
356271,5.25,7.554687,-2.347656,0.285156,0.072266,-0.033203,0.301941,-0.066895,-0.800415,-0.51355,down
356276,5.25,7.554687,-2.3125,0.302734,0.052734,-0.021484,0.301941,-0.066895,-0.800415,-0.51355,down
356281,5.25,7.636719,-2.3125,0.302734,0.052734,-0.021484,0.301941,-0.066895,-0.800415,-0.51355,down
356286,5.25,7.636719,-2.347656,0.302734,0.052734,-0.021484,0.302246,-0.065002,-0.802124,-0.510864,down
356291,5.25,7.554687,-2.386719,0.283203,0.003906,0.003906,0.302246,-0.065002,-0.802124,-0.510864,down
356296,5.25,7.558594,-2.425781,0.246094,-0.025391,0.001953,0.302246,-0.065002,-0.802124,-0.510864,down
356301,5.289062,7.558594,-2.425781,0.246094,-0.025391,0.001953,0.302246,-0.065002,-0.802124,-0.510864,down
356306,5.328125,7.515625,-2.464844,0.246094,-0.025391,0.001953,0.302002,-0.064209,-0.803589,-0.50885,down
356311,5.328125,7.480469,-2.503906,0.107422,-0.058594,-0.021484,0.302002,-0.064209,-0.803589,-0.50885,down
356316,5.367187,7.476562,-2.539063,0.107422,-0.058594,-0.021484,0.301636,-0.064026,-0.804016,-0.508423,down
356321,5.402344,7.402344,-2.539063,0.107422,-0.058594,-0.021484,0.301636,-0.064026,-0.804016,-0.508423,down
356327,5.441406,7.371094,-2.578125,0.107422,-0.058594,-0.021484,0.301025,-0.063965,-0.80426,-0.508423,down
356333,5.402344,7.328125,-2.539063,-0.042969,-0.095703,-0.078125,0.301025,-0.063965,-0.80426,-0.508423,down
356338,5.441406,7.292969,-2.539063,-0.042969,-0.095703,-0.078125,0.299866,-0.063843,-0.804382,-0.508911,down
356343,5.441406,7.292969,-2.539063,-0.091797,-0.125,-0.119141,0.299866,-0.063843,-0.804382,-0.508911,down
356348,5.441406,7.292969,-2.539063,-0.091797,-0.125,-0.119141,0.29895,-0.063721,-0.804443,-0.509399,down
356353,5.441406,7.292969,-2.578125,-0.091797,-0.125,-0.119141,0.298462,-0.06366,-0.804443,-0.509644,down
356358,5.441406,7.332031,-2.539063,-0.089844,-0.148437,-0.154297,0.298462,-0.06366,-0.804443,-0.509644,down
356363,5.480469,7.332031,-2.578125,-0.089844,-0.148437,-0.154297,0.297852,-0.063599,-0.804504,-0.509949,down
356368,5.480469,7.371094,-2.578125,-0.095703,-0.160156,-0.158203,0.297852,-0.063599,-0.804504,-0.509949,down
356373,5.480469,7.253906,-2.578125,-0.095703,-0.160156,-0.158203,0.296143,-0.063354,-0.804626,-0.510742,down
356378,5.480469,7.292969,-2.578125,-0.107422,-0.171875,-0.177734,0.296143,-0.063354,-0.804626,-0.510742,down
356383,5.480469,7.332031,-2.578125,-0.107422,-0.171875,-0.177734,0.2948,-0.063171,-0.804687,-0.511414,down
356388,5.480469,7.332031,-2.617188,-0.115234,-0.191406,-0.185547,0.2948,-0.063171,-0.804687,-0.511414,down
356393,5.519531,7.402344,-2.617188,-0.115234,-0.191406,-0.185547,0.293457,-0.063049,-0.80481,-0.512085,down
356398,5.558594,7.367187,-2.617188,-0.140625,-0.199219,-0.189453,0.293457,-0.063049,-0.80481,-0.512085,down
356403,5.558594,7.441406,-2.730469,-0.140625,-0.199219,-0.189453,0.292725,-0.062988,-0.80481,-0.512451,down
356408,5.558594,7.441406,-2.730469,-0.148437,-0.199219,-0.181641,0.291992,-0.062927,-0.80481,-0.512878,down
356413,5.558594,7.519531,-2.808594,-0.148437,-0.199219,-0.181641,0.291382,-0.062866,-0.80481,-0.513245,down
356418,5.558594,7.558594,-2.769531,-0.126953,-0.208984,-0.179687,0.289856,-0.062805,-0.804932,-0.513977,down
356423,5.558594,7.636719,-2.847656,-0.126953,-0.208984,-0.179687,0.289856,-0.062805,-0.804932,-0.513977,down
356428,5.519531,7.636719,-2.886719,-0.126953,-0.208984,-0.179687,0.288513,-0.062744,-0.805054,-0.514526,down
356433,5.519531,7.714844,-2.886719,-0.126953,-0.208984,-0.179687,0.287903,-0.062805,-0.805115,-0.514709,down
356438,5.519531,7.714844,-2.847656,-0.126953,-0.208984,-0.179687,0.287903,-0.062805,-0.805115,-0.514709,down
356443,5.519531,7.671875,-2.921875,-0.037109,-0.197266,-0.115234,0.287903,-0.062805,-0.805115,-0.514709,down
356448,5.480469,7.597656,-2.960938,-0.033203,-0.175781,-0.091797,0.286743,-0.062866,-0.805359,-0.515015,down
356454,5.480469,7.597656,-2.960938,-0.017578,-0.166016,-0.087891,0.285706,-0.062927,-0.805603,-0.515198,down
356459,5.480469,7.554687,-2.960938,-0.017578,-0.166016,-0.087891,0.285156,-0.062927,-0.805725,-0.515259,down
356465,5.441406,7.597656,-2.960938,-0.017578,-0.166016,-0.087891,0.284729,-0.062866,-0.805847,-0.51532,down
356470,5.480469,7.636719,-2.960938,-0.033203,-0.115234,-0.103516,0.284363,-0.062866,-0.805908,-0.515442,down
356475,5.402344,7.671875,-2.921875,-0.041016,-0.109375,-0.111328,0.284363,-0.062866,-0.805908,-0.515442,down
356480,5.328125,7.671875,-2.886719,-0.041016,-0.109375,-0.111328,0.284363,-0.062866,-0.805908,-0.515442,down
356486,5.328125,7.59375,-2.808594,-0.078125,-0.09375,-0.148437,0.284363,-0.062866,-0.805908,-0.515442,down
356491,5.289062,7.636719,-2.730469,-0.111328,-0.101563,-0.160156,0.284363,-0.062866,-0.805908,-0.515442,down
356497,5.328125,7.636719,-2.730469,-0.111328,-0.101563,-0.160156,0.282166,-0.062256,-0.80603,-0.516602,down
356503,5.25,7.675781,-2.65625,-0.111328,-0.101563,-0.160156,0.281067,-0.06189,-0.805908,-0.517456,down
356508,5.210937,7.675781,-2.65625,-0.111328,-0.101563,-0.160156,0.281067,-0.06189,-0.805908,-0.517456,down
356513,5.289062,7.714844,-2.695313,-0.203125,-0.126953,-0.244141,0.279785,-0.061462,-0.805664,-0.518555,down
356518,5.289062,7.714844,-2.730469,-0.203125,-0.126953,-0.244141,0.279785,-0.061462,-0.805664,-0.518555,down
356523,5.25,7.714844,-2.730469,-0.302734,-0.142578,-0.271484,0.279053,-0.061279,-0.80542,-0.519287,down
356528,5.289062,7.714844,-2.730469,-0.302734,-0.142578,-0.271484,0.27832,-0.061096,-0.805237,-0.52002,down
356534,5.289062,7.710937,-2.808594,-0.320313,-0.128906,-0.271484,0.277588,-0.060913,-0.804993,-0.520813,down
356540,5.289062,7.710937,-2.769531,-0.320313,-0.128906,-0.271484,0.276245,-0.060547,-0.804443,-0.5224,down
356546,5.25,7.714844,-2.730469,-0.308594,-0.115234,-0.265625,0.276245,-0.060547,-0.804443,-0.5224,down
356551,5.210937,7.714844,-2.695313,-0.283203,-0.115234,-0.255859,0.276245,-0.060547,-0.804443,-0.5224,down
356556,5.136719,7.714844,-2.617188,-0.246094,-0.113281,-0.25,0.276245,-0.060547,-0.804443,-0.5224,down
356561,5.171875,7.671875,-2.617188,-0.210937,-0.107422,-0.230469,0.276245,-0.060547,-0.804443,-0.5224,down
356566,5.136719,7.597656,-2.539063,-0.169922,-0.115234,-0.21875,0.276245,-0.060547,-0.804443,-0.5224,down
356571,5.097656,7.558594,-2.503906,-0.119141,-0.117188,-0.201172,0.276245,-0.060547,-0.804443,-0.5224,down
356577,5.058594,7.554687,-2.464844,-0.119141,-0.117188,-0.201172,0.271973,-0.059204,-0.803284,-0.52655,down
356583,5.058594,7.554687,-2.503906,-0.050781,-0.101563,-0.191406,0.271973,-0.059204,-0.803284,-0.52655,down
356588,5.058594,7.597656,-2.464844,-0.050781,-0.101563,-0.191406,0.270996,-0.058777,-0.803345,-0.527039,down
356593,5.019531,7.636719,-2.503906,-0.050781,-0.101563,-0.191406,0.270508,-0.058533,-0.803345,-0.527283,down
356598,5.019531,7.675781,-2.539063,-0.050781,-0.101563,-0.191406,0.269897,-0.058228,-0.803406,-0.527527,down
356604,5.019531,7.710937,-2.578125,-0.070312,-0.080078,-0.212891,0.269897,-0.058228,-0.803406,-0.527527,down
356609,5.019531,7.710937,-2.578125,-0.125,-0.076172,-0.238281,0.268494,-0.057434,-0.803406,-0.528381,down
356614,5.058594,7.789062,-2.578125,-0.160156,-0.078125,-0.257813,0.268494,-0.057434,-0.803406,-0.528381,down
356619,5.058594,7.820312,-2.617188,-0.160156,-0.078125,-0.257813,0.267395,-0.056702,-0.803162,-0.529358,down
356624,5.019531,7.820312,-2.617188,-0.160156,-0.078125,-0.257813,0.266846,-0.056335,-0.802979,-0.529907,down
356630,5.058594,7.859375,-2.695313,-0.160156,-0.078125,-0.257813,0.266113,-0.055908,-0.802734,-0.530701,down
356635,5.019531,7.902344,-2.65625,-0.263672,-0.089844,-0.341797,0.265442,-0.055542,-0.80249,-0.531433,down
356640,5.019531,7.898437,-2.464844,-0.263672,-0.089844,-0.341797,0.264832,-0.055176,-0.802307,-0.532104,down
356646,4.945312,7.9375,-2.503906,-0.263672,-0.089844,-0.341797,0.264038,-0.05481,-0.802063,-0.532898,down
356651,4.90625,7.941406,-2.464844,-0.296875,-0.125,-0.351563,0.263306,-0.054443,-0.801819,-0.533691,down
356656,4.90625,7.980469,-2.464844,-0.310547,-0.140625,-0.349609,0.263306,-0.054443,-0.801819,-0.533691,down
356661,4.867187,7.863281,-2.425781,-0.310547,-0.140625,-0.349609,0.263306,-0.054443,-0.801819,-0.533691,down
356667,4.867187,7.863281,-2.425781,-0.310547,-0.140625,-0.349609,0.260803,-0.053467,-0.800964,-0.536255,down
356672,4.828125,7.863281,-2.425781,-0.337891,-0.181641,-0.373047,0.260803,-0.053467,-0.800964,-0.536255,down
356677,4.789062,7.820312,-2.425781,-0.357422,-0.185547,-0.384766,0.260803,-0.053467,-0.800964,-0.536255,down
356682,4.753906,7.820312,-2.464844,-0.357422,-0.185547,-0.384766,0.260803,-0.053467,-0.800964,-0.536255,down
356687,4.753906,7.820312,-2.464844,-0.357422,-0.185547,-0.384766,0.257019,-0.052246,-0.799744,-0.540039,down
356692,4.753906,7.824219,-2.425781,-0.414062,-0.179687,-0.416016,0.257019,-0.052246,-0.799744,-0.540039,down
356697,4.753906,7.820312,-2.503906,-0.414062,-0.179687,-0.416016,0.255066,-0.051575,-0.79895,-0.542175,down
356702,4.714844,7.824219,-2.539063,-0.414062,-0.179687,-0.416016,0.255066,-0.051575,-0.79895,-0.542175,down
356707,4.675781,7.820312,-2.578125,-0.414062,-0.179687,-0.416016,0.253113,-0.050781,-0.798096,-0.544373,down
356712,4.675781,7.863281,-2.539063,-0.402344,-0.150391,-0.441406,0.253113,-0.050781,-0.798096,-0.544373,down
356718,4.636719,7.898437,-2.539063,-0.402344,-0.150391,-0.441406,0.250305,-0.049438,-0.796936,-0.547546,down
356723,4.636719,7.898437,-2.578125,-0.402344,-0.150391,-0.441406,0.250305,-0.049438,-0.796936,-0.547546,down
356728,4.597656,7.898437,-2.539063,-0.296875,-0.101563,-0.419922,0.250305,-0.049438,-0.796936,-0.547546,down
356733,4.5625,7.9375,-2.503906,-0.296875,-0.101563,-0.419922,0.248596,-0.048462,-0.796265,-0.549377,down
356739,4.523437,7.980469,-2.464844,-0.25,-0.095703,-0.412109,0.246948,-0.047363,-0.795776,-0.550964,down
356744,4.484375,7.980469,-2.386719,-0.154297,-0.107422,-0.373047,0.246948,-0.047363,-0.795776,-0.550964,down
356749,4.40625,8.019531,-2.3125,-0.154297,-0.107422,-0.373047,0.245422,-0.046326,-0.795593,-0.552002,down
356754,4.371094,8.019531,-2.273438,-0.154297,-0.107422,-0.373047,0.24469,-0.045898,-0.795532,-0.552368,down
356759,4.371094,7.976562,-2.121094,-0.0625,-0.160156,-0.302734,0.24469,-0.045898,-0.795532,-0.552368,down
356764,4.253906,7.9375,-2.121094,-0.0625,-0.160156,-0.302734,0.243103,-0.045166,-0.795593,-0.55304,down
356769,4.253906,7.902344,-2.082031,-0.070312,-0.193359,-0.273438,0.243103,-0.045166,-0.795593,-0.55304,down
356774,4.214844,7.863281,-2.082031,-0.070312,-0.193359,-0.273438,0.241577,-0.044678,-0.795715,-0.55365,down
356779,4.179687,7.859375,-2.121094,-0.111328,-0.203125,-0.248047,0.241577,-0.044678,-0.795715,-0.55365,down
356784,4.253906,7.898437,-2.273438,-0.117188,-0.212891,-0.238281,0.240784,-0.044495,-0.795715,-0.553955,down
356790,4.253906,7.898437,-2.273438,-0.123047,-0.21875,-0.236328,0.239258,-0.04425,-0.795715,-0.554687,down
356795,4.292969,8.015625,-2.386719,-0.105469,-0.201172,-0.228516,0.238403,-0.044128,-0.795715,-0.555054,down
356800,4.253906,8.175781,-2.65625,-0.105469,-0.201172,-0.228516,0.237671,-0.044006,-0.795715,-0.555359,down
356805,4.292969,8.171875,-2.730469,-0.105469,-0.201172,-0.228516,0.237061,-0.043884,-0.795715,-0.555603,down
356811,4.332031,8.246094,-2.769531,-0.105469,-0.201172,-0.228516,0.23645,-0.043701,-0.795776,-0.555786,down
356817,4.292969,8.246094,-2.808594,0.009766,-0.15625,-0.203125,0.23645,-0.043701,-0.795776,-0.555786,down
356822,4.292969,8.320313,-2.769531,0.068359,-0.144531,-0.185547,0.23645,-0.043701,-0.795776,-0.555786,down
356828,4.253906,8.402344,-2.617188,0.068359,-0.144531,-0.185547,0.23468,-0.043091,-0.796326,-0.555847,down
356834,4.214844,8.4375,-2.578125,0.228516,-0.154297,-0.080078,0.23468,-0.043091,-0.796326,-0.555847,down
356839,4.179687,8.28125,-2.425781,0.228516,-0.154297,-0.080078,0.233765,-0.042786,-0.797058,-0.555237,down
356845,4.214844,8.136719,-2.347656,0.228516,-0.154297,-0.080078,0.233032,-0.042847,-0.797913,-0.55426,down
356850,4.214844,8.136719,-2.347656,0.273438,-0.201172,0.046875,0.232666,-0.042969,-0.798401,-0.55365,down
356855,4.179687,8.019531,-2.347656,0.273438,-0.201172,0.046875,0.232361,-0.043274,-0.79895,-0.552979,down
356861,4.140625,7.976562,-2.425781,0.273438,-0.201172,0.046875,0.232056,-0.043518,-0.799438,-0.552429,down
356866,4.214844,7.976562,-2.464844,0.318359,-0.230469,0.109375,0.232056,-0.043518,-0.799438,-0.552429,down
356872,4.179687,7.980469,-2.464844,0.333984,-0.253906,0.128906,0.232056,-0.043518,-0.799438,-0.552429,down
356878,4.179687,8.015625,-2.539063,0.351563,-0.238281,0.128906,0.232056,-0.043518,-0.799438,-0.552429,down
356883,4.179687,8.015625,-2.617188,0.388672,-0.232422,0.128906,0.232056,-0.043518,-0.799438,-0.552429,down
356888,4.179687,7.976562,-2.617188,0.396484,-0.240234,0.123047,0.232056,-0.043518,-0.799438,-0.552429,down
356893,4.214844,7.941406,-2.65625,0.425781,-0.259766,0.103516,0.232056,-0.043518,-0.799438,-0.552429,down
356898,4.214844,7.859375,-2.578125,0.425781,-0.259766,0.103516,0.232056,-0.043518,-0.799438,-0.552429,down
356903,4.253906,7.859375,-2.578125,0.425781,-0.259766,0.103516,0.229614,-0.046265,-0.804749,-0.545471,down
356908,4.179687,7.820312,-2.578125,0.425781,-0.259766,0.103516,0.229248,-0.046509,-0.80542,-0.544556,down
356914,4.179687,7.792969,-2.503906,0.416016,-0.265625,0.029297,0.229248,-0.046509,-0.80542,-0.544556,down
356919,4.140625,7.789062,-2.539063,0.349609,-0.261719,-0.03125,0.228394,-0.046814,-0.806824,-0.542847,down
356924,4.101562,7.753906,-2.578125,0.349609,-0.261719,-0.03125,0.227844,-0.046936,-0.807495,-0.542053,down
356929,4.0625,7.675781,-2.503906,0.267578,-0.294922,-0.095703,0.227234,-0.046997,-0.808167,-0.541321,down
356935,4.023437,7.558594,-2.425781,0.267578,-0.294922,-0.095703,0.225891,-0.047119,-0.809143,-0.540344,down
356940,3.949219,7.441406,-2.347656,0.267578,-0.294922,-0.095703,0.225037,-0.047119,-0.809631,-0.539978,down
356945,3.949219,7.441406,-2.347656,0.134766,-0.324219,-0.210937,0.224182,-0.047058,-0.809998,-0.539795,down
356950,3.949219,7.332031,-2.3125,0.089844,-0.337891,-0.255859,0.223206,-0.046997,-0.810425,-0.539673,down
356956,3.871094,7.136719,-2.234375,0.089844,-0.337891,-0.255859,0.222168,-0.046875,-0.81073,-0.539612,down
356962,3.832031,7.136719,-2.234375,0.050781,-0.365234,-0.324219,0.222168,-0.046875,-0.81073,-0.539612,down
356968,3.792969,7.09375,-2.195313,0.041016,-0.380859,-0.363281,0.222168,-0.046875,-0.81073,-0.539612,down
356973,3.792969,7.097656,-2.273438,0.029297,-0.398438,-0.388672,0.218506,-0.046204,-0.811646,-0.539795,down
356978,3.71875,7.097656,-2.234375,0.029297,-0.398438,-0.388672,0.217163,-0.045898,-0.811951,-0.539917,down
356984,3.71875,7.25,-2.386719,0.029297,-0.398438,-0.388672,0.214233,-0.045166,-0.8125,-0.540344,down
356989,3.71875,7.289062,-2.464844,-0.033203,-0.445312,-0.515625,0.214233,-0.045166,-0.8125,-0.540344,down
356994,3.71875,7.398437,-2.65625,-0.046875,-0.445312,-0.546875,0.212646,-0.0448,-0.812744,-0.540588,down
356999,3.757813,7.4375,-2.730469,-0.046875,-0.445312,-0.546875,0.210876,-0.04425,-0.812988,-0.540955,down
357005,3.757813,7.519531,-2.847656,-0.046875,-0.445312,-0.546875,0.207581,-0.043274,-0.813416,-0.541687,down
357011,3.757813,7.519531,-2.921875,-0.046875,-0.445312,-0.546875,0.205933,-0.042725,-0.813538,-0.542114,down
357016,3.71875,7.476562,-2.921875,-0.103516,-0.427734,-0.640625,0.204041,-0.041992,-0.813721,-0.542664,down
357021,3.71875,7.515625,-3.0,-0.115234,-0.416016,-0.669922,0.204041,-0.041992,-0.813721,-0.542664,down
357027,3.679688,7.476562,-2.960938,-0.115234,-0.416016,-0.669922,0.200684,-0.040588,-0.813965,-0.54364,down
357033,3.640625,7.4375,-2.960938,-0.126953,-0.386719,-0.736328,0.200684,-0.040588,-0.813965,-0.54364,down
357038,3.527344,7.332031,-2.808594,-0.119141,-0.378906,-0.769531,0.200684,-0.040588,-0.813965,-0.54364,down
357043,3.527344,7.332031,-2.808594,-0.130859,-0.376953,-0.818359,0.195129,-0.03772,-0.814209,-0.545471,down
357049,3.449219,7.25,-2.617188,-0.130859,-0.376953,-0.818359,0.195129,-0.03772,-0.814209,-0.545471,down
357055,3.410156,7.253906,-2.65625,-0.150391,-0.351563,-0.908203,0.189148,-0.033875,-0.814392,-0.547607,down
357060,3.296875,7.332031,-2.503906,-0.150391,-0.351563,-0.908203,0.187134,-0.032532,-0.814392,-0.54834,down
357065,3.21875,7.398437,-2.539063,-0.189453,-0.390625,-1.0625,0.187134,-0.032532,-0.814392,-0.54834,down
357070,3.183594,7.519531,-2.464844,-0.201172,-0.408203,-1.109375,0.184753,-0.030823,-0.814392,-0.549255,down
357076,3.144531,7.824219,-2.539063,-0.201172,-0.408203,-1.109375,0.180298,-0.027893,-0.814331,-0.550964,down
357081,3.027344,8.175781,-2.617188,-0.201172,-0.408203,-1.109375,0.177795,-0.026367,-0.814331,-0.55188,down
357086,2.992188,8.398438,-2.695313,-0.289063,-0.539062,-1.091797,0.177795,-0.026367,-0.814331,-0.55188,down
357091,2.992188,8.398438,-2.695313,-0.333984,-0.552734,-1.054688,0.172607,-0.023621,-0.814087,-0.554016,down
357097,3.066406,8.859375,-3.308594,-0.333984,-0.552734,-1.054688,0.170044,-0.022461,-0.813904,-0.555176,down
357103,3.144531,9.046875,-3.5,-0.466797,-0.607422,-0.949219,0.170044,-0.022461,-0.813904,-0.555176,down
357108,3.257813,9.203125,-3.691406,-0.527344,-0.623047,-0.875,0.170044,-0.022461,-0.813904,-0.555176,down
357113,3.335938,9.390625,-4.339844,-0.560547,-0.607422,-0.804687,0.170044,-0.022461,-0.813904,-0.555176,down
357118,3.410156,9.429688,-4.6875,-0.570312,-0.542969,-0.712891,0.170044,-0.022461,-0.813904,-0.555176,down
357123,3.527344,9.585938,-5.03125,-0.570312,-0.542969,-0.712891,0.158203,-0.019104,-0.811646,-0.562012,down
357128,3.601563,9.742188,-5.375,-0.460937,-0.355469,-0.501953,0.158203,-0.019104,-0.811646,-0.562012,down
357133,3.757813,9.933594,-5.644531,-0.332031,-0.234375,-0.375,0.158203,-0.019104,-0.811646,-0.562012,down
357138,4.023437,10.273438,-6.027344,-0.332031,-0.234375,-0.375,0.158203,-0.019104,-0.811646,-0.562012,down
357144,4.101562,10.429688,-6.066406,-0.332031,-0.234375,-0.375,0.154175,-0.017822,-0.810364,-0.565002,down
357149,4.253906,10.621094,-6.027344,0.332031,0.136719,-0.007813,0.154175,-0.017822,-0.810364,-0.565002,down
357154,4.332031,10.734375,-5.949219,0.607422,0.267578,0.123047,0.154175,-0.017822,-0.810364,-0.565002,down
357160,4.253906,10.621094,-5.835937,1.222656,0.492187,0.341797,0.154175,-0.017822,-0.810364,-0.565002,down
357165,4.371094,10.695313,-5.683594,1.222656,0.492187,0.341797,0.158813,-0.015869,-0.815125,-0.556824,down
357170,4.332031,10.621094,-5.492187,1.222656,0.492187,0.341797,0.160583,-0.01532,-0.816956,-0.55365,down
357175,4.253906,10.550781,-5.335937,1.841797,0.722656,0.5625,0.163025,-0.014709,-0.819275,-0.5495,down
357180,4.214844,10.46875,-5.183594,1.902344,0.792969,0.609375,0.165466,-0.014099,-0.821533,-0.545471,down
357185,4.0625,10.167969,-4.839844,1.902344,0.792969,0.609375,0.165466,-0.014099,-0.821533,-0.545471,down
357190,3.984375,10.007813,-4.722656,1.902344,0.792969,0.609375,0.170471,-0.013,-0.825684,-0.537659,down
357195,3.949219,9.929688,-4.648437,1.710938,0.84375,0.638672,0.17334,-0.01239,-0.827759,-0.533508,down
357200,3.949219,9.8125,-4.457031,1.710938,0.84375,0.638672,0.175964,-0.011841,-0.82959,-0.529785,down
357205,3.910156,9.550781,-4.074219,1.710938,0.84375,0.638672,0.178284,-0.011414,-0.831055,-0.526733,down
357210,3.910156,9.472656,-3.882813,1.232422,0.714844,0.525391,0.180786,-0.010986,-0.832581,-0.523437,down
357215,3.871094,9.394531,-3.691406,1.232422,0.714844,0.525391,0.182739,-0.01062,-0.833618,-0.521118,down
357220,3.949219,9.203125,-3.382813,1.232422,0.714844,0.525391,0.184875,-0.010193,-0.834656,-0.518738,down
357225,3.949219,9.164063,-3.34375,0.716797,0.585937,0.310547,0.184875,-0.010193,-0.834656,-0.518738,down
357230,3.910156,9.089844,-3.269531,0.716797,0.585937,0.310547,0.186768,-0.009766,-0.835449,-0.516785,down
357235,3.910156,9.089844,-3.269531,0.498047,0.546875,0.234375,0.188171,-0.009399,-0.835876,-0.515564,down
357240,3.832031,8.628906,-3.039063,0.349609,0.509766,0.160156,0.189514,-0.008972,-0.836182,-0.514587,down
357245,3.832031,8.628906,-3.039063,0.220703,0.46875,0.087891,0.190674,-0.008423,-0.836304,-0.513977,down
357250,3.757813,8.476563,-3.0,0.220703,0.46875,0.087891,0.192505,-0.007324,-0.836182,-0.51355,down
357255,3.679688,8.285156,-2.921875,-0.089844,0.314453,-0.123047,0.192505,-0.007324,-0.836182,-0.51355,down
357260,3.679688,8.285156,-2.921875,-0.089844,0.314453,-0.123047,0.193542,-0.006165,-0.835632,-0.514038,down
357265,3.601563,7.976562,-2.695313,-0.261719,0.236328,-0.255859,0.193787,-0.005371,-0.835205,-0.514648,down
357270,3.566406,7.902344,-2.617188,-0.261719,0.236328,-0.255859,0.193909,-0.0047,-0.834778,-0.51532,down
357275,3.449219,7.820312,-2.617188,-0.351563,0.177734,-0.378906,0.193909,-0.0047,-0.834778,-0.51532,down
357280,3.410156,7.753906,-2.539063,-0.351563,0.177734,-0.378906,0.193909,-0.003845,-0.834229,-0.516235,down
357285,3.375,7.75,-2.503906,-0.351563,0.177734,-0.378906,0.19342,-0.002075,-0.833008,-0.518372,down
357290,3.296875,7.714844,-2.503906,-0.351563,0.177734,-0.378906,0.19342,-0.002075,-0.833008,-0.518372,down
357295,3.183594,7.671875,-2.425781,-0.552734,0.117188,-0.541016,0.19342,-0.002075,-0.833008,-0.518372,down
357300,3.183594,7.671875,-2.425781,-0.552734,0.117188,-0.541016,0.191772,0.000977,-0.830505,-0.522949,down
357305,3.105469,7.753906,-2.464844,-0.552734,0.117188,-0.541016,0.191772,0.000977,-0.830505,-0.522949,down
357310,3.066406,7.820312,-2.425781,-0.833984,0.001953,-0.78125,0.191772,0.000977,-0.830505,-0.522949,down
357315,2.992188,7.980469,-2.425781,-0.833984,0.001953,-0.78125,0.189087,0.004456,-0.827393,-0.528809,down
357320,3.027344,8.015625,-2.464844,-0.833984,0.001953,-0.78125,0.187805,0.005859,-0.82605,-0.531372,down
357325,2.953125,7.976562,-2.464844,-0.833984,0.001953,-0.78125,0.187805,0.005859,-0.82605,-0.531372,down
357330,2.914063,8.058594,-2.425781,-1.074219,-0.082031,-0.935547,0.187805,0.005859,-0.82605,-0.531372,down
357336,2.914063,8.175781,-2.425781,-1.091797,-0.089844,-0.935547,0.185242,0.008362,-0.823364,-0.536316,down
357341,2.875,8.207031,-2.425781,-1.091797,-0.089844,-0.935547,0.182312,0.011047,-0.820374,-0.54187,down
357346,2.875,8.324219,-2.386719,-1.091797,-0.089844,-0.935547,0.180847,0.012329,-0.818848,-0.544617,down
357351,2.875,8.324219,-2.386719,-1.091797,-0.089844,-0.935547,0.179565,0.013428,-0.817627,-0.546875,down
357357,2.835938,8.4375,-2.425781,-1.091797,-0.089844,-0.935547,0.177979,0.014771,-0.816101,-0.549622,down
357362,2.796875,8.480469,-2.425781,-0.916016,-0.125,-0.863281,0.176697,0.015808,-0.814941,-0.551697,down
357368,2.761719,8.667969,-2.503906,-0.828125,-0.128906,-0.835937,0.176697,0.015808,-0.814941,-0.551697,down
357373,2.683594,8.746094,-2.539063,-0.755859,-0.136719,-0.822266,0.17395,0.018066,-0.812683,-0.555847,down
357378,2.683594,8.820313,-2.617188,-0.689453,-0.154297,-0.800781,0.17395,0.018066,-0.812683,-0.555847,down
357383,2.683594,8.9375,-2.617188,-0.630859,-0.166016,-0.789062,0.17395,0.018066,-0.812683,-0.555847,down
357388,2.644531,9.164063,-2.730469,-0.582031,-0.173828,-0.78125,0.17395,0.018066,-0.812683,-0.555847,down
357393,2.605469,9.285156,-2.847656,-0.537109,-0.173828,-0.789062,0.17395,0.018066,-0.812683,-0.555847,down
357398,2.570313,9.363281,-2.886719,-0.507812,-0.195312,-0.796875,0.17395,0.018066,-0.812683,-0.555847,down
357404,2.570313,9.429688,-2.886719,-0.507812,-0.195312,-0.796875,0.165466,0.024719,-0.8078,-0.565186,down
357410,2.605469,9.664063,-3.0,-0.507812,-0.195312,-0.796875,0.165466,0.024719,-0.8078,-0.565186,down
357415,2.570313,9.742188,-3.039063,-0.539062,-0.246094,-0.857422,0.160461,0.028259,-0.805542,-0.569702,down
357420,2.53125,9.746094,-3.0,-0.539062,-0.246094,-0.857422,0.160461,0.028259,-0.805542,-0.569702,down
357425,2.53125,9.773438,-3.0,-0.539062,-0.246094,-0.857422,0.156921,0.030701,-0.803833,-0.572937,down
357430,2.492188,9.816406,-3.0,-0.539062,-0.246094,-0.857422,0.156921,0.030701,-0.803833,-0.572937,down
357435,2.492188,9.929688,-2.960938,-0.683594,-0.285156,-1.003906,0.153076,0.033325,-0.801941,-0.576477,down
357440,2.453125,10.164063,-2.847656,-0.683594,-0.285156,-1.003906,0.153076,0.033325,-0.801941,-0.576477,down
357445,2.453125,10.234375,-2.769531,-0.78125,-0.328125,-1.109375,0.151062,0.034607,-0.801025,-0.578247,down
357450,2.414063,10.273438,-2.769531,-0.78125,-0.328125,-1.109375,0.148804,0.036133,-0.799866,-0.580322,down
357455,2.414063,10.273438,-2.769531,-0.779297,-0.320313,-1.148438,0.14679,0.037537,-0.798828,-0.582214,down
357460,2.339844,10.429688,-2.730469,-0.835937,-0.328125,-1.169922,0.14679,0.037537,-0.798828,-0.582214,down
357465,2.339844,10.429688,-2.730469,-0.902344,-0.341797,-1.191406,0.142212,0.040588,-0.796326,-0.586487,down
357470,2.222656,10.472656,-2.695313,-1.044922,-0.304688,-1.246094,0.142212,0.040588,-0.796326,-0.586487,down
357475,2.070313,10.507813,-2.808594,-1.044922,-0.304688,-1.246094,0.137512,0.043762,-0.793396,-0.591309,down
357480,1.996094,10.390625,-2.847656,-1.044922,-0.304688,-1.246094,0.135132,0.045532,-0.791687,-0.594055,down
357486,1.804688,10.167969,-3.0,-1.257813,-0.226562,-1.320313,0.135132,0.045532,-0.791687,-0.594055,down
357491,1.6875,9.929688,-3.191406,-1.257813,-0.226562,-1.320313,0.128174,0.050842,-0.78595,-0.602722,down
357497,1.6875,10.660156,-2.539063,-1.257813,-0.226562,-1.320313,0.125732,0.05249,-0.784241,-0.605347,down
357502,1.6875,11.039063,-2.386719,-1.021484,-0.478516,-1.464844,0.125732,0.05249,-0.784241,-0.605347,down
357507,1.574219,11.351563,-2.503906,-0.890625,-0.478516,-1.505859,0.125732,0.05249,-0.784241,-0.605347,down
357512,1.574219,11.351563,-2.503906,-0.769531,-0.427734,-1.566406,0.116699,0.058167,-0.779602,-0.612549,down
357518,1.0,12.5,-3.191406,-0.769531,-0.427734,-1.566406,0.113525,0.060425,-0.778381,-0.614502,down
357523,0.652344,12.992188,-3.269531,-0.472656,-0.511719,-1.625,0.113525,0.060425,-0.778381,-0.614502,down
357529,0.617187,13.375,-3.460938,-0.308594,-0.630859,-1.683594,0.113525,0.060425,-0.778381,-0.614502,down
357534,0.5,14.339844,-3.765625,-0.308594,-0.630859,-1.683594,0.102661,0.067017,-0.776245,-0.618408,down
357539,0.347656,15.105469,-4.226562,-0.091797,-0.824219,-1.761719,0.102661,0.067017,-0.776245,-0.618408,down
357544,0.195312,15.75,-4.878906,-0.115234,-0.787109,-1.773438,0.102661,0.067017,-0.776245,-0.618408,down
357549,0.230469,16.371094,-5.527344,-0.115234,-0.787109,-1.773438,0.089783,0.073547,-0.775208,-0.620972,down
357555,0.347656,16.941406,-6.292969,-0.115234,-0.787109,-1.773438,0.081848,0.077209,-0.773437,-0.62384,down
357560,0.421875,17.019531,-6.523437,-0.115234,-0.787109,-1.773438,0.081848,0.077209,-0.773437,-0.62384,down
357565,0.5,16.171875,-6.449219,-1.074219,-0.751953,-1.482422,0.081848,0.077209,-0.773437,-0.62384,down
357570,0.882812,16.519531,-6.292969,-1.074219,-0.751953,-1.482422,0.074829,0.080139,-0.769775,-0.628784,down
357575,0.921875,16.445312,-5.988281,-1.074219,-0.751953,-1.482422,0.07196,0.081299,-0.766846,-0.632568,down
357581,0.960937,16.136719,-5.796875,-2.076172,-0.40625,-0.841797,0.068848,0.08252,-0.76001,-0.64093,down
357586,1.074219,14.109375,-5.492187,-2.076172,-0.40625,-0.841797,0.068848,0.083008,-0.755737,-0.645935,down
357591,1.113281,12.992188,-4.839844,-2.076172,-0.40625,-0.841797,0.068848,0.083008,-0.755737,-0.645935,down
357596,1.113281,12.992188,-4.839844,-3.078125,0.326172,0.046875,0.069763,0.083069,-0.751099,-0.651184,down
357601,1.035156,12.230469,-3.996094,-3.154297,0.417969,0.363281,0.069763,0.083069,-0.751099,-0.651184,down
357606,0.617187,10.089844,-2.042969,-3.037109,0.539062,0.646484,0.073853,0.082031,-0.740845,-0.662537,down
357611,0.347656,9.546875,-1.734375,-2.763672,0.707031,0.894531,0.080505,0.079956,-0.73175,-0.672058,down
357616,0.308594,9.285156,-1.46875,-1.912109,0.808594,1.291016,0.080505,0.079956,-0.73175,-0.672058,down
357621,0.195312,8.859375,-0.742187,-1.912109,0.808594,1.291016,0.088745,0.077087,-0.72522,-0.678406,down
357626,0.117188,8.785156,-0.394531,-1.912109,0.808594,1.291016,0.09314,0.0755,-0.72345,-0.679871,down
357631,0.078125,8.859375,-0.011719,-1.912109,0.808594,1.291016,0.09314,0.0755,-0.72345,-0.679871,down
357637,0.078125,9.089844,0.371094,-0.134766,0.818359,1.574219,0.101013,0.072693,-0.723145,-0.679443,down
357643,0.078125,9.128906,0.410156,-0.134766,0.818359,1.574219,0.105286,0.071228,-0.724243,-0.677734,down
357649,0.078125,9.089844,0.410156,1.056641,0.779297,1.642578,0.105286,0.071228,-0.724243,-0.677734,down
357654,0.078125,8.976563,0.371094,1.226563,0.738281,1.626953,0.105286,0.071228,-0.724243,-0.677734,down
357660,0.078125,8.820313,0.21875,1.306641,0.681641,1.59375,0.105286,0.071228,-0.724243,-0.677734,down
357666,0.078125,8.746094,0.253906,0.933594,0.498047,1.544922,0.105286,0.071228,-0.724243,-0.677734,down
357671,0.15625,8.746094,0.332031,0.933594,0.498047,1.544922,0.127563,0.062073,-0.735352,-0.66272,down
357676,0.269531,8.707031,0.371094,0.933594,0.498047,1.544922,0.131042,0.059937,-0.735718,-0.661743,down
357681,0.421875,8.585938,0.371094,0.933594,0.498047,1.544922,0.134277,0.057861,-0.735168,-0.661926,down
357686,0.578125,8.4375,0.410156,-1.3125,0.507812,1.496094,0.134277,0.057861,-0.735168,-0.661926,down
357691,0.652344,8.285156,0.410156,-1.3125,0.507812,1.496094,0.141479,0.053162,-0.731018,-0.665405,down
357696,0.84375,7.753906,0.332031,-1.3125,0.507812,1.496094,0.141479,0.053162,-0.731018,-0.665405,down
357701,0.84375,7.753906,0.332031,-1.3125,0.507812,1.496094,0.141479,0.053162,-0.731018,-0.665405,down
357706,0.882812,7.636719,0.410156,-2.253906,0.453125,1.478516,0.141479,0.053162,-0.731018,-0.665405,down
357711,1.074219,7.253906,1.023438,-2.341797,0.371094,1.478516,0.141479,0.053162,-0.731018,-0.665405,down
357716,1.113281,7.132812,1.058594,-2.341797,0.371094,1.478516,0.159302,0.038818,-0.712402,-0.682373,down
357721,1.152344,7.015625,1.097656,-2.341797,0.371094,1.478516,0.159302,0.038818,-0.712402,-0.682373,down
357726,1.113281,6.871094,1.136719,-1.896484,0.207031,1.511719,0.165344,0.032837,-0.706299,-0.687561,down
357731,1.34375,6.605469,1.25,-1.896484,0.207031,1.511719,0.165344,0.032837,-0.706299,-0.687561,down
357736,1.457031,6.527344,1.214844,-1.265625,0.087891,1.59375,0.171448,0.026367,-0.702026,-0.690674,down
357741,1.535156,6.449219,1.175781,-1.265625,0.087891,1.59375,0.171448,0.026367,-0.702026,-0.690674,down
357746,1.574219,6.367187,1.136719,-0.699219,0.013672,1.693359,0.17749,0.019836,-0.699768,-0.691711,down
357751,1.804688,6.410156,0.984375,-0.699219,0.013672,1.693359,0.18042,0.016541,-0.699158,-0.691589,down
357756,1.957031,6.328125,0.984375,-0.164062,-0.068359,1.792969,0.18042,0.016541,-0.699158,-0.691589,down
357761,2.070313,6.289062,0.867187,-0.164062,-0.068359,1.792969,0.183655,0.012939,-0.698853,-0.691162,down
357766,2.339844,6.484375,0.449219,-0.078125,-0.027344,1.833984,0.183655,0.012939,-0.698853,-0.691162,down
357772,2.492188,6.5625,0.179687,-0.078125,-0.027344,1.833984,0.193481,0.00293,-0.698608,-0.688843,down
357777,2.796875,6.753906,0.101563,-0.078125,-0.027344,1.833984,0.196777,-0.000122,-0.698547,-0.687988,down
357783,2.953125,7.175781,0.027344,-0.044922,0.226562,2.082031,0.200562,-0.003357,-0.698364,-0.687073,down
357788,3.027344,7.789062,-0.050781,-0.044922,0.226562,2.082031,0.204712,-0.006592,-0.69812,-0.686096,down
357793,3.027344,7.789062,-0.050781,-0.044922,0.226562,2.082031,0.204712,-0.006592,-0.69812,-0.686096,down
357799,3.027344,7.789062,-0.050781,-0.039063,0.414062,2.314453,0.214111,-0.013489,-0.69751,-0.683716,down
357804,3.027344,7.789062,-0.050781,0.119141,0.335938,2.820313,0.219299,-0.017456,-0.697327,-0.682129,down
357809,2.875,9.085938,-0.203125,0.119141,0.335938,2.820313,0.22522,-0.022156,-0.697266,-0.680176,down
357814,2.605469,8.480469,-0.320313,0.119141,0.335938,2.820313,0.231812,-0.027344,-0.697205,-0.677795,down
357819,2.222656,7.820312,-0.511719,0.191406,0.841797,4.263672,0.231812,-0.027344,-0.697205,-0.677795,down
357824,1.535156,5.683594,-1.351563,0.072266,1.304688,4.847656,0.231812,-0.027344,-0.697205,-0.677795,down
357830,1.535156,4.300781,-1.621094,0.072266,1.304688,4.847656,0.260498,-0.045532,-0.694519,-0.669067,down
357836,1.609375,2.503906,-1.429688,-0.166016,2.019531,5.816406,0.260498,-0.045532,-0.694519,-0.669067,down
357841,3.105469,-1.023438,-0.355469,-0.166016,2.019531,5.816406,0.298828,-0.065796,-0.687561,-0.658508,down
357846,3.792969,-2.210938,0.21875,-0.166016,2.019531,5.816406,0.298828,-0.065796,-0.687561,-0.658508,down
357851,4.566406,-2.515625,0.601562,1.462891,2.242188,5.482422,0.298828,-0.065796,-0.687561,-0.658508,down
357856,4.566406,-2.515625,0.601562,1.462891,2.242188,5.482422,0.32489,-0.077515,-0.684448,-0.64801,down
357861,4.871094,-1.40625,1.636719,1.462891,2.242188,5.482422,0.32489,-0.077515,-0.684448,-0.64801,down
357866,4.253906,0.890625,2.324219,2.583984,2.542969,5.330078,0.35199,-0.083313,-0.686401,-0.630859,down
357872,3.945313,1.582031,2.402344,5.189453,3.007813,5.169922,0.380615,-0.08252,-0.694763,-0.604614,down
357877,3.449219,2.882813,2.4375,5.189453,3.007813,5.169922,0.394653,-0.08075,-0.700684,-0.588867,down
357883,3.144531,2.960938,4.277344,5.189453,3.007813,5.169922,0.407959,-0.078918,-0.707397,-0.571777,down
357888,2.796875,2.539063,5.0,7.845703,2.0625,4.966797,0.420776,-0.076843,-0.715027,-0.552979,down
357893,2.796875,2.539063,5.0,8.207031,1.820313,4.751953,0.432312,-0.074402,-0.722839,-0.533936,down
357898,2.492188,1.390625,5.921875,8.207031,1.820313,4.751953,0.432312,-0.074402,-0.722839,-0.533936,down
357904,2.492188,1.390625,5.921875,8.703125,1.097656,4.033203,0.452209,-0.067932,-0.73999,-0.493286,down
357910,3.027344,1.429688,5.238281,8.703125,1.097656,4.033203,0.452209,-0.067932,-0.73999,-0.493286,down
357915,3.410156,1.886719,4.589844,8.703125,1.097656,4.033203,0.466431,-0.060547,-0.75708,-0.453491,down
357920,3.105469,2.730469,4.277344,7.130859,0.072266,2.978516,0.466431,-0.060547,-0.75708,-0.453491,down
357925,2.953125,3.152344,3.203125,7.130859,0.072266,2.978516,0.475891,-0.05481,-0.772217,-0.417419,down
357930,2.53125,3.382813,2.324219,7.130859,0.072266,2.978516,0.479004,-0.053528,-0.777588,-0.40387,down
357936,2.914063,2.882813,2.054688,3.802734,-0.576172,2.412109,0.479004,-0.053528,-0.777588,-0.40387,down
357941,2.914063,2.882813,2.054688,2.71875,-0.869141,2.210938,0.482361,-0.05481,-0.7854,-0.383972,down
357946,3.21875,2.691406,2.132813,2.71875,-0.869141,2.210938,0.48291,-0.057068,-0.78833,-0.376953,down
357951,3.261719,2.425781,1.710938,0.925781,-1.007813,1.662109,0.48291,-0.057068,-0.78833,-0.376953,down
357956,3.257813,0.890625,1.671875,0.925781,-1.007813,1.662109,0.481323,-0.06665,-0.793091,-0.36731,down
357961,2.722656,0.664062,1.597656,0.925781,-1.007813,1.662109,0.481323,-0.06665,-0.793091,-0.36731,down
357966,2.296875,0.546875,1.328125,-0.183594,-0.833984,0.626953,0.481323,-0.06665,-0.793091,-0.36731,down
357971,1.878906,0.546875,1.328125,-0.183594,-0.833984,0.626953,0.479065,-0.071045,-0.794739,-0.365845,down
357977,1.730469,0.664062,1.710938,1.210938,-1.132813,-0.4375,0.479065,-0.071045,-0.794739,-0.365845,down
357982,1.265625,1.3125,2.519531,1.210938,-1.132813,-0.4375,0.472595,-0.068848,-0.80127,-0.360352,down
357987,0.960937,1.851563,2.398438,1.210938,-1.132813,-0.4375,0.46991,-0.066528,-0.804077,-0.358093,down
357992,0.617187,2.003906,2.441406,1.835938,-1.480469,-1.201172,0.466248,-0.063293,-0.807678,-0.355347,down
357998,0.652344,2.15625,1.558594,1.835938,-1.480469,-1.201172,0.462402,-0.060059,-0.811157,-0.352966,down
358003,0.347656,2.304688,1.25,1.835938,-1.480469,-1.201172,0.457581,-0.056519,-0.815125,-0.350708,down
358009,0.578125,2.582031,0.945312,1.630859,-2.412109,-1.855469,0.457581,-0.056519,-0.815125,-0.350708,down
358015,0.882812,2.960938,0.640625,1.212891,-2.804688,-2.087891,0.457581,-0.056519,-0.815125,-0.350708,down
358020,0.730469,3.074219,-0.011719,0.585937,-3.15625,-2.289063,0.457581,-0.056519,-0.815125,-0.350708,down
358025,0.308594,2.847656,-0.433594,0.585937,-3.15625,-2.289063,0.427979,-0.044189,-0.832214,-0.349731,down
358031,-0.074219,2.726563,-0.894531,-0.623047,-3.607422,-2.771484,0.427979,-0.044189,-0.832214,-0.349731,down
358036,-0.074219,2.726563,-0.894531,-1.234375,-3.792969,-3.048828,0.407837,-0.040283,-0.839172,-0.357483,down
358041,-0.417969,2.882813,-1.199219,-1.869141,-3.978516,-3.347656,0.407837,-0.040283,-0.839172,-0.357483,down
358046,-0.417969,2.882813,-1.199219,-2.402344,-4.166016,-3.710938,0.384949,-0.037048,-0.844299,-0.371033,down
358051,-1.222656,2.539063,-1.429688,-2.402344,-4.166016,-3.710938,0.371765,-0.035156,-0.846252,-0.380005,down
358056,-2.144531,1.773438,-1.582031,-2.833984,-4.591797,-5.138672,0.371765,-0.035156,-0.846252,-0.380005,down
358061,-3.105469,1.8125,-1.507813,-2.833984,-4.591797,-5.138672,0.343262,-0.029175,-0.849548,-0.399536,down
358066,-3.632813,2.117188,-1.316406,-2.833984,-4.591797,-5.138672,0.326782,-0.024475,-0.851013,-0.410339,down
358072,-4.171875,2.882813,-1.125,-2.619141,-4.894531,-6.185547,0.293701,-0.012878,-0.853577,-0.430054,down
358077,-5.164062,4.53125,-1.316406,-2.302734,-5.128906,-7.291016,0.275452,-0.005249,-0.854736,-0.439941,down
358082,-5.515625,5.375,-1.773438,-2.302734,-5.128906,-7.291016,0.253967,0.004456,-0.855774,-0.450684,down
358087,-6.207031,5.871094,-2.042969,-2.074219,-5.654297,-8.324219,0.233643,0.013977,-0.856506,-0.460022,down
358092,-6.816406,6.214844,-2.3125,-2.123047,-5.964844,-8.798828,0.233643,0.013977,-0.856506,-0.460022,down
358097,-7.855469,6.90625,-3.0,-2.361328,-6.203125,-9.306641,0.210815,0.024658,-0.856873,-0.469788,down
358102,-8.304688,7.210937,-3.460938,-2.361328,-6.203125,-9.306641,0.161316,0.047974,-0.855103,-0.490356,down
358107,-9.230469,7.824219,-4.53125,-2.361328,-6.203125,-9.306641,0.161316,0.047974,-0.855103,-0.490356,down
358112,-9.230469,7.824219,-4.53125,-3.480469,-6.607422,-11.087891,0.111877,0.072327,-0.849182,-0.511047,down
358117,-9.808594,7.058594,-5.144531,-3.480469,-6.607422,-11.087891,0.084351,0.08667,-0.843811,-0.522827,down
358122,-9.804688,6.214844,-6.5625,-4.158203,-6.658203,-11.910156,0.084351,0.08667,-0.843811,-0.522827,down
358127,-11.378906,7.558594,-5.492187,-4.191406,-7.013672,-12.208984,0.052856,0.103455,-0.83606,-0.536194,down
358133,-11.378906,7.558594,-5.492187,-4.191406,-7.013672,-12.208984,0.004028,-0.133423,0.818787,0.55835,down
358138,-11.378906,7.558594,-5.492187,-4.632812,-6.220703,-13.021484,0.004028,-0.133423,0.818787,0.55835,down
358143,-10.648438,3.957031,-3.652344,-4.632812,-6.220703,-13.021484,0.033386,-0.150269,0.807678,0.569153,down
358148,-11.453125,-0.140625,-4.226562,-4.650391,-5.636719,-13.285156,0.062988,-0.169128,0.794739,0.579529,down
358153,-11.453125,-0.140625,-4.226562,-4.373047,-5.242187,-13.460938,0.090881,-0.188171,0.78125,0.588196,down
358158,-12.90625,1.160156,-3.726563,-3.796875,-5.074219,-13.558594,0.147156,-0.227478,0.752869,0.599854,down
358163,-16.507812,3.457031,-3.0,-3.796875,-5.074219,-13.558594,0.147156,-0.227478,0.752869,0.599854,down
358168,-18.964844,5.449219,-3.078125,-3.796875,-5.074219,-13.558594,0.202576,-0.264343,0.726379,0.601257,down
358173,-21.566406,8.246094,-3.308594,-3.796875,-5.074219,-13.558594,0.202576,-0.264343,0.726379,0.601257,down
358178,-23.476562,11.960938,-3.84375,-0.236328,-4.775391,-13.236328,0.259338,-0.297668,0.701172,0.593689,down
358183,-23.476562,11.960938,-3.84375,0.734375,-5.324219,-12.552734,0.259338,-0.297668,0.701172,0.593689,down
358188,-23.476562,11.960938,-3.84375,0.861328,-5.939453,-11.869141,0.31604,-0.323975,0.675781,0.581787,down
358193,-29.113281,20.082031,-9.742188,0.861328,-5.939453,-11.869141,0.343323,-0.333069,0.662781,0.576111,down
358198,-27.886719,21.117187,-10.585938,0.861328,-5.939453,-11.869141,0.370117,-0.339539,0.649414,0.570923,down
358204,-20.035156,18.476562,-11.964844,0.861328,-5.939453,-11.869141,0.393311,-0.343262,0.637512,0.56665,down
358209,-16.3125,15.984375,-12.308594,1.220703,-5.416016,-6.234375,0.393311,-0.343262,0.637512,0.56665,down
358214,-16.3125,15.984375,-12.308594,1.566406,-4.445312,-4.851562,0.430298,-0.345276,0.618958,0.559021,down
358219,-13.023438,13.230469,-12.117188,2.097656,-3.314453,-3.65625,0.443665,-0.344482,0.613647,0.554932,down
358224,-13.023438,13.230469,-12.117188,2.097656,-3.314453,-3.65625,0.443665,-0.344482,0.613647,0.554932,down
358230,-12.367188,11.160156,-9.246094,2.869141,-2.162109,-2.794922,0.46344,-0.340881,0.61145,0.543213,down
358235,-15.785156,13.34375,-7.867187,2.869141,-2.162109,-2.794922,0.46344,-0.340881,0.61145,0.543213,down
358240,-19.453125,16.710937,-5.183594,2.869141,-2.162109,-2.794922,0.478271,-0.337585,0.617493,0.525391,down
358245,-21.179687,17.863281,-4.570312,4.634766,0.183594,-3.027344,0.478271,-0.337585,0.617493,0.525391,down
358250,-21.871094,18.359375,-4.496094,4.294922,-0.03125,-3.353516,0.478271,-0.337585,0.617493,0.525391,down
358255,-21.988281,17.898437,-4.035156,3.521484,-0.746094,-3.578125,0.478271,-0.337585,0.617493,0.525391,down
358261,-22.253906,15.832031,-3.117188,3.521484,-0.746094,-3.578125,0.478271,-0.337585,0.617493,0.525391,down
358267,-21.5625,14.722656,-2.195313,1.669922,-2.337891,-3.457031,0.478271,-0.337585,0.617493,0.525391,down
358272,-20.496094,13.34375,-1.429688,-0.720703,-2.689453,-2.701172,0.478271,-0.337585,0.617493,0.525391,down
358277,-17.039062,10.507813,0.945312,-0.720703,-2.689453,-2.701172,0.542175,-0.341431,0.604187,0.473694,down
358282,-15.824219,9.050781,0.90625,-2.777344,-1.175781,-1.638672,0.542175,-0.341431,0.604187,0.473694,down
358287,-15.285156,7.789062,0.5625,-3.914063,-0.40625,-1.056641,0.545227,-0.345825,0.597046,0.476074,down
358292,-14.820313,7.210937,0.292969,-3.914063,-0.40625,-1.056641,0.545105,-0.351563,0.590637,0.47998,down
358297,-14.480469,7.480469,0.292969,-3.914063,-0.40625,-1.056641,0.542603,-0.358154,0.584656,0.485291,down
358302,-14.480469,7.480469,0.292969,-5.646484,0.367188,0.097656,0.538025,-0.365417,0.578613,0.492126,down
358307,-14.703125,8.285156,0.371094,-5.646484,0.367188,0.097656,0.531372,-0.373535,0.572205,0.50061,down
358312,-15.320313,8.785156,0.449219,-5.458984,0.9375,0.779297,0.531372,-0.373535,0.572205,0.50061,down
358317,-14.09375,6.984375,-0.894531,-5.458984,0.9375,0.779297,0.511658,-0.391479,0.560913,0.519897,down
358322,-13.675781,6.179687,-0.703125,-5.458984,0.9375,0.779297,0.511658,-0.391479,0.560913,0.519897,down
358327,-13.328125,5.71875,0.179687,-0.082031,0.806641,0.837891,0.506897,-0.391907,0.564148,0.520752,down
358332,-12.183594,4.953125,0.945312,-0.082031,0.806641,0.837891,0.506897,-0.391907,0.564148,0.520752,down
358337,-12.027344,5.105469,0.984375,4.105469,1.0,0.591797,0.507263,-0.388794,0.569519,0.516968,down
358342,-11.839844,5.335937,0.675781,4.105469,1.0,0.591797,0.508667,-0.38446,0.57605,0.511475,down
358348,-11.140625,5.605469,-0.28125,4.105469,1.0,0.591797,0.513184,-0.373901,0.590149,0.498535,down
358353,-10.457031,5.640625,-0.433594,4.59375,0.238281,0.609375,0.516541,-0.366943,0.597656,0.491272,down
358359,-8.964844,5.605469,0.140625,4.59375,0.238281,0.609375,0.519348,-0.360962,0.603149,0.485962,down
358366,-7.925781,4.644531,0.601562,3.412109,-0.132812,0.826172,0.519348,-0.360962,0.603149,0.485962,down
358372,-7.511719,3.878906,0.675781,2.5,-0.037109,0.927734,0.519348,-0.360962,0.603149,0.485962,down
358377,-7.15625,3.113281,0.675781,0.210937,0.246094,1.117188,0.519348,-0.360962,0.603149,0.485962,down
358382,-7.050781,1.351563,0.484375,0.210937,0.246094,1.117188,0.523376,-0.343079,0.617676,0.476318,down
358387,-6.96875,0.855469,0.292969,0.210937,0.246094,1.117188,0.521301,-0.34198,0.618713,0.477966,down
358392,-6.929687,0.664062,0.21875,-1.292969,0.371094,1.009766,0.521301,-0.34198,0.618713,0.477966,down
358397,-7.011719,0.625,0.292969,-1.689453,0.339844,0.869141,0.513062,-0.34436,0.61731,0.486938,down
358402,-7.234375,0.96875,0.332031,-1.689453,0.339844,0.869141,0.513062,-0.34436,0.61731,0.486938,down
358407,-7.65625,1.542969,0.253906,-1.347656,0.347656,0.414062,0.510254,-0.34613,0.616028,0.490234,down
358412,-7.964844,1.964844,0.179687,-1.347656,0.347656,0.414062,0.507751,-0.347839,0.614929,0.492981,down
358417,-8.765625,2.808594,0.140625,-1.347656,0.347656,0.414062,0.505981,-0.348999,0.614319,0.494751,down
358422,-9.039063,3.0,0.253906,0.359375,0.267578,0.214844,0.504639,-0.349609,0.614319,0.495728,down
358427,-9.308594,3.0,0.292969,0.802734,0.238281,0.177734,0.504028,-0.349548,0.614929,0.495667,down
358432,-9.53125,2.921875,0.410156,0.802734,0.238281,0.177734,0.503967,-0.348755,0.61615,0.49469,down
358438,-9.808594,2.882813,0.371094,0.802734,0.238281,0.177734,0.504944,-0.34613,0.619446,0.491394,down
358443,-9.917969,2.808594,0.292969,1.433594,0.072266,0.103516,0.505981,-0.344238,0.621521,0.489136,down
358448,-9.957031,2.691406,0.179687,1.439453,-0.03125,0.115234,0.505981,-0.344238,0.621521,0.489136,down
358453,-9.886719,2.691406,0.101563,1.439453,-0.03125,0.115234,0.508179,-0.340332,0.624939,0.485168,down
358458,-9.847656,2.730469,0.0625,1.439453,-0.03125,0.115234,0.509094,-0.338562,0.626099,0.483887,down
358463,-9.609375,2.84375,0.179687,1.439453,-0.03125,0.115234,0.509766,-0.336914,0.627014,0.483215,down
358468,-9.421875,2.808594,0.140625,0.056641,-0.126953,0.394531,0.509888,-0.335815,0.62738,0.483398,down
358474,-9.382813,2.578125,-0.203125,0.056641,-0.126953,0.394531,0.50946,-0.335205,0.627502,0.484131,down
358479,-9.308594,2.425781,-0.433594,0.056641,-0.126953,0.394531,0.508606,-0.334839,0.62738,0.485352,down
358485,-9.308594,2.386719,-0.472656,-0.529297,0.035156,0.599609,0.508606,-0.334839,0.62738,0.485352,down
358490,-9.34375,2.347656,-0.511719,-0.449219,0.091797,0.640625,0.506226,-0.334351,0.627258,0.488342,down
358495,-9.496094,2.15625,-0.664062,-0.449219,0.091797,0.640625,0.504944,-0.333984,0.627502,0.489685,down
358501,-9.613281,2.078125,-0.664062,-0.083984,0.216797,0.667969,0.504944,-0.333984,0.627502,0.489685,down
358506,-9.765625,2.042969,-0.777344,0.207031,0.296875,0.642578,0.504944,-0.333984,0.627502,0.489685,down
358511,-9.847656,2.042969,-0.742187,0.207031,0.296875,0.642578,0.501587,-0.331604,0.63031,0.491089,down
358517,-9.957031,2.269531,-0.703125,1.029297,0.384766,0.478516,0.501587,-0.331604,0.63031,0.491089,down
358522,-9.917969,2.425781,-0.625,1.029297,0.384766,0.478516,0.500488,-0.328796,0.634033,0.489319,down
358528,-9.917969,2.652344,-0.664062,1.152344,0.419922,0.425781,0.500488,-0.328796,0.634033,0.489319,down
358533,-9.808594,2.769531,-0.664062,1.152344,0.419922,0.425781,0.499878,-0.324036,0.640747,0.484253,down
358538,-9.6875,2.84375,-0.625,1.113281,0.363281,0.341797,0.499878,-0.324036,0.640747,0.484253,down
358543,-9.574219,2.960938,-0.511719,0.947266,0.328125,0.332031,0.499817,-0.322388,0.643127,0.482361,down
358548,-9.425781,3.039063,-0.242187,0.947266,0.328125,0.332031,0.499512,-0.319885,0.646545,0.479736,down
358553,-9.382813,3.039063,-0.242187,0.503906,0.277344,0.341797,0.499512,-0.319885,0.646545,0.479736,down
358558,-9.308594,2.921875,-0.320313,0.275391,0.236328,0.332031,0.499084,-0.318787,0.648071,0.478882,down
358563,-9.191406,2.691406,-0.242187,0.275391,0.236328,0.332031,0.498596,-0.318054,0.649109,0.478455,down
358568,-9.039063,2.652344,-0.164062,0.275391,0.236328,0.332031,0.497437,-0.317261,0.650269,0.478638,down
358573,-9.0,2.617188,-0.164062,0.275391,0.236328,0.332031,0.497437,-0.317261,0.650269,0.478638,down
358578,-9.0,2.617188,-0.164062,-0.138672,0.068359,0.246094,0.496887,-0.317078,0.650513,0.478943,down
358583,-9.0,2.617188,-0.164062,-0.138672,0.068359,0.246094,0.496338,-0.316956,0.650635,0.479431,down
358588,-9.003906,2.808594,-0.320313,-0.138672,0.068359,0.246094,0.495911,-0.316772,0.650757,0.479858,down
358593,-9.039063,2.921875,-0.355469,-0.054687,0.035156,0.238281,0.495117,-0.316223,0.651062,0.480591,down
358598,-9.0,3.0,-0.433594,-0.054687,0.035156,0.238281,0.495117,-0.316223,0.651062,0.480591,down
358603,-8.964844,3.039063,-0.511719,-0.054687,0.035156,0.238281,0.494507,-0.315308,0.651611,0.481018,down
358608,-9.0,3.0,-0.585937,0.169922,0.023437,0.324219,0.494507,-0.315308,0.651611,0.481018,down
358613,-9.039063,2.960938,-0.625,0.169922,0.023437,0.324219,0.493958,-0.313904,0.652588,0.481262,down
358618,-8.960938,2.769531,-0.703125,0.228516,0.027344,0.367188,0.493958,-0.313904,0.652588,0.481262,down
358623,-8.960938,2.769531,-0.703125,0.228516,0.027344,0.367188,0.493347,-0.312256,0.653748,0.481384,down
358628,-8.808594,2.617188,-0.742187,0.228516,0.027344,0.367188,0.493347,-0.312256,0.653748,0.481384,down
358633,-8.699219,2.578125,-0.777344,0.248047,0.097656,0.355469,0.493347,-0.312256,0.653748,0.481384,down
358638,-8.539063,2.539063,-0.777344,0.248047,0.097656,0.355469,0.492249,-0.309875,0.655762,0.481262,down
358643,-8.539063,2.5,-0.894531,0.271484,0.207031,0.345703,0.492249,-0.309875,0.655762,0.481262,down
358648,-8.578125,2.460938,-0.894531,0.271484,0.207031,0.345703,0.491699,-0.309143,0.656677,0.481079,down
358653,-8.617188,2.460938,-0.894531,0.353516,0.289063,0.320313,0.491699,-0.309143,0.656677,0.481079,down
358658,-8.765625,2.539063,-0.855469,0.353516,0.289063,0.320313,0.490051,-0.307373,0.659485,0.480042,down
358663,-8.808594,2.730469,-0.855469,0.484375,0.324219,0.267578,0.490051,-0.307373,0.659485,0.480042,down
358668,-8.964844,2.960938,-0.855469,0.542969,0.324219,0.244141,0.489502,-0.306763,0.660706,0.47937,down
358673,-9.003906,3.152344,-0.816406,0.542969,0.324219,0.244141,0.488708,-0.305481,0.663025,0.477722,down
358678,-9.039063,3.382813,-0.777344,0.542969,0.324219,0.244141,0.488403,-0.30481,0.664246,0.476807,down
358683,-9.1875,3.726563,-0.703125,0.542969,0.324219,0.244141,0.488403,-0.30481,0.664246,0.476807,down
358688,-9.304688,3.804688,-0.742187,0.541016,0.296875,0.189453,0.487793,-0.303589,0.666565,0.474976,down
358693,-9.460938,3.839844,-0.742187,0.541016,0.296875,0.189453,0.487793,-0.303589,0.666565,0.474976,down
358698,-9.492188,3.765625,-0.664062,0.294922,0.171875,0.203125,0.487793,-0.303589,0.666565,0.474976,down
358703,-9.570313,3.6875,-0.625,0.294922,0.171875,0.203125,0.487183,-0.302429,0.668396,0.473755,down
358708,-9.425781,3.6875,-0.625,0.294922,0.171875,0.203125,0.486877,-0.302002,0.668945,0.473511,down
358713,-9.425781,3.6875,-0.625,-0.142578,0.007813,0.201172,0.486572,-0.301697,0.669312,0.473511,down
358718,-9.191406,3.574219,-0.703125,-0.259766,-0.03125,0.208984,0.486267,-0.301514,0.669434,0.473816,down
358723,-9.113281,3.535156,-0.703125,-0.259766,-0.03125,0.208984,0.48584,-0.301392,0.669312,0.474426,down
358728,-9.042969,3.421875,-0.777344,-0.259766,-0.03125,0.208984,0.485046,-0.301392,0.668823,0.476074,down
358733,-9.0,3.265625,-0.816406,-0.375,-0.041016,0.25,0.485046,-0.301392,0.668823,0.476074,down
358738,-9.003906,3.152344,-0.816406,-0.375,-0.041016,0.25,0.484558,-0.301392,0.668518,0.47699,down
358743,-9.042969,2.84375,-0.855469,-0.351563,-0.033203,0.251953,0.484558,-0.301392,0.668518,0.47699,down
358748,-9.042969,2.84375,-0.855469,-0.351563,-0.033203,0.251953,0.483154,-0.301208,0.667786,0.479492,down
358753,-8.960938,2.882813,-0.96875,-0.351563,-0.033203,0.251953,0.483154,-0.301208,0.667786,0.479492,down
358758,-8.925781,2.960938,-1.007813,-0.101563,-0.013672,0.169922,0.483154,-0.301208,0.667786,0.479492,down
358763,-8.84375,3.265625,-1.046875,0.023437,0.0,0.136719,0.483154,-0.301208,0.667786,0.479492,down
358768,-8.847656,3.421875,-1.085938,0.023437,0.0,0.136719,0.482483,-0.300232,0.668274,0.480042,down
358773,-8.882813,3.574219,-1.046875,0.277344,0.0625,0.09375,0.482483,-0.300232,0.668274,0.480042,down
358778,-8.925781,3.6875,-1.085938,0.277344,0.0625,0.09375,0.482483,-0.299866,0.668701,0.479736,down
358783,-8.960938,3.6875,-0.96875,0.300781,0.083984,0.105469,0.482483,-0.299866,0.668701,0.479736,down
358788,-9.003906,3.648438,-0.96875,0.263672,0.097656,0.109375,0.482422,-0.299011,0.669739,0.478882,down
358793,-8.960938,3.6875,-0.96875,0.263672,0.097656,0.109375,0.482361,-0.298584,0.670288,0.478455,down
358798,-9.0,3.726563,-0.933594,0.263672,0.097656,0.109375,0.482239,-0.298279,0.670715,0.478088,down
358804,-8.921875,3.765625,-0.96875,0.263672,0.097656,0.109375,0.481873,-0.297791,0.671509,0.477661,down
358809,-8.886719,3.765625,-0.933594,0.0,0.078125,0.113281,0.481628,-0.297668,0.671753,0.477722,down
358814,-8.804688,3.765625,-0.96875,-0.068359,0.074219,0.130859,0.481628,-0.297668,0.671753,0.477722,down
358819,-8.765625,3.765625,-0.933594,-0.068359,0.074219,0.130859,0.481018,-0.297546,0.671997,0.478027,down
358825,-8.726563,3.726563,-0.96875,-0.119141,0.083984,0.162109,0.480591,-0.297546,0.672058,0.478394,down
358830,-8.578125,3.613281,-0.894531,-0.119141,0.083984,0.162109,0.480225,-0.297485,0.672119,0.478699,down
358835,-8.578125,3.613281,-0.894531,-0.087891,0.087891,0.191406,0.479736,-0.297424,0.672241,0.479004,down
