timestamp,ax,ay,az,gx,gy,gz,qw,qx,qy,qz,label
675031,6.886719,6.4375,-2.410156,-0.041016,-0.078125,-0.123047,0.354553,-0.148926,-0.77301,-0.504517,down
675036,6.925781,6.398437,-2.410156,-0.068359,-0.078125,-0.146484,0.354553,-0.148926,-0.77301,-0.504517,down
675042,6.925781,6.398437,-2.410156,-0.083984,-0.066406,-0.142578,0.353882,-0.148682,-0.773132,-0.504944,down
675047,6.882812,6.359375,-2.371094,-0.083984,-0.066406,-0.142578,0.353149,-0.148437,-0.773132,-0.505493,down
675052,6.886719,6.285156,-2.371094,-0.083984,-0.066406,-0.142578,0.352783,-0.148254,-0.773132,-0.505798,down
675057,6.886719,6.285156,-2.332031,-0.083984,-0.066406,-0.142578,0.352539,-0.148132,-0.773132,-0.506042,down
675063,6.804687,6.320312,-2.257813,-0.083984,-0.066406,-0.142578,0.352234,-0.147949,-0.773132,-0.506348,down
675069,6.765625,6.285156,-2.257813,-0.060547,-0.017578,-0.130859,0.352234,-0.147949,-0.773132,-0.506348,down
675074,6.769531,6.359375,-2.21875,-0.037109,-0.017578,-0.121094,0.352234,-0.147949,-0.773132,-0.506348,down
675080,6.765625,6.359375,-2.179688,-0.025391,-0.005859,-0.113281,0.352234,-0.147949,-0.773132,-0.506348,down
675086,6.6875,6.4375,-2.179688,-0.005859,-0.023437,-0.089844,0.351257,-0.147095,-0.773193,-0.50708,down
675091,6.726562,6.4375,-2.140625,0.011719,-0.048828,-0.068359,0.351257,-0.147095,-0.773193,-0.50708,down
675096,6.726562,6.4375,-2.140625,0.011719,-0.048828,-0.068359,0.351074,-0.147034,-0.773315,-0.50708,down
675101,6.691406,6.4375,-2.21875,0.044922,-0.068359,-0.048828,0.350952,-0.146912,-0.773376,-0.50708,down
675106,6.730469,6.4375,-2.257813,0.044922,-0.068359,-0.048828,0.350708,-0.146851,-0.773499,-0.50708,down
675112,6.769531,6.511719,-2.296875,0.044922,-0.068359,-0.048828,0.350342,-0.146851,-0.773804,-0.506897,down
675117,6.808594,6.550781,-2.332031,0.015625,-0.087891,-0.03125,0.350159,-0.146851,-0.773926,-0.506836,down
675123,6.808594,6.589844,-2.449219,0.015625,-0.087891,-0.03125,0.349976,-0.146912,-0.773987,-0.506836,down
675129,6.804687,6.589844,-2.488281,0.015625,-0.087891,-0.03125,0.349731,-0.146973,-0.774048,-0.506836,down
675134,6.84375,6.589844,-2.523438,-0.035156,-0.082031,-0.023437,0.349731,-0.146973,-0.774048,-0.506836,down
675139,6.847656,6.589844,-2.488281,-0.029297,-0.078125,-0.025391,0.349731,-0.146973,-0.774048,-0.506836,down
675145,6.882812,6.589844,-2.523438,-0.029297,-0.078125,-0.025391,0.349182,-0.147217,-0.77417,-0.507019,down
675151,6.882812,6.589844,-2.523438,-0.029297,-0.078125,-0.025391,0.348816,-0.147217,-0.774231,-0.507202,down
675156,6.84375,6.550781,-2.5625,-0.029297,-0.078125,-0.025391,0.348816,-0.147217,-0.774231,-0.507202,down
675161,6.847656,6.476562,-2.488281,-0.042969,-0.041016,-0.054687,0.348511,-0.147156,-0.774231,-0.507446,down
675166,6.804687,6.4375,-2.410156,-0.042969,-0.041016,-0.054687,0.348511,-0.147156,-0.774231,-0.507446,down
675171,6.84375,6.398437,-2.371094,-0.021484,-0.009766,-0.050781,0.348389,-0.147156,-0.77417,-0.507507,down
675176,6.808594,6.359375,-2.410156,-0.021484,-0.009766,-0.050781,0.348267,-0.147095,-0.77417,-0.507629,down
675182,6.804687,6.320312,-2.332031,-0.021484,-0.009766,-0.050781,0.348145,-0.146973,-0.774231,-0.507751,down
675188,6.730469,6.320312,-2.257813,-0.021484,-0.009766,-0.050781,0.348022,-0.146912,-0.774231,-0.507812,down
675194,6.761719,6.289062,-2.246094,-0.001953,-0.009766,-0.033203,0.348267,-0.147095,-0.77417,-0.507629,down
675199,6.722656,6.289062,-2.246094,0.009766,-0.001953,-0.03125,0.348511,-0.147339,-0.774109,-0.507507,down
675204,6.761719,6.25,-2.207031,0.009766,-0.001953,-0.03125,0.348511,-0.147339,-0.774109,-0.507507,down
675210,6.71875,6.25,-2.171875,0.021484,-0.029297,-0.03125,0.348511,-0.147339,-0.774109,-0.507507,down
675215,6.71875,6.214844,-2.132813,0.033203,-0.025391,-0.037109,0.348511,-0.147339,-0.774109,-0.507507,down
675221,6.640625,6.175781,-2.132813,0.023437,-0.048828,-0.035156,0.349304,-0.148193,-0.77417,-0.506653,down
675226,6.683594,6.214844,-2.09375,0.023437,-0.048828,-0.035156,0.349304,-0.148193,-0.77417,-0.506653,down
675231,6.683594,6.175781,-2.054688,0.0,-0.091797,-0.037109,0.349304,-0.148193,-0.77417,-0.506653,down
675236,6.683594,6.175781,-2.054688,0.0,-0.091797,-0.037109,0.349304,-0.148621,-0.774231,-0.506348,down
675241,6.683594,6.136719,-2.132813,0.0,-0.091797,-0.037109,0.349304,-0.148865,-0.774292,-0.506287,down
675246,6.722656,6.175781,-2.246094,0.0,-0.091797,-0.037109,0.349243,-0.149109,-0.774353,-0.506165,down
675252,6.71875,6.214844,-2.285156,-0.041016,-0.121094,-0.042969,0.349243,-0.149109,-0.774353,-0.506165,down
675257,6.761719,6.214844,-2.324219,-0.041016,-0.121094,-0.042969,0.348938,-0.149902,-0.774353,-0.506042,down
675262,6.757812,6.25,-2.398438,-0.041016,-0.121094,-0.042969,0.348816,-0.150146,-0.774414,-0.506042,down
675267,6.800781,6.175781,-2.398438,-0.050781,-0.083984,-0.037109,0.348816,-0.150146,-0.774414,-0.506042,down
675272,6.800781,6.214844,-2.4375,-0.050781,-0.083984,-0.037109,0.348694,-0.150635,-0.774353,-0.506042,down
675277,6.800781,6.214844,-2.476563,0.011719,-0.068359,-0.035156,0.348694,-0.150635,-0.774353,-0.506042,down
675282,6.796875,6.25,-2.4375,0.011719,-0.068359,-0.035156,0.348694,-0.150879,-0.774475,-0.505798,down
675287,6.761719,6.289062,-2.4375,0.011719,-0.068359,-0.035156,0.348694,-0.151001,-0.774536,-0.505676,down
675292,6.800781,6.328125,-2.398438,0.011719,-0.068359,-0.035156,0.348755,-0.151062,-0.774658,-0.505432,down
675297,6.757812,6.367187,-2.398438,0.083984,-0.050781,-0.029297,0.348755,-0.151062,-0.774658,-0.505432,down
675302,6.796875,6.367187,-2.4375,0.083984,-0.050781,-0.029297,0.348816,-0.151123,-0.774902,-0.504944,down
675308,6.800781,6.328125,-2.398438,0.083984,-0.050781,-0.029297,0.348877,-0.151184,-0.775085,-0.5047,down
675313,6.796875,6.441406,-2.398438,0.083984,-0.050781,-0.029297,0.348877,-0.151245,-0.775208,-0.504456,down
675318,6.796875,6.441406,-2.398438,0.074219,-0.078125,-0.035156,0.348816,-0.151306,-0.77533,-0.504272,down
675323,6.878906,6.558594,-2.476563,0.074219,-0.078125,-0.035156,0.348755,-0.151367,-0.775452,-0.504089,down
675329,6.839844,6.597656,-2.515625,0.074219,-0.078125,-0.035156,0.348694,-0.151489,-0.775574,-0.503967,down
675334,6.878906,6.597656,-2.554688,-0.029297,-0.107422,-0.056641,0.348694,-0.151489,-0.775574,-0.503967,down
675339,6.839844,6.558594,-2.589844,-0.078125,-0.109375,-0.060547,0.348328,-0.151794,-0.775635,-0.503967,down
675345,6.835937,6.597656,-2.589844,-0.103516,-0.107422,-0.068359,0.348328,-0.151794,-0.775635,-0.503967,down
675351,6.835937,6.636719,-2.589844,-0.103516,-0.107422,-0.068359,0.348328,-0.151794,-0.775635,-0.503967,down
675356,6.878906,6.636719,-2.554688,-0.117188,-0.121094,-0.083984,0.348328,-0.151794,-0.775635,-0.503967,down
675362,6.914062,6.671875,-2.589844,-0.109375,-0.117188,-0.074219,0.348328,-0.151794,-0.775635,-0.503967,down
675367,6.835937,6.636719,-2.667969,-0.105469,-0.115234,-0.078125,0.347046,-0.15271,-0.775513,-0.504822,down
675373,6.875,6.636719,-2.746094,-0.105469,-0.115234,-0.078125,0.346558,-0.153076,-0.775452,-0.505127,down
675378,6.875,6.636719,-2.746094,-0.09375,-0.091797,-0.070312,0.346313,-0.153198,-0.775452,-0.505249,down
675384,6.875,6.597656,-2.707031,-0.09375,-0.091797,-0.070312,0.34613,-0.15332,-0.775391,-0.505371,down
675389,6.835937,6.597656,-2.628906,-0.046875,-0.070312,-0.072266,0.345947,-0.153442,-0.775452,-0.505432,down
675394,6.878906,6.558594,-2.667969,-0.03125,-0.054687,-0.070312,0.345947,-0.153442,-0.775452,-0.505432,down
675400,6.839844,6.558594,-2.667969,-0.019531,-0.054687,-0.054687,0.345947,-0.153442,-0.775452,-0.505432,down
675406,6.796875,6.519531,-2.589844,-0.019531,-0.054687,-0.054687,0.345947,-0.153442,-0.775452,-0.505432,down
675412,6.839844,6.558594,-2.589844,0.001953,0.0,-0.027344,0.345947,-0.153442,-0.775452,-0.505432,down
675417,6.800781,6.519531,-2.554688,0.001953,0.0,-0.027344,0.345581,-0.153625,-0.775513,-0.505493,down
675422,6.761719,6.480469,-2.554688,0.001953,0.0,-0.027344,0.345642,-0.153625,-0.775574,-0.505371,down
675427,6.761719,6.558594,-2.476563,0.001953,0.0,-0.027344,0.345642,-0.153625,-0.775574,-0.505371,down
675432,6.722656,6.558594,-2.4375,0.041016,0.017578,-0.019531,0.345642,-0.153625,-0.775574,-0.505371,down
675437,6.71875,6.636719,-2.4375,0.041016,0.017578,-0.019531,0.345886,-0.153503,-0.775696,-0.505066,down
675442,6.683594,6.671875,-2.476563,0.041016,0.017578,-0.019531,0.345947,-0.153503,-0.775757,-0.504944,down
675447,6.683594,6.636719,-2.363281,0.041016,0.017578,-0.019531,0.345947,-0.153503,-0.775757,-0.504944,down
675452,6.640625,6.597656,-2.324219,0.033203,0.0,-0.013672,0.345947,-0.153503,-0.775757,-0.504944,down
675457,6.644531,6.558594,-2.398438,0.033203,0.0,-0.013672,0.346069,-0.153442,-0.775879,-0.504639,down
675462,6.644531,6.519531,-2.398438,0.033203,0.0,-0.013672,0.346069,-0.153503,-0.77594,-0.504578,down
675467,6.644531,6.519531,-2.398438,0.033203,0.0,-0.013672,0.346069,-0.153503,-0.77594,-0.504578,down
675472,6.679687,6.519531,-2.363281,-0.015625,-0.017578,-0.027344,0.346069,-0.153503,-0.77594,-0.504578,down
675477,6.640625,6.558594,-2.363281,-0.042969,-0.011719,-0.03125,0.346008,-0.153564,-0.77594,-0.504578,down
675482,6.679687,6.519531,-2.363281,-0.042969,-0.011719,-0.03125,0.346008,-0.153564,-0.77594,-0.504578,down
675487,6.640625,6.558594,-2.363281,-0.058594,-0.011719,-0.03125,0.345947,-0.153625,-0.775879,-0.5047,down
675493,6.640625,6.558594,-2.363281,-0.066406,-0.013672,-0.025391,0.345825,-0.153748,-0.775818,-0.504822,down
675498,6.644531,6.441406,-2.363281,-0.068359,-0.009766,-0.023437,0.345825,-0.153748,-0.775818,-0.504822,down
675503,6.640625,6.441406,-2.324219,-0.068359,-0.009766,-0.023437,0.345764,-0.15387,-0.775696,-0.505066,down
675508,6.605469,6.40625,-2.363281,-0.068359,-0.009766,-0.023437,0.345764,-0.153931,-0.775635,-0.505127,down
675513,6.601562,6.40625,-2.324219,-0.068359,-0.009766,-0.023437,0.345703,-0.153992,-0.775635,-0.505127,down
675518,6.640625,6.441406,-2.324219,-0.017578,-0.007813,-0.011719,0.345703,-0.153992,-0.775635,-0.505127,down
675524,6.601562,6.441406,-2.363281,-0.017578,-0.007813,-0.011719,0.345703,-0.154053,-0.775635,-0.505127,down
675529,6.644531,6.480469,-2.363281,-0.017578,-0.007813,-0.011719,0.345642,-0.154053,-0.775635,-0.505066,down
675535,6.679687,6.480469,-2.324219,-0.017578,-0.007813,-0.011719,0.345642,-0.154053,-0.775635,-0.505066,down
675540,6.605469,6.480469,-2.324219,0.023437,-0.037109,-0.021484,0.345642,-0.154053,-0.775635,-0.505066,down
675546,6.640625,6.519531,-2.363281,0.007813,-0.035156,-0.033203,0.345642,-0.154053,-0.775635,-0.505066,down
675551,6.644531,6.519531,-2.324219,0.001953,-0.046875,-0.033203,0.345642,-0.154053,-0.775635,-0.505066,down
675556,6.644531,6.558594,-2.398438,-0.029297,-0.058594,-0.044922,0.345642,-0.154053,-0.775635,-0.505066,down
675561,6.640625,6.519531,-2.4375,-0.058594,-0.060547,-0.044922,0.345642,-0.154053,-0.775635,-0.505066,down
675566,6.722656,6.519531,-2.476563,-0.058594,-0.060547,-0.044922,0.345642,-0.154053,-0.775635,-0.505066,down
675571,6.679687,6.519531,-2.4375,-0.058594,-0.060547,-0.044922,0.344666,-0.154297,-0.77594,-0.50531,down
675576,6.679687,6.480469,-2.398438,-0.119141,-0.056641,-0.0625,0.344666,-0.154297,-0.77594,-0.50531,down
675581,6.683594,6.441406,-2.4375,-0.130859,-0.058594,-0.066406,0.344666,-0.154297,-0.77594,-0.50531,down
675586,6.683594,6.441406,-2.476563,-0.130859,-0.058594,-0.066406,0.344666,-0.154297,-0.77594,-0.50531,down
675591,6.679687,6.441406,-2.515625,-0.130859,-0.058594,-0.066406,0.343811,-0.154602,-0.775574,-0.506348,down
675596,6.679687,6.441406,-2.515625,-0.140625,-0.052734,-0.076172,0.343811,-0.154602,-0.775574,-0.506348,down
675602,6.683594,6.328125,-2.515625,-0.132812,-0.048828,-0.078125,0.34314,-0.154724,-0.775269,-0.507263,down
675607,6.640625,6.367187,-2.476563,-0.132812,-0.048828,-0.078125,0.34314,-0.154724,-0.775269,-0.507263,down
675612,6.644531,6.328125,-2.398438,-0.0625,-0.017578,-0.107422,0.34314,-0.154724,-0.775269,-0.507263,down
675617,6.640625,6.25,-2.4375,-0.0625,-0.017578,-0.107422,0.342773,-0.154602,-0.775146,-0.50769,down
675622,6.601562,6.289062,-2.398438,-0.0625,-0.017578,-0.107422,0.342407,-0.154358,-0.775146,-0.507996,down
675627,6.605469,6.25,-2.363281,-0.0625,-0.017578,-0.107422,0.342407,-0.154358,-0.775146,-0.507996,down
675632,6.605469,6.214844,-2.324219,-0.042969,0.001953,-0.125,0.342407,-0.154358,-0.775146,-0.507996,down
675638,6.5625,6.136719,-2.285156,-0.042969,0.001953,-0.125,0.342102,-0.153992,-0.775146,-0.508362,down
675643,6.566406,6.175781,-2.285156,-0.044922,0.013672,-0.130859,0.341797,-0.153564,-0.775146,-0.508728,down
675648,6.535156,6.175781,-2.246094,-0.037109,0.021484,-0.140625,0.341614,-0.15332,-0.775085,-0.508911,down
675653,6.492187,6.097656,-2.246094,-0.037109,0.021484,-0.140625,0.341492,-0.153076,-0.775085,-0.509094,down
675658,6.453125,6.058594,-2.171875,-0.037109,0.021484,-0.140625,0.341309,-0.152832,-0.775085,-0.509277,down
675663,6.417969,6.058594,-2.132813,-0.037109,0.019531,-0.175781,0.341309,-0.152832,-0.775085,-0.509277,down
675668,6.378906,6.023437,-2.09375,-0.037109,0.019531,-0.175781,0.340942,-0.152161,-0.775085,-0.509705,down
675674,6.261719,5.945312,-1.980469,-0.037109,0.019531,-0.175781,0.340759,-0.151855,-0.775146,-0.509888,down
675679,6.261719,5.945312,-1.980469,-0.021484,0.021484,-0.226562,0.340515,-0.151428,-0.775146,-0.510071,down
675684,6.261719,5.945312,-1.980469,-0.021484,0.021484,-0.226562,0.340271,-0.151001,-0.775208,-0.510315,down
675689,6.21875,5.90625,-1.980469,-0.021484,0.021484,-0.226562,0.339966,-0.150513,-0.77533,-0.510559,down
675694,6.179687,5.832031,-1.941406,-0.021484,0.021484,-0.226562,0.339966,-0.150513,-0.77533,-0.510559,down
675699,6.179687,5.832031,-1.941406,-0.001953,-0.017578,-0.306641,0.339966,-0.150513,-0.77533,-0.510559,down
675705,6.140625,5.832031,-1.941406,-0.001953,-0.017578,-0.306641,0.339966,-0.150513,-0.77533,-0.510559,down
675710,6.113281,5.753906,-1.941406,-0.001953,-0.017578,-0.306641,0.338501,-0.148315,-0.775696,-0.511536,down
675715,6.140625,5.792969,-1.980469,-0.021484,-0.003906,-0.386719,0.338501,-0.148315,-0.775696,-0.511536,down
675720,6.113281,5.753906,-1.980469,-0.013672,-0.009766,-0.412109,0.338501,-0.148315,-0.775696,-0.511536,down
675726,6.070312,5.753906,-1.941406,-0.009766,0.0,-0.431641,0.338501,-0.148315,-0.775696,-0.511536,down
675731,6.070312,5.753906,-1.941406,-0.007813,0.005859,-0.457031,0.338501,-0.148315,-0.775696,-0.511536,down
675737,6.074219,5.753906,-1.902344,-0.001953,0.011719,-0.496094,0.338501,-0.148315,-0.775696,-0.511536,down
675742,6.074219,5.753906,-1.902344,0.011719,0.009766,-0.523437,0.335266,-0.143372,-0.77655,-0.513794,down
675747,6.035156,5.792969,-1.941406,0.017578,0.013672,-0.564453,0.335266,-0.143372,-0.77655,-0.513794,down
675752,6.035156,5.792969,-1.941406,0.011719,0.019531,-0.603516,0.333923,-0.141174,-0.776978,-0.514648,down
675757,5.953125,5.714844,-1.863281,0.011719,0.019531,-0.603516,0.333923,-0.141174,-0.776978,-0.514648,down
675762,5.953125,5.90625,-2.015625,0.041016,0.039063,-0.636719,0.332458,-0.13855,-0.777466,-0.515564,down
675767,5.953125,5.984375,-2.054688,0.041016,0.039063,-0.636719,0.331726,-0.137085,-0.77771,-0.516052,down
675773,5.953125,6.058594,-2.054688,0.064453,0.064453,-0.828125,0.331726,-0.137085,-0.77771,-0.516052,down
675778,5.917969,6.097656,-2.015625,0.064453,0.064453,-0.828125,0.329041,-0.131897,-0.778625,-0.5177,down
675783,5.917969,6.136719,-2.015625,0.064453,0.064453,-0.828125,0.328125,-0.130188,-0.778931,-0.518372,down
675789,5.917969,6.171875,-2.054688,-0.017578,0.050781,-1.003906,0.326843,-0.128052,-0.779175,-0.519226,down
675794,5.800781,6.367187,-2.015625,-0.017578,0.050781,-1.003906,0.325562,-0.125977,-0.779419,-0.520203,down
675799,5.761719,6.371094,-2.015625,-0.115234,-0.001953,-1.136719,0.325562,-0.125977,-0.779419,-0.520203,down
675805,5.6875,6.40625,-1.902344,-0.115234,-0.001953,-1.136719,0.322693,-0.121948,-0.779785,-0.5224,down
675811,5.648437,6.410156,-1.902344,-0.267578,-0.054687,-1.279297,0.322693,-0.121948,-0.779785,-0.5224,down
675817,5.535156,6.4375,-1.863281,-0.320313,-0.099609,-1.34375,0.322693,-0.121948,-0.779785,-0.5224,down
675822,5.378906,6.476562,-1.75,-0.320313,-0.099609,-1.34375,0.322693,-0.121948,-0.779785,-0.5224,down
675827,5.226562,6.480469,-1.671875,-0.542969,-0.216797,-1.539063,0.322693,-0.121948,-0.779785,-0.5224,down
675832,5.152344,6.371094,-1.671875,-0.542969,-0.216797,-1.539063,0.312073,-0.110901,-0.779846,-0.531189,down
675838,4.957031,6.292969,-1.480469,-0.542969,-0.216797,-1.539063,0.309143,-0.108459,-0.779663,-0.533691,down
675843,4.882812,6.292969,-1.441406,-0.726562,-0.292969,-1.642578,0.303467,-0.104126,-0.779053,-0.538696,down
675848,4.84375,6.25,-1.402344,-0.839844,-0.322266,-1.732422,0.303467,-0.104126,-0.779053,-0.538696,down
675853,4.691406,6.441406,-1.519531,-0.839844,-0.322266,-1.732422,0.300171,-0.101685,-0.778564,-0.541687,down
675858,4.613281,6.59375,-1.519531,-0.839844,-0.322266,-1.732422,0.293823,-0.097168,-0.777588,-0.547363,down
675863,4.574219,6.636719,-1.59375,-0.871094,-0.380859,-1.863281,0.293823,-0.097168,-0.777588,-0.547363,down
675868,4.460937,6.859375,-1.671875,-0.853516,-0.390625,-1.900391,0.290161,-0.094666,-0.777039,-0.550476,down
675874,4.421875,7.171875,-1.789063,-0.853516,-0.390625,-1.900391,0.283081,-0.089661,-0.776123,-0.556274,down
675879,4.269531,7.359375,-1.824219,-0.853516,-0.390625,-1.900391,0.279541,-0.087219,-0.775696,-0.559021,down
675884,4.230469,7.441406,-1.863281,-0.765625,-0.439453,-1.986328,0.279541,-0.087219,-0.775696,-0.559021,down
675889,4.15625,7.476562,-1.902344,-0.716797,-0.443359,-2.023438,0.279541,-0.087219,-0.775696,-0.559021,down
675894,4.039062,7.59375,-1.902344,-0.716797,-0.443359,-2.023438,0.279541,-0.087219,-0.775696,-0.559021,down
675899,4.039062,7.59375,-1.902344,-0.716797,-0.443359,-2.023438,0.279541,-0.087219,-0.775696,-0.559021,down
675905,4.039062,7.59375,-1.902344,-0.515625,-0.472656,-2.119141,0.260193,-0.072998,-0.774475,-0.572021,down
675910,3.695313,7.703125,-1.789063,-0.515625,-0.472656,-2.119141,0.260193,-0.072998,-0.774475,-0.572021,down
675915,3.695313,7.703125,-1.789063,-0.466797,-0.484375,-2.162109,0.256165,-0.069885,-0.774475,-0.574219,down
675920,3.542969,8.167969,-1.75,-0.429687,-0.482422,-2.240234,0.256165,-0.069885,-0.774475,-0.574219,down
675926,3.351563,8.320313,-1.710938,-0.447266,-0.494141,-2.263672,0.256165,-0.069885,-0.774475,-0.574219,down
675932,3.273438,8.320313,-1.671875,-0.447266,-0.494141,-2.263672,0.239136,-0.056519,-0.774475,-0.582947,down
675938,3.160156,8.246094,-1.558594,-0.574219,-0.523437,-2.283203,0.239136,-0.056519,-0.774475,-0.582947,down
675943,3.042969,8.164063,-1.441406,-0.662109,-0.521484,-2.263672,0.239136,-0.056519,-0.774475,-0.582947,down
675948,2.929688,8.167969,-1.441406,-0.662109,-0.521484,-2.263672,0.22583,-0.046631,-0.773499,-0.590332,down
675953,2.8125,8.203125,-1.480469,-0.804687,-0.453125,-2.21875,0.221252,-0.043274,-0.772888,-0.59314,down
675958,2.738281,8.285156,-1.59375,-0.804687,-0.453125,-2.21875,0.216919,-0.0401,-0.772156,-0.595886,down
675964,2.738281,8.285156,-1.59375,-0.734375,-0.480469,-2.214844,0.208862,-0.034119,-0.770813,-0.600891,down
675970,2.316406,9.125,-1.75,-0.734375,-0.480469,-2.214844,0.203918,-0.030518,-0.770081,-0.603699,down
675975,2.164063,9.355469,-1.789063,-0.591797,-0.560547,-2.228516,0.200012,-0.027771,-0.769653,-0.605713,down
675980,2.164063,9.355469,-1.789063,-0.5,-0.589844,-2.25,0.195557,-0.024658,-0.769226,-0.607788,down
675985,1.972656,9.777344,-1.902344,-0.5,-0.589844,-2.25,0.195557,-0.024658,-0.769226,-0.607788,down
675990,1.972656,9.777344,-1.902344,-0.40625,-0.630859,-2.279297,0.186096,-0.018188,-0.76886,-0.611511,down
675995,1.894531,9.894531,-2.015625,-0.40625,-0.630859,-2.279297,0.186096,-0.018188,-0.76886,-0.611511,down
676000,1.816406,10.078125,-2.054688,-0.279297,-0.726562,-2.394531,0.181152,-0.014893,-0.768799,-0.613159,down
676005,1.816406,10.160156,-2.09375,-0.255859,-0.769531,-2.464844,0.170654,-0.007996,-0.768799,-0.616272,down
676012,1.664063,10.121094,-2.054688,-0.255859,-0.769531,-2.464844,0.170654,-0.007996,-0.768799,-0.616272,down
676017,1.664063,10.121094,-2.054688,-0.353516,-0.724609,-2.609375,0.170654,-0.007996,-0.768799,-0.616272,down
676022,1.664063,9.890625,-2.09375,-0.353516,-0.724609,-2.609375,0.170654,-0.007996,-0.768799,-0.616272,down
676028,1.625,9.773438,-2.132813,-0.619141,-0.425781,-2.650391,0.170654,-0.007996,-0.768799,-0.616272,down
676033,1.511719,9.933594,-2.363281,-0.619141,-0.425781,-2.650391,0.144043,0.011169,-0.766785,-0.625427,down
676038,1.359375,10.121094,-2.398438,-0.619141,-0.425781,-2.650391,0.138855,0.015747,-0.765747,-0.627747,down
676043,1.203125,10.277344,-2.398438,-0.556641,-0.195312,-2.519531,0.134644,0.019653,-0.764771,-0.629761,down
676048,1.050781,10.464844,-2.398438,-0.556641,-0.195312,-2.519531,0.129883,0.024414,-0.763672,-0.631897,down
676054,0.667969,10.777344,-2.285156,-0.556641,-0.195312,-2.519531,0.121765,0.032776,-0.762024,-0.635132,down
676059,0.476562,10.882813,-2.324219,-0.556641,-0.195312,-2.519531,0.121765,0.032776,-0.762024,-0.635132,down
676064,0.476562,10.882813,-2.324219,-0.167969,-0.105469,-2.367188,0.117981,0.036865,-0.761536,-0.63623,down
676069,0.363281,10.964844,-2.207031,-0.167969,-0.105469,-2.367188,0.109985,0.04541,-0.761047,-0.637695,down
676074,0.285156,11.117188,-2.171875,-0.167969,-0.105469,-2.367188,0.109985,0.04541,-0.761047,-0.637695,down
676079,0.285156,11.117188,-2.171875,0.292969,-0.177734,-2.34375,0.105957,0.049622,-0.761169,-0.637878,down
676084,-0.136719,11.730469,-2.015625,0.292969,-0.177734,-2.34375,0.097229,0.058533,-0.761902,-0.637695,down
676089,-0.328125,12.191406,-1.902344,0.292969,-0.177734,-2.34375,0.092773,0.062805,-0.762329,-0.637451,down
676094,-0.402344,12.386719,-1.902344,0.292969,-0.177734,-2.34375,0.088806,0.06665,-0.762573,-0.637329,down
676099,-0.480469,12.457031,-1.902344,0.208984,-0.333984,-2.414063,0.084045,0.070984,-0.762695,-0.637329,down
676104,-0.480469,12.457031,-1.902344,0.039063,-0.378906,-2.443359,0.079895,0.074707,-0.762512,-0.637634,down
676109,-0.519531,12.652344,-1.980469,-0.208984,-0.417969,-2.455078,0.075134,0.078857,-0.761963,-0.638367,down
676114,-0.671875,12.691406,-1.980469,-0.208984,-0.417969,-2.455078,0.070496,0.082703,-0.760986,-0.639587,down
676120,-0.710937,12.414063,-1.902344,-0.208984,-0.417969,-2.455078,0.065674,0.086731,-0.75946,-0.641418,down
676125,-0.710937,12.347656,-1.863281,-1.111328,-0.453125,-2.519531,0.060364,0.091125,-0.757141,-0.644043,down
676130,-0.863281,11.992188,-1.902344,-1.111328,-0.453125,-2.519531,0.056519,0.09436,-0.755005,-0.646423,down
676135,-0.902344,11.847656,-1.902344,-1.564453,-0.398438,-2.517578,0.056519,0.09436,-0.755005,-0.646423,down
676140,-0.902344,11.847656,-1.902344,-1.701172,-0.384766,-2.529297,0.047546,0.102173,-0.74884,-0.653076,down
676145,-1.015625,11.691406,-1.824219,-1.701172,-0.384766,-2.529297,0.047546,0.102173,-0.74884,-0.653076,down
676150,-1.015625,11.691406,-1.824219,-1.757813,-0.388672,-2.53125,0.043152,0.106018,-0.745422,-0.656677,down
676155,-1.132813,11.648438,-1.710938,-1.757813,-0.388672,-2.53125,0.038635,0.110046,-0.741821,-0.6604,down
676161,-1.398438,11.652344,-1.59375,-1.621094,-0.359375,-2.601563,0.029907,0.11792,-0.734802,-0.667236,down
676167,-1.78125,11.84375,-1.25,-1.621094,-0.359375,-2.601563,0.029907,0.11792,-0.734802,-0.667236,down
676172,-1.898438,11.921875,-1.136719,-1.40625,-0.396484,-2.697266,0.029907,0.11792,-0.734802,-0.667236,down
676177,-1.976563,12.074219,-1.019531,-1.316406,-0.416016,-2.738281,0.029907,0.11792,-0.734802,-0.667236,down
676183,-2.167969,12.304688,-1.019531,-1.292969,-0.410156,-2.822266,0.029907,0.11792,-0.734802,-0.667236,down
676188,-2.472656,12.347656,-1.019531,-1.292969,-0.410156,-2.822266,0.005554,0.139038,-0.718689,-0.681274,down
676194,-2.664063,12.230469,-0.945312,-1.347656,-0.435547,-2.851563,0.005127,-0.14801,0.711792,0.686584,down
676199,-2.742188,12.191406,-0.945312,-1.53125,-0.498047,-2.941406,0.010193,-0.152161,0.708313,0.689209,down
676204,-2.972656,11.992188,-0.984375,-1.53125,-0.498047,-2.941406,0.016357,-0.157166,0.703857,0.692566,down
676209,-3.007813,11.804688,-0.792969,-1.826172,-0.535156,-3.011719,0.016357,-0.157166,0.703857,0.692566,down
676214,-3.164063,11.886719,-0.601562,-1.826172,-0.535156,-3.011719,0.026855,-0.165771,0.695312,0.698792,down
676219,-3.429688,12.113281,-0.636719,-1.826172,-0.535156,-3.011719,0.031677,-0.169922,0.690918,0.701965,down
676224,-3.582031,12.148438,-0.714844,-1.826172,-0.535156,-3.011719,0.031677,-0.169922,0.690918,0.701965,down
676229,-3.582031,12.148438,-0.714844,-2.201172,-0.445312,-3.007813,0.036926,-0.174561,0.685669,0.705688,down
676234,-3.8125,12.230469,-0.5625,-2.201172,-0.445312,-3.007813,0.041992,-0.179077,0.680359,0.709412,down
676239,-3.8125,12.230469,-0.5625,-2.402344,-0.460937,-2.958984,0.046936,-0.183533,0.674866,0.713257,down
676245,-4.386719,12.53125,-0.445312,-2.474609,-0.480469,-2.929688,0.056763,-0.192261,0.662964,0.721313,down
676251,-4.464844,12.417969,-0.023437,-2.474609,-0.480469,-2.929688,0.056763,-0.192261,0.662964,0.721313,down
676257,-4.617187,12.347656,0.128906,-2.474609,-0.480469,-2.929688,0.066345,-0.200562,0.650391,0.729614,down
676262,-4.695312,12.035156,0.128906,-2.734375,-0.558594,-2.728516,0.070862,-0.204407,0.644043,0.733765,down
676268,-4.808594,11.765625,0.167969,-2.908203,-0.564453,-2.556641,0.070862,-0.204407,0.644043,0.733765,down
676273,-5.039062,11.730469,0.320313,-2.908203,-0.564453,-2.556641,0.079529,-0.211914,0.630615,0.742371,down
676278,-5.078125,11.542969,0.472656,-2.908203,-0.564453,-2.556641,0.083496,-0.215332,0.623718,0.746765,down
676284,-5.0,11.308594,0.625,-3.050781,-0.564453,-2.316406,0.090515,-0.22168,0.609558,0.755737,down
676289,-5.039062,10.738281,0.855469,-3.050781,-0.564453,-2.316406,0.093689,-0.224792,0.601868,0.760559,down
676294,-5.152344,10.699219,0.894531,-3.0,-0.376953,-1.691406,0.093689,-0.224792,0.601868,0.760559,down
676299,-5.230469,10.578125,0.972656,-3.0,-0.376953,-1.691406,0.097839,-0.229736,0.588501,0.768982,down
676304,-5.230469,10.578125,0.972656,-3.0,-0.376953,-1.691406,0.097839,-0.229736,0.588501,0.768982,down
676309,-5.574219,10.621094,1.085938,-2.669922,-0.207031,-1.126953,0.098999,-0.231689,0.582703,0.772644,down
676315,-5.574219,10.621094,1.085938,-2.429688,-0.148437,-0.824219,0.09967,-0.233459,0.576965,0.776306,down
676320,-6.035156,11.0,1.238281,-2.429688,-0.148437,-0.824219,0.099792,-0.234741,0.572205,0.779419,down
676325,-6.496094,11.539063,1.277344,-1.822266,-0.005859,-0.191406,0.098389,-0.236145,0.564819,0.784546,down
676331,-6.917969,12.457031,1.46875,-1.822266,-0.005859,-0.191406,0.096924,-0.236145,0.562317,0.78656,down
676336,-6.917969,12.570313,1.738281,-1.037109,0.046875,0.871094,0.096924,-0.236145,0.562317,0.78656,down
676342,-6.878906,12.726563,1.851563,-0.84375,0.056641,1.255859,0.096924,-0.236145,0.562317,0.78656,down
676347,-6.800781,12.800781,2.042969,-0.84375,0.056641,1.255859,0.088745,-0.232666,0.558533,0.791199,down
676353,-6.761719,12.691406,2.234375,-0.583984,0.013672,2.078125,0.088745,-0.232666,0.558533,0.791199,down
676358,-6.609375,12.648438,2.3125,-0.492187,-0.042969,2.494141,0.088745,-0.232666,0.558533,0.791199,down
676364,-6.496094,12.574219,2.425781,-0.421875,-0.195312,3.277344,0.088745,-0.232666,0.558533,0.791199,down
676369,-6.113281,12.191406,2.578125,-0.449219,-0.265625,3.638672,0.067993,-0.218689,0.559998,0.796204,down
676374,-5.882812,11.964844,2.617188,-0.449219,-0.265625,3.638672,0.053223,-0.207214,0.562073,0.79895,down
676379,-5.613281,11.648438,2.617188,-0.578125,-0.355469,4.322266,0.053223,-0.207214,0.562073,0.79895,down
676384,-5.117187,10.808594,2.503906,-0.578125,-0.355469,4.322266,0.036926,-0.194153,0.563965,0.801819,down
676389,-4.847656,10.394531,2.386719,-0.652344,-0.449219,4.947266,0.036926,-0.194153,0.563965,0.801819,down
676394,-4.617187,9.933594,2.273438,-0.607422,-0.527344,5.21875,0.026978,-0.186096,0.565002,0.803345,down
676399,-4.3125,9.46875,2.195313,-0.607422,-0.527344,5.21875,0.007568,-0.169861,0.567139,0.805908,down
676404,-4.003906,9.085938,2.195313,-0.607422,-0.527344,5.21875,0.002869,0.160828,-0.568542,-0.806824,down
676409,-3.507813,8.46875,2.160156,-0.607422,-0.527344,5.21875,0.002869,0.160828,-0.568542,-0.806824,down
676414,-3.277344,8.164063,2.082031,-0.222656,-0.660156,5.851562,0.024963,0.141296,-0.572083,-0.807556,down
676419,-2.894531,7.667969,1.777344,-0.222656,-0.660156,5.851562,0.024963,0.141296,-0.572083,-0.807556,down
676424,-2.894531,7.667969,1.777344,0.087891,-0.650391,6.134766,0.036133,0.131409,-0.574219,-0.807251,down
676430,-2.585938,7.4375,1.777344,0.228516,-0.654297,6.244141,0.036133,0.131409,-0.574219,-0.807251,down
676435,-1.78125,7.058594,1.851563,0.369141,-0.652344,6.361328,0.036133,0.131409,-0.574219,-0.807251,down
676440,-1.78125,7.058594,1.851563,0.527344,-0.636719,6.457031,0.071167,0.100281,-0.581848,-0.803955,down
676445,-1.398438,6.898437,1.890625,0.681641,-0.589844,6.582031,0.095703,0.078796,-0.587769,-0.7995,down
676450,-1.246094,6.671875,1.777344,0.681641,-0.589844,6.582031,0.108215,0.068176,-0.590759,-0.796631,down
676456,-0.710937,5.605469,1.929688,0.681641,-0.589844,6.582031,0.12146,0.057068,-0.59375,-0.793396,down
676461,-0.710937,5.605469,1.929688,0.681641,-0.589844,6.582031,0.12146,0.057068,-0.59375,-0.793396,down
676467,-0.710937,5.605469,1.929688,0.806641,-0.400391,7.0625,0.147583,0.035217,-0.598877,-0.786377,down
676472,0.054687,4.484375,1.8125,0.845703,-0.4375,7.130859,0.161194,0.023682,-0.601257,-0.782288,down
676477,0.054687,4.484375,1.8125,0.845703,-0.4375,7.130859,0.161194,0.023682,-0.601257,-0.782288,down
676483,0.554687,3.378906,2.121094,0.966797,-0.449219,6.990234,0.161194,0.023682,-0.601257,-0.782288,down
676488,1.78125,2.6875,3.082031,1.212891,-0.417969,6.896484,0.161194,0.023682,-0.601257,-0.782288,down
676494,2.007813,2.726563,3.082031,1.712891,-0.095703,6.712891,0.161194,0.023682,-0.601257,-0.782288,down
676499,2.164063,2.765625,3.039063,1.712891,-0.095703,6.712891,0.225525,-0.029724,-0.613159,-0.756531,down
676504,2.164063,2.765625,3.039063,1.960938,0.03125,6.628906,0.238037,-0.038818,-0.616028,-0.749878,down
676509,2.316406,2.804688,2.886719,2.289063,0.087891,6.558594,0.238037,-0.038818,-0.616028,-0.749878,down
676514,2.316406,2.804688,2.886719,2.611328,0.082031,6.501953,0.263306,-0.056152,-0.622925,-0.734497,down
676519,2.660156,2.847656,2.617188,2.611328,0.082031,6.501953,0.263306,-0.056152,-0.622925,-0.734497,down
676524,3.0,2.535156,2.578125,2.923828,0.058594,6.445312,0.287598,-0.071899,-0.631348,-0.716614,down
676530,3.121094,2.269531,2.542969,3.583984,0.119141,6.376953,0.312012,-0.086487,-0.641357,-0.695557,down
676535,3.121094,2.039063,2.386719,4.136719,0.205078,6.294922,0.324829,-0.093506,-0.647034,-0.683411,down
676541,3.238281,1.769531,2.351563,4.136719,0.205078,6.294922,0.336304,-0.099487,-0.652283,-0.671997,down
676546,3.3125,1.234375,2.195313,4.136719,0.205078,6.294922,0.336304,-0.099487,-0.652283,-0.671997,down
676551,3.3125,1.234375,2.195313,4.449219,0.376953,6.189453,0.348145,-0.105347,-0.657654,-0.659668,down
676556,3.542969,1.117188,2.195313,4.496094,0.449219,6.136719,0.348145,-0.105347,-0.657654,-0.659668,down
676561,3.886719,0.734375,2.3125,4.580078,0.664062,5.978516,0.383789,-0.120972,-0.672791,-0.620789,down
676567,3.925781,0.277344,2.351563,4.580078,0.664062,5.978516,0.395874,-0.125427,-0.67749,-0.607117,down
676573,4.039062,0.277344,2.351563,4.697266,0.955078,5.775391,0.395874,-0.125427,-0.67749,-0.607117,down
676579,4.078125,0.503906,2.351563,4.728516,1.060547,5.671875,0.430847,-0.135864,-0.689575,-0.56604,down
676584,3.886719,0.660156,2.425781,4.728516,1.060547,5.671875,0.430847,-0.135864,-0.689575,-0.56604,down
676589,3.886719,0.660156,2.425781,4.925781,1.166016,5.423828,0.442017,-0.138367,-0.693237,-0.552185,down
676594,3.960938,0.851562,2.464844,4.925781,1.166016,5.423828,0.453308,-0.140625,-0.69696,-0.537537,down
676599,3.886719,1.15625,2.503906,5.085937,1.072266,5.089844,0.453308,-0.140625,-0.69696,-0.537537,down
676604,3.886719,1.15625,2.503906,5.082031,1.03125,4.886719,0.473755,-0.143799,-0.704041,-0.509094,down
676610,3.738281,1.042969,3.15625,5.082031,1.03125,4.886719,0.493469,-0.145752,-0.711365,-0.478699,down
676615,3.460938,0.925781,3.15625,5.082031,1.03125,4.886719,0.493469,-0.145752,-0.711365,-0.478699,down
676620,3.425781,0.890625,3.078125,4.988281,0.642578,3.896484,0.502136,-0.146118,-0.714844,-0.464172,down
676625,3.386719,0.695312,3.117188,4.988281,0.642578,3.896484,0.509766,-0.146118,-0.718201,-0.4505,down
676630,3.386719,0.695312,3.117188,4.824219,0.433594,3.603516,0.52179,-0.145752,-0.724609,-0.425964,down
676635,3.316406,0.621094,3.230469,4.824219,0.433594,3.603516,0.52179,-0.145752,-0.724609,-0.425964,down
676640,3.273438,0.582031,3.609375,4.824219,0.433594,3.603516,0.52179,-0.145752,-0.724609,-0.425964,down
676645,3.273438,0.582031,3.609375,4.033203,-0.236328,2.558594,0.530945,-0.14502,-0.731567,-0.402283,down
676650,2.773438,0.238281,3.609375,4.033203,-0.236328,2.558594,0.536438,-0.144226,-0.738708,-0.381836,down
676655,2.429688,0.238281,3.386719,4.033203,-0.236328,2.558594,0.537415,-0.143982,-0.741821,-0.37439,down
676660,2.238281,0.351563,3.15625,2.412109,-1.224609,1.033203,0.537415,-0.143738,-0.745605,-0.36676,down
676665,2.125,0.542969,2.882813,2.412109,-1.224609,1.033203,0.53656,-0.143555,-0.748901,-0.361511,down
676670,1.855469,0.660156,2.582031,2.412109,-1.224609,1.033203,0.534424,-0.143433,-0.752747,-0.35675,down
676675,1.664063,0.695312,2.425781,1.236328,-1.972656,-0.177734,0.531128,-0.143188,-0.756836,-0.353027,down
676680,1.550781,0.964844,2.078125,1.236328,-1.972656,-0.177734,0.531128,-0.143188,-0.756836,-0.353027,down
676685,1.550781,0.964844,2.078125,0.890625,-2.203125,-0.587891,0.527832,-0.142944,-0.760071,-0.351135,down
676690,1.433594,1.234375,1.8125,0.572266,-2.441406,-0.988281,0.527832,-0.142944,-0.760071,-0.351135,down
676695,1.242188,2.148438,1.046875,0.28125,-2.664063,-1.373047,0.517151,-0.141968,-0.768188,-0.34967,down
676700,1.242188,2.148438,1.046875,0.28125,-2.664063,-1.373047,0.517151,-0.141968,-0.768188,-0.34967,down
676705,1.242188,2.148438,1.046875,-0.005859,-2.882813,-1.75,0.494446,-0.139221,-0.781189,-0.354797,down
676710,0.707031,2.726563,0.011719,-0.933594,-3.546875,-2.818359,0.494446,-0.139221,-0.781189,-0.354797,down
676715,0.476562,2.808594,-0.828125,-0.933594,-3.546875,-2.818359,0.47406,-0.136719,-0.790405,-0.363037,down
676720,0.398438,3.03125,-1.289063,-1.4375,-3.945313,-3.451172,0.47406,-0.136719,-0.790405,-0.363037,down
676725,0.4375,3.414063,-1.824219,-1.4375,-3.945313,-3.451172,0.451721,-0.133728,-0.799011,-0.373779,down
676730,0.667969,3.914063,-2.398438,-1.4375,-3.945313,-3.451172,0.437622,-0.131836,-0.803772,-0.38092,down
676735,0.707031,3.914063,-2.515625,-2.199219,-4.451172,-4.261719,0.437622,-0.131836,-0.803772,-0.38092,down
676740,0.59375,3.839844,-2.707031,-2.199219,-4.451172,-4.261719,0.410706,-0.12793,-0.811523,-0.395447,down
676745,0.363281,4.296875,-3.472656,-2.199219,-4.451172,-4.261719,0.410706,-0.12793,-0.811523,-0.395447,down
676750,0.015625,4.339844,-3.703125,-2.345703,-4.478516,-4.789062,0.396912,-0.125427,-0.815002,-0.403076,down
676755,0.015625,4.339844,-3.703125,-2.386719,-4.513672,-5.095703,0.382202,-0.122253,-0.818481,-0.411194,down
676760,-0.519531,4.484375,-4.046875,-2.386719,-4.513672,-5.095703,0.366882,-0.118408,-0.821838,-0.419495,down
676765,-0.519531,4.484375,-4.046875,-2.183594,-4.583984,-5.757812,0.350525,-0.113708,-0.825195,-0.42804,down
676771,-1.476563,5.21875,-4.46875,-2.183594,-4.583984,-5.757812,0.316772,-0.101868,-0.831909,-0.444092,down
676777,-1.976563,6.171875,-4.582031,-2.183594,-4.583984,-5.757812,0.2995,-0.094971,-0.835144,-0.451477,down
676782,-2.128906,6.980469,-4.660156,-2.183594,-4.583984,-5.757812,0.2995,-0.094971,-0.835144,-0.451477,down
676787,-2.320313,7.441406,-4.582031,-1.427734,-4.820312,-6.908203,0.2995,-0.094971,-0.835144,-0.451477,down
676792,-2.320313,7.441406,-4.582031,-1.294922,-5.074219,-7.101562,0.242981,-0.070923,-0.844788,-0.471436,down
676798,-3.007813,8.507813,-4.085937,-1.294922,-5.074219,-7.101562,0.222839,-0.0625,-0.847595,-0.477539,down
676803,-3.238281,9.695313,-4.621094,-1.585938,-5.539062,-7.779297,0.201233,-0.053406,-0.849915,-0.48407,down
676808,-3.8125,10.425781,-6.0,-1.585938,-5.539062,-7.779297,0.201233,-0.053406,-0.849915,-0.48407,down
676814,-4.121094,10.15625,-7.378906,-1.585938,-5.539062,-7.779297,0.155579,-0.034363,-0.851807,-0.499023,down
676819,-4.386719,9.511719,-7.726562,-1.585938,-5.539062,-7.779297,0.13208,-0.024841,-0.851074,-0.507568,down
676824,-4.386719,9.511719,-7.726562,-3.685547,-6.330078,-8.966797,0.108582,-0.015564,-0.849121,-0.516663,down
676830,-4.503906,8.929688,-7.726562,-4.144531,-6.435547,-9.253906,0.108582,-0.015564,-0.849121,-0.516663,down
676835,-4.234375,8.703125,-7.417969,-4.419922,-6.462891,-9.494141,0.056641,0.005066,-0.841125,-0.537781,down
676840,-4.234375,8.703125,-7.417969,-4.578125,-6.357422,-9.6875,0.056641,0.005066,-0.841125,-0.537781,down
676846,-4.503906,8.363281,-7.1875,-4.578125,-6.357422,-9.6875,0.021851,-0.039551,0.821655,0.568176,down
676852,-5.957031,9.167969,-5.464844,-4.578125,-6.357422,-9.6875,0.046875,-0.052002,0.814392,0.576111,down
676857,-6.148437,8.703125,-5.542969,-3.244141,-5.007812,-10.136719,0.046875,-0.052002,0.814392,0.576111,down
676862,-6.148437,8.703125,-5.542969,-3.244141,-5.007812,-10.136719,0.046875,-0.052002,0.814392,0.576111,down
676868,-6.378906,8.46875,-5.734375,-2.785156,-4.488281,-10.214844,0.095764,-0.07959,0.799622,0.587402,down
676873,-7.300781,8.128906,-5.769531,-2.785156,-4.488281,-10.214844,0.095764,-0.07959,0.799622,0.587402,down
676878,-7.300781,8.128906,-5.769531,-1.976563,-3.386719,-10.654297,0.163452,-0.125916,0.777405,0.594238,down
676884,-10.289063,9.011719,-6.039062,-1.662109,-2.886719,-10.896484,0.163452,-0.125916,0.777405,0.594238,down
676890,-11.703125,9.585938,-6.5,-1.115234,-2.273438,-11.330078,0.163452,-0.125916,0.777405,0.594238,down
676895,-14.34375,11.539063,-7.378906,-1.115234,-2.273438,-11.330078,0.226868,-0.179565,0.753906,0.589844,down
676900,-15.609375,12.648438,-7.570312,-1.115234,-2.273438,-11.330078,0.248718,-0.199585,0.744995,0.585937,down
676905,-15.609375,12.648438,-7.570312,-1.167969,-2.269531,-11.4375,0.267273,-0.216675,0.736694,0.582153,down
676910,-17.445312,15.023438,-7.148437,-1.167969,-2.269531,-11.4375,0.267273,-0.216675,0.736694,0.582153,down
676916,-17.800781,16.554687,-6.652344,-1.259766,-2.404297,-11.246094,0.267273,-0.216675,0.736694,0.582153,down
676921,-17.800781,16.554687,-6.652344,-1.023438,-2.636719,-10.285156,0.344482,-0.282959,0.695374,0.56366,down
676926,-18.0625,18.625,-4.929687,-1.023438,-2.636719,-10.285156,0.361084,-0.295532,0.685242,0.559204,down
676931,-17.71875,18.203125,-4.890625,-0.994141,-2.710938,-7.609375,0.378296,-0.307922,0.67395,0.55481,down
676936,-17.03125,16.59375,-4.007812,-1.099609,-2.716797,-6.599609,0.391724,-0.316956,0.664429,0.55188,down
676941,-16.378906,15.292969,-3.050781,-1.099609,-2.716797,-6.599609,0.402344,-0.323547,0.656555,0.549927,down
676946,-15.6875,14.449219,-2.363281,-1.099609,-2.716797,-6.599609,0.402344,-0.323547,0.656555,0.549927,down
676951,-15.191406,13.300781,-1.632813,-0.914062,-2.394531,-4.765625,0.413086,-0.329773,0.648193,0.548157,down
676956,-15.191406,13.300781,-1.632813,-0.914062,-2.394531,-4.765625,0.42926,-0.338623,0.635193,0.545593,down
676961,-15.191406,13.300781,-1.632813,-0.914062,-2.394531,-4.765625,0.42926,-0.338623,0.635193,0.545593,down
676966,-14.964844,9.585938,-0.675781,-0.914062,-2.394531,-4.765625,0.441406,-0.344482,0.626404,0.542297,down
676971,-15.074219,9.429688,-0.601562,0.253906,-1.0625,-2.193359,0.447266,-0.346741,0.622925,0.540161,down
676977,-15.039063,9.011719,-0.179687,0.253906,-1.0625,-2.193359,0.451965,-0.348389,0.6203,0.538086,down
676982,-14.960938,8.894531,-0.101563,0.253906,-1.0625,-2.193359,0.455566,-0.349548,0.61853,0.536377,down
676987,-14.582031,8.589844,0.242187,0.253906,-1.0625,-2.193359,0.459473,-0.350891,0.616638,0.534424,down
676992,-14.308594,8.472656,0.472656,0.230469,-0.628906,-1.568359,0.459473,-0.350891,0.616638,0.534424,down
676998,-14.160156,8.320313,0.625,0.177734,-0.546875,-1.474609,0.459473,-0.350891,0.616638,0.534424,down
677003,-14.078125,8.28125,0.625,0.052734,-0.484375,-1.404297,0.459473,-0.350891,0.616638,0.534424,down
677008,-13.964844,8.207031,0.742187,-0.134766,-0.439453,-1.320313,0.459473,-0.350891,0.616638,0.534424,down
677013,-13.777344,8.050781,0.855469,-0.402344,-0.435547,-1.216797,0.459473,-0.350891,0.616638,0.534424,down
677018,-13.238281,7.324219,1.085938,-0.712891,-0.433594,-1.103516,0.459473,-0.350891,0.616638,0.534424,down
677024,-13.007813,6.980469,1.085938,-0.976562,-0.404297,-0.994141,0.459473,-0.350891,0.616638,0.534424,down
677029,-12.777344,6.441406,1.164063,-1.240234,-0.400391,-0.886719,0.459473,-0.350891,0.616638,0.534424,down
677034,-12.46875,5.945312,1.164063,-1.240234,-0.400391,-0.886719,0.477905,-0.366699,0.596741,0.530151,down
677039,-11.820313,4.988281,1.199219,-1.240234,-0.400391,-0.886719,0.477905,-0.366699,0.596741,0.530151,down
677044,-11.480469,4.71875,1.277344,-1.632813,-0.486328,-0.560547,0.477905,-0.366699,0.596741,0.530151,down
677049,-11.203125,4.488281,1.277344,-1.59375,-0.498047,-0.466797,0.477905,-0.366699,0.596741,0.530151,down
677055,-10.703125,4.144531,1.164063,-1.59375,-0.498047,-0.466797,0.477966,-0.376526,0.581177,0.540344,down
677060,-10.4375,4.066406,1.125,-1.59375,-0.498047,-0.466797,0.477966,-0.376526,0.581177,0.540344,down
677065,-10.4375,4.066406,1.125,-0.996094,-0.474609,-0.205078,0.477966,-0.377686,0.578735,0.542175,down
677070,-10.289063,3.992188,1.046875,-0.728516,-0.433594,-0.111328,0.477966,-0.377686,0.578735,0.542175,down
677075,-10.289063,3.992188,1.046875,-0.447266,-0.402344,-0.025391,0.47821,-0.378601,0.5755,0.544739,down
677080,-9.976563,3.609375,0.855469,-0.447266,-0.402344,-0.025391,0.47821,-0.378601,0.5755,0.544739,down
677085,-9.867188,3.035156,0.742187,-0.195312,-0.386719,0.046875,0.478882,-0.37793,0.574097,0.546143,down
677090,-9.75,2.917969,0.664062,-0.195312,-0.386719,0.046875,0.47998,-0.37616,0.573853,0.546692,down
677095,-9.519531,2.84375,0.625,-0.195312,-0.386719,0.046875,0.47998,-0.37616,0.573853,0.546692,down
677100,-9.367188,2.84375,0.550781,0.365234,-0.371094,0.132812,0.47998,-0.37616,0.573853,0.546692,down
677106,-9.101563,2.996094,0.472656,0.375,-0.361328,0.132812,0.47998,-0.37616,0.573853,0.546692,down
677111,-9.027344,3.035156,0.472656,0.375,-0.361328,0.132812,0.482605,-0.371826,0.574646,0.546509,down
677116,-8.988281,3.109375,0.394531,0.314453,-0.21875,0.212891,0.483032,-0.37085,0.574951,0.546448,down
677121,-8.984375,3.1875,0.359375,0.314453,-0.21875,0.212891,0.483032,-0.37085,0.574951,0.546448,down
677126,-9.023438,3.226563,0.28125,0.267578,-0.158203,0.251953,0.483337,-0.369141,0.575684,0.546509,down
677131,-9.027344,3.226563,0.320313,0.226562,-0.0625,0.333984,0.483337,-0.369141,0.575684,0.546509,down
677136,-9.023438,3.1875,0.394531,0.226562,-0.0625,0.333984,0.483093,-0.367432,0.576843,0.546753,down
677141,-8.988281,3.148438,0.359375,0.226562,-0.0625,0.333984,0.482788,-0.36676,0.577393,0.546814,down
677146,-8.988281,3.035156,0.320313,0.226562,-0.0625,0.333984,0.4823,-0.365967,0.578186,0.546936,down
677151,-9.101563,2.996094,0.320313,0.273438,0.109375,0.431641,0.4823,-0.365967,0.578186,0.546936,down
677156,-9.136719,2.917969,0.320313,0.314453,0.123047,0.449219,0.481873,-0.365234,0.579041,0.546936,down
677161,-9.175781,2.878906,0.359375,0.314453,0.123047,0.449219,0.480896,-0.363586,0.580933,0.546875,down
677166,-9.175781,2.84375,0.359375,0.314453,0.123047,0.449219,0.48053,-0.362732,0.581848,0.546814,down
677171,-9.105469,2.765625,0.511719,0.351563,0.087891,0.439453,0.48053,-0.362732,0.581848,0.546814,down
677176,-9.101563,2.878906,0.472656,0.351563,0.087891,0.439453,0.480042,-0.361694,0.582947,0.546692,down
677181,-9.105469,2.878906,0.394531,0.351563,0.087891,0.439453,0.479248,-0.360046,0.584717,0.54657,down
677186,-9.101563,2.917969,0.320313,0.351563,0.087891,0.439453,0.479248,-0.360046,0.584717,0.54657,down
677191,-9.136719,2.878906,0.320313,0.253906,0.0625,0.439453,0.478333,-0.358337,0.586365,0.546753,down
677196,-9.0625,2.804688,0.28125,0.253906,0.0625,0.439453,0.477844,-0.357605,0.587097,0.546936,down
677201,-9.023438,2.726563,0.242187,0.253906,0.0625,0.439453,0.477356,-0.356873,0.587646,0.547241,down
677206,-9.023438,2.6875,0.28125,0.068359,0.003906,0.441406,0.477356,-0.356873,0.587646,0.547241,down
677211,-8.949219,2.613281,0.28125,0.054687,0.015625,0.429687,0.476746,-0.35614,0.588196,0.547607,down
677216,-9.023438,2.269531,0.203125,0.054687,0.015625,0.429687,0.475769,-0.354858,0.589111,0.54834,down
677221,-9.023438,2.191406,0.167969,0.107422,-0.015625,0.394531,0.475769,-0.354858,0.589111,0.54834,down
677226,-9.023438,2.191406,0.167969,0.107422,-0.015625,0.394531,0.47522,-0.354126,0.5896,0.548706,down
677231,-8.945313,2.269531,0.320313,0.166016,-0.023437,0.341797,0.47522,-0.354126,0.5896,0.548706,down
677236,-8.945313,2.269531,0.320313,0.166016,-0.023437,0.341797,0.474548,-0.352051,0.591187,0.549011,down
677241,-9.027344,2.574219,0.394531,0.166016,-0.023437,0.341797,0.474548,-0.352051,0.591187,0.549011,down
677246,-9.101563,2.6875,0.320313,0.355469,0.046875,0.226562,0.474426,-0.350647,0.592651,0.548401,down
677252,-9.171875,2.957031,0.320313,0.355469,0.046875,0.226562,0.474426,-0.350037,0.593384,0.547974,down
677257,-9.214844,3.074219,0.394531,0.355469,0.046875,0.226562,0.474426,-0.349426,0.594238,0.547485,down
677262,-9.214844,3.109375,0.394531,0.332031,0.091797,0.169922,0.474365,-0.348938,0.59491,0.547058,down
677267,-9.214844,3.074219,0.359375,0.332031,0.091797,0.169922,0.474304,-0.348511,0.59552,0.546753,down
677274,-9.214844,3.074219,0.359375,0.332031,0.091797,0.169922,0.474121,-0.348145,0.596069,0.546509,down
677280,-9.25,3.035156,0.359375,0.099609,0.097656,0.203125,0.474121,-0.348145,0.596069,0.546509,down
677286,-9.214844,2.917969,0.320313,0.009766,0.089844,0.216797,0.474121,-0.348145,0.596069,0.546509,down
677292,-9.171875,2.84375,0.320313,0.009766,0.089844,0.216797,0.472412,-0.34729,0.597412,0.547119,down
677297,-9.175781,2.765625,0.320313,-0.150391,0.082031,0.273438,0.471863,-0.347229,0.597534,0.547546,down
677302,-9.132813,2.765625,0.320313,-0.140625,0.105469,0.296875,0.471191,-0.347107,0.597717,0.547974,down
677308,-9.132813,2.6875,0.242187,-0.140625,0.105469,0.296875,0.470581,-0.346985,0.5979,0.54834,down
677313,-9.101563,2.574219,0.28125,-0.041016,0.150391,0.332031,0.470581,-0.346985,0.5979,0.54834,down
677318,-9.105469,2.496094,0.28125,0.027344,0.158203,0.351563,0.470581,-0.346985,0.5979,0.54834,down
677323,-9.105469,2.496094,0.242187,0.134766,0.169922,0.355469,0.468506,-0.34613,0.599304,0.549072,down
677328,-9.136719,2.421875,0.28125,0.134766,0.169922,0.355469,0.468506,-0.34613,0.599304,0.549072,down
677333,-9.132813,2.460938,0.359375,0.373047,0.181641,0.363281,0.468506,-0.34613,0.599304,0.549072,down
677338,-9.132813,2.574219,0.320313,0.484375,0.183594,0.351563,0.468506,-0.34613,0.599304,0.549072,down
677343,-9.101563,2.765625,0.28125,0.484375,0.183594,0.351563,0.466736,-0.343323,0.603394,0.547852,down
677350,-9.253906,2.804688,0.28125,0.484375,0.183594,0.351563,0.466736,-0.343323,0.603394,0.547852,down
677355,-9.292969,2.917969,0.320313,0.65625,0.193359,0.333984,0.466736,-0.343323,0.603394,0.547852,down
677360,-9.367188,3.074219,0.320313,0.677734,0.179687,0.320313,0.466736,-0.343323,0.603394,0.547852,down
677365,-9.515625,3.265625,0.394531,0.677734,0.179687,0.320313,0.466064,-0.339417,0.608948,0.5448,down
677370,-9.554688,3.378906,0.472656,0.615234,0.132812,0.275391,0.466064,-0.339417,0.608948,0.5448,down
677375,-9.59375,3.53125,0.472656,0.615234,0.132812,0.275391,0.465942,-0.337463,0.61145,0.543274,down
677380,-9.59375,3.53125,0.472656,0.615234,0.132812,0.275391,0.465881,-0.33667,0.612427,0.542664,down
677385,-9.519531,3.570313,0.433594,0.615234,0.132812,0.275391,0.465881,-0.33667,0.612427,0.542664,down
677391,-9.519531,3.570313,0.394531,0.226562,-0.009766,0.197266,0.465759,-0.334839,0.614136,0.542053,down
677396,-9.445313,3.492188,0.433594,0.226562,-0.009766,0.197266,0.465637,-0.334412,0.614258,0.542236,down
677401,-9.371094,3.492188,0.359375,-0.074219,-0.113281,0.164062,0.465637,-0.334412,0.614258,0.542236,down
677406,-9.328125,3.457031,0.28125,-0.074219,-0.113281,0.164062,0.465576,-0.334045,0.614258,0.542542,down
677411,-9.289063,3.417969,0.242187,-0.136719,-0.136719,0.171875,0.465332,-0.333496,0.613892,0.543579,down
677416,-9.175781,3.417969,0.28125,-0.136719,-0.136719,0.171875,0.465149,-0.333191,0.613586,0.544189,down
677421,-9.175781,3.109375,0.167969,-0.136719,-0.136719,0.171875,0.465149,-0.333191,0.613586,0.544189,down
677426,-9.101563,2.957031,0.128906,-0.199219,-0.175781,0.201172,0.465149,-0.333191,0.613586,0.544189,down
677431,-8.988281,2.84375,0.128906,-0.103516,-0.199219,0.183594,0.465149,-0.333191,0.613586,0.544189,down
677436,-8.867188,2.804688,0.167969,-0.103516,-0.199219,0.183594,0.464783,-0.332153,0.612732,0.546082,down
677441,-8.792969,2.84375,0.167969,0.060547,-0.175781,0.154297,0.464844,-0.331665,0.612549,0.54657,down
677446,-8.683594,2.957031,0.128906,0.166016,-0.150391,0.148437,0.464905,-0.331238,0.612488,0.546814,down
677451,-8.605469,3.148438,0.089844,0.166016,-0.150391,0.148437,0.465027,-0.330627,0.61261,0.546936,down
677456,-8.644531,3.1875,0.128906,0.166016,-0.150391,0.148437,0.46521,-0.330017,0.612854,0.546936,down
677461,-8.644531,3.1875,0.089844,0.166016,-0.150391,0.148437,0.465393,-0.329346,0.613159,0.546814,down
677467,-8.683594,3.074219,0.050781,0.269531,-0.044922,0.173828,0.465393,-0.329346,0.613159,0.546814,down
677473,-8.679688,3.109375,0.128906,0.269531,-0.044922,0.173828,0.465515,-0.327515,0.614563,0.546204,down
677479,-8.679688,3.109375,0.167969,0.253906,0.017578,0.15625,0.465515,-0.327515,0.614563,0.546204,down
677485,-8.679688,3.148438,0.128906,0.244141,0.037109,0.158203,0.465454,-0.326538,0.61554,0.545715,down
677491,-8.644531,3.300781,0.050781,0.244141,0.037109,0.158203,0.465454,-0.326538,0.61554,0.545715,down
677496,-8.683594,3.339844,0.089844,0.169922,0.076172,0.146484,0.465454,-0.326538,0.61554,0.545715,down
