timestamp,ax,ay,az,gx,gy,gz,qw,qx,qy,qz,label
623151,1.421875,8.808594,-3.457031,0.021484,0.0,0.060547,0.012756,0.140076,0.81427,0.563171,down
623156,1.421875,8.769531,-3.34375,0.021484,0.0,0.060547,0.012817,0.140076,0.814392,0.562988,down
623161,1.421875,8.808594,-3.378906,0.078125,-0.058594,-0.033203,0.012817,0.140076,0.814392,0.562988,down
623166,1.421875,8.84375,-3.34375,0.078125,-0.058594,-0.033203,0.013,0.140076,0.814514,0.562805,down
623171,1.460938,8.804688,-3.378906,0.078125,-0.058594,-0.033203,0.01355,0.140076,0.814636,0.562683,down
623176,1.421875,8.769531,-3.378906,0.078125,-0.058594,-0.033203,0.013977,0.140015,0.814514,0.562805,down
623181,1.460938,8.730469,-3.570313,0.078125,-0.058594,-0.033203,0.013977,0.140015,0.814514,0.562805,down
623186,1.5,8.652344,-3.609375,-0.1875,-0.121094,-0.103516,0.014954,0.139893,0.814087,0.563477,down
623191,1.460938,8.613281,-3.609375,-0.1875,-0.121094,-0.103516,0.014954,0.139893,0.814087,0.563477,down
623196,1.535156,8.609375,-3.535156,-0.365234,-0.175781,-0.195312,0.014954,0.139893,0.814087,0.563477,down
623201,1.535156,8.648438,-3.496094,-0.365234,-0.175781,-0.195312,0.016357,0.139587,0.813293,0.564636,down
623207,1.5,8.691406,-3.496094,-0.394531,-0.173828,-0.265625,0.017273,0.139282,0.812744,0.56543,down
623212,1.460938,8.691406,-3.496094,-0.394531,-0.173828,-0.265625,0.019104,0.138672,0.811768,0.566956,down
623217,1.460938,8.691406,-3.457031,-0.369141,-0.220703,-0.289063,0.020142,0.138367,0.81134,0.567627,down
623223,1.382813,8.691406,-3.535156,-0.369141,-0.220703,-0.289063,0.020996,0.138062,0.810974,0.568176,down
623228,1.382813,8.769531,-3.648438,-0.306641,-0.224609,-0.277344,0.020996,0.138062,0.810974,0.568176,down
623233,1.382813,8.765625,-3.761719,-0.292969,-0.21875,-0.271484,0.020996,0.138062,0.810974,0.568176,down
623238,1.421875,8.84375,-3.839844,-0.28125,-0.214844,-0.246094,0.020996,0.138062,0.810974,0.568176,down
623243,1.460938,9.152344,-4.109375,-0.28125,-0.214844,-0.246094,0.024841,0.137024,0.80957,0.570251,down
623249,1.5,9.269531,-4.183594,-0.248047,-0.169922,-0.191406,0.024841,0.137024,0.80957,0.570251,down
623254,1.5,9.375,-4.261719,-0.232422,-0.152344,-0.152344,0.024841,0.137024,0.80957,0.570251,down
623260,1.535156,9.375,-4.222656,-0.232422,-0.152344,-0.152344,0.024841,0.137024,0.80957,0.570251,down
623265,1.535156,9.308594,-4.183594,-0.177734,-0.109375,-0.072266,0.024841,0.137024,0.80957,0.570251,down
623270,1.535156,9.226563,-4.109375,-0.121094,-0.074219,-0.046875,0.024841,0.137024,0.80957,0.570251,down
623275,1.5,9.265625,-3.917969,-0.064453,-0.064453,-0.021484,0.024841,0.137024,0.80957,0.570251,down
623280,1.5,9.226563,-3.800781,-0.013672,-0.058594,-0.015625,0.024841,0.137024,0.80957,0.570251,down
623285,1.460938,9.191406,-3.6875,-0.013672,-0.058594,-0.015625,0.028381,0.136475,0.807983,0.572449,down
623291,1.421875,9.152344,-3.570313,0.017578,-0.068359,-0.009766,0.028381,0.136475,0.807983,0.572449,down
623297,1.34375,9.074219,-3.535156,0.017578,-0.068359,-0.009766,0.028992,0.136597,0.808044,0.572327,down
623302,1.382813,9.03125,-3.570313,-0.037109,-0.095703,-0.0625,0.029297,0.136597,0.808044,0.572327,down
623308,1.421875,8.925781,-3.496094,-0.037109,-0.095703,-0.0625,0.029724,0.136536,0.807922,0.572449,down
623313,1.421875,8.882813,-3.496094,-0.037109,-0.095703,-0.0625,0.030151,0.136475,0.8078,0.572632,down
623318,1.421875,8.808594,-3.496094,-0.037109,-0.095703,-0.0625,0.03064,0.136353,0.807556,0.572937,down
623323,1.421875,8.769531,-3.570313,-0.277344,-0.117188,-0.15625,0.03064,0.136353,0.807556,0.572937,down
623328,1.421875,8.6875,-3.535156,-0.345703,-0.126953,-0.164062,0.03064,0.136353,0.807556,0.572937,down
623334,1.460938,8.730469,-3.496094,-0.345703,-0.126953,-0.164062,0.032471,0.135742,0.806396,0.574707,down
623340,1.460938,8.691406,-3.417969,-0.400391,-0.123047,-0.177734,0.032471,0.135742,0.806396,0.574707,down
623345,1.460938,8.648438,-3.417969,-0.390625,-0.119141,-0.175781,0.032471,0.135742,0.806396,0.574707,down
623350,1.421875,8.652344,-3.496094,-0.373047,-0.105469,-0.167969,0.032471,0.135742,0.806396,0.574707,down
623355,1.421875,8.769531,-3.535156,-0.373047,-0.105469,-0.167969,0.035095,0.134766,0.804321,0.577637,down
623361,1.382813,8.730469,-3.570313,-0.257813,-0.082031,-0.154297,0.036072,0.134277,0.80365,0.578613,down
623366,1.230469,8.726563,-3.457031,-0.257813,-0.082031,-0.154297,0.036072,0.134277,0.80365,0.578613,down
623371,1.191406,8.726563,-3.417969,-0.050781,-0.054687,-0.148437,0.03656,0.134094,0.803467,0.578918,down
623376,1.113281,8.804688,-3.457031,-0.050781,-0.054687,-0.148437,0.036987,0.13385,0.803406,0.579041,down
623381,1.039063,8.847656,-3.378906,-0.050781,-0.054687,-0.148437,0.037292,0.133606,0.803406,0.579102,down
623386,0.921875,8.882813,-3.34375,-0.050781,-0.054687,-0.148437,0.037659,0.133362,0.803467,0.578979,down
623391,1.0,8.925781,-3.304688,0.09375,-0.052734,-0.148437,0.037964,0.133179,0.803589,0.578796,down
623396,0.886719,8.921875,-3.265625,0.09375,-0.052734,-0.148437,0.038269,0.132935,0.803772,0.578613,down
623401,0.808594,9.070313,-3.304688,0.09375,-0.052734,-0.148437,0.038635,0.13269,0.803955,0.57843,down
623406,0.769531,9.109375,-3.34375,0.09375,-0.052734,-0.148437,0.039001,0.132385,0.804138,0.578186,down
623411,0.769531,9.152344,-3.265625,-0.019531,-0.089844,-0.222656,0.039001,0.132385,0.804138,0.578186,down
623416,0.730469,9.113281,-3.1875,-0.019531,-0.089844,-0.222656,0.039856,0.131714,0.804321,0.578003,down
623422,0.730469,9.113281,-3.152344,-0.019531,-0.089844,-0.222656,0.041077,0.13092,0.804199,0.578308,down
623427,0.695312,9.152344,-3.226563,-0.226562,-0.105469,-0.324219,0.04187,0.130371,0.804016,0.578674,down
623432,0.695312,9.1875,-3.152344,-0.226562,-0.105469,-0.324219,0.042786,0.129761,0.803711,0.579102,down
623437,0.617187,9.191406,-3.1875,-0.341797,-0.148437,-0.386719,0.04364,0.129211,0.803406,0.579651,down
623443,0.617187,8.992188,-3.035156,-0.341797,-0.148437,-0.386719,0.044617,0.128601,0.802979,0.580261,down
623448,0.578125,8.996094,-3.074219,-0.394531,-0.152344,-0.396484,0.044617,0.128601,0.802979,0.580261,down
623453,0.539062,8.953125,-3.113281,-0.400391,-0.158203,-0.388672,0.044617,0.128601,0.802979,0.580261,down
623458,0.578125,8.992188,-3.113281,-0.400391,-0.158203,-0.388672,0.047729,0.12677,0.801575,0.582397,down
623464,0.539062,8.996094,-3.074219,-0.400391,-0.158203,-0.388672,0.047729,0.12677,0.801575,0.582397,down
623469,0.503906,8.953125,-3.074219,-0.279297,-0.1875,-0.333984,0.047729,0.12677,0.801575,0.582397,down
623474,0.503906,9.035156,-2.960938,-0.279297,-0.1875,-0.333984,0.050842,0.125305,0.800415,0.583984,down
623479,0.464844,9.070313,-2.996094,-0.105469,-0.216797,-0.291016,0.050842,0.125305,0.800415,0.583984,down
623485,0.425781,9.074219,-2.960938,-0.003906,-0.216797,-0.269531,0.050842,0.125305,0.800415,0.583984,down
623490,0.386719,9.070313,-2.996094,0.0625,-0.224609,-0.253906,0.050842,0.125305,0.800415,0.583984,down
623495,0.347656,9.226563,-3.152344,0.0625,-0.224609,-0.253906,0.050842,0.125305,0.800415,0.583984,down
623501,0.386719,9.335938,-3.265625,0.0625,-0.224609,-0.253906,0.054932,0.124146,0.800781,0.583374,down
623507,0.425781,9.375,-3.1875,0.152344,-0.201172,-0.253906,0.056519,0.123718,0.801331,0.582581,down
623512,0.464844,9.496094,-3.1875,0.152344,-0.201172,-0.253906,0.057312,0.123413,0.801575,0.582275,down
623517,0.464844,9.535156,-3.226563,0.152344,-0.201172,-0.253906,0.058167,0.123047,0.801758,0.58197,down
623522,0.464844,9.535156,-3.1875,-0.013672,-0.207031,-0.410156,0.058167,0.123047,0.801758,0.58197,down
623527,0.464844,9.496094,-3.152344,-0.013672,-0.207031,-0.410156,0.059265,0.122498,0.80188,0.581787,down
623533,0.503906,9.535156,-3.113281,-0.013672,-0.207031,-0.410156,0.061401,0.121216,0.801758,0.58197,down
623538,0.503906,9.535156,-3.113281,-0.314453,-0.224609,-0.582031,0.062805,0.120361,0.801514,0.582336,down
623543,0.503906,9.457031,-2.996094,-0.314453,-0.224609,-0.582031,0.064453,0.119324,0.801086,0.583008,down
623549,0.503906,9.308594,-2.960938,-0.314453,-0.224609,-0.582031,0.065796,0.118347,0.800659,0.583618,down
623556,0.503906,9.191406,-2.921875,-0.550781,-0.216797,-0.722656,0.065796,0.118347,0.800659,0.583618,down
623561,0.503906,9.152344,-2.84375,-0.583984,-0.210937,-0.763672,0.065796,0.118347,0.800659,0.583618,down
623566,0.425781,9.113281,-2.804688,-0.589844,-0.208984,-0.777344,0.072693,0.113098,0.798035,0.587402,down
623571,0.425781,9.113281,-2.730469,-0.589844,-0.208984,-0.777344,0.072693,0.113098,0.798035,0.587402,down
623576,0.347656,9.109375,-2.691406,-0.529297,-0.220703,-0.847656,0.072693,0.113098,0.798035,0.587402,down
623581,0.308594,9.03125,-2.613281,-0.529297,-0.220703,-0.847656,0.076355,0.110168,0.796753,0.589233,down
623587,0.15625,9.035156,-2.421875,-0.529297,-0.220703,-0.847656,0.080261,0.107178,0.795776,0.590576,down
623592,0.117188,9.035156,-2.347656,-0.294922,-0.320313,-0.90625,0.080261,0.107178,0.795776,0.590576,down
623597,0.003906,8.953125,-2.230469,-0.294922,-0.320313,-0.90625,0.084351,0.104431,0.795227,0.591248,down
623602,-0.074219,8.882813,-2.15625,-0.294922,-0.320313,-0.90625,0.086609,0.103149,0.795166,0.591248,down
623607,-0.226562,8.921875,-1.925781,-0.095703,-0.556641,-0.982422,0.089294,0.101807,0.795105,0.591125,down
623612,-0.300781,8.921875,-1.847656,-0.095703,-0.556641,-0.982422,0.089294,0.101807,0.795105,0.591125,down
623617,-0.378906,8.996094,-1.847656,-0.056641,-0.710937,-1.0625,0.089294,0.101807,0.795105,0.591125,down
623622,-0.53125,9.109375,-1.886719,-0.056641,-0.710937,-1.0625,0.097778,0.098572,0.795105,0.590393,down
623627,-0.570312,9.109375,-1.925781,-0.140625,-0.869141,-1.146484,0.097778,0.098572,0.795105,0.590393,down
623632,-0.648437,9.191406,-1.964844,-0.189453,-0.939453,-1.179688,0.101318,0.097412,0.794983,0.590088,down
623637,-0.761719,9.265625,-2.117188,-0.189453,-0.939453,-1.179688,0.108582,0.095398,0.794495,0.589844,down
623642,-0.839844,9.304688,-2.269531,-0.189453,-0.939453,-1.179688,0.112488,0.09436,0.794006,0.589905,down
623647,-0.992187,9.378906,-2.382813,-0.189453,-0.939453,-1.179688,0.112488,0.09436,0.794006,0.589905,down
623652,-1.070313,9.335938,-2.382813,-0.451172,-1.107422,-1.273438,0.12085,0.092285,0.792664,0.590393,down
623657,-1.144531,9.417969,-2.539063,-0.451172,-1.107422,-1.273438,0.12085,0.092285,0.792664,0.590393,down
623662,-1.222656,9.375,-2.539063,-0.652344,-1.128906,-1.337891,0.12085,0.092285,0.792664,0.590393,down
623667,-1.261719,9.378906,-2.574219,-0.652344,-1.128906,-1.337891,0.129944,0.089966,0.790649,0.591492,down
623673,-1.375,9.375,-2.574219,-0.652344,-1.128906,-1.337891,0.138733,0.087463,0.788452,0.592834,down
623678,-1.453125,9.339844,-2.460938,-0.652344,-1.128906,-1.337891,0.142761,0.086182,0.787354,0.593506,down
623683,-1.488281,9.304688,-2.421875,-0.791016,-1.083984,-1.423828,0.147583,0.084595,0.786011,0.59436,down
623688,-1.644531,9.191406,-2.347656,-0.791016,-1.083984,-1.423828,0.152283,0.082947,0.784607,0.595276,down
623693,-1.679688,9.070313,-2.347656,-0.791016,-1.083984,-1.423828,0.156189,0.081482,0.783386,0.596069,down
623698,-1.71875,8.996094,-2.269531,-0.919922,-0.988281,-1.511719,0.161011,0.079468,0.781738,0.597168,down
623704,-1.871094,8.992188,-2.191406,-0.919922,-0.988281,-1.511719,0.164917,0.07782,0.780457,0.598022,down
623709,-1.910156,8.84375,-2.039063,-0.919922,-0.988281,-1.511719,0.1698,0.075684,0.778748,0.599182,down
623715,-1.910156,8.765625,-1.886719,-0.919922,-0.988281,-1.511719,0.173889,0.073853,0.777222,0.60022,down
623720,-2.027344,8.691406,-1.886719,-1.015625,-0.953125,-1.623047,0.173889,0.073853,0.777222,0.60022,down
623725,-2.066406,8.652344,-1.847656,-1.044922,-0.947266,-1.642578,0.173889,0.073853,0.777222,0.60022,down
623731,-2.179688,8.53125,-1.734375,-1.044922,-0.947266,-1.642578,0.173889,0.073853,0.777222,0.60022,down
623737,-2.140625,8.503906,-1.65625,-1.09375,-0.955078,-1.644531,0.173889,0.073853,0.777222,0.60022,down
623743,-2.140625,8.308594,-1.503906,-1.109375,-0.960937,-1.636719,0.173889,0.073853,0.777222,0.60022,down
623749,-2.140625,8.148438,-1.425781,-1.109375,-0.960937,-1.636719,0.205383,0.058228,0.764526,0.608276,down
623754,-2.101563,8.003906,-1.351563,-1.169922,-0.916016,-1.570313,0.205383,0.058228,0.764526,0.608276,down
623759,-2.140625,7.964844,-1.3125,-1.191406,-0.896484,-1.537109,0.214111,0.053711,0.760376,0.61084,down
623765,-2.179688,7.882812,-1.273438,-1.191406,-0.896484,-1.537109,0.214111,0.053711,0.760376,0.61084,down
623770,-2.140625,7.882812,-1.234375,-1.181641,-0.857422,-1.458984,0.214111,0.053711,0.760376,0.61084,down
623775,-2.179688,7.847656,-1.195313,-1.173828,-0.835937,-1.414063,0.214111,0.053711,0.760376,0.61084,down
623780,-2.257813,7.808594,-1.195313,-1.171875,-0.798828,-1.386719,0.214111,0.053711,0.760376,0.61084,down
623785,-2.179688,7.738281,-1.121094,-1.171875,-0.798828,-1.386719,0.214111,0.053711,0.760376,0.61084,down
623791,-2.140625,7.621094,-1.121094,-1.171875,-0.798828,-1.386719,0.237488,0.041138,0.747681,0.618774,down
623797,-2.179688,7.542969,-1.121094,-1.097656,-0.681641,-1.242188,0.237488,0.041138,0.747681,0.618774,down
623803,-2.257813,7.5,-1.042969,-1.097656,-0.681641,-1.242188,0.247681,0.035217,0.741516,0.622559,down
623808,-2.21875,7.460937,-1.042969,-0.96875,-0.605469,-1.179688,0.251099,0.033142,0.739502,0.623657,down
623813,-2.292969,7.460937,-1.042969,-0.890625,-0.583984,-1.138672,0.25415,0.031311,0.737732,0.624634,down
623819,-2.410156,7.542969,-0.929687,-0.806641,-0.560547,-1.097656,0.256775,0.029724,0.736267,0.625366,down
623824,-2.675781,7.808594,-0.890625,-0.806641,-0.560547,-1.097656,0.259521,0.028137,0.734802,0.626038,down
623829,-2.792969,7.886719,-0.929687,-0.634766,-0.533203,-1.017578,0.259521,0.028137,0.734802,0.626038,down
623834,-2.832031,8.003906,-0.851562,-0.542969,-0.558594,-0.978516,0.259521,0.028137,0.734802,0.626038,down
623839,-2.984375,8.1875,-0.851562,-0.542969,-0.558594,-0.978516,0.259521,0.028137,0.734802,0.626038,down
623844,-3.023438,8.382813,-0.8125,-0.445312,-0.59375,-0.947266,0.259521,0.028137,0.734802,0.626038,down
623849,-3.136719,8.5,-0.890625,-0.386719,-0.605469,-0.923828,0.272644,0.021973,0.729126,0.627319,down
623856,-3.328125,8.730469,-0.929687,-0.386719,-0.605469,-0.923828,0.272644,0.021973,0.729126,0.627319,down
623862,-3.480469,8.953125,-1.042969,-0.386719,-0.605469,-0.923828,0.272644,0.021973,0.729126,0.627319,down
623867,-3.519531,9.035156,-1.082031,-0.378906,-0.642578,-0.878906,0.282959,0.018494,0.725281,0.62738,down
623872,-3.519531,9.152344,-1.160156,-0.378906,-0.642578,-0.878906,0.282959,0.018494,0.725281,0.62738,down
623877,-3.558594,9.1875,-1.160156,-0.378906,-0.642578,-0.878906,0.288147,0.016724,0.722778,0.62793,down
623882,-3.519531,9.1875,-1.195313,-0.378906,-0.642578,-0.878906,0.288147,0.016724,0.722778,0.62793,down
623888,-3.480469,9.191406,-1.195313,-0.671875,-0.703125,-0.869141,0.293701,0.014709,0.719604,0.629028,down
623894,-3.519531,9.152344,-1.121094,-0.671875,-0.703125,-0.869141,0.296204,0.013733,0.717957,0.629761,down
623899,-3.519531,9.152344,-1.121094,-0.892578,-0.607422,-0.849609,0.298706,0.012573,0.716187,0.630676,down
623904,-3.480469,8.992188,-1.160156,-0.892578,-0.607422,-0.849609,0.301025,0.011292,0.714294,0.631653,down
623909,-3.480469,8.921875,-1.195313,-0.892578,-0.607422,-0.849609,0.303467,0.009827,0.712341,0.632812,down
623914,-3.480469,8.804688,-1.121094,-0.892578,-0.607422,-0.849609,0.303467,0.009827,0.712341,0.632812,down
623919,-3.480469,8.804688,-1.121094,-0.962891,-0.365234,-0.769531,0.307434,0.006958,0.708679,0.63501,down
623925,-3.519531,8.84375,-1.042969,-0.962891,-0.365234,-0.769531,0.307434,0.006958,0.708679,0.63501,down
623930,-3.597656,8.882813,-0.890625,-0.962891,-0.365234,-0.769531,0.310913,0.003845,0.705322,0.637024,down
623935,-3.671875,8.886719,-0.851562,-0.730469,-0.136719,-0.707031,0.310913,0.003845,0.705322,0.637024,down
623941,-3.75,8.957031,-0.8125,-0.630859,-0.064453,-0.681641,0.310913,0.003845,0.705322,0.637024,down
623947,-3.941406,9.109375,-0.738281,-0.542969,0.009766,-0.658203,0.310913,0.003845,0.705322,0.637024,down
623952,-4.019531,9.113281,-0.738281,-0.439453,0.125,-0.607422,0.310913,0.003845,0.705322,0.637024,down
623957,-4.132812,9.113281,-0.738281,-0.439453,0.125,-0.607422,0.316589,-0.00415,0.700317,0.639771,down
623962,-4.324219,9.109375,-0.621094,-0.439453,0.125,-0.607422,0.317322,-0.005798,0.699768,0.640015,down
623967,-4.402344,9.113281,-0.585937,-0.439453,0.125,-0.607422,0.317871,-0.007568,0.699219,0.64032,down
623972,-4.476562,9.113281,-0.507812,-0.439453,0.125,-0.607422,0.31842,-0.009399,0.698669,0.640625,down
623978,-4.554687,9.109375,-0.507812,-0.566406,0.318359,-0.609375,0.31842,-0.009399,0.698669,0.640625,down
623983,-4.632812,9.070313,-0.394531,-0.566406,0.318359,-0.609375,0.319641,-0.015198,0.696838,0.641907,down
623988,-4.667969,9.03125,-0.355469,-0.566406,0.318359,-0.609375,0.320068,-0.017578,0.695923,0.642578,down
623994,-4.746094,9.074219,-0.355469,-0.742187,0.367188,-0.634766,0.320435,-0.019836,0.695068,0.643311,down
623999,-4.824219,9.152344,-0.316406,-0.771484,0.363281,-0.648437,0.32074,-0.022156,0.694092,0.644104,down
624005,-4.859375,9.148438,-0.164062,-0.771484,0.363281,-0.648437,0.321106,-0.024292,0.693176,0.644836,down
624011,-4.824219,9.074219,-0.125,-0.785156,0.326172,-0.650391,0.321106,-0.024292,0.693176,0.644836,down
624016,-4.824219,9.074219,-0.125,-0.771484,0.304688,-0.638672,0.321106,-0.024292,0.693176,0.644836,down
624021,-4.859375,9.109375,-0.125,-0.771484,0.304688,-0.638672,0.321106,-0.024292,0.693176,0.644836,down
624026,-4.859375,9.109375,-0.125,-0.724609,0.269531,-0.626953,0.322937,-0.033264,0.688965,0.64801,down
624031,-4.859375,9.109375,-0.125,-0.712891,0.267578,-0.632812,0.323425,-0.035339,0.687988,0.648682,down
624038,-5.242187,9.152344,-0.046875,-0.707031,0.261719,-0.638672,0.324463,-0.039551,0.685974,0.650085,down
624043,-5.320312,9.152344,-0.007813,-0.707031,0.261719,-0.638672,0.324463,-0.039551,0.685974,0.650085,down
624048,-5.359375,9.230469,0.027344,-0.705078,0.263672,-0.664062,0.325623,-0.043823,0.68396,0.651367,down
624053,-5.472656,9.269531,0.027344,-0.705078,0.263672,-0.664062,0.326172,-0.046143,0.682922,0.651978,down
624058,-5.511719,9.226563,0.027344,-0.705078,0.263672,-0.664062,0.326721,-0.048279,0.682007,0.652588,down
624063,-5.550781,9.226563,0.066406,-0.705078,0.263672,-0.664062,0.326721,-0.048279,0.682007,0.652588,down
624068,-5.511719,9.191406,0.105469,-0.708984,0.314453,-0.710937,0.327759,-0.052795,0.680054,0.653687,down
624073,-5.550781,9.148438,0.183594,-0.708984,0.314453,-0.710937,0.328308,-0.055176,0.679077,0.654297,down
624078,-5.511719,9.113281,0.21875,-0.708984,0.314453,-0.710937,0.328735,-0.057495,0.678162,0.654785,down
624083,-5.511719,9.113281,0.21875,-0.708984,0.314453,-0.710937,0.328735,-0.057495,0.678162,0.654785,down
624088,-5.589844,9.109375,0.296875,-0.642578,0.400391,-0.693359,0.329468,-0.062317,0.676514,0.655701,down
624093,-5.664062,9.070313,0.296875,-0.642578,0.400391,-0.693359,0.329773,-0.064941,0.67572,0.656067,down
624098,-5.703125,9.074219,0.335938,-0.642578,0.400391,-0.693359,0.329956,-0.067017,0.675171,0.656372,down
624103,-5.742187,9.074219,0.375,-0.498047,0.496094,-0.673828,0.329956,-0.067017,0.675171,0.656372,down
624108,-5.855469,9.152344,0.375,-0.498047,0.496094,-0.673828,0.3302,-0.06958,0.674561,0.656616,down
624113,-5.894531,9.148438,0.410156,-0.416016,0.529297,-0.675781,0.330322,-0.071838,0.674072,0.656738,down
624118,-5.972656,9.1875,0.410156,-0.416016,0.529297,-0.675781,0.330505,-0.074341,0.673645,0.656799,down
624123,-6.046875,9.191406,0.449219,-0.380859,0.519531,-0.6875,0.330505,-0.074341,0.673645,0.656799,down
624128,-6.046875,9.191406,0.449219,-0.380859,0.519531,-0.6875,0.330994,-0.081116,0.672729,0.656677,down
624133,-6.085937,9.226563,0.449219,-0.380859,0.519531,-0.6875,0.330994,-0.081116,0.672729,0.656677,down
624138,-6.085937,9.191406,0.527344,-0.355469,0.488281,-0.701172,0.330994,-0.081116,0.672729,0.656677,down
624143,-6.085937,9.152344,0.566406,-0.386719,0.470703,-0.701172,0.330994,-0.081116,0.672729,0.656677,down
624148,-6.085937,9.109375,0.601562,-0.386719,0.470703,-0.701172,0.332092,-0.090454,0.671082,0.656616,down
624153,-6.046875,9.035156,0.601562,-0.572266,0.464844,-0.683594,0.332092,-0.090454,0.671082,0.656616,down
624158,-6.085937,8.996094,0.640625,-0.572266,0.464844,-0.683594,0.332275,-0.092896,0.67041,0.65686,down
624164,-6.046875,8.808594,0.71875,-0.572266,0.464844,-0.683594,0.332642,-0.097656,0.668762,0.657715,down
624170,-6.011719,8.570313,0.792969,-0.572266,0.464844,-0.683594,0.332703,-0.099976,0.667786,0.658325,down
624175,-5.972656,8.460938,0.832031,-0.896484,0.480469,-0.632812,0.332703,-0.102661,0.666626,0.659119,down
624180,-5.972656,8.382813,0.871094,-0.955078,0.480469,-0.615234,0.332703,-0.102661,0.666626,0.659119,down
624185,-5.933594,8.226563,0.949219,-0.955078,0.480469,-0.615234,0.332642,-0.107788,0.664001,0.66095,down
624190,-5.894531,8.152344,0.949219,-1.025391,0.486328,-0.585937,0.332642,-0.107788,0.664001,0.66095,down
624196,-5.894531,8.039063,1.023438,-1.037109,0.476562,-0.570312,0.332642,-0.107788,0.664001,0.66095,down
624201,-5.933594,7.808594,1.101563,-1.037109,0.476562,-0.570312,0.332275,-0.115662,0.659607,0.664185,down
624207,-5.894531,7.765625,1.140625,-1.050781,0.484375,-0.550781,0.332275,-0.115662,0.659607,0.664185,down
624213,-5.933594,7.660156,1.179688,-1.037109,0.486328,-0.541016,0.331665,-0.123474,0.65509,0.667542,down
624218,-6.011719,7.503906,1.214844,-1.037109,0.486328,-0.541016,0.331665,-0.123474,0.65509,0.667542,down
624223,-6.011719,7.503906,1.214844,-1.007813,0.474609,-0.541016,0.331482,-0.125977,0.653625,0.668579,down
624229,-6.011719,7.421875,1.253906,-1.007813,0.474609,-0.541016,0.331238,-0.128479,0.652222,0.669617,down
624235,-5.894531,7.117187,1.371094,-0.986328,0.464844,-0.552734,0.330933,-0.133484,0.649292,0.671631,down
624240,-5.894531,7.0,1.445313,-0.96875,0.453125,-0.576172,0.330811,-0.135986,0.647827,0.672546,down
624247,-5.894531,6.964844,1.523438,-0.96875,0.453125,-0.576172,0.330811,-0.135986,0.647827,0.672546,down
624252,-5.894531,6.855469,1.597656,-0.947266,0.417969,-0.591797,0.330811,-0.135986,0.647827,0.672546,down
624257,-5.894531,6.816406,1.636719,-0.931641,0.398438,-0.611328,0.330811,-0.135986,0.647827,0.672546,down
624262,-5.855469,6.738281,1.714844,-0.931641,0.398438,-0.611328,0.330811,-0.145813,0.642029,0.676147,down
624267,-5.855469,6.699219,1.789063,-0.882812,0.355469,-0.626953,0.330811,-0.145813,0.642029,0.676147,down
624272,-5.855469,6.734375,1.789063,-0.882812,0.355469,-0.626953,0.331055,-0.150391,0.639221,0.677612,down
624278,-5.820312,6.65625,1.984375,-0.882812,0.355469,-0.626953,0.331055,-0.150391,0.639221,0.677612,down
624284,-5.820312,6.65625,1.984375,-0.792969,0.277344,-0.605469,0.331055,-0.150391,0.639221,0.677612,down
624289,-5.894531,6.578125,2.097656,-0.792969,0.277344,-0.605469,0.332092,-0.159302,0.633545,0.68042,down
624294,-5.894531,6.578125,2.097656,-0.792969,0.277344,-0.605469,0.332397,-0.161194,0.632324,0.680969,down
624299,-5.933594,6.578125,2.136719,-0.712891,0.222656,-0.599609,0.332764,-0.163208,0.631042,0.681519,down
624304,-5.972656,6.546875,2.210938,-0.681641,0.197266,-0.597656,0.332764,-0.163208,0.631042,0.681519,down
624310,-6.125,6.507812,2.210938,-0.681641,0.197266,-0.597656,0.333557,-0.16687,0.628601,0.682495,down
624315,-6.164062,6.46875,2.210938,-0.626953,0.166016,-0.589844,0.333557,-0.16687,0.628601,0.682495,down
624320,-6.164062,6.433594,2.210938,-0.609375,0.146484,-0.609375,0.333557,-0.16687,0.628601,0.682495,down
624326,-6.238281,6.3125,2.210938,-0.583984,0.132812,-0.621094,0.333557,-0.16687,0.628601,0.682495,down
624332,-6.238281,6.238281,2.210938,-0.552734,0.111328,-0.638672,0.333557,-0.16687,0.628601,0.682495,down
624337,-6.273437,6.199219,2.25,-0.519531,0.082031,-0.662109,0.333557,-0.16687,0.628601,0.682495,down
624342,-6.277344,6.238281,2.25,-0.460937,0.060547,-0.695312,0.333557,-0.16687,0.628601,0.682495,down
624347,-6.277344,6.238281,2.289063,-0.460937,0.060547,-0.695312,0.333557,-0.16687,0.628601,0.682495,down
624353,-6.238281,6.3125,2.367188,-0.460937,0.060547,-0.695312,0.339294,-0.180115,0.619751,0.684387,down
624359,-6.277344,6.433594,2.367188,-0.246094,-0.021484,-0.806641,0.339294,-0.180115,0.619751,0.684387,down
624364,-6.355469,6.617187,2.367188,-0.246094,-0.021484,-0.806641,0.342957,-0.184326,0.617249,0.683655,down
624369,-6.429687,6.734375,2.367188,-0.246094,-0.021484,-0.806641,0.344543,-0.185852,0.616455,0.683167,down
624374,-6.507812,6.894531,2.328125,-0.105469,-0.117188,-0.849609,0.346069,-0.187134,0.615784,0.682678,down
624379,-6.507812,7.042969,2.402344,-0.074219,-0.177734,-0.845703,0.347656,-0.188232,0.615112,0.682129,down
624384,-6.507812,7.160156,2.402344,-0.074219,-0.177734,-0.845703,0.349182,-0.189148,0.614502,0.681641,down
624389,-6.660156,7.386719,2.367188,-0.123047,-0.25,-0.8125,0.351074,-0.190247,0.613647,0.681152,down
624394,-6.699219,7.460937,2.328125,-0.123047,-0.25,-0.8125,0.352783,-0.191162,0.612793,0.680786,down
624399,-6.816406,7.460937,2.289063,-0.283203,-0.300781,-0.761719,0.354248,-0.191956,0.611877,0.680603,down
624404,-6.890625,7.425781,2.328125,-0.283203,-0.300781,-0.761719,0.356018,-0.192932,0.610535,0.680603,down
624409,-6.929687,7.425781,2.367188,-0.464844,-0.369141,-0.728516,0.356018,-0.192932,0.610535,0.680603,down
624414,-6.96875,7.238281,2.328125,-0.554687,-0.392578,-0.708984,0.357605,-0.193848,0.609131,0.680786,down
624419,-6.96875,7.121094,2.289063,-0.554687,-0.392578,-0.708984,0.359131,-0.194702,0.607666,0.681091,down
624424,-6.96875,7.121094,2.289063,-0.621094,-0.417969,-0.699219,0.360474,-0.195557,0.60614,0.681519,down
624429,-6.929687,7.039062,2.328125,-0.621094,-0.417969,-0.699219,0.362061,-0.196472,0.604248,0.682068,down
624434,-6.890625,6.773437,2.289063,-0.705078,-0.433594,-0.695312,0.363525,-0.197449,0.602356,0.682678,down
624439,-6.890625,6.773437,2.289063,-0.724609,-0.441406,-0.697266,0.36499,-0.198364,0.600403,0.68335,down
624444,-6.851562,6.738281,2.210938,-0.707031,-0.429687,-0.697266,0.367981,-0.200256,0.596497,0.68457,down
624449,-6.816406,6.699219,2.210938,-0.707031,-0.429687,-0.697266,0.369568,-0.201294,0.594482,0.685181,down
624454,-6.933594,6.582031,2.210938,-0.707031,-0.429687,-0.697266,0.370972,-0.202148,0.592957,0.685547,down
624459,-6.929687,6.582031,2.136719,-0.488281,-0.361328,-0.707031,0.370972,-0.202148,0.592957,0.685547,down
624464,-6.894531,6.507812,2.175781,-0.488281,-0.361328,-0.707031,0.372498,-0.203064,0.591248,0.685852,down
624469,-6.890625,6.390625,2.210938,-0.412109,-0.347656,-0.710937,0.372498,-0.203064,0.591248,0.685852,down
624474,-6.890625,6.390625,2.210938,-0.412109,-0.347656,-0.710937,0.376892,-0.205444,0.587402,0.686096,down
624479,-6.890625,6.390625,2.289063,-0.412109,-0.347656,-0.710937,0.376892,-0.205444,0.587402,0.686096,down
624484,-6.929687,6.429687,2.25,-0.212891,-0.283203,-0.677734,0.379944,-0.206909,0.585388,0.68573,down
624489,-6.894531,6.46875,2.367188,-0.212891,-0.283203,-0.677734,0.381287,-0.207581,0.584595,0.685425,down
624494,-6.96875,6.46875,2.402344,-0.212891,-0.283203,-0.677734,0.382751,-0.208252,0.583801,0.68512,down
624499,-7.007812,6.46875,2.402344,-0.212891,-0.283203,-0.677734,0.382751,-0.208252,0.583801,0.68512,down
624504,-7.039062,6.507812,2.441406,-0.097656,-0.207031,-0.574219,0.385071,-0.20929,0.58252,0.684509,down
624509,-7.160156,6.582031,2.402344,-0.097656,-0.207031,-0.574219,0.385071,-0.20929,0.58252,0.684509,down
624514,-7.199219,6.582031,2.480469,-0.111328,-0.197266,-0.494141,0.386292,-0.2099,0.581848,0.684265,down
624519,-7.234375,6.621094,2.480469,-0.111328,-0.197266,-0.494141,0.38739,-0.210388,0.581238,0.684021,down
624525,-7.277344,6.582031,2.519531,-0.111328,-0.197266,-0.494141,0.389465,-0.211243,0.579956,0.683655,down
624531,-7.234375,6.546875,2.519531,-0.111328,-0.197266,-0.494141,0.39032,-0.211609,0.579346,0.683533,down
624538,-7.273437,6.546875,2.519531,-0.152344,-0.228516,-0.398438,0.39032,-0.211609,0.579346,0.683533,down
624543,-7.238281,6.46875,2.519531,-0.160156,-0.236328,-0.375,0.392151,-0.212219,0.577942,0.683472,down
624548,-7.234375,6.429687,2.558594,-0.160156,-0.236328,-0.375,0.393066,-0.212524,0.577209,0.683472,down
624553,-7.199219,6.429687,2.519531,-0.171875,-0.248047,-0.337891,0.393066,-0.212524,0.577209,0.683472,down
624559,-7.195312,6.429687,2.480469,-0.193359,-0.251953,-0.310547,0.393066,-0.212524,0.577209,0.683472,down
624565,-7.238281,6.355469,2.480469,-0.193359,-0.251953,-0.310547,0.396301,-0.213379,0.574341,0.683777,down
624570,-7.238281,6.390625,2.441406,-0.214844,-0.257813,-0.308594,0.397156,-0.213623,0.573486,0.683899,down
624576,-7.199219,6.355469,2.402344,-0.214844,-0.257813,-0.308594,0.397949,-0.213867,0.572693,0.684082,down
624581,-7.160156,6.277344,2.328125,-0.214844,-0.257813,-0.308594,0.398682,-0.214111,0.57196,0.684204,down
624587,-7.195312,6.160156,2.328125,-0.248047,-0.21875,-0.3125,0.398682,-0.214111,0.57196,0.684204,down
624592,-7.121094,6.007812,2.367188,-0.271484,-0.210937,-0.310547,0.398682,-0.214111,0.57196,0.684204,down
624597,-7.082031,5.894531,2.367188,-0.271484,-0.210937,-0.310547,0.400818,-0.215149,0.569397,0.684753,down
624603,-6.972656,5.742187,2.480469,-0.271484,-0.210937,-0.310547,0.400818,-0.215149,0.569397,0.684753,down
624609,-6.933594,5.664062,2.519531,-0.3125,-0.193359,-0.339844,0.400818,-0.215149,0.569397,0.684753,down
624614,-6.933594,5.585937,2.402344,-0.308594,-0.164062,-0.351563,0.400818,-0.215149,0.569397,0.684753,down
624619,-6.933594,5.625,2.402344,-0.308594,-0.164062,-0.351563,0.404114,-0.217529,0.565186,0.685547,down
624624,-6.890625,5.585937,2.441406,-0.308594,-0.164062,-0.351563,0.404785,-0.218079,0.564453,0.685547,down
624629,-6.890625,5.585937,2.480469,-0.308594,-0.164062,-0.351563,0.404785,-0.218079,0.564453,0.685547,down
624634,-6.855469,5.664062,2.480469,-0.203125,-0.101563,-0.398438,0.404785,-0.218079,0.564453,0.685547,down
624639,-6.933594,5.703125,2.519531,-0.158203,-0.074219,-0.384766,0.406189,-0.219238,0.56311,0.685425,down
624644,-6.972656,5.703125,2.441406,-0.158203,-0.074219,-0.384766,0.406921,-0.219849,0.5625,0.685303,down
624650,-7.011719,5.703125,2.441406,-0.158203,-0.074219,-0.384766,0.408264,-0.221008,0.561401,0.685059,down
624656,-7.011719,5.777344,2.480469,-0.158203,-0.074219,-0.384766,0.408752,-0.221558,0.560974,0.684937,down
624662,-7.082031,5.855469,2.480469,-0.15625,-0.011719,-0.339844,0.409302,-0.222168,0.560486,0.684814,down
624667,-7.042969,5.855469,2.441406,-0.177734,0.001953,-0.332031,0.409302,-0.222168,0.560486,0.684814,down
624673,-7.117187,5.894531,2.480469,-0.177734,0.001953,-0.332031,0.409302,-0.222168,0.560486,0.684814,down
624679,-7.117187,5.894531,2.480469,-0.246094,0.041016,-0.316406,0.409302,-0.222168,0.560486,0.684814,down
624684,-7.15625,5.894531,2.441406,-0.328125,0.087891,-0.306641,0.409302,-0.222168,0.560486,0.684814,down
624690,-7.121094,5.742187,2.519531,-0.328125,0.087891,-0.306641,0.411316,-0.226807,0.557068,0.684875,down
624696,-7.117187,5.664062,2.480469,-0.328125,0.087891,-0.306641,0.411438,-0.227844,0.556335,0.685059,down
624701,-7.121094,5.585937,2.519531,-0.410156,0.138672,-0.294922,0.41156,-0.228821,0.555664,0.685181,down
624706,-7.082031,5.550781,2.558594,-0.410156,0.138672,-0.294922,0.411621,-0.229919,0.554871,0.685425,down
624712,-6.933594,5.433594,2.558594,-0.410156,0.138672,-0.294922,0.411621,-0.229919,0.554871,0.685425,down
624718,-7.011719,5.320312,2.558594,-0.4375,0.169922,-0.318359,0.411621,-0.229919,0.554871,0.685425,down
624723,-6.894531,5.203125,2.558594,-0.425781,0.179687,-0.326172,0.411621,-0.229919,0.554871,0.685425,down
624728,-6.851562,5.164062,2.558594,-0.421875,0.177734,-0.333984,0.411621,-0.229919,0.554871,0.685425,down
624733,-6.773437,5.128906,2.59375,-0.398438,0.179687,-0.34375,0.411621,-0.229919,0.554871,0.685425,down
624738,-6.734375,5.089844,2.558594,-0.375,0.1875,-0.353516,0.411621,-0.229919,0.554871,0.685425,down
624743,-6.699219,5.128906,2.558594,-0.349609,0.191406,-0.355469,0.411621,-0.229919,0.554871,0.685425,down
624748,-6.738281,5.050781,2.558594,-0.349609,0.191406,-0.355469,0.411621,-0.229919,0.554871,0.685425,down
624753,-6.855469,5.128906,2.558594,-0.349609,0.191406,-0.355469,0.412476,-0.240479,0.548767,0.686218,down
624758,-7.007812,5.164062,2.558594,-0.296875,0.224609,-0.365234,0.412476,-0.240479,0.548767,0.686218,down
624763,-7.160156,5.28125,2.558594,-0.296875,0.224609,-0.365234,0.412476,-0.240479,0.548767,0.686218,down
624769,-7.277344,5.359375,2.558594,-0.304688,0.234375,-0.386719,0.412903,-0.244141,0.54718,0.685913,down
624774,-7.277344,5.359375,2.558594,-0.339844,0.232422,-0.443359,0.413086,-0.245483,0.546631,0.685791,down
624780,-7.695312,5.777344,2.59375,-0.384766,0.246094,-0.484375,0.413086,-0.245483,0.546631,0.685791,down
624786,-7.921875,5.894531,2.59375,-0.384766,0.246094,-0.484375,0.413879,-0.250183,0.54425,0.685486,down
624791,-7.964844,6.007812,2.632813,-0.609375,0.253906,-0.611328,0.414185,-0.251953,0.543152,0.685486,down
624796,-8.042969,6.046875,2.632813,-0.705078,0.253906,-0.640625,0.414185,-0.251953,0.543152,0.685486,down
624802,-8.199219,6.160156,2.710938,-0.705078,0.253906,-0.640625,0.414795,-0.256042,0.540466,0.68573,down
624808,-8.304688,6.199219,2.632813,-0.910156,0.296875,-0.714844,0.414795,-0.256042,0.540466,0.68573,down
624813,-8.582031,6.316406,2.710938,-1.005859,0.322266,-0.75,0.414795,-0.256042,0.540466,0.68573,down
624819,-8.730469,6.355469,2.75,-1.103516,0.347656,-0.777344,0.414795,-0.256042,0.540466,0.68573,down
624824,-8.847656,6.429687,2.785156,-1.28125,0.398438,-0.828125,0.414795,-0.256042,0.540466,0.68573,down
624829,-9.070313,6.46875,2.785156,-1.28125,0.398438,-0.828125,0.415588,-0.26947,0.53064,0.687805,down
624834,-9.496094,6.621094,2.902344,-1.367188,0.433594,-0.84375,0.415588,-0.26947,0.53064,0.687805,down
624839,-9.765625,6.660156,2.824219,-1.367188,0.433594,-0.84375,0.415527,-0.276001,0.525696,0.689087,down
624844,-10.074219,6.738281,2.941406,-1.513672,0.503906,-0.888672,0.415344,-0.279724,0.522888,0.689819,down
624849,-10.640625,6.929687,3.054688,-1.513672,0.503906,-0.888672,0.4151,-0.283203,0.520264,0.690491,down
624854,-10.796875,7.003906,3.132813,-1.513672,0.503906,-0.888672,0.414795,-0.287292,0.517212,0.691345,down
624859,-10.917969,7.003906,3.246094,-1.513672,0.503906,-0.888672,0.414368,-0.291321,0.51416,0.692139,down
624865,-11.027344,7.003906,3.324219,-1.779297,0.599609,-0.9375,0.413452,-0.299316,0.507935,0.693848,down
624870,-11.300781,7.082031,3.554688,-1.779297,0.599609,-0.9375,0.412842,-0.303467,0.504639,0.694824,down
624875,-11.449219,7.121094,3.628906,-1.966797,0.662109,-0.882812,0.412842,-0.303467,0.504639,0.694824,down
624880,-11.484375,7.195312,3.707031,-2.017578,0.654297,-0.835937,0.412048,-0.307983,0.501038,0.695923,down
624886,-11.5625,7.234375,3.9375,-2.058594,0.613281,-0.771484,0.411194,-0.31189,0.497864,0.69696,down
624891,-11.488281,7.042969,4.28125,-2.058594,0.613281,-0.771484,0.40918,-0.320068,0.490845,0.699463,down
624896,-11.40625,6.929687,4.394531,-2.125,0.541016,-0.574219,0.40918,-0.320068,0.490845,0.699463,down
624901,-11.40625,6.929687,4.394531,-2.105469,0.511719,-0.447266,0.406372,-0.327698,0.483582,0.702576,down
624906,-11.449219,6.773437,4.550781,-2.105469,0.511719,-0.447266,0.406372,-0.327698,0.483582,0.702576,down
624911,-11.449219,6.773437,4.550781,-2.101563,0.501953,-0.291016,0.404724,-0.331116,0.480164,0.704285,down
624916,-11.449219,6.773437,4.550781,-2.101563,0.501953,-0.291016,0.400574,-0.33728,0.473511,0.708191,down
624922,-11.445313,6.085937,4.585937,-2.101563,0.501953,-0.291016,0.398193,-0.339844,0.47052,0.710327,down
624928,-11.488281,5.933594,4.625,-2.101563,0.501953,-0.291016,0.398193,-0.339844,0.47052,0.710327,down
624933,-11.527344,5.933594,4.625,-1.716797,0.271484,0.533203,0.398193,-0.339844,0.47052,0.710327,down
624938,-11.644531,5.894531,4.625,-1.560547,0.228516,0.695312,0.398193,-0.339844,0.47052,0.710327,down
624945,-11.757813,5.894531,4.625,-1.386719,0.179687,0.855469,0.384216,-0.346436,0.4599,0.72168,down
624950,-11.789063,5.855469,4.664062,-1.386719,0.179687,0.855469,0.384216,-0.346436,0.4599,0.72168,down
624955,-11.792969,5.777344,4.664062,-1.025391,0.083984,1.150391,0.378052,-0.346069,0.458313,0.726135,down
624960,-11.832031,5.777344,4.625,-0.648437,-0.041016,1.447266,0.374878,-0.345154,0.45813,0.728333,down
624965,-11.871094,5.777344,4.703125,-0.648437,-0.041016,1.447266,0.374878,-0.345154,0.45813,0.728333,down
624970,-11.871094,5.777344,4.703125,-0.273438,-0.179687,1.751953,0.371277,-0.343567,0.458435,0.730713,down
624976,-11.722656,5.816406,4.625,-0.273438,-0.179687,1.751953,0.364929,-0.339417,0.460083,0.734802,down
624982,-11.644531,5.777344,4.585937,-0.273438,-0.179687,1.751953,0.361816,-0.336914,0.461304,0.736755,down
624987,-11.300781,5.816406,4.472656,0.160156,-0.376953,2.220703,0.35791,-0.333252,0.463196,0.739136,down
624992,-11.101563,5.855469,4.511719,0.259766,-0.458984,2.384766,0.35791,-0.333252,0.463196,0.739136,down
624998,-10.917969,5.933594,4.511719,0.259766,-0.458984,2.384766,0.350708,-0.325745,0.467224,0.743408,down
625003,-10.71875,6.238281,4.394531,0.519531,-0.605469,2.761719,0.350708,-0.325745,0.467224,0.743408,down
625008,-10.640625,6.46875,4.320312,0.662109,-0.679687,2.960938,0.350708,-0.325745,0.467224,0.743408,down
625013,-10.492188,6.429687,4.320312,0.792969,-0.783203,3.164063,0.350708,-0.325745,0.467224,0.743408,down
625018,-9.878906,6.429687,4.28125,0.925781,-0.916016,3.388672,0.350708,-0.325745,0.467224,0.743408,down
625023,-9.878906,6.429687,4.28125,1.044922,-1.037109,3.607422,0.329407,-0.297607,0.482605,0.754944,down
625028,-9.6875,6.355469,4.359375,1.167969,-1.142578,3.84375,0.329407,-0.297607,0.482605,0.754944,down
625034,-9.6875,6.355469,4.359375,1.300781,-1.210938,4.078125,0.319214,-0.281921,0.490845,0.76001,down
625039,-8.960938,6.160156,4.128906,1.300781,-1.210938,4.078125,0.313782,-0.273438,0.4953,0.762512,down
625044,-8.652344,6.085937,4.011719,1.474609,-1.351563,4.511719,0.313782,-0.273438,0.4953,0.762512,down
625050,-8.460938,5.96875,3.9375,1.634766,-1.453125,4.890625,0.313782,-0.273438,0.4953,0.762512,down
625055,-7.882812,5.777344,3.554688,1.634766,-1.453125,4.890625,0.29541,-0.244629,0.509888,0.77002,down
625060,-7.582031,5.550781,3.363281,1.634766,-1.453125,4.890625,0.287964,-0.233032,0.515564,0.772644,down
625065,-7.195312,5.28125,3.285156,1.800781,-1.492188,5.244141,0.273621,-0.211243,0.526245,0.776917,down
625070,-6.546875,5.203125,3.054688,1.800781,-1.492188,5.244141,0.273621,-0.211243,0.526245,0.776917,down
625075,-6.277344,5.203125,2.902344,2.316406,-1.482422,5.826172,0.266235,-0.200195,0.531738,0.778625,down
625080,-5.894531,5.242187,2.75,2.560547,-1.488281,6.025391,0.257507,-0.187256,0.53833,0.780273,down
625085,-5.894531,5.242187,2.75,2.560547,-1.488281,6.025391,0.249756,-0.175842,0.544312,0.781311,down
625090,-5.207031,4.972656,2.632813,2.824219,-1.447266,6.216797,0.249756,-0.175842,0.544312,0.781311,down
625095,-5.207031,4.972656,2.632813,3.099609,-1.365234,6.410156,0.231873,-0.149902,0.558533,0.782166,down
625100,-4.554687,5.507812,2.019531,3.632813,-1.164063,6.724609,0.231873,-0.149902,0.558533,0.782166,down
625105,-4.09375,5.703125,1.5625,3.632813,-1.164063,6.724609,0.211914,-0.122437,0.57489,0.780762,down
625111,-3.710938,5.507812,1.597656,3.632813,-1.164063,6.724609,0.189636,-0.093079,0.59314,0.776917,down
625116,-3.367188,5.359375,1.597656,4.148437,-0.888672,6.988281,0.178528,-0.079102,0.602051,0.774231,down
625121,-3.023438,5.167969,1.523438,4.261719,-0.705078,7.011719,0.166687,-0.064758,0.611267,0.770935,down
625126,-2.449219,4.898437,1.253906,4.261719,-0.705078,7.011719,0.166687,-0.064758,0.611267,0.770935,down
625131,-2.449219,4.898437,1.253906,4.324219,-0.53125,7.017578,0.155762,-0.052185,0.619568,0.767578,down
625136,-2.21875,4.746094,1.0625,4.324219,-0.53125,7.017578,0.143677,-0.038879,0.628418,0.763489,down
625141,-1.453125,5.046875,0.527344,4.384766,-0.048828,7.001953,0.130798,-0.025452,0.63739,0.758911,down
625147,-0.992187,5.246094,0.183594,4.384766,-0.048828,7.001953,0.105103,-0.000305,0.654175,0.749023,down
625152,-0.761719,5.433594,-0.007813,4.384766,0.326172,6.998047,0.105103,-0.000305,0.654175,0.749023,down
625158,-0.609375,5.664062,-0.316406,4.341797,0.580078,6.96875,0.105103,-0.000305,0.654175,0.749023,down
625163,-0.492187,5.773437,-0.394531,4.341797,0.580078,6.96875,0.062927,0.035339,0.67804,0.731506,down
625168,-0.265625,5.589844,-0.277344,4.320312,0.958984,6.851562,0.062927,0.035339,0.67804,0.731506,down
625173,-0.035156,5.363281,-0.046875,4.296875,1.087891,6.771484,0.062927,0.035339,0.67804,0.731506,down
625179,0.15625,5.472656,-0.046875,4.296875,1.087891,6.771484,0.019409,0.06604,0.698914,0.711853,down
625184,0.195312,5.707031,-0.125,4.296875,1.087891,6.771484,0.004639,0.075317,0.705444,0.704773,down
625189,0.195312,5.707031,-0.125,4.285156,1.560547,6.292969,0.010498,-0.084229,-0.711792,-0.697205,down
625194,0.464844,5.625,-0.316406,4.285156,1.560547,6.292969,0.024841,-0.092224,-0.717651,-0.689819,down
625199,0.886719,5.242187,-0.316406,4.111328,1.753906,5.837891,0.03894,-0.099609,-0.723206,-0.682312,down
625205,1.269531,5.007812,-0.085937,4.111328,1.753906,5.837891,0.03894,-0.099609,-0.723206,-0.682312,down
625210,1.304688,4.898437,0.105469,3.779297,1.896484,5.083984,0.03894,-0.099609,-0.723206,-0.682312,down
625216,1.652344,4.742187,0.375,3.779297,1.896484,5.083984,0.093018,-0.124023,-0.742065,-0.652161,down
625222,1.691406,4.859375,0.566406,3.779297,1.896484,5.083984,0.106018,-0.129211,-0.746277,-0.644287,down
625227,1.882813,4.742187,0.792969,3.490234,1.806641,4.328125,0.117188,-0.133423,-0.749817,-0.637329,down
625232,2.074219,4.707031,0.871094,3.490234,1.806641,4.328125,0.128235,-0.137451,-0.753174,-0.630371,down
625237,2.378906,4.625,0.832031,3.490234,1.806641,4.328125,0.128235,-0.137451,-0.753174,-0.630371,down
625242,2.457031,4.515625,0.871094,2.917969,1.609375,3.611328,0.128235,-0.137451,-0.753174,-0.630371,down
625248,2.226563,4.132812,1.023438,2.755859,1.515625,3.396484,0.128235,-0.137451,-0.753174,-0.630371,down
625253,2.378906,3.515625,1.253906,2.755859,1.515625,3.396484,0.128235,-0.137451,-0.753174,-0.630371,down
625258,2.492188,3.289063,1.292969,2.404297,1.357422,2.988281,0.128235,-0.137451,-0.753174,-0.630371,down
625263,2.492188,3.289063,1.292969,2.255859,1.263672,2.791016,0.182983,-0.156006,-0.767517,-0.594238,down
625268,2.570313,2.59375,1.40625,2.125,1.146484,2.605469,0.190369,-0.158447,-0.769165,-0.589111,down
625273,2.570313,2.59375,1.40625,2.125,1.146484,2.605469,0.190369,-0.158447,-0.769165,-0.589111,down
625279,2.613281,2.253906,1.5625,2.027344,1.052734,2.423828,0.203003,-0.16272,-0.772095,-0.579834,down
625284,2.609375,1.988281,1.675781,1.902344,0.859375,2.103516,0.203003,-0.16272,-0.772095,-0.579834,down
625290,2.648438,1.988281,1.90625,1.902344,0.859375,2.103516,0.203003,-0.16272,-0.772095,-0.579834,down
625295,2.691406,2.101563,1.90625,1.972656,0.625,1.765625,0.203003,-0.16272,-0.772095,-0.579834,down
625300,2.691406,2.371094,1.867188,2.103516,0.384766,1.382813,0.203003,-0.16272,-0.772095,-0.579834,down
625305,2.570313,2.597656,1.753906,2.103516,0.384766,1.382813,0.227051,-0.170532,-0.780518,-0.556946,down
625310,2.492188,2.75,1.714844,2.103516,0.384766,1.382813,0.230286,-0.171387,-0.782654,-0.552307,down
625316,2.339844,2.867188,1.675781,2.210938,-0.132812,0.755859,0.230286,-0.171387,-0.782654,-0.552307,down
625321,2.226563,3.015625,1.5625,2.210938,-0.132812,0.755859,0.236572,-0.172852,-0.79071,-0.537537,down
625326,2.148438,3.253906,1.484375,2.210938,-0.132812,0.755859,0.237061,-0.173096,-0.79364,-0.532959,down
625331,2.074219,3.441406,1.523438,2.089844,-0.972656,0.144531,0.237061,-0.173096,-0.79364,-0.532959,down
625336,2.148438,3.671875,1.523438,1.966797,-1.255859,-0.03125,0.236633,-0.173401,-0.797058,-0.527832,down
625341,2.109375,3.898438,1.40625,1.966797,-1.255859,-0.03125,0.233337,-0.174255,-0.803528,-0.519165,down
625346,2.035156,4.058594,1.140625,1.966797,-1.255859,-0.03125,0.230652,-0.174866,-0.806396,-0.515686,down
625351,1.882813,4.398437,0.21875,0.955078,-1.876953,-0.488281,0.230652,-0.174866,-0.806396,-0.515686,down
625356,1.84375,4.054687,-0.238281,0.955078,-1.876953,-0.488281,0.226685,-0.175659,-0.809387,-0.512512,down
625362,1.84375,4.054687,-0.238281,0.09375,-2.185547,-0.755859,0.217651,-0.177734,-0.813354,-0.509399,down
625367,1.84375,4.054687,-0.238281,-0.208984,-2.257813,-0.916016,0.217651,-0.177734,-0.813354,-0.509399,down
625372,1.804688,3.632813,-0.585937,-0.208984,-2.257813,-0.916016,0.212097,-0.178894,-0.814819,-0.508972,down
625377,1.882813,3.515625,-1.195313,-0.423828,-2.369141,-1.078125,0.206055,-0.179932,-0.81604,-0.509094,down
625382,1.957031,3.632813,-1.273438,-0.560547,-2.537109,-1.263672,0.191895,-0.181824,-0.818359,-0.510315,down
625387,1.957031,3.753906,-1.386719,-0.560547,-2.537109,-1.263672,0.183777,-0.182556,-0.819519,-0.511108,down
625393,1.882813,4.058594,-1.65625,-0.560547,-2.537109,-1.263672,0.175537,-0.183044,-0.820801,-0.511902,down
625399,1.652344,4.558594,-2.117188,-0.560547,-2.537109,-1.263672,0.175537,-0.183044,-0.820801,-0.511902,down
625405,1.613281,4.9375,-2.308594,-0.412109,-3.271484,-2.091797,0.175537,-0.183044,-0.820801,-0.511902,down
625411,1.535156,5.246094,-2.539063,-0.277344,-3.464844,-2.269531,0.137085,-0.183228,-0.827637,-0.512512,down
625416,1.269531,5.46875,-2.921875,-0.277344,-3.464844,-2.269531,0.125732,-0.1828,-0.829834,-0.511963,down
625421,0.960937,5.589844,-3.152344,-0.277344,-3.464844,-2.269531,0.114136,-0.182129,-0.832031,-0.511353,down
625426,0.695312,5.777344,-3.378906,-0.224609,-4.164062,-3.042969,0.114136,-0.182129,-0.832031,-0.511353,down
625431,0.234375,6.429687,-3.761719,-0.224609,-4.164062,-3.042969,0.100525,-0.181152,-0.834473,-0.51062,down
625436,0.003906,6.734375,-3.992188,-0.224609,-4.164062,-3.042969,0.07373,-0.178833,-0.838318,-0.509705,down
625441,-0.265625,6.8125,-4.222656,-0.224609,-4.164062,-3.042969,0.07373,-0.178833,-0.838318,-0.509705,down
625446,-0.265625,6.8125,-4.222656,-0.726562,-4.654297,-3.662109,0.060547,-0.177429,-0.839722,-0.509583,down
625451,-0.457031,7.082031,-4.375,-1.0,-4.806641,-3.875,0.060547,-0.177429,-0.839722,-0.509583,down
625456,-0.457031,7.082031,-4.375,-1.285156,-4.921875,-4.09375,0.029419,-0.173584,-0.841675,-0.510498,down
625461,-1.105469,7.804687,-4.875,-1.867188,-5.003906,-4.494141,0.029419,-0.173584,-0.841675,-0.510498,down
625466,-1.222656,8.304688,-5.105469,-1.867188,-5.003906,-4.494141,0.003479,0.168335,0.841614,0.513184,down
625471,-1.222656,8.304688,-5.105469,-1.867188,-5.003906,-4.494141,0.038513,0.161377,0.839478,0.517395,down
625476,-1.605469,8.117188,-5.335937,-1.867188,-5.003906,-4.494141,0.038513,0.161377,0.839478,0.517395,down
625481,-1.757813,7.769531,-5.527344,-2.669922,-4.703125,-5.138672,0.038513,0.161377,0.839478,0.517395,down
625486,-1.757813,7.769531,-5.527344,-2.669922,-4.703125,-5.138672,0.073669,0.152466,0.83551,0.522705,down
625491,-2.140625,7.421875,-5.910156,-2.669922,-4.703125,-5.138672,0.073669,0.152466,0.83551,0.522705,down
625496,-2.410156,7.808594,-5.945312,-2.679688,-4.494141,-5.388672,0.108826,0.141296,0.830139,0.528259,down
625502,-2.90625,8.648438,-5.449219,-2.533203,-4.421875,-5.556641,0.143738,0.128357,0.824341,0.532288,down
625508,-4.246094,8.082031,-4.949219,-2.533203,-4.421875,-5.556641,0.160645,0.121216,0.821533,0.533508,down
625513,-4.667969,7.847656,-5.21875,-1.986328,-3.820313,-6.029297,0.160645,0.121216,0.821533,0.533508,down
625518,-4.898437,7.960937,-5.371094,-1.697266,-3.623047,-6.126953,0.160645,0.121216,0.821533,0.533508,down
625523,-5.167969,8.421875,-5.449219,-1.339844,-3.519531,-6.169922,0.160645,0.121216,0.821533,0.533508,down
625528,-5.167969,8.421875,-5.449219,-0.875,-3.558594,-6.175781,0.160645,0.121216,0.821533,0.533508,down
625533,-6.125,9.71875,-4.988281,-0.875,-3.558594,-6.175781,0.225525,0.087952,0.811829,0.531311,down
625538,-6.507812,10.5625,-4.757812,-0.074219,-3.685547,-6.080078,0.256287,0.072327,0.808777,0.524353,down
625543,-7.199219,11.90625,-4.683594,0.121094,-3.689453,-5.994141,0.256287,0.072327,0.808777,0.524353,down
625549,-8.15625,12.59375,-4.796875,0.121094,-3.689453,-5.994141,0.286926,0.0578,0.805908,0.514648,down
625555,-8.578125,13.136719,-4.875,0.078125,-3.761719,-5.816406,0.286926,0.0578,0.805908,0.514648,down
625560,-9.265625,13.363281,-4.988281,-0.173828,-3.800781,-5.748047,0.286926,0.0578,0.805908,0.514648,down
625565,-9.265625,13.363281,-4.988281,-0.570312,-3.822266,-5.740234,0.331787,0.037048,0.798767,0.500488,down
625571,-9.765625,12.976563,-5.027344,-1.087891,-3.855469,-5.75,0.331787,0.037048,0.798767,0.500488,down
625576,-9.765625,12.976563,-5.027344,-1.646484,-3.921875,-5.773437,0.361816,0.021729,0.7901,0.494324,down
625581,-10.300781,12.632813,-4.875,-1.646484,-3.921875,-5.773437,0.376587,0.01355,0.784363,0.492676,down
625587,-10.222656,12.597656,-4.988281,-1.646484,-3.921875,-5.773437,0.406433,-0.004761,0.77002,0.49176,down
625592,-10.300781,12.449219,-4.453125,-1.646484,-3.921875,-5.773437,0.422546,-0.01532,0.760803,0.49231,down
625597,-10.1875,12.753906,-4.148437,-1.646484,-3.921875,-5.773437,0.435791,-0.024231,0.752625,0.493103,down
625602,-10.109375,13.09375,-3.648438,-3.757813,-3.921875,-5.609375,0.451233,-0.034973,0.742249,0.494141,down
625607,-10.109375,13.09375,-3.648438,-3.789063,-3.697266,-5.548828,0.463196,-0.04364,0.733826,0.494995,down
625612,-10.070313,12.792969,-3.304688,-3.789063,-3.697266,-5.548828,0.463196,-0.04364,0.733826,0.494995,down
625617,-10.070313,12.792969,-3.304688,-3.808594,-3.46875,-5.462891,0.476379,-0.053955,0.723999,0.495911,down
625622,-9.574219,13.054688,-2.960938,-3.808594,-3.46875,-5.462891,0.488464,-0.063904,0.714539,0.496765,down
625628,-10.070313,13.289063,-2.882813,-3.808594,-3.46875,-5.462891,0.510864,-0.083923,0.695496,0.498291,down
625633,-10.53125,13.132813,-2.691406,-3.808594,-3.46875,-5.462891,0.510864,-0.083923,0.695496,0.498291,down
625638,-10.683594,12.636719,-2.308594,-4.072266,-2.359375,-4.390625,0.510864,-0.083923,0.695496,0.498291,down
625644,-10.683594,12.636719,-2.308594,-4.275391,-2.197266,-4.097656,0.538086,-0.114136,0.666809,0.502808,down
625650,-11.179688,10.414063,-1.042969,-4.275391,-2.197266,-4.097656,0.538086,-0.114136,0.666809,0.502808,down
625655,-11.378906,9.417969,-0.890625,-4.896484,-1.775391,-3.539063,0.538086,-0.114136,0.666809,0.502808,down
625660,-11.179688,8.804688,-0.621094,-5.123047,-1.542969,-3.265625,0.538086,-0.114136,0.666809,0.502808,down
625665,-11.179688,8.804688,-0.621094,-5.183594,-1.46875,-2.976563,0.560852,-0.154053,0.628113,0.516907,down
625670,-11.449219,7.082031,0.640625,-5.183594,-1.46875,-2.976563,0.560852,-0.154053,0.628113,0.516907,down
625676,-11.257813,6.160156,1.214844,-5.130859,-1.380859,-2.726563,0.564697,-0.163818,0.618347,0.521484,down
625682,-11.066406,5.550781,1.984375,-4.667969,-1.107422,-2.236328,0.573059,-0.190308,0.591187,0.534668,down
625687,-10.722656,5.203125,2.289063,-3.71875,-0.861328,-1.794922,0.575134,-0.197754,0.583374,0.53833,down
625692,-10.644531,4.667969,2.75,-3.068359,-0.716797,-1.5625,0.576965,-0.204407,0.576416,0.541382,down
625697,-10.574219,4.476562,2.902344,-3.068359,-0.716797,-1.5625,0.578552,-0.209839,0.570679,0.543701,down
625702,-10.496094,4.398437,2.976563,-1.679688,-0.509766,-1.136719,0.579773,-0.213318,0.566956,0.544922,down
625708,-10.335938,4.476562,2.976563,-0.992187,-0.427734,-0.931641,0.581116,-0.216064,0.563904,0.545532,down
625713,-10.109375,4.4375,2.75,-0.392578,-0.349609,-0.722656,0.582581,-0.217957,0.561707,0.545532,down
625718,-9.953125,4.589844,2.59375,-0.392578,-0.349609,-0.722656,0.583679,-0.218506,0.560791,0.545044,down
625724,-9.652344,4.898437,2.519531,-0.392578,-0.349609,-0.722656,0.584778,-0.218384,0.560669,0.544067,down
625729,-9.492188,4.9375,2.558594,0.822266,-0.117188,-0.236328,0.584778,-0.218384,0.560669,0.544067,down
625735,-9.347656,5.011719,2.558594,1.019531,-0.033203,-0.111328,0.584778,-0.218384,0.560669,0.544067,down
625740,-9.070313,5.050781,2.558594,1.091797,0.076172,0.003906,0.584778,-0.218384,0.560669,0.544067,down
625746,-9.003906,5.089844,2.558594,0.914062,0.296875,0.175781,0.584778,-0.218384,0.560669,0.544067,down
625752,-8.921875,5.128906,2.558594,0.699219,0.425781,0.242187,0.587585,-0.212219,0.566956,0.536865,down
625757,-8.808594,5.050781,2.558594,0.466797,0.546875,0.3125,0.587158,-0.211182,0.568848,0.535767,down
625762,-8.808594,5.011719,2.441406,0.466797,0.546875,0.3125,0.585449,-0.210327,0.571899,0.53479,down
625767,-8.804688,4.972656,2.367188,0.152344,0.660156,0.408203,0.583984,-0.210327,0.573425,0.534668,down
625772,-8.804688,4.9375,2.402344,0.082031,0.669922,0.453125,0.583984,-0.210327,0.573425,0.534668,down
625777,-8.808594,4.746094,2.441406,0.082031,0.669922,0.453125,0.581116,-0.21051,0.575989,0.535034,down
625782,-8.808594,4.628906,2.441406,0.064453,0.669922,0.503906,0.581116,-0.21051,0.575989,0.535034,down
625787,-8.691406,4.628906,2.402344,0.064453,0.669922,0.503906,0.579346,-0.210632,0.577454,0.535278,down
625792,-8.769531,4.628906,2.480469,0.107422,0.634766,0.517578,0.579346,-0.210632,0.577454,0.535278,down
625797,-8.691406,4.628906,2.519531,0.107422,0.634766,0.517578,0.574829,-0.210144,0.581482,0.53595,down
625802,-8.648438,4.628906,2.519531,0.107422,0.634766,0.517578,0.573853,-0.209717,0.582581,0.536011,down
625807,-8.652344,4.515625,2.519531,0.302734,0.333984,0.462891,0.573853,-0.209717,0.582581,0.536011,down
625812,-8.542969,4.476562,2.519531,0.302734,0.333984,0.462891,0.572754,-0.208984,0.583862,0.536072,down
625817,-8.5,4.363281,2.480469,0.240234,0.1875,0.408203,0.571899,-0.208313,0.5849,0.536133,down
625822,-8.539063,4.285156,2.441406,0.240234,0.1875,0.408203,0.570496,-0.20697,0.586426,0.536377,down
625827,-8.460938,4.171875,2.367188,0.023437,0.060547,0.34375,0.570496,-0.20697,0.586426,0.536377,down
625832,-8.382813,4.054687,2.402344,0.023437,0.060547,0.34375,0.569458,-0.206055,0.587036,0.537231,down
625837,-8.304688,4.015625,2.441406,-0.210937,-0.035156,0.253906,0.569458,-0.206055,0.587036,0.537231,down
625842,-8.265625,4.015625,2.441406,-0.210937,-0.035156,0.253906,0.568604,-0.205811,0.586731,0.538574,down
625847,-8.195313,3.902344,2.402344,-0.373047,-0.089844,0.181641,0.568604,-0.205811,0.586731,0.538574,down
625852,-8.195313,3.902344,2.402344,-0.373047,-0.089844,0.181641,0.567993,-0.206055,0.585693,0.540283,down
625857,-8.121094,3.902344,2.367188,-0.373047,-0.089844,0.181641,0.567993,-0.206055,0.585693,0.540283,down
625862,-8.082031,3.976563,2.328125,-0.404297,-0.146484,0.117188,0.567993,-0.206055,0.585693,0.540283,down
625867,-8.078125,4.015625,2.402344,-0.404297,-0.146484,0.117188,0.567627,-0.206421,0.584351,0.541992,down
625872,-8.082031,3.976563,2.367188,-0.345703,-0.15625,0.117188,0.567444,-0.206665,0.583618,0.542847,down
625877,-8.0,3.941406,2.367188,-0.345703,-0.15625,0.117188,0.5672,-0.206848,0.582336,0.544373,down
625882,-7.960937,3.902344,2.328125,-0.291016,-0.144531,0.125,0.5672,-0.206848,0.582336,0.544373,down
625887,-8.078125,3.671875,2.289063,-0.291016,-0.144531,0.125,0.566956,-0.206909,0.58136,0.545715,down
625892,-8.082031,3.59375,2.289063,-0.275391,-0.109375,0.136719,0.566956,-0.206909,0.58136,0.545715,down
625897,-8.121094,3.59375,2.289063,-0.269531,-0.089844,0.138672,0.566772,-0.20697,0.580811,0.546448,down
625902,-8.195313,3.558594,2.289063,-0.269531,-0.089844,0.138672,0.566406,-0.207031,0.580017,0.547668,down
625907,-8.269531,3.441406,2.367188,-0.269531,-0.089844,0.138672,0.566162,-0.207153,0.579651,0.548279,down
625912,-8.269531,3.480469,2.367188,-0.269531,-0.089844,0.138672,0.566162,-0.207153,0.579651,0.548279,down
625917,-8.230469,3.558594,2.367188,-0.226562,-0.048828,0.109375,0.565735,-0.207336,0.578979,0.549255,down
625922,-8.265625,3.59375,2.367188,-0.226562,-0.048828,0.109375,0.565735,-0.207336,0.578979,0.549255,down
625927,-8.304688,3.59375,2.367188,-0.09375,0.042969,0.099609,0.565735,-0.207336,0.578979,0.549255,down
625932,-8.386719,3.519531,2.25,-0.09375,0.042969,0.099609,0.565247,-0.207458,0.578735,0.549988,down
625938,-8.421875,3.558594,2.289063,-0.09375,0.042969,0.099609,0.564758,-0.207397,0.578918,0.550354,down
625944,-8.421875,3.519531,2.367188,-0.09375,0.042969,0.099609,0.564575,-0.207214,0.579163,0.550354,down
625949,-8.421875,3.632813,2.402344,0.179687,0.113281,0.101563,0.564331,-0.20697,0.579651,0.550232,down
625955,-8.421875,3.710938,2.367188,0.222656,0.125,0.111328,0.564331,-0.20697,0.579651,0.550232,down
625961,-8.421875,3.75,2.328125,0.222656,0.125,0.111328,0.564331,-0.20697,0.579651,0.550232,down
625966,-8.464844,3.863281,2.289063,0.285156,0.162109,0.128906,0.564331,-0.20697,0.579651,0.550232,down
625972,-8.503906,3.785156,2.328125,0.308594,0.179687,0.152344,0.562988,-0.205139,0.582886,0.548828,down
625977,-8.578125,3.824219,2.367188,0.308594,0.179687,0.152344,0.562622,-0.204651,0.583679,0.548523,down
625982,-8.542969,3.863281,2.367188,0.308594,0.179687,0.152344,0.562256,-0.204224,0.584473,0.548218,down
625987,-8.582031,3.902344,2.402344,0.308594,0.179687,0.152344,0.562256,-0.204224,0.584473,0.548218,down
625992,-8.578125,3.941406,2.402344,0.291016,0.201172,0.185547,0.562256,-0.204224,0.584473,0.548218,down
625997,-8.582031,3.941406,2.441406,0.291016,0.201172,0.185547,0.560974,-0.202942,0.586853,0.547485,down
626002,-8.582031,3.976563,2.328125,0.216797,0.208984,0.197266,0.560974,-0.202942,0.586853,0.547485,down
626007,-8.613281,4.015625,2.289063,0.216797,0.208984,0.197266,0.560547,-0.202637,0.587524,0.547363,down
626012,-8.539063,4.054687,2.367188,0.205078,0.197266,0.210937,0.560547,-0.202637,0.587524,0.547363,down
626018,-8.578125,4.015625,2.328125,0.205078,0.197266,0.210937,0.559021,-0.201599,0.589539,0.547058,down
626023,-8.613281,3.941406,2.25,0.205078,0.197266,0.210937,0.558533,-0.201294,0.590088,0.547058,down
626028,-8.613281,3.941406,2.25,0.132812,0.164062,0.228516,0.558533,-0.201294,0.590088,0.547058,down
626033,-8.613281,3.941406,2.289063,0.132812,0.164062,0.228516,0.557434,-0.200623,0.591309,0.547119,down
626039,-8.582031,3.863281,2.289063,0.132812,0.164062,0.228516,0.557068,-0.200378,0.591675,0.54718,down
626044,-8.582031,3.863281,2.289063,0.064453,0.142578,0.207031,0.55658,-0.200134,0.592163,0.547302,down
626050,-8.421875,3.863281,2.175781,0.064453,0.142578,0.207031,0.556091,-0.199951,0.592529,0.547424,down
626056,-8.421875,3.863281,2.210938,0.046875,0.123047,0.191406,0.556091,-0.199951,0.592529,0.547424,down
626061,-8.425781,3.75,2.136719,0.039063,0.115234,0.195312,0.556091,-0.199951,0.592529,0.547424,down
626066,-8.503906,3.59375,2.058594,0.035156,0.111328,0.189453,0.556091,-0.199951,0.592529,0.547424,down
626071,-8.464844,3.558594,2.175781,0.035156,0.080078,0.167969,0.556091,-0.199951,0.592529,0.547424,down
626077,-8.460938,3.480469,2.289063,0.054687,0.064453,0.109375,0.556091,-0.199951,0.592529,0.547424,down
626082,-8.464844,3.519531,2.210938,0.054687,0.064453,0.109375,0.553833,-0.198792,0.594299,0.548218,down
626087,-8.34375,3.558594,2.136719,0.054687,0.064453,0.109375,0.553467,-0.198547,0.594727,0.548157,down
626092,-8.304688,3.671875,2.097656,0.054687,0.064453,0.109375,0.553467,-0.198547,0.594727,0.548157,down
626097,-8.269531,3.75,2.097656,0.091797,0.068359,0.015625,0.553284,-0.198364,0.595276,0.547913,down
626102,-8.265625,3.785156,2.058594,0.128906,0.072266,0.007813,0.553284,-0.198364,0.595276,0.547913,down
626108,-8.269531,3.902344,2.097656,0.142578,0.076172,0.003906,0.553223,-0.198242,0.59552,0.547729,down
626113,-8.308594,3.902344,2.097656,0.142578,0.076172,0.003906,0.553101,-0.197998,0.596191,0.547241,down
626118,-8.34375,3.902344,2.097656,0.142578,0.076172,0.003906,0.553101,-0.197998,0.596191,0.547241,down
626123,-8.347656,3.941406,2.097656,0.142578,0.076172,0.003906,0.552979,-0.197876,0.59668,0.546875,down
626128,-8.347656,3.976563,2.019531,0.048828,0.0625,-0.009766,0.552917,-0.197876,0.596863,0.546692,down
626133,-8.347656,3.976563,2.058594,0.029297,0.056641,-0.017578,0.552856,-0.197876,0.596985,0.546631,down
626138,-8.382813,4.09375,2.097656,0.029297,0.056641,-0.017578,0.552795,-0.197937,0.597107,0.54657,down
626143,-8.386719,4.132812,2.058594,-0.011719,0.056641,-0.011719,0.552673,-0.198059,0.597168,0.546509,down
626149,-8.382813,4.09375,2.097656,-0.011719,0.056641,-0.011719,0.552612,-0.19812,0.597229,0.546509,down
626154,-8.347656,4.09375,2.058594,-0.066406,0.058594,-0.003906,0.552612,-0.19812,0.597229,0.546509,down
626159,-8.421875,4.09375,2.058594,-0.066406,0.058594,-0.003906,0.552368,-0.198486,0.597229,0.546631,down
626165,-8.460938,3.941406,2.058594,-0.066406,0.058594,-0.003906,0.552246,-0.198608,0.597168,0.546753,down
626171,-8.503906,3.902344,2.058594,-0.099609,0.058594,0.001953,0.552246,-0.198608,0.597168,0.546753,down
626177,-8.5,3.824219,2.019531,-0.099609,0.058594,0.001953,0.551819,-0.19928,0.597046,0.547058,down
626182,-8.582031,3.824219,2.097656,-0.099609,0.058594,0.001953,0.551819,-0.19928,0.597046,0.547058,down
626187,-8.5,3.902344,2.097656,-0.054687,0.019531,-0.058594,0.551819,-0.19928,0.597046,0.547058,down
626192,-8.464844,3.941406,2.136719,-0.054687,0.019531,-0.058594,0.551758,-0.199646,0.596924,0.54718,down
626197,-8.542969,3.941406,2.097656,-0.054687,0.019531,-0.058594,0.551819,-0.199829,0.596863,0.547119,down
626203,-8.5,4.015625,2.058594,0.009766,0.007813,-0.087891,0.551819,-0.199829,0.596863,0.547119,down
626208,-8.5,4.054687,2.058594,0.035156,0.0,-0.091797,0.552185,-0.200134,0.596863,0.546631,down
626214,-8.503906,4.207031,2.058594,0.035156,0.0,-0.091797,0.552307,-0.200195,0.596863,0.546448,down
626219,-8.542969,4.285156,2.019531,0.060547,0.011719,-0.091797,0.552429,-0.200256,0.596924,0.546265,down
626224,-8.542969,4.285156,2.019531,0.044922,0.017578,-0.087891,0.552551,-0.200317,0.596985,0.546021,down
626230,-8.542969,4.324219,2.097656,0.044922,0.017578,-0.087891,0.552673,-0.200378,0.597046,0.545837,down
626237,-8.582031,4.285156,2.058594,-0.001953,0.029297,-0.076172,0.552673,-0.200378,0.597046,0.545837,down
