timestamp,ax,ay,az,gx,gy,gz,qw,qx,qy,qz,label
575679,-8.507813,1.71875,4.410156,0.611328,0.035156,0.410156,0.606628,-0.319519,0.427124,0.589478,up
575684,-8.511719,1.796875,4.410156,0.574219,0.029297,0.423828,0.606628,-0.319519,0.427124,0.589478,up
575689,-8.585938,1.71875,4.410156,0.574219,0.029297,0.423828,0.606079,-0.315552,0.430969,0.589355,up
575695,-8.664063,1.71875,4.410156,0.542969,0.029297,0.441406,0.606079,-0.315552,0.430969,0.589355,up
575700,-8.707031,1.757813,4.449219,0.490234,0.025391,0.445312,0.605225,-0.31189,0.434448,0.589661,up
575705,-8.785156,1.757813,4.449219,0.490234,0.025391,0.445312,0.604858,-0.31073,0.435425,0.589905,up
575710,-8.851563,1.757813,4.527344,0.490234,0.025391,0.445312,0.604858,-0.31073,0.435425,0.589905,up
575715,-8.890625,1.796875,4.488281,0.246094,0.017578,0.404297,0.604858,-0.31073,0.435425,0.589905,up
575720,-8.929688,1.679688,4.410156,0.246094,0.017578,0.404297,0.604065,-0.30896,0.437012,0.590515,up
575725,-8.972656,1.566406,4.371094,0.246094,0.017578,0.404297,0.603638,-0.308105,0.437683,0.590881,up
575730,-8.96875,1.527344,4.410156,0.201172,-0.078125,0.333984,0.603638,-0.308105,0.437683,0.590881,up
575735,-8.929688,1.449219,4.371094,0.201172,-0.078125,0.333984,0.602966,-0.306519,0.438782,0.591553,up
575740,-8.816406,1.488281,4.449219,0.201172,-0.078125,0.333984,0.602722,-0.305725,0.439209,0.591919,up
575745,-8.703125,1.527344,4.488281,0.207031,-0.136719,0.246094,0.6026,-0.304993,0.439514,0.592163,up
575750,-8.667969,1.527344,4.449219,0.207031,-0.136719,0.246094,0.602539,-0.304077,0.43988,0.592468,up
575755,-8.625,1.527344,4.335937,0.238281,-0.099609,0.25,0.602478,-0.303284,0.440186,0.592712,up
575760,-8.625,1.527344,4.335937,0.259766,-0.085937,0.259766,0.602356,-0.302551,0.440552,0.592896,up
575765,-8.550781,1.527344,4.335937,0.259766,-0.085937,0.259766,0.602295,-0.301758,0.440918,0.593079,up
575771,-8.550781,1.527344,4.335937,0.271484,-0.066406,0.265625,0.60199,-0.300049,0.442017,0.593445,up
575776,-8.550781,1.527344,4.335937,0.285156,-0.048828,0.308594,0.601807,-0.299255,0.442627,0.593628,up
575782,-8.585938,1.605469,4.296875,0.285156,-0.048828,0.308594,0.601624,-0.298401,0.443176,0.593811,up
575787,-8.585938,1.605469,4.179687,0.277344,-0.021484,0.320313,0.601624,-0.298401,0.443176,0.593811,up
575792,-8.546875,1.640625,4.144531,0.277344,-0.029297,0.324219,0.601624,-0.298401,0.443176,0.593811,up
575797,-8.507813,1.640625,4.179687,0.277344,-0.029297,0.324219,0.600891,-0.295898,0.445068,0.594421,up
575802,-8.394531,1.566406,4.179687,0.277344,-0.029297,0.324219,0.600891,-0.295898,0.445068,0.594421,up
575807,-8.390625,1.527344,4.105469,0.222656,-0.035156,0.351563,0.600891,-0.295898,0.445068,0.594421,up
575813,-8.429688,1.257813,4.066406,0.222656,-0.035156,0.351563,0.600891,-0.295898,0.445068,0.594421,up
575819,-8.433594,1.183594,3.988281,0.222656,-0.035156,0.351563,0.599548,-0.292664,0.447266,0.595703,up
575824,-8.363281,1.183594,3.949219,0.169922,-0.033203,0.359375,0.599548,-0.292664,0.447266,0.595703,up
575829,-8.320313,1.105469,3.988281,0.169922,-0.033203,0.359375,0.598755,-0.291199,0.448242,0.596436,up
575834,-8.242188,1.144531,4.027344,0.169922,-0.033203,0.359375,0.598755,-0.291199,0.448242,0.596436,up
575839,-8.246094,1.183594,3.949219,0.189453,0.0,0.287109,0.598755,-0.291199,0.448242,0.596436,up
575844,-8.207031,1.222656,3.875,0.242187,0.025391,0.271484,0.598755,-0.291199,0.448242,0.596436,up
575849,-8.128906,1.375,3.796875,0.242187,0.025391,0.271484,0.597534,-0.288574,0.450439,0.597351,up
575855,-8.125,1.375,3.757813,0.333984,0.095703,0.263672,0.597534,-0.288574,0.450439,0.597351,up
575860,-8.203125,1.488281,3.757813,0.402344,0.130859,0.265625,0.596741,-0.286438,0.453186,0.597046,up
575865,-8.285156,1.679688,3.644531,0.402344,0.130859,0.265625,0.596741,-0.286438,0.453186,0.597046,up
575871,-8.324219,1.757813,3.683594,0.505859,0.15625,0.261719,0.596252,-0.28479,0.455688,0.596436,up
575876,-8.320313,1.796875,3.683594,0.505859,0.15625,0.261719,0.596252,-0.28479,0.455688,0.596436,up
575881,-8.324219,1.910156,3.683594,0.539062,0.201172,0.240234,0.595764,-0.283203,0.458252,0.595703,up
575887,-8.394531,2.140625,3.722656,0.539062,0.201172,0.240234,0.59552,-0.282532,0.459412,0.595337,up
575892,-8.394531,2.101563,3.683594,0.443359,0.238281,0.238281,0.59552,-0.282532,0.459412,0.595337,up
575897,-8.394531,2.140625,3.605469,0.386719,0.253906,0.236328,0.594849,-0.281372,0.461853,0.594666,up
575903,-8.363281,2.101563,3.566406,0.324219,0.267578,0.246094,0.594849,-0.281372,0.461853,0.594666,up
575909,-8.242188,2.101563,3.644531,0.242187,0.265625,0.251953,0.594849,-0.281372,0.461853,0.594666,up
575914,-8.246094,2.0625,3.605469,0.166016,0.277344,0.263672,0.594849,-0.281372,0.461853,0.594666,up
575919,-8.246094,2.0625,3.605469,0.099609,0.302734,0.273438,0.592712,-0.280273,0.465698,0.59436,up
575924,-8.246094,2.0625,3.566406,0.099609,0.302734,0.273438,0.592712,-0.280273,0.465698,0.59436,up
575930,-8.320313,1.796875,3.644531,0.007813,0.335938,0.283203,0.591187,-0.280396,0.467224,0.594604,up
575935,-8.28125,1.679688,3.566406,-0.013672,0.347656,0.285156,0.589478,-0.280762,0.468628,0.595032,up
575940,-8.285156,1.527344,3.566406,-0.013672,0.347656,0.285156,0.589478,-0.280762,0.468628,0.595032,up
575945,-8.242188,1.488281,3.683594,-0.013672,0.347656,0.285156,0.588684,-0.280945,0.46936,0.595154,up
575951,-8.164063,1.488281,3.683594,0.099609,0.298828,0.220703,0.588684,-0.280945,0.46936,0.595154,up
575956,-8.203125,1.566406,3.722656,0.099609,0.298828,0.220703,0.58667,-0.281128,0.471619,0.595276,up
575962,-8.394531,1.910156,3.644531,0.099609,0.298828,0.220703,0.586243,-0.280945,0.472595,0.595032,up
575967,-8.472656,2.023438,3.683594,0.376953,0.28125,0.148437,0.586243,-0.280945,0.472595,0.595032,up
575972,-8.472656,2.140625,3.757813,0.412109,0.255859,0.140625,0.586243,-0.280945,0.472595,0.595032,up
575977,-8.507813,2.253906,3.757813,0.412109,0.255859,0.140625,0.585388,-0.279907,0.47583,0.593811,up
575983,-8.550781,2.332031,3.835938,0.412109,0.255859,0.140625,0.585144,-0.27948,0.476929,0.593323,up
575989,-8.625,2.332031,3.835938,0.355469,0.214844,0.101563,0.585144,-0.27948,0.476929,0.593323,up
575995,-8.585938,2.332031,3.875,0.271484,0.208984,0.09375,0.585144,-0.27948,0.476929,0.593323,up
576001,-8.589844,2.253906,3.796875,0.083984,0.171875,0.078125,0.585144,-0.27948,0.476929,0.593323,up
576006,-8.585938,2.21875,3.835938,0.083984,0.171875,0.078125,0.583984,-0.278748,0.480347,0.592041,up
576011,-8.546875,2.179688,3.835938,0.083984,0.171875,0.078125,0.583679,-0.278931,0.48053,0.592102,up
576016,-8.46875,2.140625,3.796875,-0.199219,0.142578,0.070312,0.583679,-0.278931,0.48053,0.592102,up
576021,-8.429688,2.101563,3.796875,-0.199219,0.142578,0.070312,0.583191,-0.279297,0.480591,0.592346,up
576026,-8.433594,2.101563,3.757813,-0.242187,0.146484,0.072266,0.582275,-0.280212,0.480469,0.592957,up
576032,-8.363281,2.023438,3.757813,-0.242187,0.146484,0.072266,0.581787,-0.28064,0.480408,0.593262,up
576037,-8.363281,2.023438,3.757813,-0.195312,0.177734,0.083984,0.581299,-0.281067,0.480408,0.593506,up
576042,-8.433594,2.023438,3.722656,-0.171875,0.210937,0.082031,0.58075,-0.281555,0.480469,0.59375,up
576047,-8.429688,1.949219,3.683594,-0.171875,0.210937,0.082031,0.580261,-0.281982,0.480652,0.593933,up
576053,-8.433594,1.871094,3.683594,-0.171875,0.210937,0.082031,0.579834,-0.282349,0.480957,0.593933,up
576059,-8.429688,1.832031,3.605469,0.056641,0.279297,0.080078,0.579346,-0.282593,0.481506,0.593872,up
576065,-8.46875,1.949219,3.722656,0.138672,0.292969,0.068359,0.579346,-0.282593,0.481506,0.593872,up
576070,-8.511719,1.988281,3.722656,0.138672,0.292969,0.068359,0.578613,-0.282898,0.482788,0.593384,up
576076,-8.589844,2.023438,3.757813,0.240234,0.3125,0.058594,0.578613,-0.282898,0.482788,0.593384,up
576081,-8.628906,2.101563,3.722656,0.271484,0.326172,0.050781,0.577698,-0.282959,0.485474,0.592041,up
576086,-8.664063,2.21875,3.757813,0.271484,0.326172,0.050781,0.577698,-0.282959,0.485474,0.592041,up
576091,-8.785156,2.292969,3.796875,0.298828,0.296875,0.035156,0.577454,-0.282959,0.486511,0.591431,up
576096,-8.785156,2.371094,3.796875,0.298828,0.296875,0.035156,0.577209,-0.282898,0.487427,0.590942,up
576102,-8.851563,2.484375,3.796875,0.271484,0.242187,0.037109,0.577026,-0.282837,0.488281,0.590454,up
576108,-8.890625,2.484375,3.835938,0.271484,0.242187,0.037109,0.57666,-0.282654,0.489807,0.5896,up
576114,-8.929688,2.484375,3.835938,0.195312,0.167969,0.009766,0.57666,-0.282654,0.489807,0.5896,up
576119,-8.972656,2.523438,3.875,0.152344,0.132812,0.003906,0.57666,-0.282654,0.489807,0.5896,up
576125,-8.890625,2.523438,3.875,0.152344,0.132812,0.003906,0.57666,-0.282654,0.489807,0.5896,up
576131,-8.894531,2.5625,3.875,0.029297,0.039063,-0.033203,0.57666,-0.282654,0.489807,0.5896,up
576136,-8.855469,2.601563,3.796875,0.029297,0.039063,-0.033203,0.576416,-0.282593,0.49176,0.588257,up
576141,-8.855469,2.601563,3.796875,0.029297,0.039063,-0.033203,0.576416,-0.282654,0.491699,0.588257,up
576146,-8.78125,2.484375,3.722656,0.029297,0.039063,-0.033203,0.576416,-0.282654,0.491699,0.588257,up
576151,-8.707031,2.484375,3.757813,-0.080078,-0.005859,-0.025391,0.576355,-0.282898,0.491455,0.58844,up
576156,-8.703125,2.445313,3.757813,-0.111328,-0.003906,-0.007813,0.576355,-0.282898,0.491455,0.58844,up
576162,-8.625,2.371094,3.683594,-0.117188,0.005859,-0.001953,0.576294,-0.28302,0.491333,0.588562,up
576167,-8.625,2.332031,3.644531,-0.117188,0.005859,-0.001953,0.576111,-0.283386,0.491028,0.588806,up
576172,-8.625,2.332031,3.683594,-0.117188,0.005859,-0.001953,0.575928,-0.283569,0.490906,0.588928,up
576177,-8.667969,2.292969,3.605469,-0.117188,0.005859,-0.001953,0.575806,-0.283691,0.490906,0.58905,up
576182,-8.628906,2.292969,3.605469,-0.015625,0.078125,0.023437,0.575623,-0.283813,0.490967,0.589111,up
576188,-8.589844,2.332031,3.566406,-0.015625,0.078125,0.023437,0.5755,-0.283875,0.49115,0.58905,up
576193,-8.589844,2.371094,3.566406,-0.015625,0.078125,0.023437,0.575317,-0.283936,0.491394,0.58905,up
576198,-8.625,2.332031,3.53125,-0.015625,0.078125,0.023437,0.575073,-0.283936,0.49176,0.588928,up
576204,-8.664063,2.371094,3.492188,0.142578,0.166016,0.058594,0.575073,-0.283936,0.49176,0.588928,up
576209,-8.628906,2.371094,3.566406,0.175781,0.164062,0.060547,0.575073,-0.283936,0.49176,0.588928,up
576215,-8.707031,2.410156,3.566406,0.175781,0.164062,0.060547,0.575073,-0.283936,0.49176,0.588928,up
576220,-8.703125,2.332031,3.53125,0.214844,0.191406,0.048828,0.575073,-0.283936,0.49176,0.588928,up
576226,-8.707031,2.332031,3.566406,0.263672,0.201172,0.029297,0.575073,-0.283936,0.49176,0.588928,up
576231,-8.746094,2.332031,3.566406,0.263672,0.201172,0.029297,0.573975,-0.283264,0.495972,0.586792,up
576236,-8.703125,2.445313,3.53125,0.263672,0.201172,0.029297,0.573975,-0.283264,0.495972,0.586792,up
576241,-8.746094,2.484375,3.492188,0.306641,0.191406,0.009766,0.573975,-0.283264,0.495972,0.586792,up
576246,-8.742188,2.636719,3.53125,0.326172,0.183594,0.0,0.573975,-0.283264,0.495972,0.586792,up
576251,-8.746094,2.675781,3.53125,0.326172,0.183594,0.0,0.573914,-0.282654,0.49823,0.585266,up
576256,-8.78125,2.753906,3.492188,0.326172,0.183594,0.0,0.573914,-0.282349,0.499023,0.584656,up
576261,-8.785156,2.828125,3.492188,0.333984,0.148437,0.001953,0.574036,-0.28186,0.500427,0.583679,up
576266,-8.816406,2.90625,3.53125,0.333984,0.148437,0.001953,0.574036,-0.28186,0.500427,0.583679,up
576271,-8.816406,2.984375,3.53125,0.273438,0.105469,0.009766,0.574036,-0.281555,0.501038,0.583191,up
576276,-8.785156,3.019531,3.53125,0.273438,0.105469,0.009766,0.574097,-0.281311,0.501709,0.582764,up
576281,-8.816406,3.058594,3.492188,0.273438,0.105469,0.009766,0.574158,-0.281067,0.502136,0.582397,up
576286,-8.785156,3.058594,3.453125,0.078125,0.033203,0.005859,0.574158,-0.280884,0.502625,0.582092,up
576292,-8.785156,3.019531,3.453125,-0.013672,0.017578,0.019531,0.574158,-0.280762,0.502869,0.58197,up
576297,-8.746094,3.019531,3.492188,-0.013672,0.017578,0.019531,0.574036,-0.280762,0.50293,0.582031,up
576302,-8.703125,2.945313,3.414063,-0.013672,0.017578,0.019531,0.573853,-0.280884,0.502747,0.582275,up
576308,-8.667969,2.828125,3.414063,-0.013672,0.017578,0.019531,0.573608,-0.281128,0.502502,0.582642,up
576313,-8.667969,2.828125,3.414063,-0.279297,-0.009766,0.072266,0.573364,-0.281372,0.502136,0.583008,up
576318,-8.585938,2.714844,3.414063,-0.279297,-0.009766,0.072266,0.573059,-0.281616,0.501831,0.583496,up
576324,-8.546875,2.636719,3.339844,-0.279297,-0.009766,0.072266,0.572693,-0.281982,0.501465,0.583984,up
576331,-8.511719,2.601563,3.339844,-0.298828,0.044922,0.105469,0.572693,-0.281982,0.501465,0.583984,up
576337,-8.511719,2.5625,3.339844,-0.279297,0.058594,0.117188,0.57135,-0.282959,0.500671,0.58551,up
576342,-8.550781,2.523438,3.261719,-0.160156,0.111328,0.138672,0.570923,-0.283142,0.500671,0.585815,up
576348,-8.46875,2.523438,3.261719,-0.097656,0.138672,0.154297,0.570374,-0.283325,0.500793,0.586182,up
576353,-8.546875,2.523438,3.183594,-0.097656,0.138672,0.154297,0.569885,-0.283447,0.501038,0.586365,up
576359,-8.511719,2.5625,3.261719,-0.097656,0.138672,0.154297,0.569458,-0.283508,0.501404,0.586487,up
576364,-8.511719,2.636719,3.222656,-0.097656,0.138672,0.154297,0.568909,-0.283447,0.501953,0.586548,up
576369,-8.429688,2.675781,3.183594,0.140625,0.240234,0.203125,0.568909,-0.283447,0.501953,0.586548,up
576374,-8.507813,2.753906,3.183594,0.189453,0.263672,0.230469,0.568909,-0.283447,0.501953,0.586548,up
576379,-8.507813,2.792969,3.148438,0.207031,0.287109,0.251953,0.567383,-0.28302,0.50415,0.586365,up
576385,-8.511719,2.828125,3.109375,0.244141,0.318359,0.271484,0.567383,-0.28302,0.50415,0.586365,up
576391,-8.585938,2.867188,3.070313,0.244141,0.318359,0.271484,0.56604,-0.282532,0.506165,0.586121,up
576396,-8.585938,2.90625,3.070313,0.244141,0.318359,0.271484,0.565308,-0.282288,0.507263,0.585999,up
576402,-8.628906,2.984375,3.03125,0.240234,0.369141,0.390625,0.565308,-0.282288,0.507263,0.585999,up
576407,-8.585938,3.097656,3.03125,0.240234,0.369141,0.390625,0.562744,-0.281372,0.510742,0.585937,up
576412,-8.585938,3.214844,3.03125,0.240234,0.369141,0.390625,0.561829,-0.281067,0.511841,0.585999,up
576418,-8.511719,3.367188,3.03125,0.179687,0.400391,0.486328,0.560669,-0.280762,0.513062,0.586121,up
576423,-8.550781,3.480469,2.992188,0.179687,0.400391,0.486328,0.55957,-0.280457,0.514221,0.586365,up
576428,-8.585938,3.558594,2.957031,0.179687,0.400391,0.486328,0.558289,-0.280151,0.515381,0.58667,up
576434,-8.585938,3.671875,2.800781,0.179687,0.400391,0.486328,0.556885,-0.279907,0.516541,0.587097,up
576439,-8.589844,3.710938,2.800781,0.033203,0.466797,0.691406,0.555359,-0.279602,0.517761,0.587646,up
576444,-8.585938,3.75,2.761719,-0.013672,0.478516,0.751953,0.555359,-0.279602,0.517761,0.587646,up
576449,-8.589844,3.824219,2.726563,-0.013672,0.478516,0.751953,0.55188,-0.279114,0.520081,0.589111,up
576454,-8.589844,3.824219,2.6875,-0.107422,0.486328,0.888672,0.55188,-0.279114,0.520081,0.589111,up
576460,-8.625,3.863281,2.6875,-0.160156,0.490234,0.941406,0.55188,-0.279114,0.520081,0.589111,up
576465,-8.703125,3.863281,2.726563,-0.160156,0.490234,0.941406,0.545532,-0.278198,0.523437,0.592407,up
576470,-8.703125,3.710938,2.6875,-0.160156,0.490234,0.941406,0.545532,-0.278198,0.523437,0.592407,up
576475,-8.746094,3.632813,2.648438,-0.160156,0.490234,0.941406,0.540649,-0.277771,0.525574,0.595215,up
576480,-8.78125,3.597656,2.609375,-0.316406,0.560547,1.142578,0.540649,-0.277771,0.525574,0.595215,up
576486,-8.78125,3.597656,2.609375,-0.316406,0.560547,1.142578,0.540649,-0.277771,0.525574,0.595215,up
576492,-8.703125,3.597656,2.648438,-0.279297,0.525391,1.234375,0.540649,-0.277771,0.525574,0.595215,up
576497,-8.742188,3.597656,2.648438,-0.279297,0.525391,1.234375,0.527039,-0.275879,0.531128,0.603333,up
576502,-8.746094,3.632813,2.609375,-0.279297,0.525391,1.234375,0.527039,-0.275879,0.531128,0.603333,up
576507,-8.746094,3.632813,2.609375,-0.279297,0.525391,1.234375,0.527039,-0.275879,0.531128,0.603333,up
576512,-8.746094,3.558594,2.609375,-0.121094,0.519531,1.28125,0.527039,-0.275879,0.531128,0.603333,up
576517,-8.746094,3.558594,2.609375,-0.080078,0.509766,1.291016,0.51886,-0.273743,0.535095,0.607849,up
576522,-8.667969,3.75,2.609375,-0.080078,0.509766,1.291016,0.513489,-0.271729,0.538147,0.610657,up
576527,-8.625,3.824219,2.609375,-0.080078,0.509766,1.291016,0.513489,-0.271729,0.538147,0.610657,up
576532,-8.628906,3.863281,2.609375,-0.080078,0.509766,1.291016,0.508179,-0.269104,0.541809,0.613037,up
576537,-8.585938,3.980469,2.609375,0.308594,0.449219,1.306641,0.508179,-0.269104,0.541809,0.613037,up
576542,-8.550781,4.054687,2.609375,0.357422,0.449219,1.314453,0.505859,-0.267761,0.543579,0.613953,up
576547,-8.546875,4.09375,2.609375,0.357422,0.449219,1.314453,0.503296,-0.266113,0.545654,0.614929,up
576553,-8.550781,4.171875,2.609375,0.357422,0.449219,1.314453,0.498535,-0.262939,0.549622,0.616638,up
576559,-8.550781,4.171875,2.609375,0.357422,0.449219,1.314453,0.496338,-0.261536,0.551453,0.617432,up
576564,-8.511719,4.246094,2.609375,0.355469,0.447266,1.298828,0.493774,-0.259827,0.553528,0.618286,up
576569,-8.472656,4.246094,2.609375,0.316406,0.4375,1.279297,0.493774,-0.259827,0.553528,0.618286,up
576575,-8.46875,4.285156,2.570313,0.316406,0.4375,1.279297,0.489136,-0.256958,0.557129,0.619934,up
576580,-8.433594,4.285156,2.535156,0.294922,0.427734,1.236328,0.486816,-0.255493,0.558899,0.620789,up
576585,-8.472656,4.324219,2.570313,0.296875,0.416016,1.208984,0.486816,-0.255493,0.558899,0.620789,up
576590,-8.429688,4.324219,2.496094,0.298828,0.404297,1.175781,0.486816,-0.255493,0.558899,0.620789,up
576595,-8.433594,4.402344,2.535156,0.298828,0.404297,1.175781,0.480042,-0.251282,0.564087,0.623108,up
576602,-8.394531,4.363281,2.570313,0.298828,0.404297,1.175781,0.480042,-0.251282,0.564087,0.623108,up
576607,-8.324219,4.4375,2.570313,0.292969,0.367188,1.052734,0.480042,-0.251282,0.564087,0.623108,up
576612,-8.324219,4.476562,2.535156,0.292969,0.367188,1.052734,0.473816,-0.247253,0.568909,0.625061,up
576617,-8.320313,4.515625,2.535156,0.292969,0.367188,1.052734,0.471863,-0.245911,0.570557,0.62561,up
576623,-8.285156,4.515625,2.535156,0.355469,0.322266,0.894531,0.468567,-0.24353,0.573486,0.626343,up
576628,-8.242188,4.59375,2.570313,0.355469,0.322266,0.894531,0.467163,-0.242432,0.574768,0.626648,up
576634,-8.242188,4.667969,2.457031,0.355469,0.322266,0.894531,0.465881,-0.241333,0.575989,0.626892,up
576639,-8.242188,4.667969,2.417969,0.341797,0.193359,0.710937,0.4646,-0.240173,0.577271,0.627136,up
576644,-8.203125,4.707031,2.496094,0.318359,0.162109,0.65625,0.4646,-0.240173,0.577271,0.627136,up
576649,-8.203125,4.667969,2.496094,0.318359,0.162109,0.65625,0.4646,-0.240173,0.577271,0.627136,up
576655,-8.164063,4.667969,2.457031,0.292969,0.087891,0.568359,0.4646,-0.240173,0.577271,0.627136,up
576661,-8.125,4.667969,2.535156,0.28125,0.044922,0.527344,0.4646,-0.240173,0.577271,0.627136,up
576667,-8.085938,4.707031,2.535156,0.25,0.011719,0.474609,0.460022,-0.234863,0.58197,0.628113,up
576672,-8.050781,4.707031,2.496094,0.214844,-0.064453,0.402344,0.459412,-0.233948,0.582642,0.628296,up
576677,-8.050781,4.667969,2.496094,0.214844,-0.064453,0.402344,0.458923,-0.23291,0.583191,0.62854,up
576682,-8.050781,4.667969,2.496094,0.214844,-0.064453,0.402344,0.458557,-0.232056,0.583618,0.628723,up
576687,-8.007813,4.707031,2.457031,0.214844,-0.064453,0.402344,0.458557,-0.232056,0.583618,0.628723,up
576692,-8.050781,4.746094,2.457031,0.181641,-0.117188,0.328125,0.458557,-0.232056,0.583618,0.628723,up
576697,-8.050781,4.746094,2.457031,0.181641,-0.117188,0.328125,0.458557,-0.232056,0.583618,0.628723,up
576702,-7.976562,4.820312,2.378906,0.134766,-0.146484,0.205078,0.457825,-0.228088,0.5849,0.629456,up
576707,-7.980469,4.898437,2.417969,0.113281,-0.171875,0.148437,0.457825,-0.228088,0.5849,0.629456,up
576712,-7.9375,4.9375,2.417969,0.113281,-0.171875,0.148437,0.457886,-0.227417,0.585022,0.629578,up
576717,-7.941406,4.898437,2.417969,0.0625,-0.171875,0.091797,0.457886,-0.227417,0.585022,0.629578,up
576723,-7.820312,4.859375,2.304688,0.0625,-0.171875,0.091797,0.458252,-0.22583,0.584961,0.629944,up
576728,-7.863281,4.859375,2.304688,0.023437,-0.166016,0.048828,0.458435,-0.225403,0.584839,0.630066,up
576733,-7.78125,4.820312,2.265625,0.0,-0.166016,0.029297,0.458618,-0.225098,0.584717,0.630188,up
576738,-7.78125,4.820312,2.265625,-0.011719,-0.167969,0.007813,0.458618,-0.225098,0.584717,0.630188,up
576743,-7.742187,4.820312,2.265625,-0.011719,-0.167969,0.007813,0.459045,-0.224548,0.58429,0.630493,up
576748,-7.78125,4.820312,2.265625,-0.042969,-0.148437,-0.029297,0.459229,-0.224365,0.584045,0.630615,up
576753,-7.746094,4.785156,2.34375,-0.042969,-0.148437,-0.029297,0.459229,-0.224365,0.584045,0.630615,up
576758,-7.78125,4.746094,2.304688,-0.042969,-0.148437,-0.029297,0.459717,-0.224121,0.583557,0.630798,up
576763,-7.824219,4.820312,2.304688,-0.035156,-0.126953,-0.074219,0.459961,-0.22406,0.583252,0.630859,up
576768,-7.902344,4.898437,2.265625,-0.035156,-0.126953,-0.074219,0.460266,-0.223999,0.583008,0.63092,up
576773,-7.902344,4.859375,2.304688,-0.035156,-0.126953,-0.074219,0.460571,-0.223938,0.582825,0.63092,up
576778,-7.898437,4.859375,2.34375,0.021484,-0.134766,-0.111328,0.460571,-0.223938,0.582825,0.63092,up
576783,-7.898437,4.898437,2.34375,0.021484,-0.134766,-0.111328,0.461304,-0.223755,0.582458,0.630798,up
576788,-7.976562,5.011719,2.34375,0.054687,-0.15625,-0.134766,0.461792,-0.223633,0.582275,0.630676,up
576793,-8.011719,5.050781,2.34375,0.054687,-0.15625,-0.134766,0.462219,-0.223511,0.582092,0.630554,up
576799,-8.007813,5.128906,2.417969,0.054687,-0.15625,-0.134766,0.462769,-0.22345,0.581787,0.630371,up
576804,-8.046875,5.167969,2.304688,-0.033203,-0.185547,-0.210937,0.463379,-0.22345,0.581482,0.630249,up
576809,-8.089844,5.28125,2.378906,-0.033203,-0.185547,-0.210937,0.463928,-0.223511,0.581055,0.630188,up
576815,-8.085938,5.320312,2.378906,-0.033203,-0.185547,-0.210937,0.464539,-0.223694,0.580566,0.630188,up
576821,-8.046875,5.28125,2.34375,-0.199219,-0.203125,-0.308594,0.464539,-0.223694,0.580566,0.630188,up
576827,-8.046875,5.28125,2.34375,-0.275391,-0.207031,-0.333984,0.464539,-0.223694,0.580566,0.630188,up
576832,-8.046875,5.203125,2.34375,-0.363281,-0.205078,-0.355469,0.467224,-0.225586,0.577087,0.630737,up
576837,-8.050781,5.167969,2.417969,-0.363281,-0.205078,-0.355469,0.467224,-0.225586,0.577087,0.630737,up
576842,-8.050781,5.011719,2.417969,-0.494141,-0.220703,-0.384766,0.468506,-0.227112,0.574585,0.631531,up
576847,-8.085938,4.785156,2.417969,-0.494141,-0.220703,-0.384766,0.468506,-0.227112,0.574585,0.631531,up
576852,-8.050781,4.59375,2.535156,-0.494141,-0.220703,-0.384766,0.469177,-0.227966,0.573181,0.631958,up
576857,-8.050781,4.402344,2.570313,-0.566406,-0.259766,-0.445312,0.469177,-0.227966,0.573181,0.631958,up
576863,-8.125,4.171875,2.609375,-0.554687,-0.28125,-0.476562,0.469177,-0.227966,0.573181,0.631958,up
576868,-8.167969,4.09375,2.609375,-0.554687,-0.28125,-0.476562,0.472717,-0.231445,0.567261,0.633362,up
576873,-8.167969,4.207031,2.609375,-0.302734,-0.398438,-0.646484,0.472717,-0.231445,0.567261,0.633362,up
576878,-8.203125,4.285156,2.6875,-0.302734,-0.398438,-0.646484,0.475525,-0.232727,0.564636,0.633179,up
576883,-8.242188,4.402344,2.761719,-0.302734,-0.398438,-0.646484,0.477234,-0.233215,0.563416,0.632812,up
576888,-8.324219,4.9375,2.726563,-0.080078,-0.5625,-0.876953,0.479431,-0.233765,0.561951,0.632202,up
576893,-8.390625,5.242187,2.761719,-0.083984,-0.636719,-0.955078,0.479431,-0.233765,0.561951,0.632202,up
576898,-8.390625,5.394531,2.726563,-0.083984,-0.636719,-0.955078,0.484009,-0.234619,0.559082,0.630981,up
576903,-8.394531,5.511719,2.726563,-0.083984,-0.636719,-0.955078,0.48645,-0.235229,0.557373,0.630371,up
576908,-8.285156,5.625,2.6875,-0.46875,-0.767578,-1.171875,0.48645,-0.235229,0.557373,0.630371,up
576913,-8.246094,5.550781,2.6875,-0.722656,-0.767578,-1.214844,0.48938,-0.236145,0.554932,0.629883,up
576918,-8.203125,5.394531,2.648438,-0.722656,-0.767578,-1.214844,0.494324,-0.23877,0.5495,0.629822,up
576923,-8.050781,5.242187,2.609375,-0.722656,-0.767578,-1.214844,0.496582,-0.240662,0.546021,0.630371,up
576928,-7.859375,4.667969,2.609375,-0.722656,-0.767578,-1.214844,0.496582,-0.240662,0.546021,0.630371,up
576933,-7.78125,4.285156,2.648438,-1.599609,-0.746094,-1.216797,0.500549,-0.245605,0.537659,0.632507,up
576938,-7.820312,3.558594,2.6875,-1.599609,-0.746094,-1.216797,0.500549,-0.245605,0.537659,0.632507,up
576943,-7.824219,3.214844,2.726563,-1.966797,-0.609375,-1.158203,0.503418,-0.251526,0.528625,0.635498,up
576948,-7.9375,2.90625,2.839844,-1.966797,-0.552734,-1.142578,0.503418,-0.251526,0.528625,0.635498,up
576953,-8.089844,2.90625,3.148438,-1.966797,-0.552734,-1.142578,0.504822,-0.254883,0.523621,0.637207,up
576958,-8.050781,2.90625,3.261719,-1.966797,-0.552734,-1.142578,0.507507,-0.26062,0.515259,0.639587,up
576963,-8.085938,2.792969,3.375,-1.421875,-0.498047,-1.316406,0.507507,-0.26062,0.515259,0.639587,up
576968,-8.085938,2.792969,3.375,-1.169922,-0.460937,-1.388672,0.509338,-0.263672,0.510925,0.64032,up
576974,-8.085938,2.867188,3.339844,-1.169922,-0.460937,-1.388672,0.513245,-0.268494,0.504395,0.640381,up
576979,-8.046875,2.984375,3.300781,-1.169922,-0.460937,-1.388672,0.515625,-0.27063,0.501709,0.639648,up
576984,-8.046875,2.984375,3.300781,-0.355469,-0.369141,-1.552734,0.518311,-0.272583,0.499329,0.638489,up
576989,-7.898437,3.214844,3.339844,-0.355469,-0.369141,-1.552734,0.52124,-0.274414,0.497253,0.637024,up
576995,-7.746094,3.289063,3.222656,-0.355469,-0.369141,-1.552734,0.523682,-0.275879,0.495728,0.635498,up
577000,-7.746094,3.289063,3.222656,-0.091797,-0.21875,-1.490234,0.526428,-0.277527,0.494141,0.633789,up
577005,-7.746094,3.289063,3.222656,-0.162109,-0.195312,-1.404297,0.52887,-0.279175,0.492676,0.632202,up
577010,-7.78125,3.289063,3.53125,-0.162109,-0.195312,-1.404297,0.52887,-0.279175,0.492676,0.632202,up
577015,-7.78125,3.214844,3.605469,-0.271484,-0.154297,-1.296875,0.531006,-0.280762,0.49115,0.630798,up
577020,-7.78125,3.214844,3.605469,-0.394531,-0.097656,-1.181641,0.532959,-0.282593,0.489563,0.629639,up
577026,-8.089844,2.792969,3.605469,-0.498047,-0.054687,-1.046875,0.535645,-0.286255,0.486389,0.628174,up
577031,-8.164063,2.601563,3.683594,-0.498047,-0.054687,-1.046875,0.536621,-0.288086,0.484619,0.627808,up
577036,-8.203125,2.410156,3.835938,-0.693359,-0.089844,-0.673828,0.536621,-0.288086,0.484619,0.627808,up
577041,-8.203125,2.332031,3.875,-0.664062,-0.128906,-0.582031,0.536621,-0.288086,0.484619,0.627808,up
577046,-8.390625,2.023438,3.914063,-0.664062,-0.128906,-0.582031,0.536621,-0.288086,0.484619,0.627808,up
577052,-8.394531,1.988281,3.835938,-0.664062,-0.128906,-0.582031,0.539246,-0.293579,0.478271,0.62793,up
577058,-8.429688,2.023438,3.875,-0.115234,-0.296875,-0.578125,0.539246,-0.293579,0.478271,0.62793,up
577063,-8.46875,2.21875,3.914063,0.072266,-0.337891,-0.630859,0.541138,-0.294922,0.47583,0.627502,up
577068,-8.433594,2.371094,3.835938,0.072266,-0.337891,-0.630859,0.54248,-0.295166,0.474915,0.626953,up
577073,-8.472656,2.5625,3.796875,0.333984,-0.380859,-0.728516,0.544128,-0.295166,0.474121,0.626099,up
577078,-8.46875,2.753906,3.683594,0.333984,-0.380859,-0.728516,0.545898,-0.294983,0.473511,0.625061,up
577084,-8.46875,2.984375,3.566406,0.333984,-0.380859,-0.728516,0.549561,-0.294556,0.472595,0.622803,up
577089,-8.46875,3.058594,3.566406,0.3125,-0.40625,-0.767578,0.551636,-0.294373,0.471924,0.621521,up
577094,-8.46875,3.097656,3.53125,0.177734,-0.392578,-0.759766,0.553528,-0.294312,0.471191,0.620483,up
577100,-8.589844,3.175781,3.644531,0.177734,-0.392578,-0.759766,0.555054,-0.294373,0.470337,0.61969,up
577105,-8.703125,3.019531,3.796875,0.177734,-0.392578,-0.759766,0.55658,-0.294739,0.469116,0.61908,up
577110,-8.703125,2.945313,3.835938,-0.412109,-0.357422,-0.671875,0.55658,-0.294739,0.469116,0.61908,up
577116,-8.703125,2.714844,3.875,-0.599609,-0.332031,-0.632812,0.55658,-0.294739,0.469116,0.61908,up
577122,-8.703125,2.445313,3.835938,-0.599609,-0.332031,-0.632812,0.559753,-0.297424,0.463989,0.618835,up
577128,-8.742188,2.292969,3.835938,-0.746094,-0.310547,-0.480469,0.559753,-0.297424,0.463989,0.618835,up
577133,-8.816406,2.179688,3.988281,-0.746094,-0.310547,-0.480469,0.561035,-0.299805,0.459961,0.619507,up
577138,-8.78125,2.101563,3.988281,-0.746094,-0.310547,-0.480469,0.561584,-0.300964,0.457886,0.619995,up
577143,-8.785156,2.0625,3.949219,-0.746094,-0.310547,-0.480469,0.562012,-0.301819,0.456299,0.620361,up
577149,-8.742188,2.0625,3.988281,-0.507812,-0.308594,-0.363281,0.563171,-0.303101,0.453247,0.620972,up
577154,-8.816406,2.179688,4.027344,-0.507812,-0.308594,-0.363281,0.563843,-0.303345,0.452148,0.620972,up
577159,-8.816406,2.179688,3.988281,-0.507812,-0.308594,-0.363281,0.564636,-0.303345,0.451416,0.620789,up
577164,-8.8125,2.292969,3.914063,0.183594,-0.308594,-0.347656,0.565674,-0.30304,0.450867,0.620422,up
577169,-8.78125,2.445313,3.914063,0.271484,-0.306641,-0.351563,0.566711,-0.302612,0.4505,0.619873,up
577174,-8.78125,2.523438,3.949219,0.271484,-0.306641,-0.351563,0.567749,-0.302185,0.450256,0.619324,up
577179,-8.746094,2.675781,3.875,0.298828,-0.28125,-0.353516,0.56897,-0.301697,0.450012,0.618652,up
577185,-8.707031,2.714844,3.796875,0.298828,-0.28125,-0.353516,0.569946,-0.30127,0.449829,0.618103,up
577190,-8.707031,2.753906,3.796875,0.140625,-0.248047,-0.333984,0.569946,-0.30127,0.449829,0.618103,up
577196,-8.664063,2.636719,3.875,0.140625,-0.248047,-0.333984,0.571716,-0.300903,0.448975,0.617249,up
577201,-8.585938,2.5625,3.875,-0.142578,-0.181641,-0.28125,0.572327,-0.300964,0.448364,0.617065,up
577207,-8.585938,2.410156,3.875,-0.291016,-0.125,-0.25,0.572327,-0.300964,0.448364,0.617065,up
577212,-8.589844,2.179688,3.835938,-0.291016,-0.125,-0.25,0.572327,-0.300964,0.448364,0.617065,up
577218,-8.589844,2.140625,3.835938,-0.451172,-0.035156,-0.199219,0.572327,-0.300964,0.448364,0.617065,up
577224,-8.625,2.0625,3.875,-0.462891,0.011719,-0.173828,0.572876,-0.304443,0.444153,0.61792,up
577230,-8.746094,1.910156,3.949219,-0.462891,0.011719,-0.173828,0.572754,-0.305298,0.443542,0.618103,up
577235,-8.742188,1.871094,3.988281,-0.28125,0.107422,-0.150391,0.572632,-0.306091,0.443054,0.618164,up
577240,-8.742188,1.871094,3.988281,-0.142578,0.123047,-0.150391,0.572571,-0.306702,0.442749,0.618103,up
577246,-8.894531,1.949219,4.105469,-0.142578,0.123047,-0.150391,0.572632,-0.30719,0.442688,0.617859,up
577252,-8.894531,2.023438,4.105469,0.105469,0.130859,-0.167969,0.572632,-0.30719,0.442688,0.617859,up
577257,-8.929688,2.023438,4.21875,0.185547,0.115234,-0.1875,0.572632,-0.30719,0.442688,0.617859,up
577262,-8.933594,2.0625,4.21875,0.230469,0.105469,-0.203125,0.572632,-0.30719,0.442688,0.617859,up
577267,-8.929688,2.140625,4.144531,0.230469,0.105469,-0.203125,0.572632,-0.30719,0.442688,0.617859,up
577272,-8.929688,2.179688,4.144531,0.21875,0.095703,-0.226562,0.572632,-0.30719,0.442688,0.617859,up
577277,-8.855469,2.179688,4.144531,0.173828,0.056641,-0.226562,0.572632,-0.30719,0.442688,0.617859,up
577283,-8.894531,2.253906,4.257812,0.076172,0.011719,-0.226562,0.575317,-0.308228,0.444275,0.613708,up
577288,-8.933594,2.253906,4.21875,0.076172,0.011719,-0.226562,0.575317,-0.308228,0.444275,0.613708,up
577293,-8.855469,2.179688,4.257812,-0.269531,-0.0625,-0.185547,0.575317,-0.308228,0.444275,0.613708,up
577298,-8.894531,2.101563,4.21875,-0.269531,-0.0625,-0.185547,0.575806,-0.309021,0.443359,0.613525,up
577303,-8.816406,1.949219,4.21875,-0.367188,-0.103516,-0.173828,0.575989,-0.31012,0.441711,0.613953,up
577308,-8.816406,1.949219,4.21875,-0.367188,-0.103516,-0.173828,0.575989,-0.31012,0.441711,0.613953,up
577314,-8.746094,1.832031,4.179687,-0.460937,-0.154297,-0.146484,0.576111,-0.311279,0.439636,0.614746,up
577319,-8.707031,1.640625,4.144531,-0.460937,-0.154297,-0.146484,0.576111,-0.311279,0.439636,0.614746,up
577324,-8.664063,1.527344,4.144531,-0.392578,-0.238281,-0.152344,0.576111,-0.311279,0.439636,0.614746,up
577329,-8.625,1.296875,4.105469,-0.392578,-0.238281,-0.152344,0.576599,-0.312561,0.43634,0.616028,up
577334,-8.628906,1.183594,4.105469,-0.392578,-0.238281,-0.152344,0.576599,-0.312561,0.43634,0.616028,up
577339,-8.585938,1.03125,4.144531,-0.392578,-0.238281,-0.152344,0.577393,-0.312988,0.434387,0.616394,up
577344,-8.550781,0.992187,4.21875,-0.166016,-0.273438,-0.332031,0.577393,-0.312988,0.434387,0.616394,up
577349,-8.546875,1.105469,4.21875,-0.166016,-0.273438,-0.332031,0.578796,-0.313354,0.432556,0.616211,up
577354,-8.511719,1.222656,4.144531,-0.166016,-0.273438,-0.332031,0.57959,-0.313477,0.431763,0.615967,up
577359,-8.511719,1.335938,4.066406,-0.166016,-0.273438,-0.332031,0.580627,-0.313721,0.430786,0.61554,up
577364,-8.507813,1.335938,4.144531,-0.09375,-0.302734,-0.539062,0.580627,-0.313721,0.430786,0.61554,up
577369,-8.546875,1.605469,4.21875,-0.09375,-0.302734,-0.539062,0.581726,-0.313904,0.42981,0.615112,up
577375,-8.546875,1.640625,4.21875,-0.09375,-0.302734,-0.539062,0.583862,-0.314514,0.427612,0.614258,up
577380,-8.546875,1.640625,4.21875,-0.287109,-0.34375,-0.625,0.5849,-0.315002,0.42627,0.613892,up
577386,-8.507813,1.640625,4.296875,-0.287109,-0.34375,-0.625,0.586182,-0.315735,0.424561,0.613586,up
577391,-8.429688,1.488281,4.296875,-0.287109,-0.34375,-0.625,0.587097,-0.316345,0.423035,0.613403,up
577396,-8.359375,1.414063,4.335937,-0.560547,-0.375,-0.648437,0.587097,-0.316345,0.423035,0.613403,up
577401,-8.359375,1.414063,4.335937,-0.636719,-0.365234,-0.642578,0.58905,-0.318237,0.419189,0.61322,up
577407,-8.359375,1.296875,4.296875,-0.6875,-0.347656,-0.617187,0.589844,-0.319275,0.417175,0.613281,up
577412,-8.359375,1.296875,4.296875,-0.6875,-0.347656,-0.617187,0.589844,-0.319275,0.417175,0.613281,up
577417,-8.324219,0.953125,4.257812,-0.705078,-0.328125,-0.580078,0.589844,-0.319275,0.417175,0.613281,up
577422,-8.324219,0.953125,4.257812,-0.642578,-0.304688,-0.541016,0.591797,-0.322632,0.411194,0.613708,up
577428,-8.546875,0.683594,4.296875,-0.523437,-0.318359,-0.578125,0.591797,-0.322632,0.411194,0.613708,up
577433,-8.550781,0.683594,4.257812,-0.523437,-0.318359,-0.578125,0.593201,-0.324524,0.407532,0.61377,up
577439,-8.707031,0.609375,4.179687,-0.347656,-0.363281,-0.734375,0.593201,-0.324524,0.407532,0.61377,up
577444,-8.933594,0.570312,4.179687,-0.347656,-0.363281,-0.734375,0.595154,-0.326111,0.404175,0.613281,up
577449,-8.933594,0.570312,4.179687,-0.347656,-0.363281,-0.734375,0.598328,-0.327271,0.400574,0.611938,up
577454,-8.785156,0.722656,4.371094,-0.347656,-0.363281,-0.734375,0.598328,-0.327271,0.400574,0.611938,up
577459,-8.667969,1.066406,4.410156,-0.136719,-0.634766,-1.246094,0.603088,-0.328247,0.396301,0.609558,up
577465,-8.550781,1.335938,4.488281,-0.164062,-0.652344,-1.605469,0.606018,-0.328979,0.393738,0.607849,up
577470,-8.46875,1.296875,4.179687,-0.164062,-0.652344,-1.605469,0.608948,-0.330017,0.391052,0.60614,up
577475,-8.203125,1.144531,3.988281,-0.164062,-0.652344,-1.605469,0.612122,-0.331482,0.387878,0.604126,up
577481,-8.128906,0.953125,4.066406,-0.576172,-0.597656,-1.931641,0.61499,-0.33313,0.384766,0.602295,up
577486,-7.941406,0.761719,4.371094,-0.576172,-0.597656,-1.931641,0.617981,-0.335022,0.381287,0.600403,up
577491,-7.859375,0.683594,4.640625,-0.863281,-0.560547,-1.974609,0.617981,-0.335022,0.381287,0.600403,up
577496,-8.050781,0.417969,4.640625,-0.925781,-0.464844,-1.990234,0.617981,-0.335022,0.381287,0.600403,up
577501,-8.285156,0.1875,4.71875,-0.998047,-0.40625,-2.005859,0.617981,-0.335022,0.381287,0.600403,up
577506,-8.550781,-0.15625,5.023437,-0.998047,-0.40625,-2.005859,0.617981,-0.335022,0.381287,0.600403,up
577512,-8.785156,-0.234375,5.253906,-1.050781,-0.482422,-2.099609,0.617981,-0.335022,0.381287,0.600403,up
577517,-9.085938,0.148437,5.597656,-0.931641,-0.542969,-2.1875,0.617981,-0.335022,0.381287,0.600403,up
577522,-9.085938,0.148437,5.597656,-0.859375,-0.634766,-2.316406,0.637024,-0.353455,0.353394,0.586792,up
577527,-9.128906,0.683594,5.867187,-0.708984,-0.716797,-2.435547,0.640381,-0.355774,0.349121,0.58429,up
577532,-9.128906,0.683594,5.867187,-0.708984,-0.716797,-2.435547,0.640381,-0.355774,0.349121,0.58429,up
577537,-9.089844,1.871094,5.558594,-0.601562,-0.724609,-2.564453,0.640381,-0.355774,0.349121,0.58429,up
577543,-9.089844,1.871094,5.558594,-0.720703,-0.828125,-2.650391,0.651794,-0.362305,0.335693,0.5755,up
577549,-8.511719,1.832031,5.175781,-0.828125,-0.935547,-2.625,0.659302,-0.366821,0.325317,0.570068,up
577554,-8.046875,0.609375,5.523437,-0.828125,-0.935547,-2.625,0.659302,-0.366821,0.325317,0.570068,up
577559,-7.785156,0.070312,5.558594,-0.828125,-0.935547,-2.625,0.665405,-0.372192,0.313538,0.56604,up
577564,-7.703125,-0.503906,5.789062,-1.919922,-1.007813,-2.212891,0.665405,-0.372192,0.313538,0.56604,up
577569,-7.363281,-1.539063,5.789062,-1.919922,-1.007813,-2.212891,0.667725,-0.375427,0.307251,0.564636,up
577574,-7.363281,-1.539063,5.789062,-1.919922,-1.007813,-2.212891,0.671021,-0.383118,0.294128,0.5625,up
577579,-7.515625,-1.804688,5.828125,-1.919922,-1.007813,-2.212891,0.671021,-0.383118,0.294128,0.5625,up
577584,-7.703125,-1.5,6.097656,-2.242188,-0.675781,-1.775391,0.671021,-0.383118,0.294128,0.5625,up
577589,-7.863281,-1.0,6.210937,-2.242188,-0.675781,-1.775391,0.672913,-0.391541,0.281433,0.560974,up
577594,-8.203125,-0.578125,6.402344,-2.242188,-0.675781,-1.775391,0.673645,-0.395569,0.275635,0.56012,up
577599,-8.511719,-0.386719,6.519531,-1.800781,-0.310547,-1.519531,0.673645,-0.395569,0.275635,0.56012,up
577604,-8.511719,-0.386719,6.519531,-1.402344,-0.115234,-1.40625,0.674805,-0.40271,0.266663,0.558044,up
577609,-9.433594,-0.425781,6.863281,-0.933594,0.041016,-1.324219,0.675537,-0.405457,0.263611,0.55658,up
577614,-9.433594,-0.425781,6.863281,-0.476562,0.128906,-1.232422,0.676575,-0.407654,0.261414,0.554749,up
577620,-9.699219,-0.3125,6.902344,-0.476562,0.128906,-1.232422,0.677795,-0.409119,0.26001,0.552795,up
577625,-9.699219,-0.3125,6.902344,0.117188,0.158203,-1.083984,0.680786,-0.410645,0.258545,0.548706,up
577630,-9.773438,-0.234375,7.054687,0.117188,0.158203,-1.083984,0.682312,-0.411255,0.258057,0.54657,up
577636,-9.777344,-0.273438,7.246094,0.035156,0.212891,-0.744141,0.68335,-0.411865,0.257629,0.544983,up
577641,-9.816406,-0.3125,7.285156,-0.238281,0.337891,-0.582031,0.684021,-0.412842,0.257263,0.543579,up
577647,-10.0,-0.578125,7.359375,-0.238281,0.337891,-0.582031,0.684021,-0.414062,0.256958,0.542786,up
577653,-10.160156,-0.65625,7.207031,-0.757812,0.568359,-0.195312,0.684021,-0.414062,0.256958,0.542786,up
577658,-10.503906,-0.65625,6.976562,-0.916016,0.765625,-0.017578,0.684021,-0.414062,0.256958,0.542786,up
577664,-11.003906,-0.734375,6.863281,-1.039063,0.927734,0.183594,0.684021,-0.414062,0.256958,0.542786,up
577669,-11.386719,-0.769531,6.902344,-1.035156,1.083984,0.378906,0.684021,-0.414062,0.256958,0.542786,up
577674,-11.769531,-0.847656,6.976562,-0.923828,1.248047,0.591797,0.673157,-0.429932,0.260498,0.542297,up
577679,-12.1875,-0.808594,7.054687,-0.453125,1.560547,0.978516,0.673157,-0.429932,0.260498,0.542297,up
577685,-12.914063,-0.769531,6.9375,-0.123047,1.761719,1.154297,0.670532,-0.43219,0.263062,0.542603,up
577690,-13.300781,-0.65625,6.785156,-0.123047,1.761719,1.154297,0.664551,-0.435974,0.271423,0.542786,up
577695,-13.644531,-0.464844,6.671875,-0.123047,1.761719,1.154297,0.661499,-0.437134,0.277039,0.542664,up
577700,-14.144531,-0.234375,6.746094,0.904297,2.222656,1.791016,0.658875,-0.437683,0.282715,0.542603,up
577705,-15.636719,0.1875,6.9375,0.904297,2.222656,1.791016,0.655396,-0.437622,0.290894,0.542542,up
577710,-16.292969,0.417969,7.167969,1.396484,2.347656,2.335938,0.655396,-0.437622,0.290894,0.542542,up
577715,-17.507812,0.609375,7.898437,1.396484,2.347656,2.335938,0.652161,-0.437012,0.298767,0.542603,up
577720,-18.246094,0.492187,8.125,1.478516,2.595703,3.044922,0.64856,-0.436035,0.307251,0.542969,up
577726,-19.277344,0.226562,7.667969,1.478516,2.595703,3.044922,0.639771,-0.433594,0.3255,0.544739,up
577732,-19.777344,0.226562,7.285156,1.576172,2.988281,3.912109,0.639771,-0.433594,0.3255,0.544739,up
577737,-20.5,1.144531,6.902344,1.576172,2.988281,3.912109,0.62738,-0.429993,0.347961,0.548157,up
577742,-20.5,1.144531,6.902344,1.974609,3.390625,5.121094,0.62738,-0.429993,0.347961,0.548157,up
577748,-20.5,1.144531,6.902344,1.974609,3.390625,5.121094,0.611084,-0.423889,0.375244,0.553284,up
577754,-21.808594,2.828125,6.097656,2.519531,4.138672,6.699219,0.601196,-0.4198,0.39093,0.556335,up
577759,-21.808594,2.828125,6.097656,2.869141,4.544922,7.621094,0.589844,-0.414673,0.408447,0.559753,up
577764,-23.988281,5.394531,3.875,3.222656,4.90625,8.595703,0.589844,-0.414673,0.408447,0.559753,up
577769,-26.597656,8.730469,1.230469,3.222656,4.90625,8.595703,0.561401,-0.400757,0.449463,0.567688,up
577774,-27.742187,10.148438,0.160156,3.222656,4.90625,8.595703,0.542908,-0.391235,0.473999,0.572266,up
577779,-28.96875,11.753906,-0.953125,3.222656,4.90625,8.595703,0.522827,-0.380737,0.499084,0.576721,up
577784,-28.96875,11.753906,-0.953125,4.228516,6.626953,12.783203,0.501404,-0.369385,0.524048,0.580933,up
577789,-28.96875,11.753906,-0.953125,4.269531,6.890625,13.744141,0.477966,-0.356873,0.549316,0.585144,up
577794,-31.765625,14.09375,-4.589844,4.269531,6.890625,13.744141,0.477966,-0.356873,0.549316,0.585144,up
577799,-31.765625,14.09375,-4.589844,4.091797,7.095703,14.619141,0.422119,-0.326782,0.601562,0.594238,up
577804,-31.765625,14.09375,-4.589844,2.955078,7.152344,17.048828,0.389404,-0.309082,0.62738,0.599365,up
577810,-32.070312,12.675781,-8.804688,2.955078,7.152344,17.048828,0.318542,-0.270203,0.673828,0.609497,up
577815,-29.886719,10.644531,-9.113281,2.955078,7.152344,17.048828,0.318542,-0.270203,0.673828,0.609497,up
577820,-27.167969,9.878906,-9.417969,2.011719,6.771484,17.373047,0.318542,-0.270203,0.673828,0.609497,up
577825,-23.644531,9.609375,-8.765625,2.011719,6.771484,17.373047,0.243774,-0.228943,0.711914,0.617554,up
577830,-22.296875,9.570313,-8.230469,2.083984,6.476562,17.193359,0.203613,-0.205505,0.729187,0.620178,up
577835,-21.230469,9.570313,-8.0,2.083984,6.476562,17.193359,0.12616,-0.158691,0.757385,0.620667,up
577840,-20.121094,9.457031,-7.695312,2.392578,6.195312,16.894531,0.12616,-0.158691,0.757385,0.620667,up
577845,-18.894531,9.265625,-6.699219,2.392578,6.195312,16.894531,0.055237,-0.114136,0.778259,0.615051,up
577850,-18.125,8.117188,-5.742187,2.855469,6.185547,16.242187,0.055237,-0.114136,0.778259,0.615051,up
577855,-17.28125,6.582031,-4.78125,2.855469,6.185547,16.242187,0.015869,-0.089417,0.787964,0.609009,up
577860,-16.058594,5.011719,-4.054687,2.818359,6.310547,15.648438,0.052917,0.047852,-0.800903,-0.594543,up
577866,-12.414063,3.019531,-3.175781,2.818359,6.310547,15.648438,0.086426,0.028625,-0.805542,-0.58551,up
577871,-12.414063,3.019531,-3.175781,3.271484,6.070312,13.451172,0.123047,0.008057,-0.809631,-0.573792,up
577877,-12.878906,4.207031,-2.5625,3.271484,6.070312,13.451172,0.154724,-0.009155,-0.812317,-0.562256,up
577883,-11.542969,4.59375,-2.023438,3.203125,6.134766,11.863281,0.154724,-0.009155,-0.812317,-0.562256,up
577888,-11.0,4.4375,-1.832031,2.935547,6.123047,11.078125,0.154724,-0.009155,-0.812317,-0.562256,up
577893,-11.304688,3.824219,-0.835937,2.599609,6.162109,10.410156,0.154724,-0.009155,-0.812317,-0.562256,up
577899,-11.503906,3.097656,0.121094,2.599609,6.162109,10.410156,0.261292,-0.058777,-0.811462,-0.519409,up
577905,-11.34375,1.105469,1.730469,2.599609,6.162109,10.410156,0.308472,-0.077576,-0.805542,-0.499878,up
577910,-10.699219,0.300781,2.417969,2.599609,6.162109,10.410156,0.308472,-0.077576,-0.805542,-0.499878,up
577915,-10.351563,-1.152344,3.722656,1.888672,5.074219,7.458984,0.308472,-0.077576,-0.805542,-0.499878,up
577920,-10.273438,-2.800781,4.449219,1.888672,5.074219,7.458984,0.365173,-0.098999,-0.795227,-0.473816,up
577925,-10.273438,-3.070313,5.332031,1.888672,5.074219,7.458984,0.365173,-0.098999,-0.795227,-0.473816,up
577930,-9.699219,-2.6875,5.714844,0.787109,3.583984,5.482422,0.39209,-0.110535,-0.787598,-0.46228,up
577936,-7.9375,-3.605469,6.746094,0.787109,3.583984,5.482422,0.403687,-0.116089,-0.783081,-0.458618,up
577941,-7.59375,-3.949219,8.433594,0.787109,3.583984,5.482422,0.414734,-0.121826,-0.777771,-0.456299,up
577947,-7.746094,-3.796875,9.085938,-1.169922,3.09375,3.859375,0.424744,-0.127075,-0.772278,-0.455017,up
577952,-7.59375,-4.140625,9.394531,-1.246094,3.181641,3.560547,0.434448,-0.131897,-0.766418,-0.454346,up
577957,-7.132812,-4.910156,10.0,-1.246094,3.181641,3.560547,0.444092,-0.136292,-0.760315,-0.453979,up
577980,-4.679687,-5.519531,11.914063,-0.46875,1.759766,1.892578,0.444092,-0.136292,-0.760315,-0.453979,up
577985,-4.222656,-5.328125,11.492188,-0.388672,1.408203,1.564453,0.481018,-0.1521,-0.736267,-0.450989,up
577990,-2.84375,-4.410156,10.617188,-0.388672,1.408203,1.564453,0.483398,-0.153687,-0.734558,-0.450745,up
577995,-2.113281,-4.140625,10.121094,-0.519531,0.121094,0.605469,0.483398,-0.153687,-0.734558,-0.450745,up
578000,-1.5,-3.949219,9.582031,-0.519531,0.121094,0.605469,0.484802,-0.156921,-0.732605,-0.451233,up
578005,-0.160156,-3.683594,8.507813,-0.519531,0.121094,0.605469,0.484802,-0.156921,-0.732605,-0.451233,up
578011,0.527344,-3.605469,7.933594,-0.519531,0.121094,0.605469,0.481689,-0.161011,-0.731934,-0.454285,up
578016,1.296875,-3.453125,7.125,-1.466797,-1.261719,-0.488281,0.478516,-0.16333,-0.731873,-0.456787,up
578022,2.980469,-2.496094,5.410156,-1.466797,-1.261719,-0.488281,0.474915,-0.165466,-0.732056,-0.459534,up
578027,4.507812,-1.460938,3.988281,-1.466797,-1.261719,-0.488281,0.474915,-0.165466,-0.732056,-0.459534,up
578032,5.246094,-0.808594,3.339844,-2.138672,-1.888672,-1.132813,0.474915,-0.165466,-0.732056,-0.459534,up
578038,5.667969,-0.121094,2.609375,-2.310547,-1.966797,-1.310547,0.474915,-0.165466,-0.732056,-0.459534,up
578043,6.660156,0.570312,1.230469,-2.384766,-2.011719,-1.492188,0.474915,-0.165466,-0.732056,-0.459534,up
578049,7.117187,0.722656,0.808594,-2.394531,-2.039063,-1.642578,0.474915,-0.165466,-0.732056,-0.459534,up
578054,7.464844,0.992187,0.425781,-2.392578,-2.052734,-1.753906,0.474915,-0.165466,-0.732056,-0.459534,up
578060,8.304688,2.023438,-0.378906,-2.326172,-2.029297,-1.832031,0.474915,-0.165466,-0.732056,-0.459534,up
578066,8.648438,2.636719,-0.953125,-2.222656,-1.986328,-1.871094,0.416992,-0.184387,-0.733887,-0.503479,up
578071,8.957031,3.367188,-1.335938,-1.947266,-1.871094,-1.837891,0.410034,-0.185486,-0.734192,-0.508301,up
578077,9.296875,4.363281,-2.292969,-1.947266,-1.871094,-1.837891,0.403259,-0.18634,-0.73468,-0.512695,up
578082,9.417969,5.242187,-3.019531,-1.947266,-1.871094,-1.837891,0.397705,-0.18689,-0.735291,-0.515991,up
578087,9.574219,5.589844,-3.25,-1.15625,-1.708984,-1.582031,0.397705,-0.18689,-0.735291,-0.515991,up
578092,9.757813,5.894531,-3.441406,-0.947266,-1.677734,-1.453125,0.397705,-0.18689,-0.735291,-0.515991,up
578097,9.839844,6.164062,-3.75,-0.746094,-1.59375,-1.332031,0.397705,-0.18689,-0.735291,-0.515991,up
578102,9.875,6.621094,-4.054687,-0.746094,-1.59375,-1.332031,0.375793,-0.188354,-0.739624,-0.525574,up
578107,10.179688,7.195312,-4.589844,-0.746094,-1.59375,-1.332031,0.375793,-0.188354,-0.739624,-0.525574,up
578112,10.261719,7.542969,-4.820312,-0.25,-1.203125,-1.0,0.375793,-0.188354,-0.739624,-0.525574,up
578117,10.378906,7.964844,-4.9375,-0.25,-1.203125,-1.0,0.363953,-0.188416,-0.743469,-0.528503,up
578123,10.488281,8.15625,-4.78125,-0.25,-1.203125,-1.0,0.360901,-0.188232,-0.744507,-0.529175,up
578128,10.488281,8.15625,-4.78125,-0.160156,-0.763672,-0.740234,0.358154,-0.188049,-0.745422,-0.529846,up
578134,10.066406,8.0,-4.476562,-0.15625,-0.650391,-0.664062,0.358154,-0.188049,-0.745422,-0.529846,up
578139,9.917969,7.886719,-4.363281,-0.162109,-0.548828,-0.609375,0.358154,-0.188049,-0.745422,-0.529846,up
578145,9.722656,7.695312,-4.132812,-0.140625,-0.476562,-0.552734,0.358154,-0.188049,-0.745422,-0.529846,up
578150,9.339844,7.503906,-3.785156,-0.125,-0.384766,-0.492187,0.358154,-0.188049,-0.745422,-0.529846,up
578155,9.339844,7.503906,-3.785156,-0.09375,-0.228516,-0.390625,0.348816,-0.186523,-0.748291,-0.532471,up
578160,8.84375,7.351562,-3.25,-0.09375,-0.228516,-0.390625,0.347656,-0.186157,-0.748657,-0.532898,up
578166,8.574219,7.195312,-2.945313,-0.085937,-0.148437,-0.351563,0.345947,-0.185303,-0.749146,-0.533691,up
578171,8.148438,7.082031,-2.445313,-0.085937,-0.148437,-0.351563,0.345337,-0.184814,-0.749329,-0.533936,up
578176,7.960937,7.003906,-2.214844,-0.085937,-0.148437,-0.351563,0.344788,-0.184204,-0.749695,-0.534058,up
578181,7.769531,6.8125,-2.0625,0.246094,-0.041016,-0.285156,0.344788,-0.184204,-0.749695,-0.534058,up
578187,7.425781,6.851562,-1.792969,0.246094,-0.041016,-0.285156,0.343994,-0.1828,-0.750732,-0.533569,up
578192,7.160156,6.777344,-1.449219,0.246094,-0.041016,-0.285156,0.343567,-0.182129,-0.751404,-0.533081,up
578197,7.039062,6.777344,-1.375,0.353516,-0.166016,-0.222656,0.343567,-0.182129,-0.751404,-0.533081,up
578202,6.964844,6.699219,-1.375,0.273438,-0.199219,-0.208984,0.343567,-0.182129,-0.751404,-0.533081,up
578207,6.855469,6.621094,-1.375,0.273438,-0.199219,-0.208984,0.34198,-0.180786,-0.753479,-0.531677,up
578212,6.738281,6.582031,-1.640625,0.273438,-0.199219,-0.208984,0.34198,-0.180786,-0.753479,-0.531677,up
578217,6.734375,6.621094,-1.832031,-0.011719,-0.248047,-0.146484,0.34198,-0.180786,-0.753479,-0.531677,up
578222,6.695312,6.660156,-1.949219,-0.101563,-0.251953,-0.134766,0.34198,-0.180786,-0.753479,-0.531677,up
578227,6.660156,6.699219,-1.910156,-0.101563,-0.251953,-0.134766,0.34198,-0.180786,-0.753479,-0.531677,up
578233,6.582031,6.65625,-1.988281,-0.101563,-0.251953,-0.134766,0.338257,-0.181091,-0.7547,-0.532166,up
578239,6.621094,6.695312,-2.023438,-0.232422,-0.21875,-0.121094,0.338257,-0.181091,-0.7547,-0.532166,up
578244,6.582031,6.699219,-2.101563,-0.238281,-0.1875,-0.134766,0.338257,-0.181091,-0.7547,-0.532166,up
578249,6.542969,6.65625,-2.101563,-0.216797,-0.164062,-0.146484,0.338257,-0.181091,-0.7547,-0.532166,up
578254,6.503906,6.578125,-2.0625,-0.185547,-0.144531,-0.164062,0.338257,-0.181091,-0.7547,-0.532166,up
578259,6.464844,6.550781,-2.023438,-0.119141,-0.136719,-0.164062,0.338257,-0.181091,-0.7547,-0.532166,up
578264,6.464844,6.582031,-1.949219,-0.119141,-0.136719,-0.164062,0.338257,-0.181091,-0.7547,-0.532166,up
578270,6.503906,6.507812,-1.949219,-0.119141,-0.136719,-0.164062,0.333801,-0.181458,-0.754822,-0.534668,up
578276,6.503906,6.546875,-1.871094,0.042969,-0.142578,-0.175781,0.332764,-0.18103,-0.755371,-0.534668,up
578281,6.464844,6.546875,-1.910156,0.082031,-0.166016,-0.179687,0.332764,-0.18103,-0.755371,-0.534668,up
578287,6.5,6.46875,-1.871094,0.082031,-0.166016,-0.179687,0.331604,-0.180664,-0.756104,-0.534546,up
578292,6.578125,6.507812,-1.832031,0.021484,-0.224609,-0.162109,0.331604,-0.180664,-0.756104,-0.534546,up
578297,6.539062,6.46875,-1.832031,0.021484,-0.224609,-0.162109,0.330261,-0.180542,-0.756714,-0.534485,up
578303,6.578125,6.46875,-2.101563,0.021484,-0.224609,-0.162109,0.329651,-0.180542,-0.757019,-0.534485,up
578308,6.660156,6.46875,-2.023438,-0.046875,-0.242187,-0.119141,0.329651,-0.180542,-0.757019,-0.534485,up
578314,6.695312,6.46875,-2.023438,-0.060547,-0.242187,-0.097656,0.329651,-0.180542,-0.757019,-0.534485,up
578319,6.734375,6.429687,-2.140625,-0.060547,-0.242187,-0.097656,0.327637,-0.180908,-0.757629,-0.534729,up
578324,6.738281,6.316406,-2.101563,-0.025391,-0.21875,-0.056641,0.327637,-0.180908,-0.757629,-0.534729,up
578329,6.734375,6.277344,-2.0625,-0.005859,-0.208984,-0.046875,0.327637,-0.180908,-0.757629,-0.534729,up
578335,6.734375,6.390625,-2.140625,0.035156,-0.205078,-0.035156,0.327637,-0.180908,-0.757629,-0.534729,up
578340,6.699219,6.429687,-2.179688,0.09375,-0.183594,-0.037109,0.327637,-0.180908,-0.757629,-0.534729,up
578346,6.660156,6.355469,-2.214844,0.158203,-0.177734,-0.048828,0.323303,-0.180786,-0.760193,-0.533752,up
578351,6.738281,6.390625,-1.988281,0.230469,-0.207031,-0.070312,0.323303,-0.180786,-0.760193,-0.533752,up
578356,6.695312,6.429687,-2.0625,0.230469,-0.207031,-0.070312,0.322571,-0.180542,-0.760925,-0.533264,up
578361,6.65625,6.429687,-2.023438,0.230469,-0.207031,-0.070312,0.321777,-0.180237,-0.761658,-0.532776,up
578366,6.660156,6.390625,-2.101563,0.244141,-0.193359,-0.130859,0.320313,-0.179565,-0.763062,-0.53186,up
578371,6.621094,6.390625,-2.0625,0.244141,-0.193359,-0.130859,0.31958,-0.179199,-0.763672,-0.531555,up
578376,6.617187,6.507812,-2.0625,0.244141,-0.193359,-0.130859,0.31958,-0.179199,-0.763672,-0.531555,up
578381,6.617187,6.582031,-2.101563,0.175781,-0.224609,-0.226562,0.31958,-0.179199,-0.763672,-0.531555,up
578386,6.695312,6.734375,-2.292969,0.123047,-0.224609,-0.251953,0.31958,-0.179199,-0.763672,-0.531555,up
578391,6.695312,6.699219,-2.332031,0.123047,-0.224609,-0.251953,0.316956,-0.17804,-0.765442,-0.531006,up
578396,6.773437,6.621094,-2.292969,-0.101563,-0.261719,-0.277344,0.315918,-0.177734,-0.765869,-0.531067,up
578401,6.816406,6.507812,-2.214844,-0.101563,-0.261719,-0.277344,0.314819,-0.17749,-0.766174,-0.531311,up
578407,6.816406,6.507812,-2.214844,-0.167969,-0.226562,-0.28125,0.312805,-0.177124,-0.766663,-0.532043,up
578413,6.855469,6.507812,-2.445313,-0.167969,-0.226562,-0.28125,0.311707,-0.176941,-0.766785,-0.532532,up
578418,6.855469,6.546875,-2.40625,-0.177734,-0.212891,-0.294922,0.310791,-0.176758,-0.766907,-0.532959,up
578423,6.855469,6.621094,-2.445313,-0.167969,-0.21875,-0.289063,0.309753,-0.176514,-0.767029,-0.533447,up
578429,6.8125,6.855469,-2.597656,-0.167969,-0.21875,-0.289063,0.308838,-0.176331,-0.767151,-0.533813,up
578435,6.773437,6.777344,-2.5625,-0.060547,-0.148437,-0.257813,0.308838,-0.176331,-0.767151,-0.533813,up
578441,6.777344,6.660156,-2.484375,-0.005859,-0.107422,-0.248047,0.308838,-0.176331,-0.767151,-0.533813,up
578446,6.8125,6.621094,-2.40625,0.060547,-0.09375,-0.238281,0.306213,-0.174805,-0.768188,-0.534363,up
578451,6.773437,6.621094,-2.371094,0.060547,-0.09375,-0.238281,0.306213,-0.174805,-0.768188,-0.534363,up
578456,6.699219,6.582031,-2.332031,0.183594,-0.046875,-0.242187,0.305359,-0.173706,-0.769043,-0.534058,up
578461,6.621094,6.65625,-2.253906,0.183594,-0.046875,-0.242187,0.305359,-0.173706,-0.769043,-0.534058,up
578467,6.582031,6.773437,-2.253906,0.257813,-0.025391,-0.271484,0.305359,-0.173706,-0.769043,-0.534058,up
578472,6.503906,6.773437,-2.214844,0.257813,-0.025391,-0.271484,0.304199,-0.171509,-0.770569,-0.533203,up
578477,6.390625,6.933594,-2.101563,0.257813,-0.025391,-0.271484,0.303772,-0.170837,-0.771057,-0.532898,up
578482,6.390625,6.851562,-2.101563,0.257813,-0.025391,-0.271484,0.303406,-0.170227,-0.771484,-0.532715,up
