timestamp,ax,ay,az,gx,gy,gz,qw,qx,qy,qz,label
131192,-8.867188,4.5625,1.957031,0.166016,0.130859,0.107422,0.481995,-0.267273,0.579712,0.600159,up
131197,-8.871094,4.5625,1.992188,0.152344,0.111328,0.107422,0.481995,-0.267273,0.579712,0.600159,up
131202,-8.867188,4.449219,2.03125,0.152344,0.111328,0.107422,0.481262,-0.266724,0.581177,0.599548,up
131208,-8.871094,4.488281,1.992188,0.148437,0.085937,0.089844,0.481262,-0.266724,0.581177,0.599548,up
131213,-8.832031,4.527344,1.992188,0.15625,0.070312,0.068359,0.480835,-0.266174,0.582336,0.59906,up
131218,-8.792969,4.640625,1.957031,0.15625,0.070312,0.068359,0.480774,-0.265991,0.582703,0.598816,up
131223,-8.757813,4.640625,1.957031,0.15625,0.070312,0.068359,0.480713,-0.265808,0.582947,0.598694,up
131228,-8.757813,4.679687,1.917969,0.15625,0.070312,0.068359,0.480713,-0.265808,0.582947,0.598694,up
131233,-8.722656,4.71875,1.878906,0.134766,0.009766,0.019531,0.480713,-0.265808,0.582947,0.598694,up
131238,-8.679688,4.71875,1.878906,0.134766,0.009766,0.019531,0.480774,-0.26532,0.583618,0.598206,up
131243,-8.679688,4.71875,1.878906,0.0625,-0.027344,0.005859,0.480774,-0.26532,0.583618,0.598206,up
131248,-8.679688,4.753906,1.839844,0.0625,-0.027344,0.005859,0.480835,-0.265137,0.58374,0.598083,up
131253,-8.679688,4.71875,1.878906,0.033203,-0.039063,0.0,0.480957,-0.264954,0.583801,0.598083,up
131258,-8.679688,4.71875,1.839844,-0.050781,-0.064453,0.007813,0.481018,-0.264893,0.583679,0.598145,up
131263,-8.644531,4.71875,1.800781,-0.089844,-0.080078,0.003906,0.481018,-0.264893,0.583679,0.598145,up
131268,-8.605469,4.71875,1.839844,-0.089844,-0.080078,0.003906,0.481018,-0.264832,0.583313,0.598511,up
131273,-8.640625,4.71875,1.839844,-0.089844,-0.080078,0.003906,0.480957,-0.264832,0.583069,0.598816,up
131278,-8.640625,4.601562,1.878906,-0.089844,-0.080078,0.003906,0.480957,-0.264832,0.583069,0.598816,up
131283,-8.644531,4.601562,1.800781,-0.189453,-0.082031,0.039063,0.480957,-0.264832,0.583069,0.598816,up
131288,-8.605469,4.527344,1.878906,-0.189453,-0.082031,0.039063,0.480652,-0.264832,0.582214,0.599915,up
131293,-8.605469,4.527344,1.839844,-0.189453,-0.082031,0.039063,0.48053,-0.264771,0.581909,0.600281,up
131298,-8.527344,4.449219,1.839844,-0.185547,-0.072266,0.076172,0.48053,-0.264771,0.581909,0.600281,up
131303,-8.484375,4.410156,1.839844,-0.167969,-0.066406,0.085937,0.480408,-0.264771,0.581604,0.600708,up
131308,-8.527344,4.21875,1.765625,-0.167969,-0.066406,0.085937,0.480042,-0.264709,0.581116,0.601501,up
131313,-8.523438,4.066406,1.765625,-0.167969,-0.066406,0.085937,0.480042,-0.264709,0.581116,0.601501,up
131318,-8.445313,3.988281,1.800781,-0.125,-0.078125,0.089844,0.479736,-0.264465,0.58075,0.602173,up
131323,-8.40625,3.914063,1.878906,-0.125,-0.078125,0.089844,0.479675,-0.264282,0.580627,0.602417,up
131328,-8.378906,3.914063,1.917969,-0.125,-0.078125,0.089844,0.479675,-0.26416,0.580627,0.602478,up
131333,-8.378906,3.988281,1.878906,-0.125,-0.078125,0.089844,0.479675,-0.26416,0.580627,0.602478,up
131338,-8.335938,4.105469,1.839844,0.052734,-0.058594,0.005859,0.479797,-0.263794,0.580688,0.602478,up
131343,-8.40625,4.21875,1.839844,0.052734,-0.058594,0.005859,0.47998,-0.26355,0.580872,0.602295,up
131348,-8.40625,4.296875,1.765625,0.052734,-0.058594,0.005859,0.480103,-0.263367,0.581055,0.602051,up
131353,-8.410156,4.371094,1.765625,0.052734,-0.058594,0.005859,0.480103,-0.263367,0.581055,0.602051,up
131358,-8.449219,4.449219,1.800781,0.191406,-0.041016,-0.035156,0.480469,-0.262878,0.581543,0.601501,up
131363,-8.488281,4.527344,1.800781,0.191406,-0.041016,-0.035156,0.480652,-0.262634,0.581787,0.601196,up
131368,-8.523438,4.5625,1.839844,0.191406,-0.041016,-0.035156,0.480835,-0.262512,0.582031,0.600952,up
131373,-8.5625,4.5625,1.800781,0.191406,-0.041016,-0.035156,0.480835,-0.262512,0.582031,0.600952,up
131378,-8.605469,4.601562,1.839844,0.091797,-0.021484,-0.056641,0.480835,-0.262512,0.582031,0.600952,up
131383,-8.566406,4.601562,1.878906,0.091797,-0.021484,-0.056641,0.481201,-0.262268,0.582275,0.600525,up
131388,-8.605469,4.5625,1.878906,0.091797,-0.021484,-0.056641,0.481262,-0.262329,0.582214,0.600464,up
131393,-8.605469,4.5625,1.839844,0.091797,-0.021484,-0.056641,0.481262,-0.262329,0.582214,0.600464,up
131398,-8.523438,4.601562,1.878906,-0.058594,-0.037109,-0.039063,0.481262,-0.262329,0.582214,0.600464,up
131403,-8.5625,4.640625,1.917969,-0.074219,-0.044922,-0.015625,0.481384,-0.262451,0.58197,0.600586,up
131408,-8.601563,4.640625,1.878906,-0.074219,-0.044922,-0.015625,0.481384,-0.262512,0.581726,0.60083,up
131413,-8.566406,4.5625,1.878906,-0.074219,-0.044922,-0.015625,0.481384,-0.262512,0.581726,0.60083,up
131419,-8.566406,4.527344,1.878906,-0.074219,-0.044922,-0.015625,0.481262,-0.262512,0.581543,0.601074,up
131424,-8.566406,4.527344,1.917969,-0.033203,-0.017578,0.017578,0.481262,-0.262512,0.581482,0.601135,up
131430,-8.644531,4.449219,1.839844,-0.033203,-0.017578,0.017578,0.481201,-0.262451,0.581482,0.601196,up
131436,-8.640625,4.335937,1.917969,-0.033203,-0.017578,0.017578,0.48114,-0.26239,0.581543,0.601257,up
131441,-8.644531,4.296875,1.957031,0.035156,-0.013672,0.011719,0.48114,-0.26239,0.581543,0.601257,up
131446,-8.601563,4.257812,1.992188,0.058594,-0.025391,-0.001953,0.48114,-0.26239,0.581543,0.601257,up
131451,-8.601563,4.335937,1.992188,0.087891,-0.023437,-0.023437,0.48114,-0.26239,0.581543,0.601257,up
131456,-8.566406,4.410156,1.957031,0.107422,-0.017578,-0.029297,0.48114,-0.26239,0.581543,0.601257,up
131461,-8.640625,4.527344,1.957031,0.107422,-0.009766,-0.041016,0.48114,-0.26239,0.581543,0.601257,up
131466,-8.605469,4.601562,1.957031,0.115234,0.0,-0.046875,0.48114,-0.26239,0.581543,0.601257,up
131471,-8.679688,4.679687,1.992188,0.115234,0.0,-0.046875,0.48114,-0.26239,0.581543,0.601257,up
131476,-8.683594,4.71875,1.992188,0.103516,0.017578,-0.050781,0.48114,-0.26239,0.581543,0.601257,up
131481,-8.683594,4.71875,1.992188,0.099609,0.013672,-0.042969,0.48114,-0.26239,0.581543,0.601257,up
131487,-8.757813,4.71875,2.03125,0.099609,0.013672,-0.042969,0.481934,-0.261475,0.582886,0.59967,up
131493,-8.71875,4.71875,2.03125,0.099609,0.013672,-0.042969,0.482056,-0.261414,0.583069,0.599426,up
131498,-8.757813,4.71875,2.03125,0.099609,0.013672,-0.042969,0.482056,-0.261414,0.583069,0.599426,up
131503,-8.792969,4.71875,1.992188,0.0,0.0,-0.021484,0.482056,-0.261475,0.58313,0.599365,up
131509,-8.757813,4.792969,1.992188,0.0,0.0,-0.021484,0.482056,-0.261475,0.58313,0.599365,up
131515,-8.757813,4.753906,1.992188,-0.074219,-0.017578,0.0,0.481995,-0.261536,0.582947,0.599487,up
131520,-8.722656,4.71875,1.957031,-0.074219,-0.017578,0.0,0.481934,-0.261536,0.582886,0.599609,up
131526,-8.679688,4.71875,1.957031,-0.074219,-0.017578,0.0,0.481873,-0.261597,0.582764,0.599792,up
131531,-8.679688,4.679687,2.03125,-0.101563,-0.025391,0.044922,0.481873,-0.261597,0.582764,0.599792,up
131537,-8.679688,4.640625,2.03125,-0.105469,-0.019531,0.054687,0.481873,-0.261597,0.582764,0.599792,up
131542,-8.605469,4.601562,1.957031,-0.105469,-0.019531,0.054687,0.481445,-0.261597,0.582397,0.600525,up
131547,-8.601563,4.488281,1.992188,-0.105469,-0.019531,0.054687,0.481445,-0.261597,0.582397,0.600525,up
131552,-8.601563,4.449219,1.957031,-0.085937,-0.013672,0.083984,0.481445,-0.261597,0.582397,0.600525,up
131557,-8.527344,4.449219,1.957031,-0.072266,-0.015625,0.083984,0.481445,-0.261597,0.582397,0.600525,up
131562,-8.488281,4.449219,1.957031,-0.072266,-0.015625,0.083984,0.480713,-0.261353,0.582153,0.60144,up
131568,-8.449219,4.488281,1.917969,-0.025391,-0.025391,0.076172,0.480713,-0.261353,0.582153,0.60144,up
131573,-8.40625,4.527344,1.917969,-0.001953,-0.023437,0.074219,0.480347,-0.260925,0.582214,0.601807,up
131578,-8.375,4.640625,1.957031,-0.001953,-0.023437,0.074219,0.480347,-0.260925,0.582214,0.601807,up
131583,-8.375,4.640625,1.878906,-0.001953,-0.023437,0.074219,0.480286,-0.260742,0.582275,0.601929,up
131588,-8.378906,4.71875,1.917969,0.029297,-0.015625,0.078125,0.480286,-0.260742,0.582275,0.601929,up
131593,-8.378906,4.71875,1.917969,0.021484,-0.013672,0.085937,0.480042,-0.260376,0.58252,0.602051,up
131598,-8.378906,4.71875,1.878906,0.015625,-0.005859,0.101563,0.480042,-0.260376,0.58252,0.602051,up
131603,-8.339844,4.753906,1.878906,0.015625,-0.005859,0.101563,0.479736,-0.26001,0.582703,0.602234,up
131608,-8.339844,4.753906,1.839844,-0.029297,0.005859,0.134766,0.479553,-0.259766,0.582825,0.602417,up
131613,-8.296875,4.832031,1.839844,-0.029297,0.005859,0.134766,0.479309,-0.259644,0.582886,0.6026,up
131619,-8.261719,4.832031,1.878906,-0.029297,0.005859,0.134766,0.478638,-0.259338,0.583008,0.603088,up
131624,-8.222656,4.871094,1.839844,-0.105469,0.044922,0.189453,0.478638,-0.259338,0.583008,0.603088,up
131629,-8.222656,4.832031,1.839844,-0.105469,0.044922,0.189453,0.477783,-0.259155,0.583069,0.603821,up
131634,-8.21875,4.871094,1.800781,-0.105469,0.044922,0.189453,0.477234,-0.259094,0.58313,0.604187,up
131639,-8.183594,4.945312,1.800781,-0.105469,0.044922,0.189453,0.476562,-0.259033,0.583191,0.604736,up
131644,-8.140625,4.984375,1.765625,-0.171875,0.121094,0.298828,0.47583,-0.258972,0.583313,0.605225,up
131649,-8.179688,5.023437,1.765625,-0.171875,0.121094,0.298828,0.475098,-0.258911,0.583374,0.605774,up
131654,-8.144531,5.101562,1.648438,-0.171875,0.121094,0.298828,0.47406,-0.258789,0.583557,0.606445,up
131659,-8.144531,5.136719,1.648438,-0.207031,0.185547,0.417969,0.47406,-0.258789,0.583557,0.606445,up
131664,-8.179688,5.175781,1.648438,-0.224609,0.210937,0.460937,0.473083,-0.258667,0.58374,0.607056,up
131669,-8.105469,5.175781,1.648438,-0.224609,0.210937,0.460937,0.470764,-0.258484,0.584167,0.608521,up
131675,-8.183594,5.214844,1.609375,-0.224609,0.210937,0.460937,0.469421,-0.258362,0.584473,0.609314,up
131680,-8.183594,5.214844,1.609375,-0.277344,0.279297,0.603516,0.469421,-0.258362,0.584473,0.609314,up
131685,-8.257813,5.253906,1.609375,-0.300781,0.302734,0.650391,0.469421,-0.258362,0.584473,0.609314,up
131690,-8.300781,5.292969,1.648438,-0.300781,0.302734,0.650391,0.464661,-0.257935,0.585449,0.612244,up
131696,-8.335938,5.367187,1.726563,-0.345703,0.335938,0.738281,0.46283,-0.257751,0.585754,0.613342,up
131701,-8.378906,5.40625,1.765625,-0.357422,0.345703,0.785156,0.460937,-0.257568,0.586121,0.614502,up
131707,-8.488281,5.445312,1.765625,-0.357422,0.345703,0.785156,0.458618,-0.257263,0.586609,0.615967,up
131713,-8.488281,5.445312,1.765625,-0.373047,0.335938,0.871094,0.458618,-0.257263,0.586609,0.615967,up
131719,-8.523438,5.484375,1.800781,-0.371094,0.326172,0.914062,0.452576,-0.256104,0.587708,0.619812,up
131724,-8.601563,5.445312,1.765625,-0.371094,0.326172,0.914062,0.450317,-0.255554,0.588135,0.621277,up
131730,-8.605469,5.40625,1.765625,-0.371094,0.326172,0.914062,0.448059,-0.254944,0.588562,0.622803,up
131735,-8.605469,5.328125,1.800781,-0.378906,0.296875,1.033203,0.445557,-0.254211,0.588989,0.624451,up
131740,-8.601563,5.292969,1.765625,-0.378906,0.296875,1.033203,0.443176,-0.25354,0.589417,0.626038,up
131746,-8.484375,5.214844,1.726563,-0.378906,0.296875,1.033203,0.441162,-0.252869,0.589844,0.627319,up
131751,-8.484375,5.214844,1.726563,-0.298828,0.259766,1.023438,0.438721,-0.252014,0.590332,0.628906,up
131756,-8.445313,5.253906,1.765625,-0.298828,0.259766,1.023438,0.436707,-0.251282,0.59082,0.630127,up
131762,-8.484375,5.292969,1.878906,-0.298828,0.259766,1.023438,0.434631,-0.250549,0.591309,0.631409,up
131767,-8.484375,5.445312,1.917969,-0.191406,0.287109,0.964844,0.434631,-0.250549,0.591309,0.631409,up
131772,-8.523438,5.558594,2.03125,-0.138672,0.248047,0.972656,0.434631,-0.250549,0.591309,0.631409,up
131778,-8.484375,5.597656,2.1875,-0.138672,0.248047,0.972656,0.428406,-0.247864,0.593262,0.634888,up
131784,-8.445313,5.675781,2.1875,-0.138672,0.248047,0.972656,0.424744,-0.245483,0.594788,0.636841,up
131789,-8.410156,5.789062,2.222656,0.056641,0.111328,1.054688,0.424744,-0.245483,0.594788,0.636841,up
131794,-8.375,5.75,2.1875,0.056641,0.111328,1.054688,0.422913,-0.24408,0.595642,0.637817,up
131799,-8.296875,5.75,2.109375,0.056641,0.111328,1.054688,0.418945,-0.240662,0.597595,0.639893,up
131804,-8.261719,5.714844,2.070313,0.056641,0.111328,1.054688,0.418945,-0.240662,0.597595,0.639893,up
131809,-8.21875,5.675781,2.070313,0.123047,0.042969,1.214844,0.418945,-0.240662,0.597595,0.639893,up
131815,-8.101563,5.558594,1.957031,0.123047,0.042969,1.214844,0.41333,-0.235352,0.600403,0.642883,up
131820,-8.0625,5.523437,1.957031,0.123047,0.042969,1.214844,0.411133,-0.233215,0.60144,0.644104,up
131825,-8.027344,5.484375,1.917969,0.089844,0.044922,1.234375,0.409119,-0.231323,0.602356,0.645203,up
131830,-7.957031,5.367187,1.878906,0.089844,0.044922,1.234375,0.407288,-0.229614,0.60321,0.646179,up
131835,-7.757812,5.367187,1.765625,0.089844,0.044922,1.234375,0.407288,-0.229614,0.60321,0.646179,up
131840,-7.71875,5.328125,1.800781,0.162109,0.085937,1.177734,0.405273,-0.227722,0.604248,0.647156,up
131846,-7.71875,5.328125,1.800781,0.265625,0.144531,1.082031,0.401245,-0.223999,0.606567,0.648743,up
131851,-7.453125,5.367187,1.765625,0.265625,0.144531,1.082031,0.399658,-0.222534,0.607666,0.649231,up
131857,-7.417969,5.367187,1.726563,0.388672,0.205078,0.982422,0.399658,-0.222534,0.607666,0.649231,up
131862,-7.414062,5.40625,1.574219,0.46875,0.25,0.927734,0.399658,-0.222534,0.607666,0.649231,up
131867,-7.375,5.484375,1.609375,0.560547,0.296875,0.865234,0.399658,-0.222534,0.607666,0.649231,up
131872,-7.335937,5.75,1.574219,0.560547,0.296875,0.865234,0.393066,-0.216553,0.613831,0.649475,up
131877,-7.375,5.90625,1.609375,0.705078,0.3125,0.787109,0.393066,-0.216553,0.613831,0.649475,up
131882,-7.378906,5.980469,1.609375,0.755859,0.306641,0.761719,0.393066,-0.216553,0.613831,0.649475,up
131888,-7.339844,6.097656,1.648438,0.755859,0.306641,0.761719,0.388977,-0.21228,0.619507,0.647949,up
131893,-7.378906,6.171875,1.609375,0.703125,0.294922,0.75,0.388977,-0.21228,0.619507,0.647949,up
131898,-7.335937,6.210937,1.609375,0.703125,0.294922,0.75,0.386353,-0.209473,0.62323,0.646851,up
131904,-7.335937,6.210937,1.609375,0.648437,0.28125,0.755859,0.386353,-0.209473,0.62323,0.646851,up
131909,-7.335937,6.210937,1.648438,0.648437,0.28125,0.755859,0.382202,-0.205322,0.628357,0.645691,up
131914,-7.339844,6.171875,1.609375,0.648437,0.28125,0.755859,0.380859,-0.204102,0.6297,0.645569,up
131919,-7.335937,6.25,1.574219,0.648437,0.28125,0.755859,0.380859,-0.204102,0.6297,0.645569,up
131924,-7.296875,6.132812,1.496094,0.400391,0.228516,0.757812,0.380859,-0.204102,0.6297,0.645569,up
131929,-7.296875,6.058594,1.535156,0.324219,0.216797,0.714844,0.378052,-0.201599,0.632324,0.645447,up
131934,-7.222656,6.019531,1.535156,0.324219,0.216797,0.714844,0.375366,-0.199402,0.63446,0.645569,up
131939,-7.152344,5.90625,1.496094,0.324219,0.216797,0.714844,0.375366,-0.199402,0.63446,0.645569,up
131944,-7.03125,5.941406,1.457031,0.324219,0.216797,0.714844,0.373962,-0.198242,0.63562,0.64563,up
131949,-7.070312,5.90625,1.457031,0.324219,0.216797,0.714844,0.372742,-0.197266,0.636597,0.64563,up
131955,-7.035156,5.90625,1.382813,0.349609,0.197266,0.578125,0.370605,-0.195374,0.638733,0.645386,up
131960,-6.953125,5.980469,1.34375,0.349609,0.197266,0.578125,0.369629,-0.194458,0.639832,0.645142,up
131965,-6.992187,6.097656,1.382813,0.503906,0.152344,0.466797,0.368774,-0.19342,0.641052,0.644714,up
131970,-6.996094,6.210937,1.382813,0.503906,0.152344,0.466797,0.368103,-0.192505,0.642151,0.644287,up
131975,-6.957031,6.515625,1.574219,0.503906,0.152344,0.466797,0.367493,-0.191162,0.643494,0.643677,up
131981,-6.957031,6.515625,1.609375,0.503906,0.152344,0.466797,0.367004,-0.189941,0.644653,0.643127,up
131986,-6.953125,6.515625,1.535156,0.654297,-0.041016,0.535156,0.367004,-0.189941,0.644653,0.643127,up
131992,-6.953125,6.480469,1.496094,0.644531,-0.070312,0.572266,0.367004,-0.189941,0.644653,0.643127,up
131997,-6.957031,6.402344,1.417969,0.644531,-0.070312,0.572266,0.365479,-0.18512,0.648437,0.641663,up
132002,-6.914062,6.324219,1.417969,0.580078,-0.113281,0.662109,0.365479,-0.18512,0.648437,0.641663,up
132007,-6.917969,6.289062,1.382813,0.552734,-0.140625,0.701172,0.365479,-0.18512,0.648437,0.641663,up
132012,-6.839844,6.132812,1.34375,0.521484,-0.158203,0.714844,0.365479,-0.18512,0.648437,0.641663,up
132017,-6.730469,5.980469,1.34375,0.521484,-0.158203,0.714844,0.365479,-0.18512,0.648437,0.641663,up
132022,-6.648437,5.941406,1.34375,0.488281,-0.191406,0.724609,0.365479,-0.18512,0.648437,0.641663,up
132027,-6.691406,6.132812,1.304688,0.521484,-0.195312,0.712891,0.365479,-0.18512,0.648437,0.641663,up
132032,-6.765625,6.363281,1.304688,0.601562,-0.220703,0.703125,0.365479,-0.18512,0.648437,0.641663,up
132038,-6.796875,6.746094,1.496094,0.714844,-0.292969,0.714844,0.365479,-0.18512,0.648437,0.641663,up
132043,-6.800781,7.09375,1.574219,0.808594,-0.371094,0.732422,0.365479,-0.18512,0.648437,0.641663,up
132048,-6.878906,7.359375,1.648438,0.882812,-0.445312,0.769531,0.365479,-0.18512,0.648437,0.641663,up
132053,-6.957031,7.667969,1.726563,0.882812,-0.445312,0.769531,0.359985,-0.161499,0.660706,0.63855,up
132058,-6.957031,7.667969,1.726563,0.984375,-0.625,0.869141,0.359985,-0.158325,0.662048,0.638,up
132063,-6.957031,7.664062,1.800781,0.984375,-0.625,0.869141,0.360046,-0.154907,0.663391,0.637451,up
132068,-6.957031,7.664062,1.800781,0.984375,-0.835937,0.986328,0.360229,-0.151062,0.664612,0.636902,up
132073,-6.992187,7.4375,1.609375,0.984375,-0.835937,0.986328,0.360413,-0.147156,0.66571,0.636597,up
132078,-6.917969,7.285156,1.417969,0.806641,-0.949219,1.058594,0.360413,-0.147156,0.66571,0.636597,up
132084,-6.839844,6.863281,1.152344,0.806641,-0.949219,1.058594,0.360779,-0.138794,0.667358,0.636536,up
132089,-6.800781,6.710937,1.074219,0.806641,-0.949219,1.058594,0.360962,-0.134949,0.667786,0.636841,up
132095,-6.648437,6.554687,1.0,0.330078,-1.117188,1.011719,0.360962,-0.134949,0.667786,0.636841,up
132100,-6.53125,6.441406,0.960937,0.330078,-1.117188,1.011719,0.361877,-0.123352,0.667664,0.638794,up
132105,-6.457031,6.363281,1.035156,0.330078,-1.117188,1.011719,0.362427,-0.119995,0.667419,0.639404,up
132111,-6.34375,6.324219,0.921875,0.330078,-1.117188,1.011719,0.36322,-0.116333,0.667114,0.639893,up
132116,-6.226562,6.558594,0.769531,0.451172,-1.115234,0.630859,0.364075,-0.113098,0.666992,0.640198,up
132121,-6.191406,6.710937,0.730469,0.568359,-1.087891,0.517578,0.365112,-0.109985,0.666931,0.640198,up
132127,-6.152344,7.054687,0.691406,0.568359,-1.087891,0.517578,0.366272,-0.106934,0.667114,0.639832,up
132132,-6.152344,7.324219,0.691406,0.841797,-1.005859,0.294922,0.366272,-0.106934,0.667114,0.639832,up
132137,-6.191406,7.628906,0.730469,0.970703,-0.964844,0.208984,0.366272,-0.106934,0.667114,0.639832,up
132142,-6.304687,8.125,0.804687,0.970703,-0.964844,0.208984,0.370667,-0.098389,0.668884,0.636841,up
132148,-6.304687,8.246094,0.769531,1.113281,-0.902344,0.089844,0.370667,-0.098389,0.668884,0.636841,up
132154,-6.304687,8.285156,0.769531,1.099609,-0.855469,0.056641,0.370667,-0.098389,0.668884,0.636841,up
132159,-6.34375,8.351563,0.769531,0.914062,-0.761719,0.041016,0.370667,-0.098389,0.668884,0.636841,up
132164,-6.382812,8.46875,0.769531,0.914062,-0.761719,0.041016,0.376953,-0.08844,0.672485,0.630798,up
132170,-6.34375,8.390625,0.730469,0.566406,-0.707031,0.070312,0.376953,-0.08844,0.672485,0.630798,up
132175,-6.265625,8.28125,0.804687,0.566406,-0.707031,0.070312,0.379578,-0.084473,0.673462,0.628723,up
132180,-6.265625,8.167969,0.769531,0.566406,-0.707031,0.070312,0.381836,-0.081116,0.673401,0.627808,up
132185,-6.265625,8.007813,0.804687,0.089844,-0.585937,0.099609,0.381836,-0.081116,0.673401,0.627808,up
132190,-6.226562,7.820312,0.769531,0.089844,-0.585937,0.099609,0.38269,-0.079895,0.673096,0.627808,up
132195,-6.152344,7.589844,0.769531,0.029297,-0.544922,0.087891,0.383484,-0.078796,0.672668,0.627869,up
132200,-6.152344,7.589844,0.769531,0.042969,-0.515625,0.089844,0.384155,-0.077881,0.672302,0.628052,up
132205,-6.113281,7.511719,0.769531,0.042969,-0.515625,0.089844,0.384155,-0.077881,0.672302,0.628052,up
132210,-6.113281,7.511719,0.769531,0.439453,-0.392578,0.058594,0.385559,-0.075867,0.671814,0.62793,up
132217,-6.191406,7.585937,0.613281,0.439453,-0.392578,0.058594,0.386841,-0.073547,0.672424,0.626709,up
132223,-6.152344,7.707031,0.539062,0.902344,-0.353516,0.050781,0.386841,-0.073547,0.672424,0.626709,up
132228,-6.152344,7.78125,0.421875,1.115234,-0.314453,0.072266,0.386841,-0.073547,0.672424,0.626709,up
132233,-6.074219,7.972656,0.347656,1.115234,-0.314453,0.072266,0.388794,-0.068787,0.676147,0.62207,up
132238,-6.074219,7.972656,0.347656,1.435547,-0.244141,0.099609,0.388794,-0.068787,0.676147,0.62207,up
132243,-6.074219,8.046875,0.308594,1.523438,-0.208984,0.113281,0.388794,-0.068787,0.676147,0.62207,up
132248,-6.074219,8.125,0.195312,1.585938,-0.166016,0.121094,0.388794,-0.068787,0.676147,0.62207,up
132253,-6.074219,8.246094,0.15625,1.585938,-0.166016,0.121094,0.388794,-0.068787,0.676147,0.62207,up
132258,-6.074219,8.285156,0.078125,1.585938,-0.166016,0.121094,0.390686,-0.058777,0.687073,0.609802,up
132263,-6.074219,8.316406,0.039063,1.533203,-0.083984,0.146484,0.390686,-0.058777,0.687073,0.609802,up
132268,-6.0,8.246094,0.003906,1.533203,-0.083984,0.146484,0.390991,-0.054932,0.69165,0.604797,up
132274,-5.882812,7.546875,-0.113281,1.267578,0.041016,0.154297,0.390991,-0.054932,0.69165,0.604797,up
132279,-5.730469,7.097656,-0.113281,1.267578,0.041016,0.154297,0.39093,-0.051819,0.695618,0.600525,up
132285,-5.691406,6.480469,-0.113281,1.265625,0.085937,0.179687,0.39093,-0.051819,0.695618,0.600525,up
132290,-5.691406,6.359375,-0.226562,1.265625,0.085937,0.179687,0.389832,-0.047241,0.702148,0.593933,up
132295,-5.691406,6.359375,-0.34375,1.265625,0.085937,0.179687,0.389832,-0.047241,0.702148,0.593933,up
132300,-5.730469,6.441406,-0.457031,1.769531,0.234375,0.318359,0.38855,-0.043396,0.707825,0.588379,up
132305,-5.882812,7.128906,-0.726562,1.769531,0.234375,0.318359,0.387695,-0.040955,0.711304,0.584839,up
132310,-6.0,7.78125,-0.800781,1.769531,0.234375,0.318359,0.386719,-0.037964,0.715393,0.580688,up
132315,-6.191406,8.429688,-0.917969,1.769531,0.234375,0.318359,0.386719,-0.037964,0.715393,0.580688,up
132320,-6.152344,9.046875,-0.992187,2.898438,0.220703,0.539062,0.384888,-0.031128,0.724243,0.571289,up
132325,-6.074219,10.15625,-0.878906,2.898438,0.220703,0.539062,0.384888,-0.031128,0.724243,0.571289,up
132330,-6.074219,10.460938,-0.957031,2.832031,0.199219,0.525391,0.383911,-0.027283,0.729004,0.56604,up
132335,-6.074219,10.460938,-0.957031,2.832031,0.199219,0.525391,0.383057,-0.024048,0.732971,0.561646,up
132340,-6.265625,10.234375,-1.339844,2.566406,0.171875,0.490234,0.382141,-0.020752,0.737,0.557068,up
132345,-6.265625,10.234375,-1.339844,2.230469,0.115234,0.4375,0.381348,-0.017822,0.740479,0.553162,up
132351,-6.113281,9.960938,-1.414063,1.431641,-0.021484,0.332031,0.380737,-0.015259,0.743347,0.549805,up
132357,-5.84375,8.816406,-1.183594,1.431641,-0.021484,0.332031,0.379883,-0.010925,0.747498,0.5448,up
132363,-5.613281,8.085938,-1.222656,1.431641,-0.021484,0.332031,0.379639,-0.009827,0.748413,0.543762,up
132369,-5.578125,7.820312,-1.378906,0.212891,0.013672,0.220703,0.379639,-0.009827,0.748413,0.543762,up
132374,-5.5,7.550781,-1.492188,-0.023437,0.046875,0.201172,0.379639,-0.009827,0.748413,0.543762,up
132380,-5.386719,7.285156,-1.492188,-0.023437,0.046875,0.201172,0.379639,-0.009827,0.748413,0.543762,up
132385,-5.308594,7.242187,-1.492188,-0.160156,0.195312,0.15625,0.379639,-0.009827,0.748413,0.543762,up
132390,-5.308594,7.242187,-1.53125,-0.160156,0.195312,0.15625,0.377625,-0.008423,0.748718,0.544739,up
132395,-5.308594,7.246094,-1.570313,0.320313,0.347656,0.109375,0.377625,-0.008423,0.748718,0.544739,up
132400,-5.421875,7.363281,-1.683594,0.320313,0.347656,0.109375,0.376221,-0.008606,0.749329,0.5448,up
132406,-5.460937,7.476562,-1.722656,0.320313,0.347656,0.109375,0.374451,-0.008057,0.752197,0.542175,up
132411,-5.5,7.589844,-1.722656,1.466797,0.511719,0.039063,0.373474,-0.007385,0.754395,0.539795,up
132417,-5.578125,8.046875,-1.53125,1.466797,0.511719,0.039063,0.372498,-0.006592,0.756836,0.536987,up
132422,-5.652344,8.203125,-1.570313,1.787109,0.564453,0.037109,0.37146,-0.005676,0.759644,0.533813,up
132427,-5.769531,8.28125,-1.570313,1.832031,0.568359,0.037109,0.37146,-0.005676,0.759644,0.533813,up
132433,-5.804687,8.390625,-1.605469,1.832031,0.568359,0.037109,0.369263,-0.003662,0.765503,0.526978,up
132438,-5.882812,8.433594,-1.605469,1.832031,0.568359,0.037109,0.368103,-0.002686,0.768127,0.523865,up
132443,-5.921875,8.433594,-1.644531,1.439453,0.488281,0.111328,0.368103,-0.002686,0.768127,0.523865,up
132449,-6.0,8.429688,-1.683594,1.271484,0.4375,0.125,0.368103,-0.002686,0.768127,0.523865,up
132454,-6.035156,8.546875,-1.683594,1.271484,0.4375,0.125,0.368103,-0.002686,0.768127,0.523865,up
132459,-6.074219,8.546875,-1.761719,0.939453,0.316406,0.111328,0.368103,-0.002686,0.768127,0.523865,up
132464,-6.152344,8.664063,-1.796875,0.832031,0.261719,0.083984,0.368103,-0.002686,0.768127,0.523865,up
132469,-6.226562,8.890625,-1.875,0.755859,0.181641,0.064453,0.368103,-0.002686,0.768127,0.523865,up
132474,-6.226562,9.011719,-1.953125,0.707031,0.111328,0.011719,0.368103,-0.002686,0.768127,0.523865,up
132479,-6.265625,9.160156,-1.988281,0.652344,0.044922,-0.046875,0.368103,-0.002686,0.768127,0.523865,up
132484,-6.191406,9.429688,-2.066406,0.652344,0.044922,-0.046875,0.362549,0.003357,0.781738,0.507385,up
132489,-6.191406,9.542969,-2.144531,0.652344,0.044922,-0.046875,0.362854,0.003601,0.78241,0.506104,up
132495,-6.152344,9.578125,-2.257813,0.400391,-0.119141,-0.3125,0.362854,0.003601,0.78241,0.506104,up
132500,-6.074219,9.738281,-2.371094,0.238281,-0.164062,-0.416016,0.365051,0.002808,0.783142,0.503357,up
132505,-6.0,9.738281,-2.449219,0.238281,-0.164062,-0.416016,0.365051,0.002808,0.783142,0.503357,up
132510,-5.960937,9.65625,-2.488281,0.238281,-0.164062,-0.416016,0.366272,0.001831,0.782837,0.502991,up
132516,-5.84375,9.503906,-2.449219,-0.498047,-0.265625,-0.798828,0.369385,-0.001648,0.781067,0.50354,up
132521,-5.804687,8.777344,-2.335938,-0.498047,-0.265625,-0.798828,0.371277,-0.004211,0.77948,0.504517,up
132526,-5.882812,8.089844,-2.410156,-1.482422,-0.324219,-1.285156,0.373596,-0.00769,0.777283,0.506165,up
132531,-5.921875,7.546875,-2.335938,-1.482422,-0.324219,-1.285156,0.375671,-0.010864,0.775269,0.50769,up
132536,-5.960937,7.398437,-2.027344,-1.953125,-0.521484,-1.771484,0.378845,-0.015503,0.772156,0.509949,up
132541,-5.921875,7.507812,-1.570313,-1.953125,-0.521484,-1.771484,0.381958,-0.020081,0.769165,0.511963,up
132547,-6.113281,7.585937,-0.992187,-1.953125,-0.521484,-1.771484,0.385986,-0.026245,0.76532,0.514404,up
132552,-6.457031,7.398437,-0.992187,-2.511719,-0.578125,-2.640625,0.389771,-0.032104,0.76178,0.516479,up
132557,-7.03125,8.167969,-1.261719,-2.511719,-0.578125,-2.640625,0.39447,-0.039246,0.757507,0.518677,up
132563,-7.222656,9.542969,-0.957031,-2.511719,-0.578125,-2.640625,0.399719,-0.046448,0.753052,0.520569,up
132569,-7.222656,10.382813,-0.765625,-2.736328,-1.132813,-3.599609,0.399719,-0.046448,0.753052,0.520569,up
132574,-7.222656,10.382813,-0.765625,-3.021484,-1.273438,-3.958984,0.412659,-0.062744,0.742432,0.523987,up
132579,-7.1875,11.875,-0.726562,-3.021484,-1.273438,-3.958984,0.412659,-0.062744,0.742432,0.523987,up
132584,-7.1875,11.875,-0.726562,-4.109375,-1.611328,-4.65625,0.428101,-0.082397,0.728516,0.528442,up
132589,-7.339844,12.53125,-1.796875,-4.109375,-1.611328,-4.65625,0.428101,-0.082397,0.728516,0.528442,up
132594,-7.03125,12.414063,-2.910156,-5.986328,-1.855469,-5.269531,0.428101,-0.082397,0.728516,0.528442,up
132600,-6.917969,11.574219,-2.984375,-7.054687,-2.087891,-5.501953,0.428101,-0.082397,0.728516,0.528442,up
132605,-6.6875,10.082031,-2.566406,-9.257813,-2.722656,-5.880859,0.428101,-0.082397,0.728516,0.528442,up
132610,-6.265625,8.429688,-1.722656,-9.257813,-2.722656,-5.880859,0.47229,-0.152222,0.664673,0.558533,up
132615,-6.34375,6.324219,-0.992187,-9.257813,-2.722656,-5.880859,0.47229,-0.152222,0.664673,0.558533,up
132620,-6.34375,6.324219,-0.992187,-10.138672,-2.779297,-5.980469,0.489685,-0.188232,0.62384,0.579285,up
132625,-6.34375,6.324219,-0.992187,-11.132813,-2.765625,-6.111328,0.497253,-0.206848,0.601624,0.589844,up
132631,-8.375,0.808594,1.839844,-11.123047,-2.886719,-6.308594,0.497253,-0.206848,0.601624,0.589844,up
132636,-8.867188,0.386719,2.722656,-10.787109,-3.023438,-6.539062,0.519897,-0.262146,0.529846,0.616638,up
132641,-9.40625,0.425781,3.488281,-9.058594,-3.175781,-7.0,0.519897,-0.262146,0.529846,0.616638,up
132646,-9.488281,2.609375,4.292969,-9.058594,-3.175781,-7.0,0.528992,-0.280457,0.503723,0.622742,up
132652,-9.488281,2.609375,4.292969,-6.330078,-3.023438,-7.197266,0.546509,-0.30719,0.462952,0.626648,up
132657,-9.488281,2.609375,4.292969,-6.330078,-3.023438,-7.197266,0.546509,-0.30719,0.462952,0.626648,up
132662,-9.445313,3.875,4.445312,-5.029297,-2.886719,-7.123047,0.546509,-0.30719,0.462952,0.626648,up
132667,-9.488281,6.097656,3.21875,-3.902344,-2.757813,-6.917969,0.567139,-0.328186,0.42749,0.622803,up
132672,-9.488281,6.097656,3.21875,-3.128906,-2.734375,-6.615234,0.577515,-0.335938,0.412659,0.619141,up
132677,-8.183594,6.9375,2.1875,-3.128906,-2.734375,-6.615234,0.597839,-0.347168,0.385742,0.610962,up
132683,-6.996094,5.484375,2.761719,-3.128906,-2.734375,-6.615234,0.607117,-0.350952,0.373108,0.607483,up
132688,-6.496094,3.375,3.410156,-3.128906,-2.734375,-6.615234,0.614624,-0.354431,0.361023,0.605225,up
132693,-6.496094,3.375,3.410156,-3.128906,-2.734375,-6.615234,0.614624,-0.354431,0.361023,0.605225,up
132699,-6.152344,2.378906,3.566406,-3.289063,-2.478516,-3.669922,0.624146,-0.363708,0.336792,0.603943,up
132704,-6.386719,-0.148437,3.679688,-4.259766,-1.449219,-2.587891,0.626099,-0.369751,0.3255,0.604431,up
132710,-7.261719,-1.679688,3.949219,-4.259766,-1.449219,-2.587891,0.626099,-0.369751,0.3255,0.604431,up
132715,-7.71875,-1.988281,4.367187,-4.28125,-0.597656,-1.763672,0.626099,-0.369751,0.3255,0.604431,up
132721,-8.949219,-1.871094,4.867187,-4.103516,-0.150391,-1.482422,0.626099,-0.369751,0.3255,0.604431,up
132726,-9.675781,-1.335938,4.90625,-3.105469,0.765625,-1.099609,0.622986,-0.397949,0.289551,0.608032,up
132731,-10.480469,-0.835937,4.980469,-3.105469,0.765625,-1.099609,0.619019,-0.411499,0.280029,0.607483,up
132736,-11.902344,-0.378906,5.171875,-3.105469,0.765625,-1.099609,0.619019,-0.411499,0.280029,0.607483,up
132741,-12.429688,-0.261719,5.171875,-3.105469,0.765625,-1.099609,0.616272,-0.421753,0.277954,0.604187,up
132746,-12.855469,-0.300781,5.363281,-0.238281,1.814453,-0.568359,0.616272,-0.421753,0.277954,0.604187,up
132751,-13.085938,-0.417969,5.710937,-0.238281,1.814453,-0.568359,0.614868,-0.429016,0.281372,0.598938,up
132756,-13.085938,-0.417969,5.710937,-0.238281,1.814453,-0.568359,0.614868,-0.429016,0.281372,0.598938,up
132761,-13.8125,-0.570312,6.207031,-0.238281,1.814453,-0.568359,0.614868,-0.429016,0.281372,0.598938,up
132766,-14.117188,-0.570312,6.398437,-0.050781,1.724609,-0.072266,0.614868,-0.429016,0.281372,0.598938,up
132771,-14.117188,-0.570312,6.398437,-0.050781,1.724609,-0.072266,0.611206,-0.439819,0.291809,0.589783,up
132776,-15.425781,-0.800781,6.707031,-0.050781,1.724609,-0.072266,0.608643,-0.44342,0.293579,0.588867,up
132781,-15.648438,-1.144531,6.78125,-1.609375,1.662109,0.681641,0.608643,-0.44342,0.293579,0.588867,up
132786,-15.917969,-1.488281,6.820312,-1.609375,1.662109,0.681641,0.604919,-0.447815,0.294861,0.588745,up
132791,-16.226562,-1.949219,6.78125,-2.154297,1.642578,1.013672,0.594971,-0.457153,0.295898,0.591187,up
132796,-16.496094,-2.292969,6.667969,-2.154297,1.642578,1.013672,0.588379,-0.462341,0.296143,0.593628,up
132801,-16.878906,-2.371094,6.476562,-2.154297,1.642578,1.013672,0.588379,-0.462341,0.296143,0.593628,up
132807,-16.957031,-2.5625,6.476562,-2.845703,1.666016,2.240234,0.571472,-0.472717,0.298096,0.600891,up
132812,-16.875,-2.40625,6.4375,-2.845703,1.666016,2.240234,0.56427,-0.475708,0.30011,0.60437,up
132817,-16.800781,-2.101563,6.324219,-2.845703,1.666016,2.240234,0.555115,-0.478088,0.304016,0.608948,up
132822,-16.953125,-1.605469,6.167969,-0.730469,1.755859,4.607422,0.545349,-0.479004,0.310181,0.613953,up
132827,-17.457031,-1.027344,5.363281,-0.730469,1.755859,4.607422,0.535583,-0.478333,0.318298,0.618896,up
132832,-17.640625,-0.992187,4.90625,-0.730469,1.755859,4.607422,0.535583,-0.478333,0.318298,0.618896,up
132837,-17.640625,-0.992187,4.90625,0.794922,1.960938,6.177734,0.526428,-0.476318,0.327515,0.623474,up
132842,-17.757812,-0.875,4.5625,0.794922,1.960938,6.177734,0.51593,-0.472351,0.339661,0.628723,up
132847,-17.796875,-0.722656,4.445312,2.408203,1.966797,7.955078,0.492615,-0.458252,0.371033,0.640076,up
132853,-17.335937,-0.222656,4.140625,2.408203,1.966797,7.955078,0.479797,-0.448425,0.389526,0.645752,up
132859,-17.105469,1.421875,3.066406,4.587891,2.207031,10.712891,0.463745,-0.434998,0.413086,0.651978,up
132864,-16.761719,2.113281,2.683594,5.234375,2.339844,11.564453,0.463745,-0.434998,0.413086,0.651978,up
132870,-15.503906,3.339844,2.378906,5.234375,2.339844,11.564453,0.463745,-0.434998,0.413086,0.651978,up
132875,-15.503906,3.339844,2.378906,6.6875,2.314453,13.316406,0.415527,-0.389099,0.483337,0.6651,up
132880,-14.921875,4.296875,2.070313,7.421875,2.458984,14.167969,0.415527,-0.389099,0.483337,0.6651,up
132885,-14.921875,4.296875,2.070313,8.03125,2.722656,14.947266,0.376038,-0.347107,0.53833,0.669556,up
132891,-12.894531,7.511719,-0.839844,8.03125,2.722656,14.947266,0.352783,-0.322449,0.56842,0.669678,up
132896,-12.703125,8.125,-1.796875,8.966797,3.199219,16.402344,0.352783,-0.322449,0.56842,0.669678,up
132901,-12.625,8.585938,-2.566406,9.318359,3.580078,17.363281,0.352783,-0.322449,0.56842,0.669678,up
132906,-11.859375,9.886719,-3.367188,9.318359,3.580078,17.363281,0.241394,-0.208557,0.686646,0.653259,up
132911,-10.980469,10.308594,-3.714844,9.572266,3.255859,17.742187,0.241394,-0.208557,0.686646,0.653259,up
132916,-11.203125,9.046875,-4.097656,9.572266,3.255859,17.742187,0.213928,-0.180298,0.710449,0.645752,up
132921,-11.476563,7.359375,-3.789063,9.226563,3.701172,17.640625,0.213928,-0.180298,0.710449,0.645752,up
132926,-10.515625,8.011719,-3.445313,9.226563,3.701172,17.640625,0.151978,-0.119324,0.75592,0.625549,up
132931,-9.367188,8.355469,-1.761719,8.486328,4.027344,16.978516,0.151978,-0.119324,0.75592,0.625549,up
132937,-7.070312,4.410156,2.492188,8.363281,3.679688,16.367187,0.151978,-0.119324,0.75592,0.625549,up
132942,-5.652344,2.265625,3.488281,8.363281,3.679688,16.367187,0.024719,-0.00354,0.820862,0.570557,up
132948,-4.460937,1.308594,2.605469,8.363281,3.679688,16.367187,0.001404,-0.017273,-0.829529,-0.558167,up
132953,-4.460937,1.308594,2.605469,5.699219,4.886719,13.484375,0.031616,-0.039734,-0.837097,-0.544739,up
132958,-6.269531,2.761719,1.917969,5.699219,4.886719,13.484375,0.059509,-0.059814,-0.841858,-0.53302,up
132963,-6.03125,2.113281,2.492188,3.816406,4.365234,11.554688,0.059509,-0.059814,-0.841858,-0.53302,up
132968,-5.613281,1.078125,3.679688,3.121094,3.28125,10.460938,0.059509,-0.059814,-0.841858,-0.53302,up
132973,-4.925781,0.773437,5.09375,2.550781,2.113281,9.181641,0.059509,-0.059814,-0.841858,-0.53302,up
132978,-3.699219,0.273438,6.132812,2.550781,2.113281,9.181641,0.059509,-0.059814,-0.841858,-0.53302,up
132983,-3.585938,-0.1875,5.714844,1.638672,1.285156,6.484375,0.059509,-0.059814,-0.841858,-0.53302,up
132988,-3.316406,-0.453125,4.671875,1.615234,1.337891,5.134766,0.059509,-0.059814,-0.841858,-0.53302,up
132993,-3.011719,-0.683594,3.601563,1.615234,1.337891,5.134766,0.17511,-0.157959,-0.844299,-0.481201,up
132998,-1.707031,-0.644531,3.21875,1.615234,1.337891,5.134766,0.17511,-0.157959,-0.844299,-0.481201,up
133003,-0.636719,-0.417969,3.792969,1.585938,0.160156,2.089844,0.17511,-0.157959,-0.844299,-0.481201,up
133009,0.359375,-0.300781,4.140625,0.941406,-0.103516,1.449219,0.17511,-0.157959,-0.844299,-0.481201,up
133014,1.355469,0.160156,3.375,0.941406,-0.103516,1.449219,0.190735,-0.172119,-0.846863,-0.465576,up
133021,1.128906,0.734375,2.496094,-0.347656,0.191406,0.337891,0.190735,-0.172119,-0.846863,-0.465576,up
133026,0.898437,1.0,1.453125,-1.333984,0.316406,-0.105469,0.191345,-0.173584,-0.843445,-0.471069,up
133031,1.050781,1.765625,-0.035156,-1.333984,0.316406,-0.105469,0.191345,-0.173584,-0.843445,-0.471069,up
133037,1.355469,2.113281,-0.035156,-3.699219,-0.476562,-1.039063,0.191345,-0.173584,-0.843445,-0.471069,up
133042,1.738281,2.453125,0.078125,-3.699219,-0.476562,-1.039063,0.181763,-0.173645,-0.832642,-0.49353,up
133047,1.894531,2.835938,0.15625,-4.369141,-0.693359,-1.289063,0.181763,-0.173645,-0.832642,-0.49353,up
133053,1.894531,2.835938,0.15625,-4.314453,-0.707031,-1.308594,0.17218,-0.173828,-0.823853,-0.511292,up
133058,2.773438,3.222656,-0.34375,-3.951172,-0.681641,-1.285156,0.166809,-0.173828,-0.81897,-0.520874,up
133063,3.082031,3.414063,-0.839844,-3.951172,-0.681641,-1.285156,0.162048,-0.173645,-0.814819,-0.528809,up
133069,3.273438,3.949219,-1.261719,-3.951172,-0.681641,-1.285156,0.158264,-0.173401,-0.811951,-0.534424,up
133074,3.273438,3.949219,-1.261719,-1.927734,-0.585937,-1.027344,0.154175,-0.172913,-0.809265,-0.539795,up
133080,3.769531,4.445312,-1.875,-1.927734,-0.585937,-1.027344,0.154175,-0.172913,-0.809265,-0.539795,up
133086,3.695313,5.367187,-1.953125,-0.429687,-0.494141,-0.736328,0.154175,-0.172913,-0.809265,-0.539795,up
133091,3.695313,5.832031,-2.179688,0.197266,-0.400391,-0.621094,0.154175,-0.172913,-0.809265,-0.539795,up
133097,3.578125,6.253906,-2.371094,0.660156,-0.330078,-0.542969,0.144592,-0.169189,-0.810242,-0.542175,up
133102,3.617188,6.941406,-2.410156,0.660156,-0.330078,-0.542969,0.14386,-0.168396,-0.811829,-0.540283,up
133108,3.617188,7.28125,-2.371094,0.958984,-0.197266,-0.28125,0.143311,-0.167664,-0.813416,-0.538208,up
133113,3.347656,8.050781,-2.792969,0.958984,-0.197266,-0.28125,0.143005,-0.167053,-0.814758,-0.536499,up
133118,3.234375,8.3125,-3.023438,0.863281,-0.082031,-0.220703,0.142822,-0.166382,-0.816101,-0.534668,up
133123,3.195313,8.8125,-3.445313,0.863281,-0.082031,-0.220703,0.142822,-0.166382,-0.816101,-0.534668,up
133129,3.15625,9.15625,-3.636719,0.603516,-0.199219,-0.208984,0.142822,-0.166382,-0.816101,-0.534668,up
133135,3.15625,9.394531,-3.789063,0.457031,-0.28125,-0.212891,0.142822,-0.166382,-0.816101,-0.534668,up
133140,3.273438,9.734375,-3.945313,0.457031,-0.28125,-0.212891,0.140808,-0.164734,-0.820007,-0.529785,up
133145,3.386719,9.8125,-3.980469,0.027344,-0.503906,-0.236328,0.140808,-0.164734,-0.820007,-0.529785,up
133150,3.578125,9.882813,-4.097656,-0.130859,-0.550781,-0.261719,0.140808,-0.164734,-0.820007,-0.529785,up
133155,3.617188,10.042969,-4.210937,-0.242187,-0.570312,-0.291016,0.140808,-0.164734,-0.820007,-0.529785,up
133160,3.808594,10.082031,-4.363281,-0.242187,-0.570312,-0.291016,0.140808,-0.164734,-0.820007,-0.529785,up
133166,3.847656,10.042969,-4.441406,-0.242187,-0.570312,-0.291016,0.132874,-0.165527,-0.820557,-0.53064,up
133172,3.921875,10.003906,-4.480469,-0.464844,-0.564453,-0.488281,0.132874,-0.165527,-0.820557,-0.53064,up
133177,3.921875,9.773438,-4.59375,-0.464844,-0.564453,-0.488281,0.126831,-0.165344,-0.819946,-0.533142,up
133182,3.921875,9.65625,-4.59375,-0.464844,-0.564453,-0.488281,0.124573,-0.165039,-0.819641,-0.534241,up
133187,3.960938,9.503906,-4.519531,-0.527344,-0.503906,-0.597656,0.124573,-0.165039,-0.819641,-0.534241,up
133192,3.921875,9.394531,-4.441406,-0.527344,-0.503906,-0.597656,0.120544,-0.164246,-0.819092,-0.536255,up
133197,3.886719,9.273438,-4.402344,-0.527344,-0.503906,-0.597656,0.11853,-0.163696,-0.818848,-0.537292,up
133202,3.808594,9.007813,-4.289062,-0.527344,-0.503906,-0.597656,0.11853,-0.163696,-0.818848,-0.537292,up
133207,3.730469,8.933594,-4.136719,-0.541016,-0.470703,-0.644531,0.114319,-0.162598,-0.818176,-0.539551,up
133212,3.65625,8.855469,-3.980469,-0.613281,-0.445312,-0.638672,0.114319,-0.162598,-0.818176,-0.539551,up
133217,3.578125,8.890625,-3.945313,-0.613281,-0.445312,-0.638672,0.112183,-0.161987,-0.817749,-0.540771,up
133222,3.539063,8.851563,-3.867188,-0.613281,-0.445312,-0.638672,0.10791,-0.16095,-0.816772,-0.543457,up
133227,3.464844,8.777344,-3.753906,-0.613281,-0.445312,-0.638672,0.10791,-0.16095,-0.816772,-0.543457,up
133232,3.386719,8.667969,-3.675781,-0.613281,-0.445312,-0.638672,0.10376,-0.160278,-0.815735,-0.546021,up
133237,3.386719,8.585938,-3.636719,-0.613281,-0.445312,-0.638672,0.101929,-0.160095,-0.815247,-0.547058,up
133242,3.386719,8.511719,-3.675781,-0.613281,-0.445312,-0.638672,0.101929,-0.160095,-0.815247,-0.547058,up
133247,3.273438,8.472656,-3.597656,-0.470703,-0.523437,-0.400391,0.101929,-0.160095,-0.815247,-0.547058,up
133252,3.3125,8.433594,-3.597656,-0.470703,-0.523437,-0.400391,0.096375,-0.160217,-0.814392,-0.549316,up
133257,3.273438,8.46875,-3.558594,-0.470703,-0.523437,-0.400391,0.094849,-0.1604,-0.814392,-0.549622,up
133262,3.234375,8.394531,-3.523438,-0.470703,-0.523437,-0.400391,0.094849,-0.1604,-0.814392,-0.549622,up
133267,3.195313,8.433594,-3.597656,-0.056641,-0.525391,-0.224609,0.093201,-0.160645,-0.814453,-0.549683,up
133272,3.15625,8.390625,-3.597656,-0.056641,-0.525391,-0.224609,0.090637,-0.161194,-0.81488,-0.549316,up
133277,3.15625,8.355469,-3.636719,-0.056641,-0.525391,-0.224609,0.0896,-0.161438,-0.815186,-0.549011,up
133282,3.15625,8.355469,-3.597656,-0.056641,-0.525391,-0.224609,0.0896,-0.161438,-0.815186,-0.549011,up
133287,3.15625,8.429688,-3.714844,0.115234,-0.412109,-0.109375,0.087524,-0.162048,-0.815796,-0.548279,up
133292,3.15625,8.511719,-3.714844,0.115234,-0.412109,-0.109375,0.087524,-0.162048,-0.815796,-0.548279,up
133297,3.082031,8.550781,-3.753906,0.039063,-0.341797,-0.107422,0.085754,-0.162476,-0.816162,-0.547913,up
133302,3.042969,8.585938,-3.753906,0.039063,-0.341797,-0.107422,0.085754,-0.162476,-0.816162,-0.547913,up
133307,3.042969,8.625,-3.714844,0.039063,-0.341797,-0.107422,0.083984,-0.162842,-0.816223,-0.547913,up
133312,3.042969,8.667969,-3.789063,0.039063,-0.341797,-0.107422,0.083191,-0.163025,-0.816162,-0.548096,up
133317,3.042969,8.628906,-3.867188,0.039063,-0.341797,-0.107422,0.083191,-0.163025,-0.816162,-0.548096,up
133323,3.042969,8.628906,-3.90625,-0.152344,-0.292969,-0.105469,0.08136,-0.163391,-0.815918,-0.548523,up
133328,3.117188,8.664063,-3.867188,-0.140625,-0.316406,-0.111328,0.080444,-0.163635,-0.815857,-0.548767,up
133333,3.082031,8.699219,-3.828125,-0.140625,-0.316406,-0.111328,0.079651,-0.163757,-0.815796,-0.54895,up
133338,3.117188,8.8125,-4.019531,-0.140625,-0.316406,-0.111328,0.078735,-0.164001,-0.815735,-0.549133,up
133343,3.15625,8.851563,-4.019531,-0.140625,-0.316406,-0.111328,0.077698,-0.164185,-0.815674,-0.549255,up
133348,3.117188,8.894531,-4.058594,-0.082031,-0.333984,-0.103516,0.076843,-0.164429,-0.815674,-0.549377,up
133353,3.195313,8.929688,-4.058594,-0.074219,-0.326172,-0.107422,0.076843,-0.164429,-0.815674,-0.549377,up
133358,3.234375,8.890625,-4.097656,-0.074219,-0.326172,-0.107422,0.075134,-0.164795,-0.815674,-0.549438,up
133363,3.234375,8.851563,-4.058594,-0.050781,-0.320313,-0.111328,0.075134,-0.164795,-0.815674,-0.549438,up
133368,3.234375,8.8125,-4.058594,-0.050781,-0.320313,-0.111328,0.073303,-0.165222,-0.815735,-0.549438,up
133373,3.234375,8.8125,-4.058594,-0.041016,-0.304688,-0.119141,0.072449,-0.165344,-0.815796,-0.549438,up
133378,3.234375,8.777344,-4.058594,-0.041016,-0.304688,-0.119141,0.071655,-0.165527,-0.815796,-0.549438,up
133383,3.15625,8.695313,-4.058594,-0.052734,-0.310547,-0.113281,0.070679,-0.165649,-0.815857,-0.5495,up
133388,3.117188,8.734375,-3.980469,-0.052734,-0.310547,-0.113281,0.069824,-0.165833,-0.815857,-0.5495,up
133393,3.15625,8.734375,-3.980469,-0.066406,-0.318359,-0.103516,0.069031,-0.166016,-0.815918,-0.549561,up
133399,3.042969,8.773438,-4.019531,-0.066406,-0.318359,-0.103516,0.068176,-0.166199,-0.815918,-0.549622,up
133404,3.003906,8.734375,-4.058594,-0.066406,-0.316406,-0.089844,0.068176,-0.166199,-0.815918,-0.549622,up
133409,3.003906,8.734375,-4.058594,-0.050781,-0.310547,-0.083984,0.068176,-0.166199,-0.815918,-0.549622,up
133414,3.003906,8.773438,-4.058594,-0.050781,-0.310547,-0.083984,0.065674,-0.16687,-0.815918,-0.549683,up
133420,3.003906,8.8125,-4.136719,-0.050781,-0.310547,-0.083984,0.06488,-0.167114,-0.815979,-0.549622,up
133425,2.964844,8.894531,-4.171875,-0.009766,-0.275391,-0.060547,0.06488,-0.167114,-0.815979,-0.549622,up
133430,2.964844,9.011719,-4.328125,-0.009766,-0.275391,-0.060547,0.063477,-0.167542,-0.816101,-0.549438,up
133436,2.925781,9.050781,-4.328125,0.021484,-0.253906,-0.052734,0.063477,-0.167542,-0.816101,-0.549438,up
133442,2.964844,9.089844,-4.289062,0.027344,-0.21875,-0.035156,0.063477,-0.167542,-0.816101,-0.549438,up
133448,2.964844,9.046875,-4.25,0.027344,-0.1875,-0.029297,0.061707,-0.168152,-0.816345,-0.549133,up
133453,2.890625,9.007813,-4.289062,0.027344,-0.1875,-0.029297,0.06073,-0.168518,-0.816467,-0.548889,up
133458,2.890625,8.96875,-4.210937,0.013672,-0.138672,-0.042969,0.06073,-0.168518,-0.816467,-0.548889,up
133463,2.851563,8.890625,-4.210937,0.013672,-0.138672,-0.042969,0.060364,-0.16864,-0.816528,-0.548828,up
133469,2.773438,8.855469,-4.171875,0.013672,-0.138672,-0.042969,0.059631,-0.168701,-0.816589,-0.548828,up
133474,2.773438,8.855469,-4.171875,-0.042969,-0.109375,-0.072266,0.059265,-0.168701,-0.816528,-0.548889,up
133479,2.734375,8.777344,-4.019531,-0.042969,-0.109375,-0.072266,0.058838,-0.168701,-0.816528,-0.549011,up
133485,2.699219,8.699219,-3.945313,-0.042969,-0.109375,-0.072266,0.058472,-0.16864,-0.816467,-0.549133,up
133491,2.699219,8.667969,-3.945313,-0.136719,-0.099609,-0.087891,0.058472,-0.16864,-0.816467,-0.549133,up
133496,2.660156,8.546875,-3.90625,-0.119141,-0.09375,-0.087891,0.058472,-0.16864,-0.816467,-0.549133,up
133502,2.660156,8.472656,-3.789063,-0.111328,-0.103516,-0.082031,0.058472,-0.16864,-0.816467,-0.549133,up
133507,2.621094,8.46875,-3.753906,-0.060547,-0.119141,-0.083984,0.058472,-0.16864,-0.816467,-0.549133,up
133512,2.621094,8.433594,-3.714844,-0.060547,-0.119141,-0.083984,0.056335,-0.168457,-0.815918,-0.550171,up
133518,2.582031,8.429688,-3.675781,-0.048828,-0.119141,-0.082031,0.056335,-0.168457,-0.815918,-0.550171,up
133523,2.582031,8.46875,-3.714844,-0.048828,-0.119141,-0.082031,0.054993,-0.168396,-0.815918,-0.550354,up
133528,2.542969,8.429688,-3.675781,-0.001953,-0.158203,-0.091797,0.054993,-0.168396,-0.815918,-0.550354,up
133533,2.542969,8.46875,-3.714844,-0.001953,-0.158203,-0.091797,0.054016,-0.168396,-0.81604,-0.550293,up
