timestamp,ax,ay,az,gx,gy,gz,qw,qx,qy,qz,label
204539,-8.894531,4.28125,0.800781,0.806641,0.162109,-0.087891,0.342773,-0.416748,0.516907,0.664551,up
204545,-9.085938,4.472656,0.839844,0.806641,0.162109,-0.087891,0.342773,-0.416748,0.516907,0.664551,up
204550,-9.167969,4.511719,0.914062,0.566406,0.146484,-0.089844,0.342773,-0.416748,0.516907,0.664551,up
204555,-9.203125,4.585937,0.992187,0.351563,0.142578,-0.099609,0.342773,-0.416748,0.516907,0.664551,up
204560,-9.203125,4.585937,1.03125,0.101563,0.130859,-0.097656,0.342773,-0.416748,0.516907,0.664551,up
204565,-9.273438,4.585937,1.070313,0.101563,0.130859,-0.097656,0.347168,-0.415833,0.524597,0.656799,up
204571,-9.234375,4.511719,0.992187,-0.390625,0.119141,-0.101563,0.347168,-0.415833,0.524597,0.656799,up
204577,-9.234375,4.433594,1.070313,-0.390625,0.119141,-0.101563,0.346069,-0.417786,0.52301,0.65741,up
204583,-9.207031,4.355469,1.03125,-0.458984,0.083984,-0.078125,0.345581,-0.418396,0.522278,0.657776,up
204588,-9.128906,4.164062,1.070313,-0.458984,0.083984,-0.078125,0.345215,-0.419006,0.521667,0.658142,up
204593,-9.050781,4.164062,0.953125,-0.369141,0.078125,-0.054687,0.345215,-0.419006,0.521667,0.658142,up
204598,-8.933594,4.050781,0.953125,-0.369141,0.078125,-0.054687,0.345215,-0.419006,0.521667,0.658142,up
204603,-8.929688,4.011719,0.914062,-0.179687,0.087891,-0.033203,0.345215,-0.419006,0.521667,0.658142,up
204608,-8.824219,3.9375,0.878906,-0.056641,0.082031,-0.017578,0.345215,-0.419006,0.521667,0.658142,up
204613,-8.824219,3.898438,0.914062,-0.056641,0.082031,-0.017578,0.34375,-0.420898,0.520081,0.658875,up
204619,-8.707031,3.820313,0.914062,-0.056641,0.082031,-0.017578,0.34375,-0.420898,0.520081,0.658875,up
204625,-8.703125,3.859375,0.914062,0.171875,0.125,0.009766,0.343689,-0.421143,0.520691,0.658325,up
204631,-8.664063,3.859375,0.992187,0.171875,0.125,0.009766,0.343689,-0.421143,0.520691,0.658325,up
204636,-8.664063,3.859375,0.992187,0.185547,0.144531,0.035156,0.343689,-0.421143,0.520691,0.658325,up
204641,-8.664063,3.859375,1.03125,0.185547,0.144531,0.035156,0.343628,-0.421265,0.522095,0.657166,up
204647,-8.667969,3.859375,1.070313,0.146484,0.160156,0.035156,0.343628,-0.421265,0.522095,0.657166,up
204652,-8.667969,3.859375,1.105469,0.089844,0.166016,0.054687,0.343384,-0.421448,0.52301,0.656494,up
204657,-8.667969,3.859375,1.105469,0.078125,0.164062,0.058594,0.342957,-0.421692,0.523743,0.655945,up
204662,-8.820313,3.972656,1.144531,0.078125,0.164062,0.058594,0.342712,-0.421814,0.524109,0.655701,up
204667,-8.851563,4.011719,1.105469,0.078125,0.164062,0.058594,0.342468,-0.421936,0.524353,0.655518,up
204672,-8.851563,4.050781,1.144531,0.078125,0.164062,0.058594,0.342285,-0.421997,0.524719,0.655334,up
204677,-8.855469,4.089844,1.183594,0.083984,0.113281,0.068359,0.342041,-0.422058,0.525024,0.65509,up
204683,-8.851563,4.050781,1.183594,0.083984,0.113281,0.068359,0.341858,-0.422119,0.525391,0.654907,up
204688,-8.824219,3.972656,1.222656,0.083984,0.113281,0.068359,0.341736,-0.422119,0.525635,0.654785,up
204693,-8.824219,3.972656,1.222656,0.09375,0.064453,0.072266,0.341614,-0.422119,0.52594,0.654602,up
204699,-8.785156,3.972656,1.183594,0.09375,0.064453,0.072266,0.341614,-0.422119,0.52594,0.654602,up
204704,-8.707031,3.9375,1.183594,0.09375,0.064453,0.072266,0.341431,-0.421936,0.526489,0.654358,up
204709,-8.664063,3.898438,1.144531,0.044922,0.025391,0.054687,0.341431,-0.421936,0.526489,0.654358,up
204714,-8.585938,3.9375,1.105469,0.015625,0.009766,0.050781,0.341431,-0.421936,0.526489,0.654358,up
204720,-8.546875,3.898438,1.070313,0.0,-0.001953,0.042969,0.341431,-0.421936,0.526489,0.654358,up
204725,-8.507813,3.820313,1.070313,-0.011719,0.0,0.037109,0.341431,-0.421936,0.526489,0.654358,up
204730,-8.46875,3.859375,1.03125,-0.011719,0.0,0.037109,0.340942,-0.421753,0.5271,0.654236,up
204735,-8.550781,3.859375,0.992187,-0.033203,0.021484,0.03125,0.340942,-0.421753,0.5271,0.654236,up
204741,-8.507813,3.898438,0.953125,-0.033203,0.021484,0.03125,0.340576,-0.421936,0.527222,0.654297,up
204746,-8.511719,3.9375,0.953125,-0.033203,0.021484,0.03125,0.340576,-0.421936,0.527222,0.654297,up
204751,-8.46875,3.859375,0.992187,0.011719,0.080078,0.0,0.340576,-0.421936,0.527222,0.654297,up
204756,-8.441406,3.898438,0.914062,0.011719,0.080078,0.0,0.340332,-0.422119,0.527405,0.654114,up
204761,-8.4375,3.9375,0.953125,0.011719,0.080078,0.0,0.34021,-0.422302,0.527527,0.653931,up
204767,-8.441406,3.898438,0.953125,0.080078,0.138672,-0.003906,0.34021,-0.422302,0.527527,0.653931,up
204772,-8.511719,3.972656,0.992187,0.080078,0.138672,-0.003906,0.339905,-0.422852,0.52832,0.653137,up
204777,-8.511719,3.972656,1.03125,0.080078,0.138672,-0.003906,0.339783,-0.423035,0.528625,0.652832,up
204782,-8.628906,3.972656,1.03125,0.119141,0.154297,0.001953,0.339783,-0.423035,0.528625,0.652832,up
204787,-8.625,4.011719,1.105469,0.121094,0.150391,-0.005859,0.339661,-0.423218,0.528992,0.652405,up
204792,-8.667969,4.050781,1.105469,0.121094,0.150391,-0.005859,0.339478,-0.423584,0.529663,0.651733,up
204797,-8.667969,4.089844,1.03125,0.121094,0.150391,-0.005859,0.339417,-0.423706,0.530029,0.651428,up
204802,-8.703125,4.128906,1.105469,0.128906,0.130859,0.009766,0.339417,-0.423706,0.530029,0.651428,up
204807,-8.746094,4.164062,1.070313,0.128906,0.130859,0.009766,0.339355,-0.423828,0.530457,0.651062,up
204812,-8.746094,4.164062,1.070313,0.128906,0.130859,0.009766,0.339233,-0.42395,0.531128,0.650452,up
204817,-8.820313,4.164062,1.105469,0.128906,0.130859,0.009766,0.339233,-0.42395,0.531128,0.650452,up
204822,-8.855469,4.164062,1.105469,0.132812,0.111328,0.021484,0.33905,-0.424133,0.53186,0.649841,up
204827,-8.890625,4.203125,1.105469,0.119141,0.089844,0.03125,0.33905,-0.424133,0.53186,0.649841,up
204833,-8.890625,4.203125,1.105469,0.119141,0.078125,0.029297,0.338928,-0.424133,0.532532,0.649353,up
204838,-8.933594,4.203125,1.03125,0.111328,0.078125,0.021484,0.338867,-0.424194,0.532837,0.649048,up
204843,-8.933594,4.242187,0.992187,0.103516,0.052734,0.021484,0.338867,-0.424194,0.533142,0.648865,up
204849,-8.785156,4.203125,1.070313,0.103516,0.052734,0.021484,0.338867,-0.424194,0.533386,0.648682,up
204854,-8.742188,4.203125,0.992187,0.089844,0.048828,0.019531,0.338806,-0.424194,0.53363,0.648499,up
204859,-8.78125,4.203125,0.992187,0.068359,0.072266,0.023437,0.338806,-0.424194,0.53363,0.648499,up
204865,-8.703125,4.164062,0.953125,0.068359,0.072266,0.023437,0.338806,-0.424194,0.53363,0.648499,up
204870,-8.707031,4.089844,0.992187,0.068359,0.072266,0.023437,0.338623,-0.424255,0.534241,0.64801,up
204876,-8.667969,4.089844,1.03125,0.044922,0.068359,0.052734,0.338623,-0.424255,0.534241,0.64801,up
204881,-8.625,4.050781,0.992187,0.029297,0.070312,0.0625,0.338623,-0.424255,0.534241,0.64801,up
204886,-8.628906,4.011719,0.992187,0.029297,0.070312,0.0625,0.338135,-0.424316,0.534912,0.647705,up
204892,-8.625,4.050781,0.953125,0.029297,0.074219,0.080078,0.338135,-0.424316,0.534912,0.647705,up
204897,-8.625,4.050781,0.992187,0.021484,0.074219,0.087891,0.337402,-0.424316,0.535583,0.647522,up
204903,-8.585938,4.050781,0.953125,0.021484,0.074219,0.087891,0.337158,-0.424255,0.535828,0.6474,up
204908,-8.585938,4.050781,0.953125,0.0625,0.091797,0.107422,0.336914,-0.424255,0.536194,0.647339,up
204914,-8.628906,3.972656,0.914062,0.0625,0.091797,0.107422,0.33667,-0.424194,0.536499,0.647217,up
204920,-8.628906,4.011719,0.914062,0.0625,0.091797,0.107422,0.336426,-0.424133,0.536926,0.647034,up
204925,-8.628906,4.089844,0.914062,0.130859,0.089844,0.113281,0.336426,-0.424133,0.536926,0.647034,up
204930,-8.667969,4.089844,0.914062,0.136719,0.080078,0.111328,0.336426,-0.424133,0.536926,0.647034,up
204936,-8.667969,4.089844,0.914062,0.150391,0.072266,0.113281,0.335938,-0.423767,0.538147,0.646484,up
204941,-8.707031,4.242187,0.839844,0.150391,0.072266,0.113281,0.335815,-0.423645,0.538635,0.64624,up
204946,-8.746094,4.242187,0.878906,0.175781,0.058594,0.107422,0.335815,-0.423645,0.538635,0.64624,up
204951,-8.707031,4.242187,0.839844,0.158203,0.054687,0.105469,0.335815,-0.423645,0.538635,0.64624,up
204957,-8.746094,4.242187,0.878906,0.160156,0.046875,0.105469,0.335449,-0.422913,0.540405,0.645447,up
204962,-8.746094,4.320312,0.800781,0.160156,0.046875,0.105469,0.335449,-0.422913,0.540405,0.645447,up
204967,-8.746094,4.28125,0.839844,0.103516,0.019531,0.109375,0.335449,-0.422913,0.540405,0.645447,up
204972,-8.742188,4.28125,0.800781,0.103516,0.019531,0.109375,0.335266,-0.422546,0.541138,0.645142,up
204977,-8.664063,4.320312,0.722656,0.103516,0.019531,0.109375,0.335022,-0.42218,0.541687,0.645081,up
204982,-8.664063,4.355469,0.761719,0.103516,0.019531,0.109375,0.335022,-0.42218,0.541687,0.645081,up
204987,-8.628906,4.394531,0.722656,0.03125,0.001953,0.109375,0.334717,-0.421875,0.542053,0.645081,up
204992,-8.546875,4.355469,0.683594,0.03125,0.001953,0.109375,0.334717,-0.421875,0.542053,0.645081,up
204998,-8.546875,4.355469,0.683594,-0.03125,0.015625,0.109375,0.334717,-0.421875,0.542053,0.645081,up
205003,-8.511719,4.394531,0.722656,-0.03125,0.015625,0.109375,0.334045,-0.421509,0.542419,0.645386,up
205008,-8.546875,4.355469,0.683594,-0.03125,0.015625,0.109375,0.33374,-0.421448,0.54248,0.645569,up
205013,-8.546875,4.355469,0.683594,-0.03125,0.015625,0.109375,0.333435,-0.421448,0.54248,0.645691,up
205018,-8.589844,4.355469,0.683594,-0.103516,0.046875,0.113281,0.333069,-0.421448,0.542542,0.645874,up
205024,-8.667969,4.28125,0.722656,-0.103516,0.046875,0.113281,0.332642,-0.421448,0.542542,0.646057,up
205030,-8.667969,4.203125,0.722656,-0.103516,0.046875,0.113281,0.332275,-0.421509,0.542542,0.646179,up
205036,-8.746094,4.128906,0.683594,-0.142578,0.078125,0.117188,0.332275,-0.421509,0.542542,0.646179,up
205041,-8.707031,4.128906,0.683594,-0.132812,0.083984,0.101563,0.332275,-0.421509,0.542542,0.646179,up
205047,-8.742188,4.128906,0.761719,-0.117188,0.083984,0.09375,0.332275,-0.421509,0.542542,0.646179,up
205052,-8.746094,4.203125,0.722656,-0.080078,0.082031,0.083984,0.332275,-0.421509,0.542542,0.646179,up
205057,-8.664063,4.164062,0.683594,-0.005859,0.070312,0.070312,0.332275,-0.421509,0.542542,0.646179,up
205062,-8.664063,4.242187,0.683594,-0.005859,0.070312,0.070312,0.330017,-0.422058,0.542725,0.646851,up
205067,-8.664063,4.242187,0.683594,-0.005859,0.070312,0.070312,0.329712,-0.422058,0.543152,0.646667,up
205072,-8.707031,4.320312,0.683594,-0.005859,0.070312,0.070312,0.329712,-0.422058,0.543152,0.646667,up
205077,-8.703125,4.394531,0.648437,0.183594,0.076172,0.042969,0.329712,-0.422058,0.543152,0.646667,up
205082,-8.707031,4.472656,0.683594,0.183594,0.076172,0.042969,0.32959,-0.421997,0.543823,0.646179,up
205087,-8.703125,4.511719,0.722656,0.183594,0.076172,0.042969,0.32959,-0.421875,0.54425,0.645874,up
205092,-8.746094,4.546875,0.683594,0.207031,0.068359,0.037109,0.32959,-0.421875,0.54425,0.645874,up
205098,-8.742188,4.546875,0.722656,0.199219,0.070312,0.037109,0.32959,-0.421875,0.54425,0.645874,up
205104,-8.667969,4.585937,0.761719,0.199219,0.070312,0.037109,0.329773,-0.421448,0.545959,0.644653,up
205109,-8.664063,4.585937,0.683594,0.111328,0.035156,0.035156,0.329773,-0.421326,0.546265,0.644409,up
205115,-8.664063,4.546875,0.722656,0.068359,0.029297,0.048828,0.329773,-0.421326,0.546265,0.644409,up
205120,-8.625,4.511719,0.761719,0.068359,0.029297,0.048828,0.329651,-0.421204,0.546692,0.644226,up
205125,-8.628906,4.433594,0.761719,-0.03125,0.017578,0.041016,0.329651,-0.421204,0.546692,0.644226,up
205130,-8.589844,4.394531,0.722656,-0.080078,0.017578,0.052734,0.329651,-0.421204,0.546692,0.644226,up
205135,-8.585938,4.394531,0.683594,-0.105469,0.011719,0.046875,0.329651,-0.421204,0.546692,0.644226,up
205140,-8.585938,4.355469,0.722656,-0.123047,0.017578,0.050781,0.329651,-0.421204,0.546692,0.644226,up
205146,-8.625,4.320312,0.722656,-0.121094,0.013672,0.054687,0.329651,-0.421204,0.546692,0.644226,up
205151,-8.628906,4.320312,0.683594,-0.111328,-0.001953,0.048828,0.329651,-0.421204,0.546692,0.644226,up
205156,-8.585938,4.28125,0.683594,-0.095703,0.007813,0.050781,0.329651,-0.421204,0.546692,0.644226,up
205161,-8.628906,4.320312,0.609375,-0.070312,0.0,0.048828,0.329651,-0.421204,0.546692,0.644226,up
205166,-8.589844,4.320312,0.648437,-0.033203,0.003906,0.052734,0.329651,-0.421204,0.546692,0.644226,up
205172,-8.625,4.28125,0.648437,-0.033203,0.003906,0.052734,0.32782,-0.421387,0.546204,0.645508,up
205177,-8.550781,4.28125,0.683594,-0.033203,0.003906,0.052734,0.327698,-0.421143,0.546448,0.645447,up
205182,-8.628906,4.320312,0.648437,-0.033203,0.003906,0.052734,0.327698,-0.421143,0.546448,0.645447,up
205188,-8.589844,4.355469,0.648437,0.107422,0.005859,0.066406,0.327698,-0.421143,0.546448,0.645447,up
205193,-8.628906,4.355469,0.648437,0.107422,0.005859,0.066406,0.327698,-0.420593,0.547302,0.645142,up
205198,-8.585938,4.394531,0.609375,0.154297,0.001953,0.070312,0.327698,-0.420593,0.547302,0.645142,up
205203,-8.585938,4.394531,0.609375,0.164062,-0.005859,0.074219,0.327698,-0.420349,0.547607,0.644958,up
205208,-8.585938,4.433594,0.609375,0.158203,0.001953,0.072266,0.327759,-0.420166,0.547974,0.644775,up
205213,-8.589844,4.472656,0.609375,0.158203,0.001953,0.072266,0.32782,-0.419678,0.548645,0.64447,up
205218,-8.589844,4.472656,0.609375,0.142578,-0.001953,0.083984,0.32782,-0.419678,0.548645,0.64447,up
205223,-8.550781,4.433594,0.609375,0.125,-0.007813,0.089844,0.327881,-0.419434,0.549011,0.644348,up
205228,-8.550781,4.394531,0.609375,0.125,-0.007813,0.089844,0.32782,-0.419006,0.549561,0.644165,up
205233,-8.550781,4.433594,0.648437,0.091797,-0.001953,0.089844,0.32782,-0.419006,0.549561,0.644165,up
205238,-8.550781,4.394531,0.648437,0.091797,-0.001953,0.089844,0.327759,-0.418762,0.549866,0.644104,up
205243,-8.507813,4.394531,0.648437,0.083984,-0.003906,0.085937,0.327759,-0.418762,0.549866,0.644104,up
205249,-8.511719,4.355469,0.683594,0.083984,-0.003906,0.085937,0.327576,-0.418152,0.550537,0.643982,up
205254,-8.511719,4.355469,0.683594,0.064453,-0.019531,0.095703,0.327515,-0.417908,0.55072,0.643982,up
205259,-8.511719,4.355469,0.648437,0.064453,-0.019531,0.095703,0.327454,-0.417725,0.550964,0.643982,up
205264,-8.511719,4.355469,0.609375,0.064453,-0.019531,0.095703,0.327332,-0.41748,0.551147,0.644043,up
205270,-8.507813,4.394531,0.609375,0.064453,-0.019531,0.095703,0.327271,-0.417297,0.551331,0.644043,up
205275,-8.550781,4.394531,0.609375,0.070312,-0.037109,0.113281,0.327209,-0.417053,0.551514,0.644104,up
205281,-8.46875,4.433594,0.648437,0.068359,-0.054687,0.109375,0.327209,-0.417053,0.551514,0.644104,up
205288,-8.472656,4.472656,0.683594,0.068359,-0.054687,0.109375,0.327209,-0.417053,0.551514,0.644104,up
205293,-8.511719,4.472656,0.683594,0.066406,-0.083984,0.123047,0.327209,-0.417053,0.551514,0.644104,up
205298,-8.507813,4.472656,0.722656,0.066406,-0.083984,0.123047,0.327026,-0.415771,0.552307,0.644348,up
205304,-8.589844,4.433594,0.722656,0.066406,-0.083984,0.123047,0.327026,-0.414978,0.552612,0.644592,up
205309,-8.585938,4.433594,0.800781,0.056641,-0.132812,0.144531,0.326965,-0.41449,0.552795,0.644775,up
205315,-8.550781,4.472656,0.722656,0.046875,-0.154297,0.144531,0.327026,-0.414001,0.552917,0.644958,up
205322,-8.625,4.511719,0.722656,0.046875,-0.154297,0.144531,0.327026,-0.414001,0.552917,0.644958,up
205327,-8.625,4.546875,0.761719,0.025391,-0.179687,0.142578,0.327026,-0.414001,0.552917,0.644958,up
205333,-8.585938,4.472656,0.761719,-0.015625,-0.216797,0.123047,0.327026,-0.414001,0.552917,0.644958,up
205338,-8.667969,4.433594,0.761719,-0.015625,-0.216797,0.123047,0.327209,-0.411499,0.552917,0.646423,up
205343,-8.589844,4.433594,0.761719,-0.046875,-0.232422,0.109375,0.327209,-0.411499,0.552917,0.646423,up
205348,-8.585938,4.472656,0.722656,-0.046875,-0.232422,0.109375,0.327332,-0.41095,0.552795,0.646851,up
205353,-8.511719,4.433594,0.722656,-0.060547,-0.248047,0.09375,0.327515,-0.410034,0.552429,0.647644,up
205359,-8.546875,4.433594,0.722656,-0.060547,-0.248047,0.09375,0.327637,-0.409607,0.552124,0.648071,up
205364,-8.546875,4.433594,0.761719,-0.115234,-0.259766,0.044922,0.32782,-0.409119,0.551819,0.64856,up
205369,-8.546875,4.433594,0.761719,-0.115234,-0.259766,0.044922,0.328003,-0.408752,0.551392,0.649048,up
205374,-8.546875,4.433594,0.761719,-0.115234,-0.259766,0.044922,0.328125,-0.408447,0.551025,0.649536,up
205379,-8.507813,4.433594,0.800781,-0.1875,-0.267578,-0.001953,0.328308,-0.408142,0.550415,0.650146,up
205385,-8.546875,4.433594,0.761719,-0.1875,-0.267578,-0.001953,0.328491,-0.407837,0.549927,0.650635,up
205390,-8.589844,4.355469,0.800781,-0.1875,-0.263672,-0.035156,0.328674,-0.407593,0.549438,0.651123,up
205395,-8.625,4.433594,0.800781,-0.1875,-0.263672,-0.035156,0.328918,-0.40741,0.548889,0.651611,up
205400,-8.667969,4.472656,0.800781,-0.185547,-0.255859,-0.052734,0.328918,-0.40741,0.548889,0.651611,up
205405,-8.703125,4.511719,0.839844,-0.175781,-0.261719,-0.060547,0.328918,-0.40741,0.548889,0.651611,up
205410,-8.707031,4.625,0.878906,-0.175781,-0.261719,-0.060547,0.328918,-0.40741,0.548889,0.651611,up
205415,-8.707031,4.664062,0.878906,-0.15625,-0.285156,-0.072266,0.328918,-0.40741,0.548889,0.651611,up
205421,-8.703125,4.703125,0.914062,-0.152344,-0.291016,-0.083984,0.328918,-0.40741,0.548889,0.651611,up
205426,-8.742188,4.738281,1.03125,-0.150391,-0.298828,-0.087891,0.328918,-0.40741,0.548889,0.651611,up
205432,-8.78125,4.777344,0.953125,-0.148437,-0.310547,-0.099609,0.328918,-0.40741,0.548889,0.651611,up
205437,-8.746094,4.816406,0.914062,-0.158203,-0.314453,-0.109375,0.328918,-0.40741,0.548889,0.651611,up
205442,-8.785156,4.816406,0.953125,-0.183594,-0.322266,-0.115234,0.328918,-0.40741,0.548889,0.651611,up
205447,-8.707031,4.816406,0.953125,-0.183594,-0.322266,-0.115234,0.328918,-0.40741,0.548889,0.651611,up
205453,-8.664063,4.738281,0.953125,-0.25,-0.345703,-0.126953,0.328918,-0.40741,0.548889,0.651611,up
205458,-8.664063,4.777344,0.914062,-0.353516,-0.353516,-0.138672,0.328918,-0.40741,0.548889,0.651611,up
205464,-8.585938,4.738281,0.953125,-0.353516,-0.353516,-0.138672,0.333923,-0.40448,0.539246,0.658875,up
205470,-8.664063,4.703125,0.992187,-0.353516,-0.353516,-0.138672,0.334229,-0.404419,0.537964,0.659851,up
205475,-8.703125,4.664062,0.992187,-0.523437,-0.353516,-0.148437,0.334412,-0.404419,0.536804,0.660645,up
205480,-8.742188,4.585937,1.03125,-0.580078,-0.341797,-0.160156,0.334412,-0.404419,0.536804,0.660645,up
205486,-8.824219,4.546875,1.070313,-0.580078,-0.341797,-0.160156,0.334656,-0.404602,0.534058,0.662598,up
205492,-8.855469,4.546875,1.144531,-0.623047,-0.355469,-0.195312,0.334656,-0.404602,0.534058,0.662598,up
205497,-8.894531,4.546875,1.222656,-0.630859,-0.363281,-0.201172,0.334656,-0.404602,0.534058,0.662598,up
205502,-8.933594,4.511719,1.261719,-0.630859,-0.363281,-0.201172,0.334656,-0.404602,0.534058,0.662598,up
205507,-8.933594,4.511719,1.296875,-0.623047,-0.369141,-0.240234,0.334656,-0.404602,0.534058,0.662598,up
205512,-8.890625,4.511719,1.335938,-0.623047,-0.390625,-0.255859,0.334656,-0.404602,0.534058,0.662598,up
205517,-8.851563,4.585937,1.414063,-0.617187,-0.412109,-0.277344,0.334656,-0.404602,0.534058,0.662598,up
205522,-8.851563,4.585937,1.453125,-0.617187,-0.412109,-0.277344,0.334656,-0.404602,0.534058,0.662598,up
205527,-8.851563,4.625,1.453125,-0.617187,-0.412109,-0.277344,0.336792,-0.406067,0.521362,0.670715,up
205532,-8.824219,4.625,1.488281,-0.585937,-0.451172,-0.283203,0.336792,-0.406067,0.521362,0.670715,up
205538,-8.742188,4.625,1.488281,-0.607422,-0.466797,-0.289063,0.338196,-0.406311,0.516296,0.673767,up
205543,-8.746094,4.585937,1.566406,-0.607422,-0.466797,-0.289063,0.338196,-0.406311,0.516296,0.673767,up
205548,-8.746094,4.585937,1.566406,-0.734375,-0.505859,-0.28125,0.338196,-0.406311,0.516296,0.673767,up
205553,-8.667969,4.511719,1.527344,-0.734375,-0.505859,-0.28125,0.338989,-0.406494,0.512573,0.676086,up
205559,-8.585938,4.472656,1.566406,-0.734375,-0.505859,-0.28125,0.3396,-0.406799,0.508423,0.678711,up
205564,-8.546875,4.394531,1.566406,-0.904297,-0.515625,-0.267578,0.3396,-0.406799,0.508423,0.678711,up
205569,-8.507813,4.242187,1.644531,-0.955078,-0.523437,-0.267578,0.339844,-0.407043,0.506104,0.680237,up
205574,-8.507813,4.242187,1.644531,-0.980469,-0.535156,-0.244141,0.340088,-0.407471,0.501648,0.683105,up
205579,-8.472656,4.203125,1.796875,-0.980469,-0.548828,-0.230469,0.340088,-0.407471,0.501648,0.683105,up
205584,-8.507813,4.050781,1.835938,-0.980469,-0.548828,-0.230469,0.34021,-0.407776,0.496643,0.686523,up
205589,-8.546875,3.9375,1.910156,-0.980469,-0.548828,-0.230469,0.34021,-0.407776,0.496643,0.686523,up
205594,-8.585938,3.898438,1.988281,-0.980469,-0.548828,-0.230469,0.34021,-0.407898,0.49231,0.689514,up
205600,-8.546875,3.820313,1.988281,-0.822266,-0.550781,-0.126953,0.340271,-0.407837,0.490051,0.691162,up
205605,-8.511719,3.667969,2.101563,-0.822266,-0.550781,-0.126953,0.340332,-0.407654,0.488098,0.692627,up
205611,-8.511719,3.707031,2.101563,-0.822266,-0.550781,-0.126953,0.340454,-0.407349,0.486572,0.693848,up
205616,-8.511719,3.742188,2.140625,-0.519531,-0.560547,-0.056641,0.340637,-0.406921,0.485046,0.695068,up
205622,-8.472656,3.78125,2.140625,-0.382813,-0.544922,-0.044922,0.340637,-0.406921,0.485046,0.695068,up
205628,-8.398438,3.820313,2.140625,-0.382813,-0.544922,-0.044922,0.341797,-0.40509,0.48175,0.697815,up
205633,-8.402344,3.859375,2.140625,-0.382813,-0.544922,-0.044922,0.341797,-0.40509,0.48175,0.697815,up
205638,-8.363281,3.859375,2.140625,-0.068359,-0.458984,-0.064453,0.341797,-0.40509,0.48175,0.697815,up
205643,-8.320313,3.972656,2.101563,-0.068359,-0.458984,-0.064453,0.342896,-0.403748,0.480408,0.699036,up
205648,-8.324219,4.011719,2.066406,-0.068359,-0.458984,-0.064453,0.343506,-0.403076,0.479858,0.699463,up
205654,-8.242188,4.011719,2.066406,-0.03125,-0.380859,-0.066406,0.343506,-0.403076,0.479858,0.699463,up
205659,-8.285156,4.011719,2.101563,-0.050781,-0.337891,-0.060547,0.344971,-0.401428,0.478516,0.700623,up
205665,-8.207031,4.011719,2.101563,-0.050781,-0.337891,-0.060547,0.345276,-0.401123,0.478027,0.700989,up
205670,-8.242188,3.972656,2.066406,-0.171875,-0.212891,-0.046875,0.345276,-0.401123,0.478027,0.700989,up
205675,-8.242188,3.972656,2.066406,-0.214844,-0.173828,-0.046875,0.345642,-0.400757,0.47699,0.701721,up
205680,-8.28125,4.011719,2.066406,-0.214844,-0.173828,-0.046875,0.345642,-0.400696,0.476318,0.702209,up
205686,-8.28125,3.9375,2.140625,-0.214844,-0.173828,-0.046875,0.345581,-0.400696,0.47583,0.702576,up
205691,-8.285156,3.898438,2.179688,-0.244141,-0.095703,-0.027344,0.345581,-0.400696,0.47583,0.702576,up
205696,-8.285156,3.898438,2.179688,-0.242187,-0.078125,-0.023437,0.345398,-0.400818,0.474731,0.703308,up
205701,-8.28125,3.820313,2.179688,-0.242187,-0.078125,-0.023437,0.345398,-0.400818,0.474731,0.703308,up
205706,-8.28125,3.820313,2.179688,-0.1875,-0.054687,-0.007813,0.345276,-0.400879,0.474243,0.703674,up
205712,-8.359375,3.859375,2.292969,-0.1875,-0.054687,-0.007813,0.345276,-0.400879,0.474243,0.703674,up
205717,-8.324219,3.898438,2.292969,-0.097656,-0.035156,-0.019531,0.345276,-0.400879,0.474243,0.703674,up
205723,-8.398438,3.898438,2.292969,-0.054687,-0.023437,-0.019531,0.345276,-0.400879,0.474243,0.703674,up
205729,-8.359375,3.898438,2.332031,-0.009766,-0.017578,-0.029297,0.345093,-0.401062,0.472961,0.704529,up
205734,-8.402344,3.9375,2.292969,0.041016,0.003906,-0.037109,0.345093,-0.401062,0.472961,0.704529,up
205739,-8.363281,4.011719,2.292969,0.041016,0.003906,-0.037109,0.345276,-0.401062,0.473022,0.704407,up
205744,-8.324219,4.050781,2.292969,0.070312,0.0,-0.023437,0.345276,-0.401062,0.473022,0.704407,up
205749,-8.320313,4.011719,2.332031,0.060547,0.003906,-0.023437,0.345398,-0.401001,0.473083,0.704346,up
205754,-8.320313,4.011719,2.257813,0.060547,0.003906,-0.023437,0.345581,-0.40094,0.473267,0.704163,up
205759,-8.324219,4.050781,2.292969,0.060547,0.003906,-0.023437,0.345581,-0.400879,0.473389,0.704102,up
205764,-8.324219,4.050781,2.257813,0.021484,-0.023437,0.013672,0.345581,-0.400879,0.473389,0.704102,up
205769,-8.285156,4.011719,2.292969,0.021484,-0.023437,0.013672,0.345642,-0.400757,0.473389,0.704102,up
205774,-8.320313,4.011719,2.21875,0.021484,-0.023437,0.013672,0.345642,-0.400574,0.473389,0.704224,up
205779,-8.320313,4.011719,2.21875,0.021484,-0.023437,0.013672,0.345642,-0.400574,0.473389,0.704224,up
205784,-8.285156,4.011719,2.257813,-0.03125,-0.068359,0.041016,0.345581,-0.400269,0.473267,0.704529,up
205789,-8.320313,4.011719,2.257813,-0.03125,-0.068359,0.041016,0.345581,-0.400024,0.473206,0.704712,up
205794,-8.320313,3.972656,2.257813,-0.03125,-0.068359,0.041016,0.345581,-0.399841,0.473083,0.704895,up
205799,-8.320313,3.9375,2.257813,-0.03125,-0.068359,0.041016,0.345581,-0.399841,0.473083,0.704895,up
205804,-8.324219,3.898438,2.257813,-0.054687,-0.126953,0.054687,0.34552,-0.399292,0.472839,0.705444,up
205809,-8.28125,3.859375,2.257813,-0.054687,-0.126953,0.054687,0.34552,-0.399048,0.472656,0.705688,up
205814,-8.285156,3.820313,2.21875,-0.054687,-0.126953,0.054687,0.34552,-0.398743,0.472412,0.705994,up
205819,-8.285156,3.820313,2.257813,-0.054687,-0.126953,0.054687,0.34552,-0.398743,0.472412,0.705994,up
205824,-8.242188,3.742188,2.21875,-0.074219,-0.144531,0.03125,0.34552,-0.398743,0.472412,0.705994,up
205829,-8.246094,3.78125,2.179688,-0.074219,-0.144531,0.03125,0.345703,-0.398071,0.471741,0.706787,up
205834,-8.242188,3.742188,2.21875,-0.074219,-0.144531,0.03125,0.345764,-0.397888,0.471497,0.70697,up
205839,-8.246094,3.742188,2.179688,-0.074219,-0.144531,0.03125,0.345764,-0.397888,0.471497,0.70697,up
205844,-8.246094,3.78125,2.179688,-0.082031,-0.125,-0.029297,0.345764,-0.397888,0.471497,0.70697,up
205849,-8.28125,3.820313,2.179688,-0.080078,-0.109375,-0.058594,0.345947,-0.397644,0.470947,0.707397,up
205854,-8.285156,3.820313,2.21875,-0.080078,-0.109375,-0.058594,0.346252,-0.397522,0.470337,0.707703,up
205859,-8.285156,3.898438,2.179688,-0.080078,-0.109375,-0.058594,0.346252,-0.397522,0.470337,0.707703,up
205864,-8.320313,3.9375,2.21875,-0.080078,-0.109375,-0.058594,0.346436,-0.397461,0.469971,0.707886,up
205869,-8.320313,3.9375,2.21875,-0.140625,-0.109375,-0.107422,0.346619,-0.397461,0.469604,0.708069,up
205875,-8.320313,3.972656,2.257813,-0.140625,-0.109375,-0.107422,0.346924,-0.397522,0.46875,0.708435,up
205880,-8.441406,4.050781,2.332031,-0.140625,-0.109375,-0.107422,0.347107,-0.397522,0.468201,0.708679,up
205886,-8.546875,4.050781,2.484375,-0.140625,-0.109375,-0.107422,0.34729,-0.397522,0.46759,0.709045,up
205891,-8.585938,4.011719,2.523438,-0.214844,-0.220703,-0.052734,0.34729,-0.397522,0.46759,0.709045,up
205897,-8.585938,3.972656,2.523438,-0.248047,-0.251953,-0.033203,0.34729,-0.397522,0.46759,0.709045,up
205902,-8.625,3.78125,2.601563,-0.248047,-0.251953,-0.033203,0.347595,-0.396973,0.465698,0.710449,up
205907,-8.667969,3.628906,2.601563,-0.285156,-0.330078,0.015625,0.347595,-0.396973,0.465698,0.710449,up
205912,-8.628906,3.476563,2.601563,-0.294922,-0.359375,0.03125,0.347595,-0.396973,0.465698,0.710449,up
205917,-8.628906,3.246094,2.601563,-0.302734,-0.396484,0.025391,0.347595,-0.396973,0.465698,0.710449,up
205923,-8.546875,3.054688,2.640625,-0.251953,-0.439453,0.005859,0.347595,-0.396973,0.465698,0.710449,up
205929,-8.585938,2.976563,2.640625,-0.132812,-0.519531,-0.078125,0.347595,-0.396973,0.465698,0.710449,up
205934,-8.511719,2.941406,2.640625,-0.132812,-0.519531,-0.078125,0.348755,-0.39386,0.460876,0.714722,up
205939,-8.585938,3.015625,2.714844,-0.082031,-0.535156,-0.142578,0.350342,-0.392395,0.459412,0.715698,up
205944,-8.664063,3.207031,2.675781,-0.082031,-0.535156,-0.142578,0.350342,-0.392395,0.459412,0.715698,up
205949,-8.667969,3.324219,2.675781,0.058594,-0.556641,-0.3125,0.352844,-0.39093,0.458008,0.716187,up
205954,-8.703125,3.820313,2.675781,0.058594,-0.556641,-0.3125,0.352844,-0.39093,0.458008,0.716187,up
205960,-8.742188,4.050781,2.714844,0.154297,-0.623047,-0.576172,0.352844,-0.39093,0.458008,0.716187,up
205965,-8.855469,4.320312,2.714844,0.154297,-0.623047,-0.576172,0.358337,-0.388977,0.455505,0.716125,up
205970,-8.894531,4.625,2.753906,0.154297,-0.623047,-0.576172,0.360352,-0.388489,0.454285,0.716125,up
205975,-8.890625,4.664062,2.675781,0.154297,-0.623047,-0.576172,0.362061,-0.388062,0.453003,0.716309,up
205981,-8.929688,4.511719,2.792969,0.154297,-0.623047,-0.576172,0.364075,-0.387634,0.450928,0.716858,up
205986,-8.933594,4.28125,2.945313,-0.623047,-0.908203,-0.640625,0.364075,-0.387634,0.450928,0.716858,up
205991,-8.855469,3.972656,3.0625,-0.623047,-0.908203,-0.640625,0.367004,-0.386963,0.446045,0.71875,up
205997,-8.851563,2.902344,2.984375,-0.623047,-0.908203,-0.640625,0.368225,-0.38678,0.442688,0.720276,up
206003,-8.929688,2.171875,3.175781,-1.275391,-1.054688,-0.595703,0.368225,-0.38678,0.442688,0.720276,up
206009,-8.894531,0.949219,3.75,-1.365234,-1.167969,-0.648437,0.368225,-0.38678,0.442688,0.720276,up
206014,-8.933594,0.792969,4.054687,-1.357422,-1.308594,-0.779297,0.368225,-0.38678,0.442688,0.720276,up
206019,-9.128906,0.679687,4.441406,-1.242188,-1.451172,-0.966797,0.375916,-0.385437,0.421692,0.729614,up
206024,-9.316406,0.601562,4.59375,-1.242188,-1.451172,-0.966797,0.375916,-0.385437,0.421692,0.729614,up
206029,-9.550781,1.023438,4.363281,-1.242188,-1.451172,-0.966797,0.37915,-0.384888,0.416931,0.730957,up
206034,-9.816406,1.714844,4.210937,-1.242188,-1.451172,-0.966797,0.383484,-0.384277,0.412048,0.73175,up
206040,-9.855469,2.441406,4.25,-0.373047,-1.867188,-2.154297,0.394226,-0.382568,0.403137,0.731934,up
206045,-9.855469,4.011719,4.054687,-0.373047,-1.867188,-2.154297,0.400391,-0.38147,0.398804,0.731506,up
206050,-9.816406,4.320312,3.941406,-0.003906,-2.109375,-2.712891,0.407959,-0.380188,0.393677,0.730774,up
206055,-9.699219,4.28125,3.828125,-0.066406,-2.181641,-2.763672,0.407959,-0.380188,0.393677,0.730774,up
206060,-9.511719,4.011719,3.941406,-0.066406,-2.181641,-2.763672,0.414429,-0.379089,0.389221,0.730103,up
206065,-9.511719,4.011719,3.941406,-0.279297,-2.253906,-2.757813,0.421631,-0.377869,0.383789,0.729492,up
206071,-9.46875,3.285156,4.132812,-0.513672,-2.314453,-2.753906,0.434875,-0.375793,0.371826,0.728943,up
206077,-9.234375,1.292969,4.9375,-0.513672,-2.314453,-2.753906,0.434875,-0.375793,0.371826,0.728943,up
206082,-9.167969,0.871094,5.628906,-0.513672,-2.314453,-2.753906,0.434875,-0.375793,0.371826,0.728943,up
206088,-8.96875,0.71875,5.742187,-1.765625,-2.566406,-2.970703,0.434875,-0.375793,0.371826,0.728943,up
206093,-8.851563,1.023438,5.4375,-1.970703,-2.513672,-3.117188,0.434875,-0.375793,0.371826,0.728943,up
206098,-8.320313,2.59375,4.898437,-1.970703,-2.513672,-3.117188,0.465759,-0.374573,0.32959,0.730835,up
206103,-8.128906,3.09375,4.898437,-2.300781,-2.613281,-3.246094,0.465759,-0.374573,0.32959,0.730835,up
206108,-7.78125,3.550781,4.667969,-2.392578,-2.638672,-3.246094,0.465759,-0.374573,0.32959,0.730835,up
206113,-7.664062,3.742188,4.476562,-2.367188,-2.609375,-3.230469,0.465759,-0.374573,0.32959,0.730835,up
206118,-7.210937,4.203125,4.054687,-2.367188,-2.609375,-3.230469,0.488647,-0.376587,0.287964,0.732422,up
206124,-7.210937,4.203125,4.054687,-2.376953,-2.466797,-2.966797,0.493713,-0.377075,0.277832,0.732727,up
206129,-6.476562,3.820313,4.019531,-2.472656,-2.402344,-2.738281,0.493713,-0.377075,0.277832,0.732727,up
206135,-6.367187,2.480469,4.824219,-2.472656,-2.402344,-2.738281,0.49823,-0.377502,0.267822,0.733154,up
206140,-6.675781,1.40625,5.167969,-2.591797,-1.724609,-2.035156,0.49823,-0.377502,0.267822,0.733154,up
206145,-6.828125,0.566406,5.589844,-2.591797,-1.724609,-2.035156,0.508545,-0.380066,0.238098,0.734985,up
206150,-6.941406,-1.007813,5.820312,-2.591797,-1.724609,-2.035156,0.511902,-0.383789,0.221497,0.735962,up
206155,-7.171875,-1.273438,5.894531,-2.591797,-1.724609,-2.035156,0.511902,-0.383789,0.221497,0.735962,up
206160,-7.441406,-1.042969,6.046875,-2.957031,-0.720703,-1.503906,0.511902,-0.383789,0.221497,0.735962,up
206165,-7.664062,-0.929687,6.46875,-2.957031,-0.720703,-1.503906,0.513367,-0.393066,0.197693,0.736755,up
206170,-7.898437,-0.738281,6.816406,-2.957031,-0.720703,-1.503906,0.513428,-0.395935,0.191345,0.736877,up
206175,-8.546875,0.21875,7.234375,-2.957031,-0.720703,-1.503906,0.51355,-0.399109,0.18512,0.736694,up
206180,-8.96875,0.679687,7.390625,-2.957031,-0.720703,-1.503906,0.51355,-0.399109,0.18512,0.736694,up
206185,-9.433594,0.679687,7.617187,-1.611328,0.027344,-1.021484,0.513977,-0.404053,0.177429,0.735596,up
206190,-9.929688,1.101563,8.003906,-1.611328,0.027344,-1.021484,0.514465,-0.405945,0.175415,0.73468,up
206195,-10.234375,1.40625,8.039063,-1.611328,0.027344,-1.021484,0.514465,-0.405945,0.175415,0.73468,up
206200,-10.234375,1.40625,8.039063,-0.222656,0.503906,-0.552734,0.515015,-0.407532,0.174561,0.733643,up
206205,-10.65625,1.484375,8.078125,0.013672,0.642578,-0.353516,0.515015,-0.407532,0.174561,0.733643,up
206210,-12.652344,1.023438,8.769531,0.013672,0.642578,-0.353516,0.515686,-0.410217,0.175415,0.731445,up
206215,-13.257813,0.71875,9.226563,0.152344,0.785156,0.160156,0.514648,-0.412476,0.178345,0.730164,up
206220,-13.914063,0.601562,9.726563,0.072266,1.033203,0.726562,0.514648,-0.412476,0.178345,0.730164,up
206225,-15.101563,0.601562,10.570313,0.072266,1.033203,0.726562,0.51123,-0.415527,0.182861,0.729736,up
206230,-15.597656,0.601562,10.570313,0.072266,1.033203,0.726562,0.508057,-0.418213,0.18634,0.729553,up
206235,-16.09375,1.023438,10.222656,0.072266,1.033203,0.726562,0.508057,-0.418213,0.18634,0.729553,up
206240,-16.980469,1.597656,9.839844,0.041016,2.609375,1.820313,0.499146,-0.425598,0.197083,0.728638,up
206245,-19.894531,2.863281,9.609375,0.041016,2.609375,1.820313,0.499146,-0.425598,0.197083,0.728638,up
206250,-21.304687,3.628906,9.574219,1.445313,5.462891,4.105469,0.492126,-0.430786,0.206909,0.7276,up
206255,-22.835937,5.007812,9.035156,1.445313,5.462891,4.105469,0.484497,-0.436096,0.218384,0.726257,up
206260,-24.75,6.695312,8.078125,1.445313,5.462891,4.105469,0.462708,-0.449707,0.253479,0.720703,up
206265,-29.777344,11.636719,5.550781,1.445313,5.462891,4.105469,0.462708,-0.449707,0.253479,0.720703,up
206270,-32.414062,14.203125,4.09375,4.78125,11.847656,9.560547,0.445618,-0.458862,0.281067,0.715454,up
206275,-34.828125,17.304687,1.757813,4.78125,11.847656,9.560547,0.427368,-0.467224,0.310059,0.709229,up
206280,-37.085937,21.402344,-1.421875,4.78125,11.847656,9.560547,0.405334,-0.474976,0.344299,0.701111,up
206285,-37.085937,21.402344,-1.421875,6.810547,13.697266,13.064453,0.380859,-0.480713,0.381226,0.691772,up
206290,-41.1875,30.0625,-7.359375,7.458984,13.480469,14.902344,0.352112,-0.483398,0.422241,0.681213,up
206295,-44.0625,36.648437,-10.15625,7.458984,13.480469,14.902344,0.320496,-0.481506,0.464722,0.67041,up
206301,-44.867187,37.644531,-10.003906,7.458984,13.480469,14.902344,0.248474,-0.46228,0.550537,0.649231,up
206306,-44.75,36.113281,-10.5,6.378906,10.257813,20.853516,0.203186,-0.44397,0.595947,0.637573,up
206311,-45.015625,25.808594,-12.570313,6.378906,10.257813,20.853516,0.158936,-0.424377,0.633301,0.62738,up
206316,-43.101562,20.179687,-13.21875,6.378906,10.257813,20.853516,0.120605,-0.406067,0.6604,0.620056,up
206321,-39.273437,14.355469,-12.683594,1.732422,8.152344,22.130859,0.068054,-0.378235,0.691528,0.611633,up
206327,-33.410156,4.96875,-7.78125,1.732422,8.152344,22.130859,0.027405,-0.354492,0.711792,0.605713,up
206332,-31.308594,2.710938,-5.710937,0.441406,7.253906,21.722656,0.027405,-0.354492,0.711792,0.605713,up
206338,-25.632812,-3.957031,-1.652344,0.441406,7.253906,21.722656,0.063416,0.29657,-0.748413,-0.589844,up
206344,-22.414062,-10.199219,-0.195312,0.783203,6.361328,19.935547,0.063416,0.29657,-0.748413,-0.589844,up
206350,-18.433594,-15.101563,0.878906,0.964844,6.080078,18.976562,0.063416,0.29657,-0.748413,-0.589844,up
206355,-17.363281,-11.886719,1.988281,0.964844,6.080078,18.976562,0.216797,0.183716,-0.791931,-0.540405,up
206360,-16.753906,-9.355469,4.554687,0.964844,6.080078,18.976562,0.216797,0.183716,-0.791931,-0.540405,up
206365,-15.714844,-8.359375,8.421875,2.34375,4.601562,16.96875,0.27887,0.131287,-0.806091,-0.505188,up
206370,-12.265625,-5.984375,15.46875,2.34375,4.601562,16.96875,0.27887,0.131287,-0.806091,-0.505188,up
206375,-12.765625,-5.257812,13.519531,2.34375,4.601562,16.96875,0.304688,0.112305,-0.813721,-0.482117,up
206380,-14.605469,-4.261719,11.984375,9.240234,5.441406,9.40625,0.304688,0.112305,-0.813721,-0.482117,up
206385,-15.75,-2.730469,14.324219,9.240234,5.441406,9.40625,0.351318,0.091187,-0.82959,-0.424316,up
206390,-15.75,-2.730469,14.324219,9.240234,5.441406,9.40625,0.380615,0.086853,-0.843018,-0.370056,up
206395,-14.757813,-2.117188,15.351563,9.240234,5.441406,9.40625,0.380615,0.086853,-0.843018,-0.370056,up
206400,-14.601563,-1.3125,14.476563,10.103516,2.394531,2.482422,0.380615,0.086853,-0.843018,-0.370056,up
206405,-13.03125,0.296875,15.96875,10.103516,2.394531,2.482422,0.397156,0.095276,-0.856018,-0.316833,up
206410,-10.199219,0.375,19.53125,10.103516,2.394531,2.482422,0.400391,0.102356,-0.862061,-0.293457,up
206415,-7.976562,0.871094,18.078125,5.945312,1.453125,0.148437,0.400391,0.102356,-0.862061,-0.293457,up
206420,-9.046875,0.21875,11.445313,1.544922,2.115234,-0.507812,0.408081,0.116577,-0.864502,-0.269287,up
206425,-8.550781,-5.71875,8.960938,1.544922,2.115234,-0.507812,0.408081,0.116577,-0.864502,-0.269287,up
206430,-6.710937,-5.21875,9.652344,1.544922,2.115234,-0.507812,0.410217,0.114746,-0.860535,-0.279419,up
206436,-5.792969,-4.53125,9.414063,-7.357422,-0.876953,-0.986328,0.410217,0.114746,-0.860535,-0.279419,up
206441,-3.6875,-4.109375,8.769531,-8.958984,-1.236328,-0.71875,0.410034,0.105652,-0.852173,-0.307373,up
206447,-2.0,-4.339844,8.542969,-8.958984,-1.236328,-0.71875,0.408142,0.088867,-0.840149,-0.345886,up
206453,-1.082031,-4.148437,8.304688,-12.388672,-1.5625,-0.013672,0.408142,0.088867,-0.840149,-0.345886,up
206458,-0.199219,-3.878906,7.882812,-13.390625,-1.382813,0.193359,0.408142,0.088867,-0.840149,-0.345886,up
206464,0.679687,-4.03125,4.941406,-13.390625,-1.382813,0.193359,0.408142,0.088867,-0.840149,-0.345886,up
206469,1.0625,-3.957031,2.292969,-10.601563,-0.337891,-0.035156,0.408142,0.088867,-0.840149,-0.345886,up
206474,1.5625,-3.496094,-0.042969,-7.462891,-0.164062,-0.173828,0.408142,0.088867,-0.840149,-0.345886,up
206479,2.476563,-2.003906,-0.695312,-4.363281,-0.572266,-0.242187,0.408142,0.088867,-0.840149,-0.345886,up
206484,3.246094,-0.929687,0.339844,-1.623047,-1.140625,-0.332031,0.408142,0.088867,-0.840149,-0.345886,up
206489,4.019531,0.105469,1.105469,0.494141,-1.429688,-0.472656,0.408142,0.088867,-0.840149,-0.345886,up
206494,4.402344,0.949219,1.105469,0.494141,-1.429688,-0.472656,0.39679,0.014343,-0.780396,-0.483032,up
206499,4.785156,2.171875,0.265625,0.494141,-1.429688,-0.472656,0.393372,0.016418,-0.784546,-0.479065,up
206504,4.703125,2.824219,-0.273438,0.494141,-1.429688,-0.472656,0.390259,0.020142,-0.789734,-0.4729,up
206509,4.664062,3.628906,-1.191406,5.070312,-0.558594,-0.888672,0.390259,0.020142,-0.789734,-0.4729,up
206514,4.628906,4.773437,-2.378906,5.070312,-0.558594,-0.888672,0.384888,0.03241,-0.802795,-0.454224,up
206520,5.125,6.277344,-4.867187,5.070312,-0.558594,-0.888672,0.378235,0.04657,-0.81604,-0.434509,up
206525,5.621094,6.660156,-5.40625,5.070312,-0.558594,-0.888672,0.378235,0.04657,-0.81604,-0.434509,up
206530,6.082031,7.152344,-5.214844,3.951172,-1.828125,-1.4375,0.366882,0.056152,-0.827454,-0.421387,up
206535,7.117187,8.378906,-3.757813,3.951172,-1.828125,-1.4375,0.366882,0.056152,-0.827454,-0.421387,up
206540,7.421875,8.839844,-3.222656,3.951172,-1.828125,-1.4375,0.359802,0.058411,-0.831482,-0.41925,up
206546,7.652344,9.183594,-3.222656,-0.46875,-1.871094,-1.416016,0.349426,0.059631,-0.833435,-0.42395,up
206551,7.269531,9.21875,-4.449219,-0.46875,-1.871094,-1.416016,0.345825,0.059326,-0.831787,-0.430054,up
206556,7.269531,9.257813,-4.867187,-0.46875,-1.871094,-1.416016,0.34314,0.058228,-0.828857,-0.437988,up
206561,7.15625,9.605469,-5.214844,-4.796875,-0.697266,-1.113281,0.34314,0.058228,-0.828857,-0.437988,up
206566,6.847656,9.835938,-5.480469,-4.796875,-0.697266,-1.113281,0.340637,0.055908,-0.824158,-0.449036,up
206572,6.773437,9.566406,-6.054687,-4.796875,-0.697266,-1.113281,0.336914,0.049744,-0.813232,-0.471863,up
206577,6.65625,9.835938,-6.363281,-5.34375,-0.771484,-0.837891,0.335022,0.046082,-0.807251,-0.483704,up
206582,6.65625,9.945313,-6.667969,-4.587891,-0.828125,-0.8125,0.335022,0.046082,-0.807251,-0.483704,up
206588,6.886719,9.90625,-6.363281,-4.587891,-0.828125,-0.8125,0.335022,0.046082,-0.807251,-0.483704,up
206593,7.003906,9.90625,-5.902344,-2.34375,-1.021484,-0.751953,0.335022,0.046082,-0.807251,-0.483704,up
206599,7.003906,9.949219,-5.328125,-1.195313,-0.96875,-0.652344,0.335022,0.046082,-0.807251,-0.483704,up
206604,6.925781,9.90625,-4.945312,-1.195313,-0.96875,-0.652344,0.32251,0.035889,-0.792542,-0.516357,up
206609,6.734375,9.679688,-4.945312,-1.195313,-0.96875,-0.652344,0.32251,0.035889,-0.792542,-0.516357,up
206614,6.503906,9.527344,-4.945312,-1.195313,-0.96875,-0.652344,0.319031,0.037476,-0.7948,-0.514832,up
206619,6.351562,9.335938,-4.832031,1.699219,-0.234375,-0.349609,0.319031,0.037476,-0.7948,-0.514832,up
206624,6.234375,9.179688,-4.753906,1.699219,-0.234375,-0.349609,0.316772,0.041016,-0.7995,-0.508667,up
206629,6.007812,8.875,-4.410156,1.699219,-0.234375,-0.349609,0.316772,0.041016,-0.7995,-0.508667,up
206635,5.890625,8.6875,-4.027344,1.699219,-0.234375,-0.349609,0.31488,0.045593,-0.805969,-0.499146,up
206641,5.699219,8.492188,-3.261719,2.542969,-0.189453,-0.107422,0.31488,0.045593,-0.805969,-0.499146,up
206646,5.585937,8.453125,-2.914063,2.542969,-0.189453,-0.107422,0.312561,0.050842,-0.814941,-0.485352,up
206651,5.46875,8.269531,-2.570313,2.542969,-0.189453,-0.107422,0.312561,0.050842,-0.814941,-0.485352,up
206656,5.46875,8.109375,-2.53125,0.474609,0.029297,0.216797,0.312561,0.050842,-0.814941,-0.485352,up
206661,5.316406,7.886719,-2.648438,0.474609,0.029297,0.216797,0.312622,0.051575,-0.817871,-0.480286,up
206666,5.125,7.84375,-2.800781,-0.326172,0.164062,0.324219,0.312622,0.051575,-0.817871,-0.480286,up
206671,5.085937,7.691406,-2.878906,-0.501953,0.126953,0.353516,0.313293,0.051025,-0.817627,-0.480408,up
206676,5.046875,7.535156,-2.839844,-0.501953,0.126953,0.353516,0.314697,0.049194,-0.816345,-0.48175,up
206681,4.972656,7.421875,-2.683594,-0.501953,0.126953,0.353516,0.315308,0.048157,-0.815674,-0.482666,up
206686,4.933594,7.304687,-2.761719,-0.501953,0.126953,0.353516,0.315308,0.048157,-0.815674,-0.482666,up
206691,4.933594,7.265625,-2.839844,-0.419922,0.099609,0.339844,0.316528,0.046387,-0.814575,-0.483826,up
206696,4.972656,7.269531,-2.839844,-0.080078,0.019531,0.228516,0.316528,0.046387,-0.814575,-0.483826,up
206701,4.894531,7.34375,-2.914063,0.183594,-0.007813,0.177734,0.316895,0.045776,-0.814392,-0.484009,up
206706,4.894531,7.308594,-2.953125,0.183594,-0.007813,0.177734,0.317139,0.045349,-0.814453,-0.483704,up
206712,4.933594,7.34375,-2.914063,0.183594,-0.007813,0.177734,0.317261,0.045593,-0.81543,-0.481995,up
206718,4.933594,7.347656,-2.839844,0.183594,-0.007813,0.177734,0.317139,0.046021,-0.816101,-0.480835,up
206723,4.933594,7.535156,-2.914063,0.710937,-0.013672,-0.052734,0.317017,0.046631,-0.816956,-0.479492,up
206728,4.933594,7.613281,-2.953125,0.6875,-0.007813,-0.099609,0.317017,0.046631,-0.816956,-0.479492,up
206734,4.855469,7.730469,-2.953125,0.6875,-0.007813,-0.099609,0.316467,0.048096,-0.818542,-0.47699,up
206740,4.894531,7.6875,-2.953125,0.392578,-0.025391,-0.173828,0.316467,0.048096,-0.818542,-0.47699,up
206746,4.855469,7.726562,-2.878906,0.203125,-0.033203,-0.179687,0.315552,0.049866,-0.81958,-0.475586,up
206751,4.855469,7.570312,-2.761719,0.203125,-0.033203,-0.179687,0.315308,0.050171,-0.819458,-0.476013,up
206756,4.894531,7.53125,-2.761719,0.203125,-0.033203,-0.179687,0.315125,0.050415,-0.819031,-0.476807,up
206761,4.820312,7.53125,-2.800781,0.203125,-0.033203,-0.179687,0.315125,0.050415,-0.819031,-0.476807,up
206766,4.820312,7.574219,-2.914063,-0.46875,0.044922,-0.201172,0.31488,0.050659,-0.81781,-0.479004,up
206771,4.742187,7.609375,-2.761719,-0.46875,0.044922,-0.201172,0.31488,0.050659,-0.81781,-0.479004,up
206776,4.703125,7.609375,-2.761719,-0.492187,0.037109,-0.253906,0.314697,0.050842,-0.817078,-0.480408,up
206781,4.703125,7.648437,-2.722656,-0.414062,0.042969,-0.259766,0.314514,0.050964,-0.816406,-0.481567,up
206786,4.664062,7.726562,-2.800781,-0.414062,0.042969,-0.259766,0.314331,0.05127,-0.815735,-0.482849,up
206791,4.664062,7.808594,-2.800781,-0.414062,0.042969,-0.259766,0.314087,0.051575,-0.815247,-0.483765,up
206796,4.628906,7.886719,-2.800781,-0.414062,0.042969,-0.259766,0.313843,0.052002,-0.81488,-0.484497,up
206801,4.628906,7.917969,-2.761719,-0.056641,0.001953,-0.277344,0.313171,0.053101,-0.814697,-0.485168,up
206806,4.664062,7.957031,-2.683594,-0.056641,0.001953,-0.277344,0.312744,0.05365,-0.814758,-0.485229,up
206811,4.628906,8.035156,-2.648438,-0.056641,0.001953,-0.277344,0.312744,0.05365,-0.814758,-0.485229,up
206816,4.628906,8.070313,-2.683594,0.166016,-0.050781,-0.240234,0.312744,0.05365,-0.814758,-0.485229,up
206821,4.589844,8.070313,-2.800781,0.160156,-0.048828,-0.232422,0.312744,0.05365,-0.814758,-0.485229,up
206826,4.589844,8.074219,-2.839844,0.160156,-0.048828,-0.232422,0.311462,0.055359,-0.815369,-0.484924,up
206831,4.628906,8.113281,-2.914063,0.160156,-0.048828,-0.232422,0.310974,0.055847,-0.815491,-0.484924,up
206836,4.628906,8.113281,-2.953125,-0.091797,-0.080078,-0.189453,0.310974,0.055847,-0.815491,-0.484924,up
206841,4.628906,8.113281,-2.953125,-0.162109,-0.058594,-0.171875,0.31012,0.056458,-0.815552,-0.485352,up
206846,4.628906,8.1875,-3.144531,-0.162109,-0.058594,-0.171875,0.309753,0.056641,-0.81543,-0.485779,up
206852,4.628906,8.230469,-3.222656,-0.220703,-0.035156,-0.123047,0.309753,0.056641,-0.81543,-0.485779,up
206857,4.589844,8.230469,-3.222656,-0.220703,-0.035156,-0.123047,0.309021,0.056946,-0.814697,-0.487427,up
206863,4.589844,8.191406,-3.261719,-0.220703,-0.035156,-0.123047,0.308899,0.057007,-0.814453,-0.487854,up
206868,4.589844,8.191406,-3.261719,-0.126953,0.021484,-0.078125,0.308899,0.057007,-0.814453,-0.487854,up
206873,4.628906,8.148438,-3.261719,-0.044922,0.048828,-0.066406,0.308899,0.057007,-0.814453,-0.487854,up
206878,4.550781,8.035156,-3.222656,-0.044922,0.048828,-0.066406,0.308899,0.057007,-0.814453,-0.487854,up
206883,4.550781,7.953125,-3.105469,0.099609,0.089844,-0.048828,0.308899,0.057007,-0.814453,-0.487854,up
206888,4.550781,7.84375,-2.992188,0.160156,0.089844,-0.054687,0.308899,0.057007,-0.814453,-0.487854,up
206894,4.511719,7.847656,-2.953125,0.230469,0.091797,-0.0625,0.308899,0.057007,-0.814453,-0.487854,up
206899,4.511719,7.886719,-2.800781,0.230469,0.091797,-0.0625,0.308899,0.057007,-0.814453,-0.487854,up
206905,4.398437,7.886719,-2.722656,0.300781,0.074219,-0.064453,0.308899,0.057007,-0.814453,-0.487854,up
206911,4.359375,7.957031,-2.609375,0.300781,0.074219,-0.064453,0.309082,0.059875,-0.815063,-0.486328,up
206916,4.359375,7.957031,-2.609375,0.300781,0.074219,-0.064453,0.309021,0.060303,-0.815369,-0.48584,up
206922,4.359375,7.917969,-2.609375,0.136719,-0.041016,-0.080078,0.309021,0.060303,-0.815369,-0.48584,up
