timestamp,ax,ay,az,gx,gy,gz,qw,qx,qy,qz,label
602430,-8.320313,4.285156,0.886719,0.017578,0.050781,-0.023437,0.512451,-0.239807,0.634094,0.527039,up
602435,-8.363281,4.285156,0.886719,0.017578,0.050781,-0.023437,0.512146,-0.240356,0.634338,0.526794,up
602440,-8.359375,4.363281,0.808594,0.017578,0.050781,-0.023437,0.512146,-0.240479,0.63446,0.526672,up
602445,-8.359375,4.554687,0.695312,0.017578,0.050781,-0.023437,0.512146,-0.24054,0.634583,0.526489,up
602450,-8.394531,4.667969,0.65625,0.005859,0.056641,-0.017578,0.512085,-0.240662,0.634644,0.526367,up
602456,-8.429688,4.746094,0.582031,0.005859,0.056641,-0.017578,0.512024,-0.240784,0.634705,0.526306,up
602461,-8.429688,4.746094,0.582031,-0.070312,0.085937,-0.017578,0.512024,-0.240784,0.634705,0.526306,up
602467,-8.546875,4.746094,0.542969,-0.070312,0.085937,-0.017578,0.511719,-0.241333,0.634766,0.526367,up
602473,-8.628906,4.707031,0.503906,-0.125,0.101563,0.005859,0.511719,-0.241333,0.634766,0.526367,up
602478,-8.703125,4.476562,0.65625,-0.128906,0.095703,0.015625,0.511719,-0.241333,0.634766,0.526367,up
602483,-8.703125,4.4375,0.773437,-0.138672,0.072266,0.015625,0.511719,-0.241333,0.634766,0.526367,up
602488,-8.664063,4.4375,0.773437,-0.138672,0.072266,0.015625,0.510803,-0.242493,0.634583,0.526917,up
602493,-8.664063,4.402344,0.734375,-0.132812,0.060547,0.013672,0.510803,-0.242493,0.634583,0.526917,up
602498,-8.585938,4.363281,0.734375,-0.115234,0.046875,0.011719,0.510803,-0.242493,0.634583,0.526917,up
602503,-8.472656,4.324219,0.808594,-0.115234,0.046875,0.011719,0.510803,-0.242493,0.634583,0.526917,up
602509,-8.472656,4.246094,0.847656,-0.115234,0.046875,0.011719,0.510193,-0.243347,0.634277,0.527405,up
602515,-8.472656,4.132812,0.847656,-0.041016,0.037109,-0.001953,0.510193,-0.243347,0.634277,0.527405,up
602520,-8.550781,4.054687,0.886719,0.009766,0.037109,0.0,0.51001,-0.243652,0.634338,0.527344,up
602525,-8.550781,4.054687,0.886719,0.050781,0.021484,0.005859,0.51001,-0.243652,0.634338,0.527344,up
602530,-8.546875,4.09375,0.847656,0.056641,0.029297,0.003906,0.51001,-0.243591,0.63446,0.527283,up
602535,-8.550781,4.207031,0.808594,0.056641,0.029297,0.003906,0.51001,-0.243591,0.634705,0.527039,up
602540,-8.550781,4.246094,0.808594,0.056641,0.029297,0.003906,0.509949,-0.243591,0.634766,0.526917,up
602545,-8.550781,4.476562,0.808594,0.027344,0.027344,-0.017578,0.509949,-0.243591,0.634766,0.526917,up
602550,-8.546875,4.59375,0.695312,0.027344,0.027344,-0.017578,0.51001,-0.243591,0.634888,0.526794,up
602555,-8.625,4.667969,0.617187,0.027344,0.027344,-0.017578,0.509949,-0.243774,0.63501,0.526611,up
602560,-8.589844,4.667969,0.582031,0.027344,0.027344,-0.017578,0.509949,-0.243774,0.63501,0.526611,up
602565,-8.585938,4.59375,0.65625,0.011719,0.011719,-0.007813,0.509949,-0.243835,0.635071,0.526489,up
602570,-8.585938,4.628906,0.617187,0.011719,0.011719,-0.007813,0.509949,-0.243958,0.63501,0.52655,up
602575,-8.667969,4.554687,0.617187,0.011719,0.011719,-0.007813,0.509888,-0.244019,0.634949,0.526611,up
602580,-8.550781,4.476562,0.617187,0.011719,0.011719,-0.007813,0.509888,-0.244019,0.634949,0.526611,up
602585,-8.589844,4.476562,0.695312,-0.121094,-0.013672,0.019531,0.509705,-0.244263,0.634644,0.527039,up
602590,-8.46875,4.402344,0.65625,-0.121094,-0.013672,0.019531,0.509583,-0.244446,0.63446,0.527283,up
602595,-8.433594,4.246094,0.65625,-0.121094,-0.013672,0.019531,0.509399,-0.244568,0.634338,0.527588,up
602600,-8.390625,4.171875,0.617187,-0.121094,-0.013672,0.019531,0.509399,-0.244568,0.634338,0.527588,up
602605,-8.429688,3.941406,0.65625,-0.142578,0.033203,0.072266,0.509399,-0.244568,0.634338,0.527588,up
602610,-8.429688,3.902344,0.695312,-0.142578,0.033203,0.072266,0.508728,-0.244934,0.634094,0.52832,up
602615,-8.390625,3.941406,0.65625,-0.142578,0.033203,0.072266,0.508545,-0.244995,0.634155,0.528381,up
602620,-8.429688,3.980469,0.65625,0.054687,0.087891,0.044922,0.508545,-0.244995,0.634155,0.528381,up
602625,-8.433594,4.207031,0.617187,0.054687,0.087891,0.044922,0.508179,-0.244934,0.634583,0.528198,up
602630,-8.46875,4.246094,0.65625,0.054687,0.087891,0.044922,0.508118,-0.244873,0.634949,0.527954,up
602635,-8.550781,4.402344,0.617187,0.054687,0.087891,0.044922,0.508118,-0.244873,0.634949,0.527954,up
602640,-8.667969,4.515625,0.617187,0.222656,0.097656,0.017578,0.508057,-0.244568,0.635742,0.527161,up
602645,-8.742188,4.667969,0.617187,0.222656,0.097656,0.017578,0.508118,-0.244385,0.636169,0.526672,up
602650,-8.742188,4.746094,0.734375,0.222656,0.097656,0.017578,0.508118,-0.244385,0.636169,0.526672,up
602655,-8.8125,4.785156,0.734375,0.207031,0.005859,-0.037109,0.508118,-0.244385,0.636169,0.526672,up
602660,-8.894531,4.9375,0.617187,0.207031,0.005859,-0.037109,0.508362,-0.243958,0.636902,0.525757,up
602666,-8.929688,4.859375,0.617187,0.046875,-0.050781,-0.050781,0.508545,-0.243835,0.637146,0.525391,up
602671,-8.855469,4.859375,0.617187,0.046875,-0.050781,-0.050781,0.508911,-0.243774,0.637085,0.525146,up
602676,-8.890625,4.859375,0.65625,-0.132812,-0.117188,-0.060547,0.509094,-0.243835,0.63678,0.525269,up
602682,-8.851563,4.859375,0.695312,-0.132812,-0.117188,-0.060547,0.509216,-0.244019,0.636414,0.525513,up
602687,-8.8125,4.820312,0.617187,-0.285156,-0.101563,-0.050781,0.509216,-0.244019,0.636414,0.525513,up
602692,-8.8125,4.746094,0.617187,-0.310547,-0.101563,-0.044922,0.509216,-0.244019,0.636414,0.525513,up
602698,-8.707031,4.554687,0.65625,-0.328125,-0.105469,-0.021484,0.509216,-0.244019,0.636414,0.525513,up
602703,-8.703125,4.476562,0.617187,-0.310547,-0.087891,-0.007813,0.509216,-0.244019,0.636414,0.525513,up
602708,-8.625,4.402344,0.617187,-0.283203,-0.072266,0.017578,0.509216,-0.244019,0.636414,0.525513,up
602714,-8.585938,4.363281,0.617187,-0.236328,-0.058594,0.027344,0.509216,-0.244019,0.636414,0.525513,up
602720,-8.511719,4.324219,0.617187,-0.236328,-0.058594,0.027344,0.508972,-0.246155,0.632935,0.52887,up
602725,-8.511719,4.324219,0.65625,-0.236328,-0.058594,0.027344,0.508972,-0.246155,0.632935,0.52887,up
602730,-8.472656,4.324219,0.65625,0.003906,0.021484,0.056641,0.508789,-0.246094,0.633118,0.528931,up
602735,-8.507813,4.4375,0.734375,0.003906,0.021484,0.056641,0.508789,-0.246094,0.633118,0.528931,up
602740,-8.550781,4.476562,0.773437,0.216797,0.050781,0.089844,0.508789,-0.246094,0.633118,0.528931,up
602745,-8.507813,4.59375,0.773437,0.216797,0.050781,0.089844,0.508667,-0.245667,0.633789,0.528442,up
602750,-8.589844,4.515625,0.734375,0.216797,0.050781,0.089844,0.508545,-0.2453,0.634277,0.528137,up
602755,-8.628906,4.554687,0.773437,0.251953,0.048828,0.117188,0.508423,-0.244995,0.634766,0.527771,up
602760,-8.628906,4.59375,0.847656,0.251953,0.048828,0.117188,0.508362,-0.244629,0.635254,0.527466,up
602766,-8.589844,4.667969,0.847656,0.25,0.025391,0.117188,0.50824,-0.243774,0.636169,0.526794,up
602772,-8.546875,4.707031,0.847656,0.25,0.025391,0.117188,0.50824,-0.243469,0.636475,0.526611,up
602777,-8.511719,4.707031,0.847656,0.138672,-0.017578,0.091797,0.50824,-0.243103,0.63678,0.526367,up
602782,-8.472656,4.667969,0.847656,0.099609,-0.033203,0.097656,0.508179,-0.242859,0.637024,0.526306,up
602788,-8.363281,4.59375,0.886719,0.056641,-0.035156,0.105469,0.508179,-0.242859,0.637024,0.526306,up
602794,-8.324219,4.515625,0.847656,0.029297,-0.044922,0.107422,0.508179,-0.242859,0.637024,0.526306,up
602799,-8.246094,4.476562,0.847656,-0.003906,-0.035156,0.111328,0.508179,-0.242859,0.637024,0.526306,up
602805,-8.167969,4.402344,0.847656,-0.027344,-0.017578,0.121094,0.508179,-0.242859,0.637024,0.526306,up
602810,-8.089844,4.402344,0.847656,-0.027344,-0.017578,0.121094,0.507751,-0.241821,0.63739,0.526733,up
602815,-8.128906,4.324219,0.808594,-0.029297,0.025391,0.146484,0.507751,-0.241821,0.63739,0.526733,up
602821,-8.167969,4.324219,0.808594,-0.009766,0.056641,0.15625,0.506897,-0.241455,0.637817,0.527222,up
602827,-8.320313,4.515625,0.734375,-0.009766,0.056641,0.15625,0.506592,-0.241333,0.638062,0.527283,up
602832,-8.390625,4.554687,0.65625,0.091797,0.130859,0.152344,0.506226,-0.24115,0.638428,0.527222,up
602837,-8.394531,4.628906,0.65625,0.132812,0.128906,0.164062,0.505859,-0.240967,0.638916,0.527161,up
602842,-8.433594,4.746094,0.65625,0.167969,0.111328,0.162109,0.505554,-0.240723,0.639343,0.526978,up
602848,-8.585938,4.976562,0.734375,0.167969,0.111328,0.162109,0.505249,-0.240356,0.639832,0.526794,up
602853,-8.664063,4.976562,0.734375,0.203125,0.070312,0.171875,0.505249,-0.240356,0.639832,0.526794,up
602858,-8.707031,5.011719,0.695312,0.201172,0.037109,0.175781,0.505249,-0.240356,0.639832,0.526794,up
602863,-8.742188,4.976562,0.808594,0.201172,0.037109,0.175781,0.504639,-0.239075,0.641174,0.526306,up
602869,-8.742188,4.976562,0.808594,0.134766,-0.025391,0.126953,0.504639,-0.239075,0.641174,0.526306,up
602874,-8.703125,4.976562,0.808594,0.076172,-0.058594,0.09375,0.504639,-0.239075,0.641174,0.526306,up
602879,-8.703125,4.976562,0.808594,0.003906,-0.091797,0.068359,0.504578,-0.238037,0.641724,0.526245,up
602885,-8.589844,4.898437,0.734375,0.003906,-0.091797,0.068359,0.504639,-0.237915,0.641541,0.526428,up
602890,-8.546875,4.859375,0.773437,-0.160156,-0.130859,0.019531,0.504639,-0.237915,0.641541,0.526428,up
602895,-8.46875,4.746094,0.734375,-0.246094,-0.136719,-0.001953,0.504639,-0.237915,0.641541,0.526428,up
602900,-8.433594,4.628906,0.773437,-0.3125,-0.130859,-0.005859,0.504639,-0.237915,0.641541,0.526428,up
602905,-8.390625,4.554687,0.734375,-0.3125,-0.130859,-0.005859,0.504883,-0.238464,0.639771,0.528137,up
602911,-8.363281,4.515625,0.773437,-0.386719,-0.101563,0.001953,0.5047,-0.239197,0.638489,0.529541,up
602916,-8.359375,4.4375,0.773437,-0.382813,-0.052734,0.021484,0.504578,-0.239563,0.637939,0.530151,up
602922,-8.324219,4.363281,0.808594,-0.382813,-0.052734,0.021484,0.504333,-0.239929,0.637451,0.530762,up
602927,-8.324219,4.402344,0.773437,-0.316406,-0.005859,0.064453,0.504333,-0.239929,0.637451,0.530762,up
602932,-8.324219,4.4375,0.808594,-0.255859,0.023437,0.078125,0.504333,-0.239929,0.637451,0.530762,up
602937,-8.359375,4.476562,0.773437,-0.255859,0.023437,0.078125,0.503479,-0.240723,0.636536,0.532288,up
602942,-8.429688,4.554687,0.773437,-0.255859,0.023437,0.078125,0.503479,-0.240723,0.636536,0.532288,up
602947,-8.433594,4.707031,0.808594,-0.042969,0.070312,0.148437,0.503479,-0.240723,0.636536,0.532288,up
602952,-8.433594,4.859375,0.886719,-0.042969,0.070312,0.148437,0.502441,-0.240662,0.63678,0.53302,up
602957,-8.433594,4.859375,0.886719,0.037109,0.099609,0.208984,0.502075,-0.240479,0.637024,0.533203,up
602962,-8.433594,4.898437,0.847656,0.044922,0.113281,0.240234,0.501526,-0.240234,0.63739,0.533325,up
602967,-8.46875,4.976562,0.734375,0.044922,0.113281,0.240234,0.501038,-0.239868,0.637817,0.533508,up
602973,-8.550781,4.976562,0.773437,0.044922,0.113281,0.240234,0.500549,-0.239563,0.638184,0.533691,up
602978,-8.511719,5.050781,0.773437,0.005859,0.097656,0.357422,0.499878,-0.239075,0.63855,0.534058,up
602984,-8.511719,5.128906,0.695312,-0.027344,0.099609,0.384766,0.499878,-0.239075,0.63855,0.534058,up
602989,-8.550781,4.976562,0.65625,-0.027344,0.099609,0.384766,0.498535,-0.238281,0.63916,0.534912,up
602994,-8.511719,5.011719,0.695312,-0.142578,0.099609,0.4375,0.498535,-0.238281,0.63916,0.534912,up
602999,-8.511719,5.050781,0.65625,-0.189453,0.099609,0.460937,0.498535,-0.238281,0.63916,0.534912,up
603004,-8.507813,5.089844,0.617187,-0.189453,0.099609,0.460937,0.495911,-0.237183,0.639771,0.537109,up
603009,-8.550781,5.050781,0.582031,-0.189453,0.099609,0.460937,0.495911,-0.237183,0.639771,0.537109,up
603014,-8.472656,5.128906,0.542969,-0.189453,0.099609,0.460937,0.493958,-0.236572,0.639954,0.53894,up
603019,-8.511719,5.167969,0.503906,-0.279297,0.140625,0.507812,0.493958,-0.236572,0.639954,0.53894,up
603024,-8.511719,5.167969,0.503906,-0.279297,0.140625,0.507812,0.49176,-0.236023,0.640198,0.540894,up
603029,-8.46875,5.242187,0.464844,-0.279297,0.140625,0.507812,0.49176,-0.236023,0.640198,0.540894,up
603034,-8.46875,5.203125,0.464844,-0.279297,0.140625,0.507812,0.489441,-0.235535,0.640503,0.542847,up
603040,-8.429688,5.28125,0.425781,-0.259766,0.203125,0.552734,0.489441,-0.235535,0.640503,0.542847,up
603045,-8.46875,5.28125,0.386719,-0.259766,0.203125,0.552734,0.487,-0.234985,0.640991,0.544739,up
603050,-8.433594,5.28125,0.386719,-0.259766,0.203125,0.552734,0.485657,-0.234619,0.641296,0.545715,up
603056,-8.390625,5.320312,0.386719,-0.234375,0.224609,0.628906,0.485657,-0.234619,0.641296,0.545715,up
603061,-8.359375,5.28125,0.3125,-0.234375,0.224609,0.628906,0.481628,-0.233459,0.642273,0.548584,up
603066,-8.285156,5.28125,0.273438,-0.234375,0.224609,0.628906,0.480103,-0.232971,0.6427,0.549683,up
603071,-8.28125,5.320312,0.273438,-0.234375,0.224609,0.628906,0.480103,-0.232971,0.6427,0.549683,up
603076,-8.203125,5.320312,0.234375,-0.210937,0.230469,0.730469,0.480103,-0.232971,0.6427,0.549683,up
603081,-8.207031,5.394531,0.273438,-0.210937,0.230469,0.730469,0.475708,-0.231323,0.643982,0.552734,up
603086,-8.242188,5.320312,0.234375,-0.210937,0.277344,0.775391,0.475708,-0.231323,0.643982,0.552734,up
603091,-8.285156,5.28125,0.273438,-0.212891,0.314453,0.78125,0.473938,-0.230652,0.644531,0.553894,up
603096,-8.320313,5.242187,0.273438,-0.212891,0.314453,0.78125,0.470581,-0.229492,0.645569,0.555969,up
603101,-8.285156,5.167969,0.195312,-0.212891,0.314453,0.78125,0.468872,-0.229004,0.646118,0.556946,up
603106,-8.359375,5.050781,0.351563,-0.212891,0.314453,0.78125,0.468872,-0.229004,0.646118,0.556946,up
603111,-8.246094,4.976562,0.351563,-0.167969,0.320313,0.714844,0.465637,-0.228027,0.647278,0.558777,up
603116,-8.203125,4.9375,0.273438,-0.167969,0.320313,0.714844,0.465637,-0.228027,0.647278,0.558777,up
603121,-8.207031,5.011719,0.3125,-0.078125,0.271484,0.585937,0.463013,-0.227051,0.648376,0.560059,up
603126,-8.164063,5.011719,0.425781,-0.078125,0.271484,0.585937,0.463013,-0.227051,0.648376,0.560059,up
603131,-8.128906,5.128906,0.464844,0.052734,0.208984,0.443359,0.463013,-0.227051,0.648376,0.560059,up
603136,-8.164063,5.242187,0.386719,0.052734,0.208984,0.443359,0.460266,-0.225708,0.650208,0.560791,up
603141,-8.207031,5.320312,0.351563,0.052734,0.208984,0.443359,0.459656,-0.225342,0.650757,0.56073,up
603146,-8.167969,5.433594,0.425781,0.052734,0.208984,0.443359,0.459656,-0.225342,0.650757,0.56073,up
603151,-8.125,5.664062,0.503906,0.132812,0.15625,0.199219,0.459656,-0.225342,0.650757,0.56073,up
603156,-8.125,5.664062,0.542969,0.132812,0.15625,0.199219,0.458252,-0.224792,0.6521,0.560608,up
603161,-8.125,5.664062,0.503906,0.132812,0.15625,0.199219,0.457886,-0.224915,0.652222,0.56073,up
603166,-8.125,5.664062,0.542969,0.132812,0.15625,0.199219,0.457886,-0.224915,0.652222,0.56073,up
603171,-8.089844,5.589844,0.582031,-0.216797,0.091797,0.017578,0.45752,-0.225159,0.6521,0.560974,up
603176,-8.046875,5.511719,0.542969,-0.216797,0.091797,0.017578,0.457275,-0.225586,0.651917,0.56134,up
603182,-8.007813,5.433594,0.542969,-0.457031,0.0625,-0.037109,0.456543,-0.22699,0.650696,0.562683,up
603187,-7.9375,5.28125,0.582031,-0.457031,0.0625,-0.037109,0.456238,-0.227783,0.649902,0.563538,up
603192,-7.976562,5.203125,0.542969,-0.457031,0.0625,-0.037109,0.455933,-0.228699,0.649048,0.564453,up
603197,-7.898437,5.128906,0.503906,-0.734375,0.035156,-0.103516,0.455566,-0.229736,0.64801,0.565491,up
603202,-7.898437,5.167969,0.542969,-0.734375,0.035156,-0.103516,0.4552,-0.230896,0.646851,0.56665,up
603207,-7.824219,5.167969,0.503906,-0.734375,0.035156,-0.103516,0.454834,-0.231812,0.645935,0.567566,up
603212,-7.859375,5.167969,0.582031,-0.677734,0.060547,-0.089844,0.454407,-0.232971,0.644897,0.568665,up
603218,-7.824219,5.128906,0.542969,-0.677734,0.060547,-0.089844,0.454041,-0.233826,0.644104,0.569458,up
603223,-7.859375,5.089844,0.503906,-0.539062,0.09375,-0.066406,0.453613,-0.234802,0.64325,0.570374,up
603228,-7.859375,5.089844,0.582031,-0.539062,0.09375,-0.066406,0.453247,-0.235535,0.642761,0.570923,up
603234,-7.863281,5.050781,0.582031,-0.390625,0.113281,-0.044922,0.453247,-0.235535,0.642761,0.570923,up
603239,-7.902344,5.050781,0.542969,-0.328125,0.126953,-0.042969,0.453247,-0.235535,0.642761,0.570923,up
603244,-7.859375,5.089844,0.582031,-0.328125,0.126953,-0.042969,0.452209,-0.237427,0.641602,0.572327,up
603249,-7.902344,5.128906,0.617187,-0.261719,0.134766,-0.041016,0.452209,-0.237427,0.641602,0.572327,up
603254,-7.898437,5.203125,0.734375,-0.248047,0.136719,-0.042969,0.452209,-0.237427,0.641602,0.572327,up
603259,-7.941406,5.242187,0.734375,-0.261719,0.140625,-0.052734,0.452209,-0.237427,0.641602,0.572327,up
603265,-7.980469,5.242187,0.734375,-0.279297,0.142578,-0.050781,0.452209,-0.237427,0.641602,0.572327,up
603270,-7.980469,5.242187,0.734375,-0.314453,0.128906,-0.068359,0.452209,-0.237427,0.641602,0.572327,up
603275,-8.011719,5.242187,0.808594,-0.355469,0.113281,-0.070312,0.452209,-0.237427,0.641602,0.572327,up
603281,-8.011719,5.203125,0.773437,-0.355469,0.113281,-0.070312,0.449585,-0.242371,0.638977,0.575134,up
603286,-7.980469,5.203125,0.773437,-0.355469,0.113281,-0.070312,0.449585,-0.242371,0.638977,0.575134,up
603291,-7.976562,5.167969,0.808594,-0.464844,0.058594,-0.117188,0.449585,-0.242371,0.638977,0.575134,up
603296,-7.9375,5.128906,0.808594,-0.464844,0.058594,-0.117188,0.449097,-0.243896,0.637756,0.576294,up
603302,-7.976562,5.089844,0.808594,-0.464844,0.058594,-0.117188,0.448608,-0.245544,0.636353,0.577515,up
603307,-7.9375,5.011719,0.808594,-0.464844,0.058594,-0.117188,0.448364,-0.246399,0.635681,0.578064,up
603312,-7.941406,4.9375,0.847656,-0.449219,0.056641,-0.160156,0.448364,-0.246399,0.635681,0.578064,up
603317,-7.941406,4.976562,0.886719,-0.449219,0.056641,-0.160156,0.448059,-0.247986,0.634399,0.579041,up
603322,-7.980469,4.9375,0.886719,-0.394531,0.064453,-0.183594,0.448059,-0.247986,0.634399,0.579041,up
603327,-7.976562,4.9375,0.925781,-0.394531,0.064453,-0.183594,0.447815,-0.249695,0.633179,0.579834,up
603332,-8.046875,4.976562,0.964844,-0.394531,0.064453,-0.183594,0.447815,-0.250366,0.63269,0.580078,up
603337,-8.050781,5.089844,1.0,-0.316406,0.056641,-0.195312,0.447754,-0.25116,0.632141,0.580383,up
603343,-8.125,5.128906,1.039063,-0.316406,0.056641,-0.195312,0.447754,-0.25177,0.631714,0.580627,up
603348,-8.125,5.128906,1.117188,-0.283203,0.046875,-0.195312,0.447754,-0.25177,0.631714,0.580627,up
603354,-8.125,5.128906,1.117188,-0.283203,0.046875,-0.195312,0.447754,-0.253113,0.630737,0.580994,up
603359,-8.164063,5.089844,1.15625,-0.263672,0.009766,-0.195312,0.447754,-0.253113,0.630737,0.580994,up
603365,-8.164063,5.050781,1.191406,-0.267578,-0.005859,-0.191406,0.447754,-0.253113,0.630737,0.580994,up
603371,-8.128906,5.050781,1.269531,-0.257813,-0.015625,-0.201172,0.447754,-0.253113,0.630737,0.580994,up
603376,-8.089844,5.011719,1.230469,-0.275391,-0.027344,-0.207031,0.447754,-0.253113,0.630737,0.580994,up
603381,-8.089844,5.011719,1.230469,-0.279297,-0.048828,-0.203125,0.448364,-0.256042,0.628174,0.582031,up
603386,-8.128906,4.976562,1.191406,-0.292969,-0.066406,-0.207031,0.448364,-0.256042,0.628174,0.582031,up
603391,-8.085938,4.898437,1.230469,-0.294922,-0.078125,-0.212891,0.44873,-0.257141,0.626953,0.582581,up
603396,-7.980469,4.707031,1.230469,-0.310547,-0.089844,-0.208984,0.44873,-0.257141,0.626953,0.582581,up
603401,-7.980469,4.59375,1.191406,-0.310547,-0.089844,-0.208984,0.449219,-0.25824,0.62561,0.583191,up
603406,-7.941406,4.59375,1.230469,-0.310547,-0.089844,-0.208984,0.449463,-0.258789,0.624939,0.583496,up
603411,-7.941406,4.59375,1.191406,-0.310547,-0.089844,-0.208984,0.449707,-0.259277,0.624329,0.583679,up
603417,-7.976562,4.554687,1.191406,-0.189453,-0.070312,-0.248047,0.449707,-0.259277,0.624329,0.583679,up
603422,-8.007813,4.59375,1.15625,-0.189453,-0.070312,-0.248047,0.450317,-0.260315,0.62323,0.583984,up
603428,-8.007813,4.515625,1.191406,-0.189453,-0.070312,-0.248047,0.45105,-0.26123,0.622314,0.583984,up
603433,-8.050781,4.515625,1.230469,-0.080078,-0.072266,-0.269531,0.451477,-0.261658,0.621887,0.583923,up
603439,-8.050781,4.515625,1.230469,-0.025391,-0.080078,-0.28125,0.451904,-0.262024,0.621582,0.58374,up
603444,-8.085938,4.554687,1.230469,-0.025391,-0.080078,-0.28125,0.452454,-0.262329,0.621338,0.583496,up
603450,-8.085938,4.59375,1.269531,0.050781,-0.09375,-0.3125,0.452454,-0.262329,0.621338,0.583496,up
603456,-8.085938,4.628906,1.308594,0.074219,-0.115234,-0.328125,0.452454,-0.262329,0.621338,0.583496,up
603461,-8.167969,4.667969,1.347656,0.099609,-0.167969,-0.384766,0.452454,-0.262329,0.621338,0.583496,up
603466,-8.242188,4.785156,1.269531,0.099609,-0.167969,-0.384766,0.4552,-0.263306,0.620361,0.581848,up
603472,-8.246094,4.898437,1.269531,0.074219,-0.220703,-0.443359,0.4552,-0.263306,0.620361,0.581848,up
603477,-8.246094,4.976562,1.230469,0.037109,-0.248047,-0.478516,0.457092,-0.263794,0.61969,0.580872,up
603482,-8.324219,5.089844,1.15625,0.037109,-0.248047,-0.478516,0.459229,-0.264404,0.618652,0.580017,up
603487,-8.320313,5.050781,1.15625,-0.105469,-0.306641,-0.533203,0.459229,-0.264404,0.618652,0.580017,up
603492,-8.285156,5.050781,1.039063,-0.105469,-0.306641,-0.533203,0.46051,-0.264893,0.617798,0.579712,up
603497,-8.285156,5.050781,1.039063,-0.275391,-0.341797,-0.572266,0.46167,-0.265442,0.616882,0.579529,up
603502,-8.285156,4.9375,0.886719,-0.337891,-0.365234,-0.589844,0.462769,-0.266052,0.615845,0.579468,up
603507,-8.246094,4.9375,0.886719,-0.337891,-0.365234,-0.589844,0.46405,-0.266785,0.614563,0.579529,up
603513,-8.167969,4.785156,0.886719,-0.337891,-0.365234,-0.589844,0.46637,-0.268433,0.611755,0.579834,up
603518,-8.128906,4.820312,0.964844,-0.337891,-0.365234,-0.589844,0.467407,-0.269165,0.610413,0.580017,up
603523,-8.125,4.746094,0.925781,-0.449219,-0.359375,-0.583984,0.468567,-0.270142,0.608887,0.580322,up
603528,-8.089844,4.667969,0.886719,-0.435547,-0.326172,-0.583984,0.469604,-0.270996,0.607483,0.580566,up
603534,-8.207031,4.554687,1.0,-0.435547,-0.326172,-0.583984,0.470581,-0.271851,0.606201,0.580688,up
603539,-8.207031,4.554687,1.039063,-0.328125,-0.283203,-0.578125,0.471558,-0.272705,0.60498,0.58075,up
603544,-8.242188,4.59375,1.039063,-0.248047,-0.275391,-0.580078,0.471558,-0.272705,0.60498,0.58075,up
603550,-8.359375,4.820312,1.15625,-0.166016,-0.267578,-0.585937,0.471558,-0.272705,0.60498,0.58075,up
603555,-8.507813,4.785156,1.15625,-0.166016,-0.267578,-0.585937,0.474854,-0.274841,0.601929,0.580261,up
603561,-8.628906,4.820312,1.191406,-0.013672,-0.275391,-0.601562,0.474854,-0.274841,0.601929,0.580261,up
603567,-9.050781,4.820312,1.460938,0.044922,-0.310547,-0.626953,0.474854,-0.274841,0.601929,0.580261,up
603572,-9.199219,4.898437,1.613281,0.044922,-0.310547,-0.626953,0.480713,-0.276611,0.598633,0.577942,up
603577,-9.273438,5.128906,1.730469,0.005859,-0.607422,-0.914062,0.480713,-0.276611,0.598633,0.577942,up
603582,-9.390625,5.28125,1.84375,0.005859,-0.607422,-0.914062,0.485046,-0.277588,0.595947,0.576599,up
603587,-9.546875,5.433594,1.960938,0.005859,-0.607422,-0.914062,0.485046,-0.277588,0.595947,0.576599,up
603592,-9.546875,5.394531,1.996094,-0.521484,-1.060547,-1.400391,0.487854,-0.278442,0.59375,0.576111,up
603597,-9.511719,5.359375,1.996094,-0.521484,-1.060547,-1.400391,0.494263,-0.280762,0.587769,0.575684,up
603602,-9.351563,5.320312,1.996094,-0.521484,-1.060547,-1.400391,0.498047,-0.282471,0.583496,0.575928,up
603607,-9.089844,5.242187,1.769531,-1.275391,-1.423828,-1.765625,0.498047,-0.282471,0.583496,0.575928,up
603612,-9.007813,5.011719,1.613281,-1.275391,-1.423828,-1.765625,0.501404,-0.28418,0.579346,0.576355,up
603617,-8.855469,4.9375,1.574219,-1.806641,-1.503906,-1.833984,0.501404,-0.28418,0.579346,0.576355,up
603622,-8.816406,5.167969,1.421875,-1.806641,-1.503906,-1.833984,0.508606,-0.289001,0.568604,0.578308,up
603627,-8.851563,5.433594,1.347656,-1.806641,-1.503906,-1.833984,0.512207,-0.291931,0.562317,0.579834,up
603632,-9.046875,5.625,1.382813,-2.175781,-1.365234,-1.701172,0.515503,-0.295044,0.555786,0.581604,up
603637,-9.316406,5.894531,1.460938,-2.175781,-1.365234,-1.701172,0.518311,-0.298035,0.549805,0.583313,up
603642,-9.738281,6.46875,1.574219,-2.175781,-1.365234,-1.701172,0.520874,-0.301147,0.543701,0.585144,up
603647,-11.0,8.308594,1.84375,-2.201172,-1.306641,-1.560547,0.523193,-0.304077,0.537842,0.586914,up
603652,-11.0,8.308594,1.84375,-2.201172,-1.306641,-1.560547,0.523193,-0.304077,0.537842,0.586914,up
603657,-12.757813,9.953125,1.882813,-2.507813,-1.220703,-1.564453,0.523193,-0.304077,0.537842,0.586914,up
603663,-14.828125,11.832031,1.421875,-2.507813,-1.220703,-1.564453,0.531555,-0.318054,0.511353,0.595642,up
603668,-16.175781,12.75,1.539063,-3.355469,-1.181641,-1.675781,0.532959,-0.322266,0.504211,0.598267,up
603674,-19.011719,13.902344,2.496094,-3.355469,-1.181641,-1.675781,0.534119,-0.327454,0.495605,0.601562,up
603679,-20.238281,13.863281,3.300781,-4.431641,-1.179688,-1.712891,0.534668,-0.332581,0.487427,0.604919,up
603685,-25.59375,14.054688,5.484375,-4.431641,-1.179688,-1.712891,0.534363,-0.339294,0.477478,0.609375,up
603691,-29.503906,13.59375,7.167969,-5.132812,-0.455078,-0.955078,0.534363,-0.339294,0.477478,0.609375,up
603697,-35.59375,13.363281,10.042969,-4.361328,0.130859,1.267578,0.534363,-0.339294,0.477478,0.609375,up
603702,-35.59375,13.363281,10.042969,-4.361328,0.130859,1.267578,0.524292,-0.358704,0.452576,0.625793,up
603707,-37.085937,14.476563,11.957031,-3.097656,0.322266,3.005859,0.524292,-0.358704,0.452576,0.625793,up
603712,-37.085937,14.476563,11.957031,-3.097656,0.322266,3.005859,0.524292,-0.358704,0.452576,0.625793,up
603717,-38.472656,24.933594,14.410156,1.601563,2.632813,7.4375,0.524292,-0.358704,0.452576,0.625793,up
603723,-42.101562,32.710937,5.867187,1.601563,2.632813,7.4375,0.460571,-0.336243,0.499817,0.651917,up
603728,-42.339844,37.0,-0.109375,7.228516,5.601562,14.546875,0.435547,-0.31958,0.529724,0.65387,up
603734,-42.566406,44.550781,-9.496094,7.228516,5.601562,14.546875,0.410645,-0.301147,0.557129,0.655945,up
603739,-42.566406,44.550781,-9.496094,7.306641,5.382812,18.234375,0.377808,-0.276123,0.588989,0.658875,up
603745,-40.304687,35.3125,-11.105469,7.306641,5.382812,18.234375,0.344299,-0.252258,0.616882,0.661255,up
603750,-36.28125,24.242187,-13.9375,6.169922,7.505859,20.179687,0.344299,-0.252258,0.616882,0.661255,up
603755,-34.171875,15.585938,-14.28125,5.183594,8.324219,20.71875,0.344299,-0.252258,0.616882,0.661255,up
603761,-31.226562,6.125,-13.632813,4.007812,8.767578,20.982422,0.344299,-0.252258,0.616882,0.661255,up
603766,-26.476562,-2.148438,-12.484375,3.029297,8.507813,21.005859,0.344299,-0.252258,0.616882,0.661255,up
603771,-17.511719,-13.640625,-11.488281,2.392578,7.722656,20.859375,0.344299,-0.252258,0.616882,0.661255,up
603776,-16.363281,-17.855469,-9.992188,2.392578,7.722656,20.859375,0.067749,-0.101746,0.738953,0.662598,up
603781,-15.828125,-18.65625,-7.925781,2.083984,5.804687,21.117187,0.067749,-0.101746,0.738953,0.662598,up
603786,-15.941406,-17.046875,-3.941406,2.083984,5.804687,21.117187,0.021423,0.042664,-0.755249,-0.653687,up
603791,-10.082031,-17.933594,26.746094,2.083984,5.804687,21.117187,0.021423,0.042664,-0.755249,-0.653687,up
603796,-7.015625,-19.617187,30.0,2.083984,5.804687,21.117187,0.107178,-0.018066,-0.779114,-0.617371,up
603801,-12.378906,-20.460937,26.519531,14.519531,9.320313,16.816406,0.107178,-0.018066,-0.779114,-0.617371,up
603807,-24.832031,-9.121094,28.085937,14.519531,9.320313,16.816406,0.221008,-0.057678,-0.825317,-0.516357,up
603812,-28.394531,-12.644531,32.070312,14.519531,9.320313,16.816406,0.221008,-0.057678,-0.825317,-0.516357,up
603817,-30.730469,-11.382813,39.964844,13.537109,2.673828,4.501953,0.221008,-0.057678,-0.825317,-0.516357,up
603822,-28.164062,-6.402344,42.792969,13.537109,2.673828,4.501953,0.258484,-0.061462,-0.851624,-0.451843,up
603827,-25.214844,-7.476562,35.707031,13.537109,2.673828,4.501953,0.269897,-0.057373,-0.863403,-0.422363,up
603832,-24.101562,-11.6875,32.757812,13.537109,2.673828,4.501953,0.276855,-0.050842,-0.872131,-0.400269,up
603838,-21.996094,-16.171875,31.148437,1.804688,-0.822266,-1.894531,0.271484,-0.042419,-0.876831,-0.394592,up
603844,-15.597656,-20.613281,24.371094,1.804688,-0.822266,-1.894531,0.262756,-0.041626,-0.873596,-0.407532,up
603849,-13.835938,-19.003906,21.347656,-7.056641,-3.056641,-3.425781,0.262756,-0.041626,-0.873596,-0.407532,up
603854,-11.078125,-16.324219,17.820312,-6.458984,-3.107422,-3.390625,0.262756,-0.041626,-0.873596,-0.407532,up
603859,-8.320313,-12.683594,14.523438,-6.458984,-3.107422,-3.390625,0.230042,-0.042542,-0.858459,-0.456421,up
603864,-4.796875,-4.601562,8.390625,-6.458984,-3.107422,-3.390625,0.230042,-0.042542,-0.858459,-0.456421,up
603869,-4.183594,-0.578125,5.871094,-11.101563,-3.816406,-1.445313,0.230042,-0.042542,-0.858459,-0.456421,up
603874,-3.339844,3.75,3.917969,-14.375,-4.130859,-1.105469,0.195862,-0.059875,-0.828247,-0.521545,up
603879,-1.15625,7.921875,2.609375,-15.853516,-4.1875,-1.177734,0.195862,-0.059875,-0.828247,-0.521545,up
603884,1.523438,11.339844,-7.042969,-15.853516,-4.1875,-1.177734,0.195862,-0.059875,-0.828247,-0.521545,up
603889,2.292969,14.246094,-14.96875,-10.224609,-1.949219,-2.003906,0.195862,-0.059875,-0.828247,-0.521545,up
603895,2.367188,16.851562,-17.464844,-6.259766,-2.033203,-2.064453,0.195862,-0.059875,-0.828247,-0.521545,up
603900,3.363281,17.082031,-10.375,-6.259766,-2.033203,-2.064453,0.144104,-0.087585,-0.75769,-0.630493,up
603906,5.433594,15.734375,-9.074219,0.458984,-1.888672,-2.701172,0.144104,-0.087585,-0.75769,-0.630493,up
603911,6.542969,15.351563,-8.652344,2.5625,-0.988281,-2.683594,0.144104,-0.087585,-0.75769,-0.630493,up
603916,7.117187,15.390625,-9.570313,2.5625,-0.988281,-2.683594,0.144104,-0.087585,-0.75769,-0.630493,up
603921,6.964844,15.167969,-10.683594,5.771484,0.583984,-2.222656,0.144104,-0.087585,-0.75769,-0.630493,up
603926,7.003906,14.589844,-11.792969,6.623047,0.615234,-2.085938,0.144104,-0.087585,-0.75769,-0.630493,up
603931,6.851562,14.320313,-11.714844,6.623047,0.615234,-2.085938,0.120117,-0.057922,-0.795105,-0.591614,up
603937,6.773437,14.507813,-10.109375,6.623047,0.615234,-2.085938,0.117737,-0.052795,-0.804932,-0.579102,up
603943,6.734375,14.933594,-7.960937,4.111328,-1.605469,-1.144531,0.117737,-0.052795,-0.804932,-0.579102,up
603948,7.042969,15.890625,-4.628906,4.111328,-1.605469,-1.144531,0.109802,-0.047607,-0.821106,-0.558105,up
603953,6.734375,15.972656,-4.515625,1.177734,-0.316406,-0.685547,0.105652,-0.046448,-0.82666,-0.550781,up
603958,6.046875,15.699219,-6.160156,1.177734,-0.316406,-0.685547,0.103027,-0.045288,-0.829712,-0.546753,up
603964,5.164062,14.898438,-8.117188,1.177734,-0.316406,-0.685547,0.102112,-0.043091,-0.829956,-0.546692,up
603970,5.316406,13.976563,-6.8125,1.177734,-0.316406,-0.685547,0.101807,-0.043091,-0.828613,-0.548767,up
603975,5.277344,13.554688,-6.085937,-1.785156,-0.265625,0.099609,0.101807,-0.043091,-0.828613,-0.548767,up
603981,5.203125,13.054688,-5.550781,-2.101563,-0.283203,0.248047,0.101807,-0.043091,-0.828613,-0.548767,up
603987,4.589844,12.132813,-5.164062,-2.253906,-0.191406,0.363281,0.101807,-0.043091,-0.828613,-0.548767,up
603992,4.320312,11.789063,-5.359375,-2.021484,-0.029297,0.416016,0.101807,-0.043091,-0.828613,-0.548767,up
603997,4.054687,11.488281,-5.394531,-1.507813,0.060547,0.441406,0.101807,-0.043091,-0.828613,-0.548767,up
604003,3.59375,10.375,-4.4375,-0.863281,0.050781,0.421875,0.101807,-0.043091,-0.828613,-0.548767,up
604008,3.480469,9.6875,-3.75,-0.863281,0.050781,0.421875,0.102478,-0.051636,-0.813049,-0.57074,up
604013,3.363281,9.113281,-3.136719,-0.863281,0.050781,0.421875,0.102478,-0.051636,-0.813049,-0.57074,up
604018,3.132813,8.570313,-2.597656,1.568359,0.0625,-0.017578,0.102478,-0.051636,-0.813049,-0.57074,up
604023,2.710938,7.3125,-1.792969,1.568359,0.0625,-0.017578,0.103516,-0.050659,-0.818542,-0.562805,up
604028,2.484375,6.894531,-1.601563,1.972656,0.009766,-0.175781,0.103516,-0.050659,-0.818542,-0.562805,up
604033,2.292969,6.695312,-1.566406,1.943359,-0.115234,-0.234375,0.103577,-0.049744,-0.821472,-0.558594,up
604038,2.175781,6.699219,-1.449219,1.943359,-0.115234,-0.234375,0.103394,-0.048828,-0.824219,-0.554626,up
604043,2.136719,6.578125,-0.992187,1.943359,-0.115234,-0.234375,0.102905,-0.048157,-0.826599,-0.551208,up
604048,2.253906,6.617187,-0.914062,0.447266,-0.328125,-0.214844,0.101929,-0.047668,-0.828735,-0.548218,up
604053,2.292969,6.734375,-0.992187,0.447266,-0.328125,-0.214844,0.101074,-0.047485,-0.829834,-0.546753,up
604058,2.253906,6.734375,-1.375,0.447266,-0.328125,-0.214844,0.099487,-0.047485,-0.82959,-0.547363,up
604063,2.136719,6.855469,-2.0625,0.447266,-0.328125,-0.214844,0.099487,-0.047485,-0.82959,-0.547363,up
604068,2.136719,6.96875,-2.179688,-1.298828,-0.173828,-0.037109,0.098755,-0.047791,-0.828308,-0.549438,up
604073,2.214844,7.3125,-2.484375,-1.298828,-0.173828,-0.037109,0.098145,-0.048157,-0.826782,-0.551819,up
604078,2.253906,7.542969,-2.675781,-1.298828,-0.173828,-0.037109,0.097595,-0.048645,-0.824951,-0.554565,up
604083,2.253906,7.734375,-2.945313,-1.251953,-0.091797,0.015625,0.097595,-0.048645,-0.824951,-0.554565,up
604088,2.328125,7.808594,-3.058594,-1.251953,-0.091797,0.015625,0.096802,-0.049683,-0.821228,-0.56012,up
604094,2.484375,8.042969,-3.058594,-1.251953,-0.091797,0.015625,0.09613,-0.050415,-0.818542,-0.564087,up
604100,2.636719,8.078125,-2.90625,-1.251953,-0.091797,0.015625,0.095825,-0.050598,-0.817932,-0.565002,up
604105,2.636719,8.117188,-2.90625,0.099609,-0.083984,-0.076172,0.095825,-0.050598,-0.817932,-0.565002,up
604110,2.675781,8.226563,-2.945313,0.408203,-0.072266,-0.115234,0.095825,-0.050598,-0.817932,-0.565002,up
604116,2.675781,8.542969,-3.019531,0.408203,-0.072266,-0.115234,0.094971,-0.05011,-0.81897,-0.563721,up
604122,2.75,8.765625,-2.984375,0.751953,-0.117188,-0.179687,0.094971,-0.05011,-0.81897,-0.563721,up
604128,2.710938,9.074219,-3.019531,0.697266,-0.150391,-0.210937,0.094971,-0.05011,-0.81897,-0.563721,up
604134,2.710938,9.496094,-3.136719,0.697266,-0.150391,-0.210937,0.093079,-0.048584,-0.823059,-0.558105,up
604139,2.710938,9.757813,-3.25,0.314453,-0.173828,-0.21875,0.092407,-0.048218,-0.823792,-0.557251,up
604144,2.710938,10.074219,-3.367188,0.056641,-0.166016,-0.214844,0.092407,-0.048218,-0.823792,-0.557251,up
604149,2.597656,10.457031,-3.632813,0.056641,-0.166016,-0.214844,0.091064,-0.047791,-0.824097,-0.557068,up
604154,2.597656,10.640625,-3.632813,0.056641,-0.166016,-0.214844,0.090332,-0.047729,-0.823669,-0.5578,up
604159,2.558594,10.71875,-3.710938,-0.638672,-0.177734,-0.126953,0.089661,-0.047791,-0.822998,-0.558899,up
604164,2.484375,10.5625,-3.902344,-0.638672,-0.177734,-0.126953,0.089661,-0.047791,-0.822998,-0.558899,up
604169,2.484375,10.457031,-3.941406,-0.638672,-0.177734,-0.126953,0.088562,-0.048218,-0.820923,-0.562073,up
604174,2.445313,10.339844,-3.976563,-0.720703,-0.138672,0.019531,0.088562,-0.048218,-0.820923,-0.562073,up
604179,2.40625,10.300781,-3.902344,-0.720703,-0.138672,0.019531,0.087891,-0.04895,-0.819031,-0.56488,up
604184,2.367188,10.21875,-3.902344,-0.720703,-0.138672,0.019531,0.087769,-0.049377,-0.818359,-0.565796,up
604190,2.214844,10.035156,-3.785156,-0.720703,-0.138672,0.019531,0.087769,-0.049866,-0.817871,-0.566467,up
604196,2.175781,9.757813,-3.558594,0.0,-0.042969,0.212891,0.087891,-0.050354,-0.817749,-0.56665,up
604201,2.175781,9.6875,-3.480469,0.214844,-0.025391,0.248047,0.087891,-0.050354,-0.817749,-0.56665,up
604206,2.0625,9.535156,-3.367188,0.214844,-0.025391,0.248047,0.088501,-0.05127,-0.818237,-0.565735,up
604212,2.023438,9.53125,-3.289063,0.533203,-0.007813,0.265625,0.088501,-0.05127,-0.818237,-0.565735,up
604218,2.023438,9.53125,-3.25,0.648437,-0.042969,0.267578,0.088501,-0.05127,-0.818237,-0.565735,up
604223,2.023438,9.453125,-3.175781,0.648437,-0.042969,0.267578,0.089661,-0.052612,-0.820496,-0.562134,up
604228,2.023438,9.378906,-3.097656,0.648437,-0.042969,0.267578,0.090027,-0.053101,-0.821411,-0.560669,up
604234,2.023438,9.269531,-3.136719,0.373047,-0.048828,0.214844,0.090027,-0.053101,-0.821411,-0.560669,up
604239,2.023438,9.1875,-3.136719,0.373047,-0.048828,0.214844,0.09082,-0.054382,-0.82312,-0.557922,up
604244,2.023438,9.113281,-3.136719,0.373047,-0.048828,0.214844,0.091003,-0.054749,-0.823181,-0.557739,up
604249,1.984375,8.953125,-3.175781,-0.191406,-0.009766,0.136719,0.091125,-0.055115,-0.822998,-0.557983,up
604255,1.945313,8.886719,-3.136719,-0.191406,-0.009766,0.136719,0.091309,-0.05542,-0.822632,-0.558472,up
604260,1.945313,8.765625,-3.136719,-0.191406,-0.009766,0.136719,0.091431,-0.055725,-0.822144,-0.559143,up
604265,1.945313,8.570313,-3.058594,-0.4375,0.074219,0.072266,0.091431,-0.055725,-0.822144,-0.559143,up
604270,1.945313,8.460938,-3.019531,-0.431641,0.089844,0.042969,0.091431,-0.055725,-0.822144,-0.559143,up
604276,1.910156,8.308594,-2.789063,-0.431641,0.089844,0.042969,0.091431,-0.055725,-0.822144,-0.559143,up
604281,1.871094,8.265625,-2.714844,-0.269531,0.089844,0.001953,0.091431,-0.055725,-0.822144,-0.559143,up
604288,1.832031,8.1875,-2.675781,-0.167969,0.085937,-0.013672,0.091431,-0.055725,-0.822144,-0.559143,up
604293,1.910156,8.230469,-2.5625,-0.056641,0.074219,-0.021484,0.091431,-0.055725,-0.822144,-0.559143,up
604298,1.910156,8.230469,-2.5625,-0.056641,0.074219,-0.021484,0.092407,-0.055603,-0.819214,-0.563293,up
604303,1.871094,8.269531,-2.523438,-0.056641,0.074219,-0.021484,0.092407,-0.055359,-0.819336,-0.56311,up
604309,1.910156,8.304688,-2.597656,0.160156,0.021484,-0.068359,0.092346,-0.054932,-0.819702,-0.562622,up
604315,1.945313,8.421875,-2.636719,0.160156,0.021484,-0.068359,0.092163,-0.054687,-0.819885,-0.562378,up
604320,1.945313,8.421875,-2.636719,0.080078,-0.025391,-0.121094,0.09198,-0.054443,-0.820007,-0.562256,up
604326,1.984375,8.574219,-2.789063,0.080078,-0.025391,-0.121094,0.091675,-0.054138,-0.820068,-0.562256,up
604332,1.984375,8.808594,-2.945313,0.080078,-0.025391,-0.121094,0.091309,-0.053894,-0.820007,-0.562439,up
604337,2.023438,8.925781,-2.945313,-0.199219,-0.060547,-0.179687,0.091309,-0.053894,-0.820007,-0.562439,up
604342,2.023438,9.03125,-2.984375,-0.267578,-0.070312,-0.179687,0.091309,-0.053894,-0.820007,-0.562439,up
604347,2.0625,9.148438,-3.097656,-0.267578,-0.070312,-0.179687,0.090027,-0.053162,-0.819092,-0.564087,up
604352,2.101563,9.070313,-3.175781,-0.267578,-0.070312,-0.179687,0.090027,-0.053162,-0.819092,-0.564087,up
604357,2.175781,9.074219,-3.175781,-0.267578,-0.070312,-0.179687,0.08905,-0.052734,-0.818115,-0.565674,up
604362,2.136719,9.035156,-3.210938,-0.337891,-0.107422,-0.154297,0.08905,-0.052734,-0.818115,-0.565674,up
604367,2.214844,8.996094,-3.328125,-0.337891,-0.107422,-0.154297,0.088074,-0.05249,-0.8172,-0.567139,up
604372,2.253906,8.996094,-3.402344,-0.222656,-0.105469,-0.134766,0.088074,-0.05249,-0.8172,-0.567139,up
604377,2.292969,9.035156,-3.402344,-0.15625,-0.099609,-0.113281,0.088074,-0.05249,-0.8172,-0.567139,up
604382,2.328125,8.992188,-3.402344,-0.101563,-0.083984,-0.083984,0.088074,-0.05249,-0.8172,-0.567139,up
604387,2.367188,8.847656,-3.367188,-0.101563,-0.083984,-0.083984,0.088074,-0.05249,-0.8172,-0.567139,up
604393,2.367188,8.804688,-3.328125,-0.101563,-0.083984,-0.083984,0.086304,-0.052124,-0.816345,-0.568726,up
604399,2.328125,8.765625,-3.25,0.111328,0.013672,-0.037109,0.086304,-0.052124,-0.816345,-0.568726,up
604404,2.292969,8.730469,-3.097656,0.111328,0.013672,-0.037109,0.086121,-0.051758,-0.81665,-0.568298,up
604409,2.292969,8.765625,-3.136719,0.140625,0.037109,-0.03125,0.086121,-0.051758,-0.81665,-0.568298,up
604414,2.253906,8.886719,-3.097656,0.111328,0.023437,-0.041016,0.086121,-0.051575,-0.816833,-0.568054,up
604419,2.214844,8.996094,-3.058594,0.111328,0.023437,-0.041016,0.086121,-0.05127,-0.817139,-0.567688,up
604424,2.214844,9.148438,-3.097656,0.111328,0.023437,-0.041016,0.085999,-0.051208,-0.8172,-0.567627,up
604429,2.175781,9.265625,-3.058594,0.111328,0.023437,-0.041016,0.085999,-0.051208,-0.8172,-0.567627,up
