timestamp,ax,ay,az,gx,gy,gz,qw,qx,qy,qz,label
71604,-8.71875,3.941406,0.054687,0.095703,0.005859,0.09375,0.256958,-0.487244,0.501892,0.666809,up
71610,-8.683594,4.09375,0.019531,0.148437,0.015625,0.066406,0.256958,-0.487244,0.501892,0.666809,up
71616,-8.683594,4.289062,0.019531,0.148437,0.015625,0.066406,0.256958,-0.487244,0.501892,0.666809,up
71621,-8.71875,4.363281,0.019531,0.236328,0.039063,0.064453,0.256958,-0.487244,0.501892,0.666809,up
71627,-8.75,4.363281,0.054687,0.230469,0.058594,0.085937,0.256958,-0.487244,0.501892,0.666809,up
71632,-8.792969,4.363281,0.09375,0.230469,0.058594,0.085937,0.257263,-0.486389,0.504822,0.6651,up
71637,-8.789063,4.363281,0.171875,0.230469,0.058594,0.085937,0.257324,-0.486206,0.50531,0.664856,up
71642,-8.71875,4.289062,0.210937,0.230469,0.058594,0.085937,0.257324,-0.486206,0.50531,0.664856,up
71647,-8.71875,4.289062,0.25,0.150391,0.03125,0.119141,0.257324,-0.486206,0.50531,0.664856,up
71652,-8.683594,4.324219,0.171875,0.150391,0.03125,0.119141,0.256958,-0.485657,0.506653,0.664429,up
71657,-8.722656,4.402344,0.171875,0.150391,0.03125,0.119141,0.256714,-0.485474,0.506897,0.664429,up
71662,-8.683594,4.441406,0.171875,0.150391,0.03125,0.119141,0.256714,-0.485474,0.506897,0.664429,up
71667,-8.605469,4.480469,0.210937,-0.013672,-0.007813,0.181641,0.256714,-0.485474,0.506897,0.664429,up
71672,-8.5625,4.480469,0.171875,-0.050781,-0.023437,0.230469,0.256042,-0.484985,0.507385,0.664673,up
71677,-8.566406,4.480469,0.210937,-0.050781,-0.023437,0.230469,0.255188,-0.484436,0.507812,0.6651,up
71682,-8.523438,4.441406,0.09375,-0.050781,-0.023437,0.230469,0.255188,-0.484436,0.507812,0.6651,up
71687,-8.566406,4.324219,0.09375,-0.050781,-0.023437,0.230469,0.254028,-0.483765,0.508301,0.665649,up
71692,-8.5625,4.210937,0.09375,-0.050781,-0.023437,0.230469,0.254028,-0.483765,0.508301,0.665649,up
71697,-8.488281,4.09375,0.132812,-0.087891,-0.042969,0.322266,0.254028,-0.483765,0.508301,0.665649,up
71703,-8.40625,3.902344,0.171875,-0.083984,-0.046875,0.320313,0.252869,-0.482971,0.508789,0.66626,up
71709,-8.410156,3.789063,0.132812,-0.083984,-0.046875,0.320313,0.251709,-0.482178,0.509277,0.666931,up
71715,-8.335938,3.828125,0.09375,-0.042969,-0.019531,0.291016,0.251709,-0.482178,0.509277,0.666931,up
71721,-8.335938,3.828125,0.09375,-0.023437,-0.023437,0.279297,0.251709,-0.482178,0.509277,0.666931,up
71726,-8.335938,3.980469,0.054687,0.027344,-0.001953,0.259766,0.251709,-0.482178,0.509277,0.666931,up
71732,-8.371094,4.019531,0.09375,0.087891,0.035156,0.242187,0.251709,-0.482178,0.509277,0.666931,up
71737,-8.410156,4.171875,0.054687,0.087891,0.035156,0.242187,0.249451,-0.480469,0.511108,0.667603,up
71743,-8.371094,4.210937,0.09375,0.125,0.058594,0.230469,0.248718,-0.479919,0.512207,0.667419,up
71748,-8.410156,4.25,0.09375,0.166016,0.089844,0.220703,0.248413,-0.479675,0.512878,0.667175,up
71753,-8.449219,4.289062,0.171875,0.166016,0.089844,0.220703,0.248108,-0.479492,0.51355,0.666992,up
71758,-8.484375,4.324219,0.132812,0.166016,0.089844,0.220703,0.247803,-0.479309,0.514099,0.666748,up
71764,-8.523438,4.324219,0.132812,0.166016,0.089844,0.220703,0.247498,-0.479126,0.514832,0.666443,up
71769,-8.527344,4.363281,0.210937,0.136719,0.130859,0.212891,0.247131,-0.479004,0.515442,0.666199,up
71775,-8.5625,4.363281,0.25,0.107422,0.132812,0.224609,0.247131,-0.479004,0.515442,0.666199,up
71780,-8.488281,4.402344,0.25,0.107422,0.132812,0.224609,0.246277,-0.47876,0.516479,0.665833,up
71785,-8.527344,4.402344,0.25,0.013672,0.123047,0.246094,0.246277,-0.47876,0.516479,0.665833,up
71790,-8.449219,4.441406,0.210937,-0.019531,0.130859,0.25,0.246277,-0.47876,0.516479,0.665833,up
71795,-8.40625,4.402344,0.171875,-0.019531,0.130859,0.25,0.246277,-0.47876,0.516479,0.665833,up
71800,-8.40625,4.402344,0.171875,-0.070312,0.126953,0.298828,0.246277,-0.47876,0.516479,0.665833,up
71806,-8.339844,4.363281,0.171875,-0.082031,0.123047,0.318359,0.246277,-0.47876,0.516479,0.665833,up
71811,-8.335938,4.441406,0.171875,-0.082031,0.123047,0.318359,0.242126,-0.478088,0.518738,0.666138,up
71816,-8.367188,4.441406,0.132812,-0.082031,0.123047,0.318359,0.242126,-0.478088,0.518738,0.666138,up
71821,-8.410156,4.363281,0.210937,-0.0625,0.119141,0.371094,0.242126,-0.478088,0.518738,0.666138,up
71826,-8.40625,4.324219,0.132812,-0.046875,0.132812,0.371094,0.242126,-0.478088,0.518738,0.666138,up
71831,-8.445313,4.25,0.09375,-0.046875,0.132812,0.371094,0.23877,-0.477173,0.520508,0.666626,up
71837,-8.410156,4.25,0.132812,0.001953,0.107422,0.361328,0.23877,-0.477173,0.520508,0.666626,up
71842,-8.410156,4.289062,0.132812,0.041016,0.101563,0.337891,0.23877,-0.477173,0.520508,0.666626,up
71848,-8.371094,4.324219,0.054687,0.060547,0.105469,0.326172,0.236572,-0.476379,0.522034,0.666748,up
71853,-8.367188,4.324219,0.09375,0.060547,0.105469,0.326172,0.235229,-0.475769,0.523254,0.666687,up
71859,-8.335938,4.402344,0.09375,0.060547,0.105469,0.326172,0.234741,-0.475525,0.523804,0.666626,up
71864,-8.339844,4.480469,0.019531,0.109375,0.107422,0.279297,0.234253,-0.475281,0.524353,0.666504,up
71869,-8.335938,4.515625,0.054687,0.109375,0.107422,0.279297,0.233826,-0.475037,0.524963,0.666382,up
71875,-8.300781,4.59375,-0.019531,0.109375,0.107422,0.279297,0.233337,-0.474854,0.525513,0.66626,up
71880,-8.300781,4.632812,0.019531,0.091797,0.107422,0.244141,0.23291,-0.47467,0.526062,0.666138,up
71885,-8.257813,4.707031,0.019531,0.091797,0.107422,0.244141,0.232422,-0.474487,0.52655,0.666016,up
71890,-8.21875,4.707031,-0.019531,0.064453,0.101563,0.220703,0.232422,-0.474487,0.52655,0.666016,up
71895,-8.257813,4.707031,-0.019531,0.048828,0.107422,0.212891,0.232422,-0.474487,0.52655,0.666016,up
71900,-8.21875,4.746094,-0.019531,0.037109,0.101563,0.207031,0.232422,-0.474487,0.52655,0.666016,up
71905,-8.257813,4.863281,0.019531,0.037109,0.101563,0.207031,0.232422,-0.474487,0.52655,0.666016,up
71910,-8.261719,4.898437,0.019531,0.011719,0.085937,0.216797,0.232422,-0.474487,0.52655,0.666016,up
71915,-8.222656,4.898437,0.019531,-0.023437,0.089844,0.222656,0.232422,-0.474487,0.52655,0.666016,up
71921,-8.21875,4.976562,-0.019531,-0.048828,0.083984,0.232422,0.232422,-0.474487,0.52655,0.666016,up
71926,-8.222656,5.015625,-0.019531,-0.078125,0.082031,0.240234,0.232422,-0.474487,0.52655,0.666016,up
71931,-8.261719,5.015625,0.019531,-0.078125,0.082031,0.240234,0.227905,-0.473267,0.529663,0.666016,up
71936,-8.257813,4.976562,-0.019531,-0.117188,0.082031,0.279297,0.227905,-0.473267,0.529663,0.666016,up
71942,-8.257813,4.976562,-0.019531,-0.117188,0.082031,0.279297,0.225647,-0.472778,0.530212,0.666626,up
71947,-8.300781,4.9375,-0.019531,-0.117188,0.082031,0.279297,0.225647,-0.472778,0.530212,0.666626,up
71953,-8.296875,4.898437,-0.019531,-0.185547,0.083984,0.34375,0.223755,-0.472412,0.530579,0.667297,up
71958,-8.261719,4.898437,-0.019531,-0.185547,0.083984,0.34375,0.223755,-0.472412,0.530579,0.667297,up
71963,-8.261719,4.824219,-0.019531,-0.205078,0.105469,0.402344,0.223755,-0.472412,0.530579,0.667297,up
71968,-8.179688,4.824219,-0.019531,-0.205078,0.105469,0.402344,0.22052,-0.471741,0.531189,0.668335,up
71973,-8.21875,4.785156,0.019531,-0.205078,0.105469,0.402344,0.22052,-0.471741,0.531189,0.668335,up
71978,-8.21875,4.785156,0.019531,-0.205078,0.105469,0.402344,0.21936,-0.471436,0.531433,0.668701,up
71983,-8.222656,4.824219,-0.019531,-0.152344,0.132812,0.439453,0.21936,-0.471436,0.531433,0.668701,up
71988,-8.257813,4.863281,0.019531,-0.111328,0.126953,0.433594,0.216309,-0.470642,0.532593,0.669373,up
71993,-8.261719,4.898437,0.019531,-0.111328,0.126953,0.433594,0.215271,-0.470276,0.533142,0.669556,up
71999,-8.300781,5.089844,0.019531,-0.111328,0.126953,0.433594,0.214355,-0.46991,0.533691,0.669617,up
72004,-8.300781,5.089844,0.019531,0.060547,0.085937,0.455078,0.213379,-0.46936,0.534424,0.669739,up
72009,-8.371094,5.320312,0.09375,0.060547,0.085937,0.455078,0.212585,-0.468872,0.535156,0.669739,up
72015,-8.445313,5.511719,0.09375,0.060547,0.085937,0.455078,0.211914,-0.468323,0.535889,0.6698,up
72021,-8.527344,5.667969,0.132812,0.107422,0.0,0.521484,0.211121,-0.46759,0.536682,0.669922,up
72026,-8.640625,5.78125,0.132812,0.099609,-0.035156,0.552734,0.211121,-0.46759,0.536682,0.669922,up
72032,-8.722656,5.933594,0.25,0.033203,-0.109375,0.644531,0.211121,-0.46759,0.536682,0.669922,up
72037,-8.722656,6.011719,0.171875,0.033203,-0.109375,0.644531,0.208618,-0.464905,0.539062,0.670654,up
72043,-8.71875,6.011719,0.210937,-0.021484,-0.148437,0.699219,0.206604,-0.462585,0.540466,0.671753,up
72048,-8.753906,6.011719,0.25,-0.021484,-0.148437,0.699219,0.205383,-0.461243,0.541016,0.672607,up
72053,-8.644531,5.972656,0.285156,-0.308594,-0.248047,0.857422,0.205383,-0.461243,0.541016,0.672607,up
72058,-8.644531,5.933594,0.324219,-0.308594,-0.248047,0.857422,0.203857,-0.459717,0.541443,0.673706,up
72063,-8.566406,5.78125,0.25,-0.398438,-0.25,0.90625,0.203857,-0.459717,0.541443,0.673706,up
72068,-8.566406,5.78125,0.25,-0.398438,-0.25,0.90625,0.198792,-0.455383,0.542114,0.677673,up
72073,-8.445313,5.703125,0.324219,-0.398438,-0.25,0.90625,0.198792,-0.455383,0.542114,0.677673,up
72078,-8.371094,5.589844,0.402344,-0.681641,-0.291016,1.097656,0.198792,-0.455383,0.542114,0.677673,up
72083,-8.261719,5.4375,0.441406,-0.681641,-0.291016,1.097656,0.194519,-0.452209,0.542053,0.68103,up
72088,-8.21875,5.320312,0.402344,-0.671875,-0.283203,1.179688,0.192078,-0.450378,0.542053,0.682922,up
72093,-8.179688,5.320312,0.441406,-0.671875,-0.283203,1.179688,0.189575,-0.448547,0.542053,0.684814,up
72098,-8.105469,5.28125,0.476562,-0.558594,-0.265625,1.261719,0.187134,-0.446777,0.542175,0.686584,up
72104,-7.988281,5.246094,0.515625,-0.470703,-0.271484,1.292969,0.184814,-0.445007,0.542419,0.688171,up
72110,-7.953125,5.167969,0.554687,-0.470703,-0.271484,1.292969,0.180115,-0.441101,0.543457,0.691101,up
72116,-7.875,5.167969,0.554687,-0.267578,-0.240234,1.365234,0.180115,-0.441101,0.543457,0.691101,up
72121,-7.835937,5.089844,0.554687,-0.267578,-0.240234,1.365234,0.175476,-0.436829,0.545349,0.693542,up
72126,-7.796875,5.089844,0.59375,-0.068359,-0.179687,1.410156,0.175476,-0.436829,0.545349,0.693542,up
72131,-7.71875,5.089844,0.554687,0.052734,-0.152344,1.419922,0.175476,-0.436829,0.545349,0.693542,up
72137,-7.683594,5.089844,0.515625,0.15625,-0.121094,1.417969,0.175476,-0.436829,0.545349,0.693542,up
72143,-7.5625,5.167969,0.515625,0.15625,-0.121094,1.417969,0.164673,-0.425659,0.553589,0.696594,up
72148,-7.453125,5.28125,0.59375,0.15625,-0.121094,1.417969,0.164673,-0.425659,0.553589,0.696594,up
72153,-7.417969,5.320312,0.59375,0.423828,-0.076172,1.371094,0.16095,-0.421204,0.557983,0.696655,up
72158,-7.300781,5.476562,0.515625,0.423828,-0.076172,1.371094,0.16095,-0.421204,0.557983,0.696655,up
72163,-7.261719,5.550781,0.515625,0.570312,0.015625,1.277344,0.16095,-0.421204,0.557983,0.696655,up
72168,-7.21875,5.589844,0.554687,0.570312,0.015625,1.277344,0.15741,-0.416992,0.562744,0.696167,up
72174,-7.152344,5.78125,0.554687,0.570312,0.015625,1.277344,0.154236,-0.413208,0.567383,0.695374,up
72179,-7.152344,5.859375,0.554687,0.570312,0.015625,1.277344,0.154236,-0.413208,0.567383,0.695374,up
72184,-7.152344,5.859375,0.554687,0.617187,0.082031,1.09375,0.152832,-0.411499,0.56958,0.694885,up
72189,-7.152344,5.933594,0.515625,0.617187,0.082031,1.09375,0.152832,-0.411499,0.56958,0.694885,up
72194,-7.070312,6.203125,0.515625,0.615234,0.087891,1.044922,0.150024,-0.408203,0.574097,0.693787,up
72199,-7.03125,6.277344,0.476562,0.605469,0.089844,0.998047,0.147522,-0.405151,0.578308,0.692566,up
72205,-6.914062,6.394531,0.476562,0.605469,0.089844,0.998047,0.14624,-0.403564,0.580566,0.691895,up
72210,-6.875,6.433594,0.476562,0.560547,0.056641,0.841797,0.145386,-0.402405,0.582153,0.691406,up
72215,-6.796875,6.472656,0.476562,0.560547,0.056641,0.841797,0.144409,-0.401062,0.584045,0.690796,up
72221,-6.796875,6.585937,0.441406,0.548828,0.041016,0.730469,0.144409,-0.401062,0.584045,0.690796,up
72227,-6.765625,6.664062,0.402344,0.511719,0.023437,0.677734,0.144409,-0.401062,0.584045,0.690796,up
72232,-6.726562,6.699219,0.363281,0.474609,0.009766,0.628906,0.144409,-0.401062,0.584045,0.690796,up
72237,-6.769531,6.738281,0.324219,0.427734,-0.013672,0.580078,0.144409,-0.401062,0.584045,0.690796,up
72242,-6.726562,6.773437,0.363281,0.376953,-0.037109,0.527344,0.144409,-0.401062,0.584045,0.690796,up
72247,-6.726562,6.773437,0.363281,0.326172,-0.064453,0.476562,0.140564,-0.39447,0.592712,0.687988,up
72252,-6.6875,6.855469,0.285156,0.326172,-0.064453,0.476562,0.140564,-0.39447,0.592712,0.687988,up
72257,-6.6875,6.855469,0.285156,0.326172,-0.064453,0.476562,0.139893,-0.392822,0.594421,0.687561,up
72263,-6.609375,6.933594,0.25,0.179687,-0.109375,0.322266,0.139893,-0.392822,0.594421,0.687561,up
72268,-6.609375,6.929687,0.171875,0.179687,-0.109375,0.322266,0.139343,-0.390747,0.596069,0.6875,up
72273,-6.570312,6.972656,0.210937,0.179687,-0.109375,0.322266,0.139343,-0.390747,0.596069,0.6875,up
72278,-6.570312,6.933594,0.171875,0.044922,-0.144531,0.134766,0.139343,-0.390747,0.596069,0.6875,up
72284,-6.535156,6.972656,0.09375,0.044922,-0.144531,0.134766,0.139282,-0.389221,0.59668,0.687805,up
72290,-6.457031,6.972656,0.132812,0.044922,-0.144531,0.134766,0.139343,-0.388794,0.59668,0.687988,up
72295,-6.496094,7.011719,0.132812,-0.0625,-0.150391,0.025391,0.139465,-0.388489,0.596619,0.688232,up
72300,-6.457031,7.011719,0.09375,-0.083984,-0.148437,-0.005859,0.139465,-0.388489,0.596619,0.688232,up
72306,-6.457031,7.007812,0.054687,-0.083984,-0.148437,-0.005859,0.139771,-0.388062,0.596252,0.688721,up
72311,-6.457031,7.011719,0.132812,-0.091797,-0.160156,-0.041016,0.139771,-0.388062,0.596252,0.688721,up
72317,-6.457031,7.046875,0.09375,-0.099609,-0.150391,-0.058594,0.139771,-0.388062,0.596252,0.688721,up
72323,-6.457031,7.011719,0.09375,-0.099609,-0.150391,-0.058594,0.140381,-0.387573,0.595459,0.689575,up
72328,-6.457031,7.007812,0.054687,-0.125,-0.128906,-0.076172,0.140381,-0.387573,0.595459,0.689575,up
72333,-6.457031,7.011719,0.09375,-0.125,-0.128906,-0.076172,0.140808,-0.387451,0.594849,0.690125,up
72338,-6.457031,6.972656,0.09375,-0.125,-0.128906,-0.076172,0.140991,-0.38739,0.594482,0.69043,up
72344,-6.417969,6.972656,0.09375,-0.103516,-0.117188,-0.078125,0.141357,-0.387268,0.593872,0.690857,up
72349,-6.457031,6.929687,0.09375,-0.080078,-0.097656,-0.078125,0.141602,-0.387207,0.593628,0.691101,up
72354,-6.417969,6.96875,0.054687,-0.080078,-0.097656,-0.078125,0.141602,-0.387207,0.593628,0.691101,up
72359,-6.457031,6.96875,0.054687,-0.080078,-0.097656,-0.078125,0.141968,-0.387146,0.593262,0.691345,up
72364,-6.417969,6.972656,0.09375,0.0,-0.078125,-0.064453,0.142212,-0.387146,0.59314,0.691406,up
72369,-6.417969,6.96875,0.054687,0.027344,-0.0625,-0.070312,0.142212,-0.387146,0.59314,0.691406,up
72374,-6.457031,7.007812,0.054687,0.027344,-0.0625,-0.070312,0.142639,-0.387085,0.593079,0.691406,up
72379,-6.457031,7.011719,0.09375,0.09375,-0.054687,-0.070312,0.142639,-0.387085,0.593079,0.691406,up
72384,-6.457031,7.078125,-0.019531,0.09375,-0.054687,-0.070312,0.142944,-0.387085,0.59314,0.691345,up
72389,-6.496094,7.117187,0.019531,0.103516,-0.056641,-0.066406,0.142944,-0.387085,0.59314,0.691345,up
72395,-6.496094,7.117187,0.019531,0.103516,-0.056641,-0.066406,0.143799,-0.386902,0.593445,0.690918,up
72400,-6.496094,7.117187,0.019531,0.126953,-0.058594,-0.044922,0.144104,-0.386841,0.593628,0.690796,up
72405,-6.496094,7.121094,0.054687,0.113281,-0.072266,-0.046875,0.144409,-0.386719,0.593811,0.690674,up
72411,-6.535156,7.117187,0.019531,0.113281,-0.072266,-0.046875,0.144653,-0.386658,0.593872,0.690552,up
72416,-6.535156,7.121094,0.054687,0.080078,-0.082031,-0.029297,0.144653,-0.386658,0.593872,0.690552,up
72422,-6.535156,7.117187,0.019531,0.072266,-0.091797,-0.027344,0.145142,-0.386353,0.594055,0.69043,up
72427,-6.570312,7.078125,0.019531,0.048828,-0.097656,-0.029297,0.145142,-0.386353,0.594055,0.69043,up
72433,-6.570312,7.078125,0.019531,0.011719,-0.109375,-0.025391,0.145142,-0.386353,0.594055,0.69043,up
72438,-6.609375,7.082031,-0.019531,0.011719,-0.109375,-0.025391,0.145874,-0.385925,0.594055,0.690552,up
72444,-6.570312,7.078125,0.019531,0.0,-0.119141,-0.029297,0.146301,-0.385559,0.593933,0.690796,up
72449,-6.535156,7.011719,-0.019531,0.0,-0.119141,-0.029297,0.146545,-0.385376,0.593872,0.690918,up
72454,-6.535156,6.972656,-0.019531,-0.007813,-0.125,-0.029297,0.146545,-0.385376,0.593872,0.690918,up
72459,-6.570312,6.972656,-0.019531,-0.007813,-0.125,-0.029297,0.146973,-0.385071,0.593689,0.691162,up
72464,-6.535156,6.972656,-0.058594,-0.007813,-0.125,-0.029297,0.147217,-0.384888,0.593628,0.691223,up
72469,-6.496094,6.972656,-0.058594,-0.007813,-0.125,-0.029297,0.147461,-0.384705,0.593506,0.691345,up
72474,-6.457031,6.890625,-0.058594,0.011719,-0.113281,-0.039063,0.147461,-0.384705,0.593506,0.691345,up
72479,-6.496094,6.855469,-0.058594,0.011719,-0.113281,-0.039063,0.147949,-0.384399,0.593445,0.691528,up
72484,-6.496094,6.894531,-0.097656,0.011719,-0.113281,-0.039063,0.148193,-0.384216,0.593445,0.691589,up
72490,-6.496094,6.890625,-0.019531,0.035156,-0.119141,-0.023437,0.148437,-0.384033,0.593445,0.69165,up
72495,-6.496094,6.855469,-0.019531,0.050781,-0.115234,-0.021484,0.148682,-0.38385,0.593445,0.69165,up
72500,-6.535156,6.929687,-0.019531,0.050781,-0.115234,-0.021484,0.148926,-0.383667,0.593445,0.691711,up
72506,-6.648437,6.96875,-0.019531,0.050781,-0.115234,-0.021484,0.149109,-0.383423,0.593506,0.691711,up
72511,-6.648437,7.050781,0.019531,0.039063,-0.109375,-0.001953,0.149109,-0.383423,0.593506,0.691711,up
72517,-6.6875,7.011719,-0.019531,0.023437,-0.109375,-0.021484,0.149109,-0.383423,0.593506,0.691711,up
72522,-6.726562,7.011719,0.019531,0.023437,-0.109375,-0.021484,0.149719,-0.382874,0.593445,0.691956,up
72527,-6.726562,7.007812,0.054687,-0.015625,-0.119141,-0.03125,0.149719,-0.382874,0.593445,0.691956,up
72532,-6.765625,7.007812,0.019531,-0.046875,-0.126953,-0.042969,0.149719,-0.382874,0.593445,0.691956,up
72537,-6.765625,7.007812,0.019531,-0.068359,-0.128906,-0.044922,0.150391,-0.382385,0.593018,0.692444,up
72543,-6.800781,6.96875,0.019531,-0.068359,-0.128906,-0.044922,0.150391,-0.382385,0.593018,0.692444,up
72549,-6.765625,6.972656,0.054687,-0.115234,-0.142578,-0.054687,0.15094,-0.382019,0.592224,0.693237,up
72554,-6.800781,6.894531,0.09375,-0.115234,-0.142578,-0.054687,0.15094,-0.382019,0.592224,0.693237,up
72559,-6.765625,6.890625,0.054687,-0.115234,-0.142578,-0.054687,0.151306,-0.381775,0.591431,0.693909,up
72564,-6.765625,6.851562,0.09375,-0.162109,-0.15625,-0.060547,0.151306,-0.381775,0.591431,0.693909,up
72569,-6.765625,6.8125,0.132812,-0.162109,-0.15625,-0.060547,0.151489,-0.381653,0.591064,0.694275,up
72574,-6.765625,6.738281,0.132812,-0.166016,-0.15625,-0.064453,0.151489,-0.381653,0.591064,0.694275,up
72579,-6.769531,6.699219,0.132812,-0.162109,-0.169922,-0.066406,0.151855,-0.381409,0.590271,0.695007,up
72584,-6.769531,6.699219,0.132812,-0.144531,-0.173828,-0.066406,0.152039,-0.381287,0.589844,0.695435,up
72589,-6.6875,6.664062,0.171875,-0.144531,-0.173828,-0.066406,0.152222,-0.381104,0.589478,0.695801,up
72594,-6.726562,6.699219,0.132812,-0.144531,-0.173828,-0.066406,0.152527,-0.380981,0.58905,0.696167,up
72599,-6.726562,6.664062,0.171875,-0.121094,-0.179687,-0.072266,0.152527,-0.380981,0.58905,0.696167,up
72605,-6.6875,6.664062,0.171875,-0.119141,-0.173828,-0.082031,0.15332,-0.380493,0.587952,0.697144,up
72611,-6.765625,6.625,0.210937,-0.119141,-0.173828,-0.082031,0.153564,-0.380371,0.587708,0.697388,up
72616,-6.726562,6.664062,0.171875,-0.074219,-0.158203,-0.095703,0.153564,-0.380371,0.587708,0.697388,up
72621,-6.730469,6.699219,0.171875,-0.064453,-0.154297,-0.101563,0.154175,-0.380127,0.587097,0.697876,up
72627,-6.800781,6.816406,0.171875,-0.048828,-0.144531,-0.101563,0.154175,-0.380127,0.587097,0.697876,up
72632,-6.800781,6.8125,0.210937,-0.027344,-0.138672,-0.105469,0.154175,-0.380127,0.587097,0.697876,up
72637,-6.800781,6.894531,0.210937,-0.029297,-0.123047,-0.113281,0.154175,-0.380127,0.587097,0.697876,up
72643,-6.839844,6.929687,0.210937,-0.021484,-0.121094,-0.117188,0.154175,-0.380127,0.587097,0.697876,up
72649,-6.878906,7.011719,0.25,-0.021484,-0.121094,-0.117188,0.156311,-0.379761,0.585815,0.698669,up
72654,-6.957031,7.078125,0.25,-0.021484,-0.121094,-0.117188,0.156311,-0.379761,0.585815,0.698669,up
72659,-6.957031,7.15625,0.25,-0.068359,-0.125,-0.140625,0.156311,-0.379761,0.585815,0.698669,up
72665,-7.03125,7.277344,0.210937,-0.068359,-0.125,-0.140625,0.157349,-0.379761,0.584961,0.699158,up
72671,-7.070312,7.355469,0.285156,-0.068359,-0.125,-0.140625,0.157776,-0.379822,0.584412,0.699524,up
72676,-7.070312,7.355469,0.285156,-0.273438,-0.162109,-0.208984,0.158081,-0.379944,0.583801,0.69989,up
72681,-7.070312,7.355469,0.285156,-0.363281,-0.175781,-0.234375,0.158386,-0.380066,0.583008,0.700439,up
72686,-7.148437,7.3125,0.285156,-0.363281,-0.175781,-0.234375,0.158691,-0.380249,0.58197,0.701111,up
72691,-7.183594,7.273437,0.324219,-0.539062,-0.195312,-0.279297,0.158691,-0.380249,0.58197,0.701111,up
72697,-7.148437,7.199219,0.324219,-0.626953,-0.195312,-0.289063,0.158691,-0.380249,0.58197,0.701111,up
72702,-7.148437,7.121094,0.25,-0.626953,-0.195312,-0.289063,0.158691,-0.380249,0.58197,0.701111,up
72707,-7.03125,7.046875,0.324219,-0.736328,-0.1875,-0.304688,0.158691,-0.380249,0.58197,0.701111,up
72713,-6.957031,7.007812,0.441406,-0.75,-0.183594,-0.296875,0.158691,-0.380249,0.58197,0.701111,up
72718,-6.878906,6.933594,0.441406,-0.75,-0.183594,-0.296875,0.159607,-0.382324,0.572815,0.707275,up
72724,-6.796875,6.777344,0.515625,-0.75,-0.183594,-0.296875,0.159729,-0.38324,0.569946,0.709106,up
72729,-6.765625,6.777344,0.476562,-0.75,-0.183594,-0.296875,0.159729,-0.38324,0.569946,0.709106,up
72734,-6.765625,6.8125,0.402344,-0.496094,-0.0625,-0.259766,0.159729,-0.38324,0.569946,0.709106,up
72739,-6.765625,6.816406,0.441406,-0.496094,-0.0625,-0.259766,0.159851,-0.384094,0.567627,0.710388,up
72744,-6.726562,6.773437,0.476562,-0.496094,-0.0625,-0.259766,0.159973,-0.384521,0.566772,0.710815,up
72750,-6.726562,6.8125,0.515625,-0.15625,0.015625,-0.195312,0.160278,-0.385254,0.565857,0.711121,up
72756,-6.839844,6.96875,0.441406,-0.15625,0.015625,-0.195312,0.160522,-0.385559,0.565674,0.710999,up
72761,-6.839844,6.96875,0.441406,0.091797,0.076172,-0.160156,0.160767,-0.385925,0.565674,0.710815,up
72766,-6.878906,7.007812,0.554687,0.091797,0.076172,-0.160156,0.161011,-0.38623,0.565735,0.71051,up
72771,-6.839844,7.007812,0.554687,0.091797,0.076172,-0.160156,0.161255,-0.386597,0.565857,0.710205,up
72776,-6.839844,6.972656,0.59375,0.091797,0.076172,-0.160156,0.161255,-0.386597,0.565857,0.710205,up
72781,-6.800781,6.933594,0.59375,0.0625,0.132812,-0.154297,0.161255,-0.386597,0.565857,0.710205,up
72786,-6.839844,6.890625,0.632812,0.001953,0.136719,-0.164062,0.161255,-0.386597,0.565857,0.710205,up
72791,-6.800781,6.894531,0.667969,0.001953,0.136719,-0.164062,0.161804,-0.388306,0.565796,0.709229,up
72797,-6.765625,6.8125,0.746094,0.001953,0.136719,-0.164062,0.161804,-0.388794,0.565491,0.709167,up
72802,-6.765625,6.777344,0.746094,-0.212891,0.130859,-0.197266,0.161804,-0.389343,0.565063,0.709167,up
72807,-6.765625,6.664062,0.785156,-0.212891,0.130859,-0.197266,0.161804,-0.389343,0.565063,0.709167,up
72812,-6.800781,6.585937,0.707031,-0.341797,0.134766,-0.230469,0.161804,-0.389343,0.565063,0.709167,up
72818,-6.835937,6.585937,0.707031,-0.380859,0.128906,-0.255859,0.161804,-0.389343,0.565063,0.709167,up
72823,-6.839844,6.546875,0.746094,-0.402344,0.117188,-0.287109,0.161804,-0.389343,0.565063,0.709167,up
72829,-6.914062,6.585937,0.785156,-0.447266,0.068359,-0.326172,0.161804,-0.389343,0.565063,0.709167,up
72834,-6.914062,6.585937,0.785156,-0.447266,0.068359,-0.326172,0.161377,-0.393616,0.559998,0.710937,up
72840,-6.917969,6.625,0.824219,-0.472656,0.03125,-0.341797,0.161377,-0.393616,0.559998,0.710937,up
72845,-6.996094,6.625,0.824219,-0.472656,0.03125,-0.341797,0.161621,-0.395752,0.556519,0.712402,up
72850,-6.996094,6.625,0.824219,-0.472656,0.03125,-0.341797,0.161682,-0.396484,0.555237,0.713013,up
72855,-6.996094,6.585937,0.859375,-0.529297,-0.013672,-0.318359,0.161682,-0.396484,0.555237,0.713013,up
72860,-7.035156,6.585937,0.898437,-0.529297,-0.013672,-0.318359,0.161804,-0.397705,0.552795,0.714172,up
72865,-7.035156,6.507812,0.898437,-0.529297,-0.013672,-0.318359,0.161743,-0.398254,0.551453,0.714905,up
72870,-7.074219,6.355469,0.898437,-0.529297,-0.013672,-0.318359,0.161743,-0.398254,0.551453,0.714905,up
72875,-7.113281,6.316406,0.9375,-0.648437,-0.03125,-0.253906,0.161743,-0.398254,0.551453,0.714905,up
72880,-7.074219,6.242187,0.9375,-0.648437,-0.03125,-0.253906,0.161438,-0.399963,0.54718,0.717346,up
72885,-7.074219,6.203125,0.976562,-0.648437,-0.03125,-0.253906,0.161255,-0.400513,0.545776,0.71814,up
72890,-7.113281,6.164062,1.015625,-0.642578,-0.023437,-0.236328,0.161255,-0.400513,0.545776,0.71814,up
72895,-7.113281,6.085937,1.050781,-0.617187,-0.017578,-0.230469,0.161072,-0.401062,0.54425,0.718994,up
72900,-7.148437,6.050781,1.089844,-0.617187,-0.017578,-0.230469,0.160706,-0.402039,0.541687,0.72052,up
72905,-7.148437,5.972656,1.050781,-0.617187,-0.017578,-0.230469,0.160522,-0.402588,0.540405,0.721191,up
72910,-7.179687,5.972656,1.089844,-0.617187,-0.017578,-0.230469,0.160522,-0.402588,0.540405,0.721191,up
72915,-7.183594,5.933594,1.089844,-0.474609,0.003906,-0.201172,0.160278,-0.403503,0.53833,0.72229,up
72920,-7.222656,5.972656,1.167969,-0.474609,0.003906,-0.201172,0.160217,-0.40387,0.537476,0.722717,up
72925,-7.21875,5.933594,1.128906,-0.271484,0.025391,-0.171875,0.160217,-0.40387,0.537476,0.722717,up
72930,-7.21875,5.894531,1.167969,-0.220703,0.027344,-0.167969,0.160217,-0.404297,0.536682,0.723022,up
72936,-7.257812,5.933594,1.207031,-0.220703,0.027344,-0.167969,0.160278,-0.405029,0.535583,0.72345,up
72941,-7.261719,5.972656,1.167969,-0.128906,0.027344,-0.146484,0.160278,-0.405029,0.535583,0.72345,up
72946,-7.300781,6.050781,1.207031,-0.128906,0.027344,-0.146484,0.160461,-0.40564,0.53479,0.723694,up
72952,-7.375,6.125,1.207031,-0.128906,0.027344,-0.146484,0.160583,-0.405884,0.534546,0.723694,up
72957,-7.453125,6.203125,1.207031,-0.128906,0.027344,-0.146484,0.160706,-0.406128,0.534302,0.723694,up
72964,-7.414062,6.242187,1.207031,-0.054687,0.025391,-0.115234,0.160706,-0.406128,0.534302,0.723694,up
72970,-7.453125,6.277344,1.167969,-0.0625,0.017578,-0.095703,0.160706,-0.406128,0.534302,0.723694,up
72975,-7.457031,6.277344,1.242188,-0.0625,0.017578,-0.095703,0.161011,-0.40686,0.533447,0.723816,up
72980,-7.453125,6.277344,1.207031,-0.0625,0.017578,-0.095703,0.161072,-0.407043,0.533264,0.723877,up
72985,-7.492187,6.277344,1.207031,-0.101563,0.015625,-0.058594,0.161072,-0.407043,0.533264,0.723877,up
72990,-7.492187,6.164062,1.207031,-0.101563,0.015625,-0.058594,0.161011,-0.407288,0.532837,0.72406,up
72995,-7.453125,6.164062,1.207031,-0.101563,0.015625,-0.058594,0.16095,-0.407471,0.532532,0.724243,up
73000,-7.453125,6.164062,1.167969,-0.101563,0.015625,-0.058594,0.16095,-0.407471,0.532532,0.724243,up
73005,-7.453125,6.125,1.167969,-0.134766,0.019531,-0.033203,0.160706,-0.407654,0.532043,0.724487,up
73010,-7.457031,6.011719,1.207031,-0.134766,0.019531,-0.033203,0.160706,-0.407654,0.532043,0.724487,up
73015,-7.457031,6.011719,1.207031,-0.111328,0.015625,-0.011719,0.160583,-0.407776,0.531738,0.72467,up
73020,-7.457031,5.972656,1.167969,-0.111328,0.015625,-0.011719,0.160461,-0.407898,0.531555,0.724792,up
73026,-7.414062,5.933594,1.128906,-0.058594,0.019531,-0.005859,0.160339,-0.407959,0.531372,0.724915,up
73032,-7.457031,5.972656,1.128906,-0.058594,0.019531,-0.005859,0.160217,-0.408081,0.531189,0.725037,up
73038,-7.496094,5.972656,1.167969,0.0,0.015625,0.005859,0.160217,-0.408081,0.531189,0.725037,up
73043,-7.53125,6.050781,1.167969,0.021484,0.023437,0.011719,0.160217,-0.408081,0.531189,0.725037,up
73049,-7.453125,6.050781,1.167969,0.050781,0.017578,0.015625,0.160217,-0.408081,0.531189,0.725037,up
73055,-7.492187,6.050781,1.167969,0.060547,0.007813,0.025391,0.160217,-0.408081,0.531189,0.725037,up
73060,-7.492187,6.085937,1.167969,0.076172,0.011719,0.037109,0.160217,-0.408081,0.531189,0.725037,up
73066,-7.492187,6.050781,1.167969,0.076172,0.011719,0.037109,0.160034,-0.407837,0.53186,0.72467,up
73071,-7.53125,6.050781,1.167969,0.068359,-0.005859,0.035156,0.160034,-0.407715,0.532043,0.724609,up
73076,-7.53125,6.050781,1.167969,0.056641,-0.007813,0.035156,0.160034,-0.407593,0.532227,0.724548,up
73081,-7.5625,6.050781,1.167969,0.056641,-0.007813,0.035156,0.160034,-0.407532,0.532349,0.724548,up
73086,-7.53125,6.050781,1.167969,0.056641,-0.007813,0.035156,0.159973,-0.407471,0.53241,0.724548,up
73091,-7.5625,6.050781,1.167969,0.009766,-0.013672,0.019531,0.159973,-0.407349,0.532471,0.724548,up
73096,-7.492187,6.050781,1.089844,0.009766,-0.013672,0.019531,0.159912,-0.407288,0.532471,0.724548,up
73101,-7.496094,6.011719,1.128906,0.009766,-0.013672,0.019531,0.159912,-0.407227,0.532471,0.724609,up
73106,-7.535156,6.011719,1.128906,-0.001953,-0.023437,0.017578,0.159912,-0.407166,0.532532,0.72467,up
73112,-7.453125,5.933594,1.128906,-0.001953,-0.023437,0.017578,0.159912,-0.407043,0.532532,0.72467,up
73118,-7.417969,5.972656,1.089844,-0.001953,-0.023437,0.017578,0.159912,-0.406982,0.532532,0.724731,up
73124,-7.417969,5.972656,1.128906,0.021484,-0.033203,0.017578,0.159912,-0.406982,0.532532,0.724731,up
73129,-7.414062,5.933594,1.089844,0.035156,-0.042969,0.023437,0.159912,-0.406982,0.532532,0.724731,up
73134,-7.375,5.894531,1.089844,0.039063,-0.046875,0.015625,0.159912,-0.406982,0.532532,0.724731,up
73140,-7.378906,5.933594,1.050781,0.046875,-0.052734,0.019531,0.159912,-0.406982,0.532532,0.724731,up
73145,-7.378906,5.933594,1.050781,0.085937,-0.056641,0.027344,0.159912,-0.406982,0.532532,0.724731,up
73150,-7.417969,5.894531,1.050781,0.085937,-0.056641,0.027344,0.160278,-0.406128,0.53302,0.724792,up
73155,-7.417969,5.894531,1.050781,0.085937,-0.056641,0.027344,0.160522,-0.405762,0.533325,0.72467,up
73160,-7.375,5.972656,1.050781,0.085937,-0.056641,0.027344,0.160522,-0.405762,0.533325,0.72467,up
73165,-7.375,5.972656,1.050781,0.111328,-0.054687,0.017578,0.160522,-0.405762,0.533325,0.72467,up
73170,-7.375,5.972656,1.015625,0.125,-0.054687,0.029297,0.160522,-0.405762,0.533325,0.72467,up
73175,-7.375,6.011719,1.015625,0.125,-0.054687,0.029297,0.16095,-0.405212,0.533997,0.724426,up
73180,-7.335937,6.011719,1.015625,0.125,-0.054687,0.029297,0.161133,-0.404968,0.534241,0.724304,up
73186,-7.378906,6.011719,0.976562,0.148437,-0.044922,0.03125,0.161377,-0.404602,0.53479,0.72406,up
73192,-7.296875,6.011719,0.9375,0.148437,-0.044922,0.03125,0.16156,-0.404419,0.535095,0.723877,up
73197,-7.296875,6.011719,0.9375,0.166016,-0.044922,0.039063,0.161682,-0.404236,0.5354,0.723755,up
73202,-7.296875,6.011719,0.9375,0.177734,-0.042969,0.041016,0.161865,-0.403992,0.535706,0.723572,up
73207,-7.261719,6.011719,0.9375,0.177734,-0.042969,0.041016,0.161987,-0.403809,0.536072,0.723389,up
73213,-7.222656,6.011719,0.9375,0.177734,-0.042969,0.041016,0.16217,-0.403564,0.536438,0.723206,up
73218,-7.21875,5.972656,0.859375,0.201172,-0.03125,0.048828,0.16217,-0.403564,0.536438,0.723206,up
73223,-7.222656,6.011719,0.9375,0.212891,-0.025391,0.046875,0.16217,-0.403564,0.536438,0.723206,up
73228,-7.257812,6.011719,0.898437,0.212891,-0.025391,0.046875,0.162598,-0.402954,0.537659,0.722595,up
73234,-7.296875,6.050781,0.859375,0.21875,-0.007813,0.041016,0.162598,-0.402954,0.537659,0.722595,up
73239,-7.296875,6.050781,0.859375,0.214844,-0.001953,0.041016,0.162598,-0.402954,0.537659,0.722595,up
73244,-7.296875,6.085937,0.859375,0.220703,-0.013672,0.035156,0.162598,-0.402954,0.537659,0.722595,up
73249,-7.296875,6.125,0.898437,0.220703,-0.013672,0.035156,0.162598,-0.402954,0.537659,0.722595,up
73255,-7.296875,6.164062,0.859375,0.220703,-0.013672,0.035156,0.163391,-0.4021,0.539734,0.721313,up
73260,-7.296875,6.203125,0.824219,0.208984,-0.003906,0.017578,0.163391,-0.4021,0.539734,0.721313,up
73265,-7.296875,6.242187,0.859375,0.205078,-0.007813,0.011719,0.163391,-0.4021,0.539734,0.721313,up
73270,-7.296875,6.277344,0.859375,0.205078,-0.007813,0.011719,0.164001,-0.401733,0.540894,0.72052,up
73276,-7.300781,6.316406,0.859375,0.191406,-0.017578,0.015625,0.164368,-0.401428,0.541626,0.720032,up
73281,-7.296875,6.277344,0.859375,0.171875,-0.013672,0.011719,0.164551,-0.401306,0.541931,0.719849,up
73287,-7.296875,6.277344,0.824219,0.171875,-0.013672,0.011719,0.164673,-0.401184,0.542175,0.719666,up
73293,-7.222656,6.242187,0.859375,0.140625,-0.019531,0.013672,0.164673,-0.401184,0.542175,0.719666,up
73298,-7.222656,6.203125,0.859375,0.140625,-0.019531,0.013672,0.164978,-0.40094,0.542786,0.719299,up
73303,-7.179687,6.164062,0.859375,0.132812,-0.019531,0.019531,0.164978,-0.40094,0.542786,0.719299,up
73309,-7.179687,6.125,0.859375,0.132812,-0.019531,0.019531,0.164978,-0.40094,0.542786,0.719299,up
73314,-7.152344,6.085937,0.824219,0.132812,-0.013672,0.025391,0.164978,-0.40094,0.542786,0.719299,up
73320,-7.113281,6.050781,0.859375,0.132812,-0.013672,0.025391,0.165405,-0.400452,0.543701,0.71875,up
73326,-7.113281,6.050781,0.898437,0.15625,0.001953,0.021484,0.165405,-0.400452,0.543701,0.71875,up
73331,-7.070312,6.085937,0.859375,0.183594,-0.001953,0.015625,0.165588,-0.400269,0.544312,0.718384,up
73337,-7.070312,6.085937,0.859375,0.197266,0.007813,0.011719,0.165894,-0.400085,0.544983,0.717957,up
73342,-7.035156,6.050781,0.824219,0.214844,0.015625,0.007813,0.166077,-0.399963,0.545349,0.717651,up
73348,-7.070312,6.085937,0.859375,0.214844,0.015625,0.007813,0.16626,-0.399902,0.545715,0.717346,up
73354,-7.113281,6.164062,0.824219,0.214844,0.015625,0.007813,0.166443,-0.399841,0.546143,0.717041,up
73359,-7.113281,6.203125,0.824219,0.226562,0.023437,-0.013672,0.166443,-0.399841,0.546143,0.717041,up
73364,-7.152344,6.242187,0.859375,0.224609,0.023437,-0.017578,0.166443,-0.399841,0.546143,0.717041,up
73370,-7.152344,6.277344,0.859375,0.224609,0.023437,-0.017578,0.167114,-0.399719,0.547363,0.716064,up
73375,-7.179687,6.277344,0.859375,0.224609,0.023437,-0.017578,0.167297,-0.399719,0.547668,0.715759,up
73381,-7.148437,6.316406,0.898437,0.185547,0.023437,-0.033203,0.167297,-0.399719,0.547668,0.715759,up
73386,-7.183594,6.316406,0.898437,0.15625,0.027344,-0.046875,0.167908,-0.39978,0.548523,0.714905,up
73391,-7.222656,6.316406,0.9375,0.15625,0.027344,-0.046875,0.167908,-0.39978,0.548523,0.714905,up
73396,-7.261719,6.316406,0.9375,0.072266,0.021484,-0.072266,0.168152,-0.399841,0.548706,0.714722,up
73401,-7.261719,6.355469,0.976562,0.072266,0.021484,-0.072266,0.168274,-0.399902,0.548767,0.714539,up
73407,-7.339844,6.355469,0.976562,0.072266,0.021484,-0.072266,0.16864,-0.400146,0.548767,0.714355,up
73412,-7.335937,6.394531,0.976562,0.072266,0.021484,-0.072266,0.168823,-0.400269,0.548706,0.714294,up
73417,-7.339844,6.394531,1.015625,-0.013672,-0.013672,-0.103516,0.169006,-0.400391,0.548584,0.714294,up
73422,-7.339844,6.394531,1.015625,-0.023437,-0.013672,-0.107422,0.169189,-0.400513,0.548401,0.714294,up
73427,-7.378906,6.394531,1.015625,-0.023437,-0.013672,-0.107422,0.169373,-0.400574,0.548279,0.714294,up
73432,-7.335937,6.394531,1.089844,-0.037109,-0.029297,-0.117188,0.169373,-0.400574,0.548279,0.714294,up
73437,-7.378906,6.355469,1.089844,-0.044922,-0.033203,-0.115234,0.169739,-0.400818,0.547913,0.714417,up
73442,-7.378906,6.355469,1.089844,-0.046875,-0.041016,-0.119141,0.169983,-0.40094,0.547668,0.714478,up
73447,-7.453125,6.316406,1.015625,-0.046875,-0.041016,-0.119141,0.170166,-0.401001,0.547424,0.714539,up
73452,-7.457031,6.277344,1.050781,-0.046875,-0.060547,-0.119141,0.170471,-0.401123,0.54718,0.7146,up
73458,-7.457031,6.316406,1.089844,-0.046875,-0.060547,-0.119141,0.170715,-0.401184,0.546936,0.714661,up
73463,-7.492187,6.316406,1.050781,-0.046875,-0.060547,-0.119141,0.170959,-0.401245,0.546753,0.714722,up
73469,-7.492187,6.316406,1.015625,-0.037109,-0.070312,-0.126953,0.170959,-0.401245,0.546753,0.714722,up
73474,-7.492187,6.355469,1.015625,-0.033203,-0.076172,-0.130859,0.170959,-0.401245,0.546753,0.714722,up
73479,-7.566406,6.433594,1.015625,-0.03125,-0.082031,-0.148437,0.170959,-0.401245,0.546753,0.714722,up
73484,-7.535156,6.433594,1.015625,-0.029297,-0.076172,-0.140625,0.170959,-0.401245,0.546753,0.714722,up
73489,-7.605469,6.472656,0.976562,-0.025391,-0.080078,-0.148437,0.170959,-0.401245,0.546753,0.714722,up
73495,-7.679687,6.585937,1.015625,-0.035156,-0.076172,-0.148437,0.170959,-0.401245,0.546753,0.714722,up
73500,-7.71875,6.699219,1.015625,-0.037109,-0.068359,-0.158203,0.173157,-0.401733,0.545105,0.71521,up
73505,-7.757812,6.699219,1.050781,-0.037109,-0.068359,-0.158203,0.173523,-0.401794,0.5448,0.715271,up
73510,-7.839844,6.777344,1.050781,-0.078125,-0.074219,-0.167969,0.173523,-0.401794,0.5448,0.715271,up
73515,-7.984375,6.929687,1.207031,-0.078125,-0.074219,-0.167969,0.174194,-0.4021,0.544067,0.715515,up
73520,-8.023438,6.929687,1.398438,-0.078125,-0.074219,-0.167969,0.1745,-0.402222,0.54364,0.715698,up
73525,-8.105469,6.816406,1.359375,-0.195312,-0.125,-0.210937,0.1745,-0.402222,0.54364,0.715698,up
73530,-8.179688,6.855469,1.28125,-0.261719,-0.142578,-0.234375,0.1745,-0.402222,0.54364,0.715698,up
73536,-8.179688,6.816406,1.359375,-0.394531,-0.193359,-0.314453,0.175598,-0.40271,0.541504,0.716736,up
73542,-8.21875,6.816406,1.320313,-0.394531,-0.193359,-0.314453,0.176453,-0.403137,0.539307,0.717957,up
73547,-8.257813,6.816406,1.320313,-0.46875,-0.3125,-0.400391,0.176453,-0.403137,0.539307,0.717957,up
73552,-8.222656,6.816406,1.359375,-0.46875,-0.3125,-0.400391,0.177856,-0.403503,0.536499,0.719543,up
73557,-8.257813,6.855469,1.320313,-0.46875,-0.3125,-0.400391,0.17865,-0.403625,0.535095,0.720337,up
73562,-8.261719,6.816406,1.398438,-0.523437,-0.460937,-0.558594,0.179687,-0.403809,0.533325,0.721252,up
73568,-8.21875,6.855469,1.4375,-0.523437,-0.460937,-0.558594,0.180786,-0.403931,0.531616,0.722168,up
73574,-8.144531,6.855469,1.511719,-0.523437,-0.460937,-0.558594,0.182068,-0.404053,0.529724,0.723206,up
73580,-8.140625,6.777344,1.472656,-0.634766,-0.611328,-0.695312,0.182068,-0.404053,0.529724,0.723206,up
73585,-8.066406,6.699219,1.550781,-0.677734,-0.638672,-0.736328,0.182068,-0.404053,0.529724,0.723206,up
73591,-7.984375,6.664062,1.550781,-0.804687,-0.708984,-0.777344,0.186584,-0.404358,0.522827,0.726868,up
73596,-7.917969,6.546875,1.589844,-0.804687,-0.708984,-0.777344,0.187988,-0.404419,0.520508,0.728088,up
73601,-7.917969,6.394531,1.664063,-0.947266,-0.742187,-0.792969,0.187988,-0.404419,0.520508,0.728088,up
73607,-7.679687,6.164062,1.703125,-0.947266,-0.742187,-0.792969,0.192322,-0.404724,0.512085,0.732788,up
73613,-7.640625,6.050781,1.78125,-0.947266,-0.742187,-0.792969,0.193787,-0.404785,0.508667,0.734741,up
73618,-7.53125,5.703125,1.855469,-1.158203,-0.783203,-0.736328,0.195007,-0.404846,0.505432,0.736633,up
73624,-7.53125,5.703125,1.855469,-1.167969,-0.791016,-0.71875,0.196106,-0.404907,0.50238,0.738403,up
73629,-7.335937,5.4375,1.894531,-1.167969,-0.791016,-0.71875,0.196106,-0.404907,0.50238,0.738403,up
73634,-7.335937,5.4375,1.894531,-1.148438,-0.802734,-0.6875,0.197205,-0.404846,0.499207,0.740295,up
73640,-7.183594,5.128906,1.894531,-1.097656,-0.814453,-0.65625,0.197205,-0.404846,0.499207,0.740295,up
73646,-7.074219,4.976562,1.894531,-0.917969,-0.806641,-0.595703,0.201843,-0.40387,0.487488,0.747314,up
73651,-6.992187,4.976562,1.933594,-0.917969,-0.806641,-0.595703,0.201843,-0.40387,0.487488,0.747314,up
73656,-6.957031,4.898437,1.933594,-0.677734,-0.804687,-0.525391,0.204346,-0.402832,0.483093,0.750061,up
73661,-6.957031,4.898437,1.894531,-0.677734,-0.804687,-0.525391,0.204346,-0.402832,0.483093,0.750061,up
73666,-6.914062,4.9375,1.894531,-0.320313,-0.771484,-0.412109,0.204346,-0.402832,0.483093,0.750061,up
73671,-6.839844,4.863281,1.855469,-0.320313,-0.771484,-0.412109,0.207092,-0.401428,0.479675,0.752258,up
73677,-6.800781,4.863281,1.894531,-0.214844,-0.755859,-0.384766,0.207092,-0.401428,0.479675,0.752258,up
73682,-6.765625,4.863281,1.894531,-0.214844,-0.755859,-0.384766,0.211243,-0.398804,0.476379,0.754578,up
73687,-6.730469,4.824219,1.820313,-0.019531,-0.666016,-0.291016,0.211243,-0.398804,0.476379,0.754578,up
73692,-6.726562,4.785156,1.820313,-0.019531,-0.666016,-0.291016,0.21405,-0.396912,0.474915,0.755676,up
73697,-6.730469,4.746094,1.78125,-0.019531,-0.666016,-0.291016,0.215149,-0.396118,0.474426,0.756104,up
73703,-6.6875,4.632812,1.855469,-0.019531,-0.666016,-0.291016,0.216431,-0.395264,0.473877,0.756531,up
73708,-6.730469,4.515625,1.820313,0.007813,-0.521484,-0.25,0.21759,-0.394531,0.473328,0.756958,up
73713,-6.765625,4.363281,1.894531,0.007813,-0.521484,-0.25,0.218628,-0.393921,0.472839,0.757263,up
73719,-6.769531,4.289062,2.011719,0.007813,-0.521484,-0.25,0.219727,-0.39325,0.47229,0.757629,up
73724,-6.726562,4.25,2.046875,0.009766,-0.449219,-0.302734,0.220825,-0.392761,0.471741,0.757935,up
73730,-6.726562,4.324219,2.085938,0.023437,-0.416016,-0.337891,0.220825,-0.392761,0.471741,0.757935,up
73736,-6.730469,4.515625,1.972656,0.054687,-0.365234,-0.398438,0.220825,-0.392761,0.471741,0.757935,up
73741,-6.769531,4.632812,1.972656,0.054687,-0.365234,-0.398438,0.224304,-0.391602,0.470215,0.758423,up
73747,-6.839844,4.746094,2.046875,0.109375,-0.333984,-0.40625,0.224304,-0.391602,0.470215,0.758423,up
73752,-6.914062,4.863281,2.125,0.109375,-0.333984,-0.40625,0.228149,-0.390869,0.468933,0.758484,up
73757,-6.914062,4.9375,2.164063,0.109375,-0.333984,-0.40625,0.229553,-0.390564,0.468567,0.758423,up
73762,-6.953125,4.976562,2.125,0.072266,-0.324219,-0.404297,0.229553,-0.390564,0.468567,0.758423,up
73767,-7.035156,5.054687,2.277344,0.072266,-0.324219,-0.404297,0.230713,-0.390381,0.468201,0.758423,up
73773,-7.109375,4.785156,2.433594,0.072266,-0.324219,-0.404297,0.233032,-0.390076,0.467102,0.758545,up
73778,-7.152344,4.671875,2.394531,-0.107422,-0.306641,-0.412109,0.233032,-0.390076,0.467102,0.758545,up
73783,-7.148437,4.59375,2.46875,-0.189453,-0.306641,-0.421875,0.233032,-0.390076,0.467102,0.758545,up
73789,-7.152344,4.441406,2.46875,-0.189453,-0.306641,-0.421875,0.236084,-0.389954,0.464417,0.759277,up
73794,-7.179687,4.324219,2.507813,-0.318359,-0.298828,-0.457031,0.236084,-0.389954,0.464417,0.759277,up
73799,-7.261719,4.289062,2.546875,-0.353516,-0.296875,-0.478516,0.237976,-0.390259,0.461853,0.760132,up
73805,-7.296875,4.25,2.546875,-0.34375,-0.328125,-0.517578,0.237976,-0.390259,0.461853,0.760132,up
73810,-7.261719,4.324219,2.585938,-0.287109,-0.361328,-0.554687,0.237976,-0.390259,0.461853,0.760132,up
73815,-7.261719,4.402344,2.546875,-0.287109,-0.361328,-0.554687,0.241211,-0.390686,0.458008,0.761169,up
73820,-7.257812,4.554687,2.546875,-0.148437,-0.396484,-0.660156,0.241211,-0.390686,0.458008,0.761169,up
73825,-7.261719,4.632812,2.546875,-0.148437,-0.396484,-0.660156,0.244385,-0.390869,0.455688,0.761536,up
73830,-7.375,4.746094,2.585938,-0.148437,-0.396484,-0.660156,0.244385,-0.390869,0.455688,0.761536,up
73836,-7.453125,4.863281,2.585938,-0.148437,-0.396484,-0.660156,0.24823,-0.391052,0.45343,0.761475,up
73842,-7.71875,5.015625,2.546875,-0.017578,-0.429687,-0.917969,0.24823,-0.391052,0.45343,0.761475,up
73848,-7.71875,5.015625,2.546875,-0.109375,-0.441406,-1.134766,0.255127,-0.391907,0.449524,0.761108,up
73853,-7.878906,4.863281,2.546875,-0.240234,-0.449219,-1.261719,0.257935,-0.392578,0.447571,0.760925,up
73858,-7.988281,4.59375,2.625,-0.240234,-0.449219,-1.261719,0.260742,-0.393372,0.445312,0.760864,up
73864,-8.144531,4.480469,2.851563,-0.240234,-0.449219,-1.261719,0.263428,-0.394348,0.44281,0.760925,up
73869,-8.144531,4.480469,2.851563,-0.767578,-0.599609,-1.734375,0.266479,-0.395508,0.439575,0.761169,up
73874,-8.300781,4.171875,3.082031,-0.767578,-0.599609,-1.734375,0.266479,-0.395508,0.439575,0.761169,up
73879,-8.988281,3.175781,3.65625,-1.099609,-0.830078,-2.144531,0.266479,-0.395508,0.439575,0.761169,up
73885,-9.671875,3.253906,4.195312,-1.099609,-0.830078,-2.144531,0.27771,-0.399658,0.426025,0.762634,up
73890,-9.828125,3.445313,4.613281,-1.34375,-1.513672,-2.615234,0.27771,-0.399658,0.426025,0.762634,up
73895,-9.9375,3.519531,4.921875,-1.353516,-1.859375,-2.921875,0.27771,-0.399658,0.426025,0.762634,up
73900,-10.054688,3.867188,5.035156,-1.353516,-1.859375,-2.921875,0.295044,-0.40155,0.406189,0.765991,up
73906,-9.671875,4.515625,5.074219,-1.353516,-1.859375,-2.921875,0.295044,-0.40155,0.406189,0.765991,up
73912,-9.714844,4.671875,4.921875,-1.732422,-3.029297,-4.078125,0.295044,-0.40155,0.406189,0.765991,up
73917,-9.9375,4.480469,4.578125,-1.732422,-3.029297,-4.078125,0.328735,-0.399902,0.369751,0.771545,up
73922,-9.941406,4.402344,4.460937,-1.732422,-3.029297,-4.078125,0.338318,-0.39917,0.358154,0.773254,up
73927,-9.753906,4.746094,4.078125,-1.732422,-3.029297,-4.078125,0.338318,-0.39917,0.358154,0.773254,up
73932,-9.0625,4.515625,4.003906,-2.511719,-3.650391,-4.628906,0.338318,-0.39917,0.358154,0.773254,up
73937,-8.910156,4.402344,4.269531,-2.511719,-3.650391,-4.628906,0.357361,-0.3974,0.332886,0.776855,up
73942,-8.90625,4.25,4.230469,-2.511719,-3.650391,-4.628906,0.367004,-0.396667,0.317688,0.779114,up
73947,-8.90625,4.25,4.230469,-4.0625,-3.589844,-4.759766,0.375,-0.396667,0.302917,0.781189,up
73952,-8.90625,4.210937,3.847656,-4.630859,-3.363281,-4.761719,0.375,-0.396667,0.302917,0.781189,up
73957,-8.90625,4.210937,3.847656,-5.068359,-3.203125,-4.691406,0.38916,-0.398926,0.269409,0.7854,up
73962,-7.679687,2.371094,3.121094,-5.068359,-3.203125,-4.691406,0.38916,-0.398926,0.269409,0.7854,up
73967,-6.726562,2.5625,3.964844,-5.462891,-2.912109,-4.296875,0.38916,-0.398926,0.269409,0.7854,up
73972,-6.53125,2.332031,4.652344,-5.462891,-2.912109,-4.296875,0.404602,-0.405273,0.214905,0.791138,up
73977,-6.652344,1.949219,5.152344,-5.119141,-2.113281,-3.140625,0.40802,-0.407776,0.196533,0.792847,up
73982,-6.957031,1.683594,5.609375,-5.119141,-2.113281,-3.140625,0.4104,-0.410278,0.180237,0.79425,up
73987,-6.957031,1.683594,5.609375,-5.119141,-2.113281,-3.140625,0.411865,-0.412598,0.166138,0.795349,up
73992,-7.457031,0.570312,6.339844,-5.119141,-2.113281,-3.140625,0.411865,-0.412598,0.166138,0.795349,up
73997,-7.722656,-0.769531,6.796875,-3.542969,-1.195313,-1.857422,0.41333,-0.416992,0.142151,0.796936,up
74002,-7.875,-1.191406,7.066406,-2.859375,-0.980469,-1.498047,0.414001,-0.420044,0.125793,0.797729,up
74008,-8.261719,-1.613281,7.21875,-1.513672,-0.423828,-0.912109,0.414001,-0.420044,0.125793,0.797729,up
74013,-8.523438,-1.6875,7.21875,-1.513672,-0.423828,-0.912109,0.414734,-0.422119,0.116211,0.797668,up
74019,-9.410156,-1.421875,7.375,-1.513672,-0.423828,-0.912109,0.415222,-0.422852,0.11438,0.797302,up
74024,-9.941406,-1.074219,7.601562,0.167969,0.337891,-0.208984,0.415649,-0.423401,0.114197,0.796814,up
74030,-10.632813,-0.269531,8.175781,0.167969,0.337891,-0.208984,0.416077,-0.42395,0.115234,0.796143,up
74035,-11.019531,-0.234375,8.523438,0.746094,0.845703,0.302734,0.416077,-0.42395,0.115234,0.796143,up
74040,-11.625,-0.347656,8.789063,0.808594,1.15625,0.619141,0.416077,-0.42395,0.115234,0.796143,up
74045,-12.734375,-0.808594,9.019531,0.808594,1.15625,0.619141,0.416077,-0.42395,0.115234,0.796143,up
74050,-13.15625,-1.152344,9.210938,0.775391,1.892578,1.28125,0.416077,-0.42395,0.115234,0.796143,up
74056,-13.578125,-1.230469,9.441406,0.826172,2.341797,1.714844,0.416077,-0.42395,0.115234,0.796143,up
74061,-14.234375,-1.0,9.402344,0.826172,2.341797,1.714844,0.406067,-0.435974,0.141113,0.790649,up
74066,-15.847656,0.761719,8.445313,0.826172,2.341797,1.714844,0.406067,-0.435974,0.141113,0.790649,up
74072,-16.71875,2.410156,7.601562,2.181641,5.945312,4.757812,0.406067,-0.435974,0.141113,0.790649,up
74077,-19.367187,6.125,6.570312,2.181641,5.945312,4.757812,0.386292,-0.453064,0.174194,0.784302,up
74082,-20.898437,8.234375,6.148437,2.181641,5.945312,4.757812,0.375183,-0.461182,0.192139,0.780762,up
74087,-20.898437,8.234375,6.148437,3.730469,8.263672,7.667969,0.361877,-0.469543,0.21344,0.77655,up
74092,-22.816406,10.226563,5.726562,3.730469,8.263672,7.667969,0.34552,-0.477966,0.23938,0.77124,up
74097,-28.867187,19.917969,0.859375,6.126953,10.734375,11.394531,0.34552,-0.477966,0.23938,0.77124,up
74103,-31.203125,24.820312,-1.515625,7.376953,11.568359,13.376953,0.34552,-0.477966,0.23938,0.77124,up
74108,-33.886719,30.257812,-3.621094,8.554688,11.849609,15.419922,0.242676,-0.498047,0.398193,0.73114,up
74113,-40.28125,40.527344,-8.257813,8.554688,11.849609,15.419922,0.210083,-0.494385,0.444824,0.716675,up
74118,-44.496094,40.871094,-11.472656,8.554688,11.849609,15.419922,0.176819,-0.487854,0.488403,0.701599,up
74123,-47.253906,37.230469,-13.617188,8.394531,11.333984,21.496094,0.133911,-0.476807,0.536865,0.683044,up
74129,-44.613281,28.652344,-14.195313,8.394531,11.333984,21.496094,0.092468,-0.463379,0.576477,0.666626,up
74135,-41.46875,24.167969,-9.75,8.394531,11.333984,21.496094,0.046448,-0.446106,0.613464,0.650024,up
74141,-38.859375,19.34375,-7.375,4.384766,10.066406,23.146484,0.046448,-0.446106,0.613464,0.650024,up
74147,-28.488281,4.746094,-2.96875,4.005859,9.361328,22.337891,0.046448,-0.446106,0.613464,0.650024,up
74152,-24.765625,-0.078125,-2.242188,3.736328,8.873047,21.494141,0.097229,0.378479,-0.703918,-0.593079,up
74157,-20.785156,-2.300781,-2.089844,3.736328,8.873047,21.494141,0.138306,0.355896,-0.725403,-0.572754,up
74162,-14.921875,-1.074219,-3.007813,5.285156,8.279297,19.109375,0.138306,0.355896,-0.725403,-0.572754,up
74167,-10.359375,1.144531,-3.160156,5.285156,8.279297,19.109375,0.218262,0.309448,-0.763428,-0.523315,up
74173,-10.859375,1.144531,3.964844,5.285156,8.279297,19.109375,0.28418,0.262329,-0.795471,-0.466492,up
74178,-11.242188,0.226562,9.480469,5.996094,5.353516,15.375,0.28418,0.262329,-0.795471,-0.466492,up
74183,-9.636719,-2.722656,13.964844,5.996094,5.353516,15.375,0.33374,0.222351,-0.818298,-0.411804,up
74188,-8.296875,-4.332031,13.464844,5.996094,5.353516,15.375,0.355896,0.209656,-0.824524,-0.386719,up
74193,-15.347656,-0.960937,7.566406,6.119141,6.972656,9.167969,0.378967,0.199951,-0.829041,-0.359253,up
74198,-17.867187,-0.617187,7.792969,6.642578,5.146484,6.769531,0.395142,0.194885,-0.832642,-0.33551,up
74203,-17.179687,-2.492188,9.941406,6.642578,5.146484,6.769531,0.404358,0.19342,-0.836792,-0.314453,up
74208,-13.238281,-5.367187,15.757813,6.642578,5.146484,6.769531,0.408447,0.195557,-0.842346,-0.292297,up
74213,-11.667969,-5.558594,18.632812,6.824219,1.023438,0.595703,0.408447,0.195557,-0.842346,-0.292297,up
74218,-9.367188,-5.25,22.078125,3.804688,1.664063,-0.736328,0.408569,0.200562,-0.846863,-0.275024,up
74223,-7.722656,-4.253906,19.902344,3.804688,1.664063,-0.736328,0.410645,0.21167,-0.8479,-0.260132,up
74228,-9.175781,-4.371094,12.695313,3.804688,1.664063,-0.736328,0.413086,0.213074,-0.844482,-0.266113,up
74233,-9.140625,-8.699219,9.636719,-6.197266,-0.808594,-1.576172,0.413086,0.213074,-0.844482,-0.266113,up
74238,-6.992187,-7.894531,9.714844,-6.197266,-0.808594,-1.576172,0.414368,0.210693,-0.839966,-0.279968,up
74243,-6.34375,-7.472656,8.871094,-6.197266,-0.808594,-1.576172,0.414917,0.200867,-0.830872,-0.311646,up
74248,-5.382812,-7.28125,8.484375,-6.197266,-0.808594,-1.576172,0.415833,0.191895,-0.824036,-0.333496,up
74253,-4.542969,-7.011719,8.40625,-11.011719,-1.404297,-0.353516,0.415833,0.191895,-0.824036,-0.333496,up
74258,-2.625,-6.707031,8.675781,-11.011719,-1.404297,-0.353516,0.417297,0.18103,-0.816223,-0.35614,up
74263,-1.976563,-5.597656,8.105469,-11.011719,-1.404297,-0.353516,0.421753,0.156616,-0.797852,-0.401306,up
74268,-0.710937,-4.5625,6.800781,-9.271484,-0.453125,0.023437,0.421753,0.156616,-0.797852,-0.401306,up
74273,0.09375,-4.332031,5.003906,-6.414062,-0.261719,-0.076172,0.424622,0.143982,-0.787048,-0.423706,up
74279,0.9375,-2.914063,1.703125,-6.414062,-0.261719,-0.076172,0.427246,0.130371,-0.774353,-0.44812,up
74284,1.550781,0.570312,1.96875,-6.414062,-0.261719,-0.076172,0.426331,0.128601,-0.773254,-0.451355,up
74289,2.539063,0.953125,2.277344,2.021484,-1.162109,-0.519531,0.426331,0.128601,-0.773254,-0.451355,up
74294,3.734375,1.492188,2.433594,3.431641,-1.261719,-0.71875,0.426331,0.128601,-0.773254,-0.451355,up
74299,4.078125,2.21875,2.164063,3.431641,-1.261719,-0.71875,0.415283,0.136414,-0.784851,-0.439331,up
74304,3.84375,3.40625,0.476562,3.431641,-1.261719,-0.71875,0.410828,0.142822,-0.791199,-0.429871,up
74309,3.65625,4.132812,-1.132813,6.59375,-0.183594,-0.980469,0.410828,0.142822,-0.791199,-0.429871,up
74315,3.347656,6.085937,-4.769531,6.59375,-0.183594,-0.980469,0.410828,0.142822,-0.791199,-0.429871,up
74320,3.347656,6.085937,-4.769531,5.677734,-0.753906,-1.242188,0.410828,0.142822,-0.791199,-0.429871,up
74327,3.925781,7.734375,-5.269531,5.677734,-0.753906,-1.242188,0.410828,0.142822,-0.791199,-0.429871,up
74332,4.765625,8.6875,-4.273437,0.009766,-1.714844,-1.234375,0.410828,0.142822,-0.791199,-0.429871,up
74337,5.496094,9.265625,-4.578125,0.009766,-1.714844,-1.234375,0.381165,0.178955,-0.821899,-0.383545,up
74343,5.417969,9.265625,-5.613281,-2.699219,-1.070313,-1.150391,0.381165,0.178955,-0.821899,-0.383545,up
74348,5.992187,10.109375,-5.691406,-2.699219,-1.070313,-1.150391,0.37439,0.178833,-0.820862,-0.392517,up
74353,6.183594,10.574219,-5.304687,-2.699219,-1.070313,-1.150391,0.372498,0.176941,-0.81781,-0.401367,up
74358,6.261719,11.066406,-4.921875,-5.787109,-0.578125,-0.861328,0.371643,0.173828,-0.813477,-0.412231,up
74363,6.375,11.449219,-4.808594,-5.787109,-0.578125,-0.861328,0.371582,0.170166,-0.80835,-0.423706,up
74369,6.414062,11.484375,-5.0,-5.787109,-0.578125,-0.861328,0.372986,0.16095,-0.795166,-0.450195,up
74375,6.261719,10.953125,-5.957031,-5.787109,-0.578125,-0.861328,0.373596,0.15686,-0.789124,-0.46167,up
74381,6.414062,10.570313,-6.339844,-4.300781,-0.515625,-0.693359,0.373596,0.15686,-0.789124,-0.46167,up
74386,6.375,10.378906,-6.1875,-2.888672,-0.800781,-0.615234,0.373596,0.15686,-0.789124,-0.46167,up
74392,6.683594,10.1875,-4.578125,-2.888672,-0.800781,-0.615234,0.373596,0.15686,-0.789124,-0.46167,up
74398,6.683594,10.113281,-3.773438,0.833984,-0.689453,-0.304688,0.373596,0.15686,-0.789124,-0.46167,up
74403,6.335937,9.875,-4.464844,0.833984,-0.689453,-0.304688,0.366943,0.146973,-0.778198,-0.488037,up
74408,6.109375,9.875,-4.886719,0.833984,-0.689453,-0.304688,0.365112,0.14801,-0.78009,-0.486084,up
74413,5.800781,9.835938,-5.230469,2.943359,-0.111328,-0.105469,0.363342,0.150208,-0.783081,-0.481934,up
74418,5.609375,9.917969,-5.382812,2.943359,-0.111328,-0.105469,0.361938,0.152588,-0.786133,-0.477173,up
74423,5.417969,9.875,-5.113281,2.943359,-0.111328,-0.105469,0.360291,0.155518,-0.789978,-0.471069,up
74428,5.339844,9.765625,-4.808594,2.943359,-0.111328,-0.105469,0.358582,0.158325,-0.793762,-0.465088,up
74434,5.226562,9.6875,-4.347656,3.316406,-0.351563,-0.121094,0.354004,0.164185,-0.802185,-0.451904,up
74439,5.074219,9.574219,-3.507813,3.316406,-0.351563,-0.121094,0.352051,0.166382,-0.805481,-0.446777,up
74445,4.84375,9.152344,-3.007813,3.316406,-0.351563,-0.121094,0.350647,0.167847,-0.807739,-0.443237,up
74450,4.726562,8.886719,-2.816406,0.869141,-0.179687,-0.013672,0.350647,0.167847,-0.807739,-0.443237,up
74455,4.574219,8.691406,-2.625,0.050781,-0.113281,0.013672,0.350647,0.167847,-0.807739,-0.443237,up
74460,4.5,8.238281,-2.546875,0.050781,-0.113281,0.013672,0.350647,0.167847,-0.807739,-0.443237,up
74465,4.421875,8.0,-2.546875,-1.287109,-0.011719,0.068359,0.350647,0.167847,-0.807739,-0.443237,up
74471,4.308594,7.886719,-2.585938,-1.683594,0.023437,0.078125,0.350647,0.167847,-0.807739,-0.443237,up
74476,4.191406,7.816406,-2.703125,-1.806641,0.027344,0.066406,0.350647,0.167847,-0.807739,-0.443237,up
74482,4.191406,7.773437,-2.738281,-1.724609,-0.023437,0.021484,0.350647,0.167847,-0.807739,-0.443237,up
74487,4.152344,7.738281,-2.703125,-1.546875,-0.087891,-0.023437,0.350647,0.167847,-0.807739,-0.443237,up
74493,4.117187,7.734375,-2.511719,-1.294922,-0.125,-0.0625,0.350647,0.167847,-0.807739,-0.443237,up
74498,4.039062,7.65625,-2.546875,-1.294922,-0.125,-0.0625,0.352234,0.158813,-0.797791,-0.462891,up
74503,4.039062,7.617187,-2.546875,-1.294922,-0.125,-0.0625,0.352234,0.158813,-0.797791,-0.462891,up
74508,4.0,7.621094,-2.585938,-0.212891,-0.144531,-0.167969,0.351318,0.158813,-0.797424,-0.464233,up
74513,4.039062,7.621094,-2.625,-0.212891,-0.144531,-0.167969,0.351318,0.158813,-0.797424,-0.464233,up
74518,4.039062,7.660156,-2.625,0.513672,-0.220703,-0.210937,0.350525,0.159241,-0.797729,-0.46405,up
74523,4.039062,7.738281,-2.625,0.513672,-0.220703,-0.210937,0.349609,0.159851,-0.798401,-0.46344,up
74528,4.078125,7.777344,-2.585938,0.513672,-0.220703,-0.210937,0.348694,0.160461,-0.799072,-0.462708,up
74533,4.117187,7.773437,-2.546875,0.474609,-0.234375,-0.164062,0.347656,0.161133,-0.799988,-0.461731,up
74538,4.039062,7.734375,-2.511719,0.474609,-0.234375,-0.164062,0.346802,0.161682,-0.800659,-0.460999,up
74543,4.117187,7.734375,-2.511719,0.091797,-0.230469,-0.117188,0.345825,0.16217,-0.801331,-0.460449,up
74548,4.152344,7.734375,-2.472656,0.091797,-0.230469,-0.117188,0.345154,0.162354,-0.801636,-0.460266,up
74554,4.078125,7.816406,-2.511719,0.091797,-0.230469,-0.117188,0.343994,0.16217,-0.801758,-0.46106,up
74559,4.078125,7.8125,-2.625,-0.367188,-0.189453,-0.085937,0.343628,0.161865,-0.801514,-0.461853,up
74564,4.039062,7.851562,-2.625,-0.367188,-0.189453,-0.085937,0.343262,0.161499,-0.801208,-0.462769,up
74569,4.078125,7.886719,-2.585938,-0.367188,-0.189453,-0.085937,0.342834,0.161072,-0.800842,-0.463867,up
74574,4.078125,7.886719,-2.625,-0.464844,-0.242187,-0.105469,0.342834,0.161072,-0.800842,-0.463867,up
74579,4.117187,7.886719,-2.703125,-0.464844,-0.242187,-0.105469,0.341858,0.160217,-0.800049,-0.466248,up
74585,4.078125,7.851562,-2.894531,-0.353516,-0.224609,-0.148437,0.341309,0.159912,-0.799744,-0.467285,up
74590,4.078125,8.265625,-3.429688,-0.353516,-0.224609,-0.148437,0.34082,0.159729,-0.7995,-0.468079,up
74595,4.078125,8.308594,-3.46875,-0.185547,-0.216797,-0.203125,0.34082,0.159729,-0.7995,-0.468079,up
74600,4.152344,8.34375,-3.582031,-0.115234,-0.214844,-0.21875,0.34082,0.159729,-0.7995,-0.468079,up
74605,4.191406,8.386719,-3.542969,-0.115234,-0.214844,-0.21875,0.338806,0.159973,-0.799255,-0.469849,up
74611,4.230469,8.464844,-3.621094,-0.115234,-0.214844,-0.21875,0.338196,0.160217,-0.799316,-0.470215,up
74617,4.230469,8.503906,-3.621094,-0.011719,-0.125,-0.236328,0.338196,0.160217,-0.799316,-0.470215,up
74622,4.191406,8.648438,-3.542969,0.001953,-0.115234,-0.234375,0.338196,0.160217,-0.799316,-0.470215,up
74627,4.152344,8.691406,-3.429688,-0.005859,-0.113281,-0.230469,0.338196,0.160217,-0.799316,-0.470215,up
74632,4.117187,8.726563,-3.3125,-0.021484,-0.113281,-0.203125,0.338196,0.160217,-0.799316,-0.470215,up
74637,4.117187,8.769531,-3.277344,-0.052734,-0.101563,-0.179687,0.338196,0.160217,-0.799316,-0.470215,up
74642,4.078125,8.648438,-3.199219,-0.052734,-0.101563,-0.179687,0.338196,0.160217,-0.799316,-0.470215,up
74647,4.078125,8.621094,-3.199219,-0.052734,-0.101563,-0.179687,0.334717,0.16217,-0.799011,-0.472473,up
74652,4.078125,8.542969,-3.199219,-0.148437,-0.103516,-0.105469,0.334717,0.16217,-0.799011,-0.472473,up
74657,4.039062,8.460938,-3.160156,-0.148437,-0.103516,-0.105469,0.334106,0.16217,-0.798767,-0.473389,up
74662,4.039062,8.425781,-3.277344,-0.148437,-0.103516,-0.105469,0.334106,0.16217,-0.798767,-0.473389,up
74668,3.960938,8.539063,-3.3125,-0.148437,-0.103516,-0.105469,0.333435,0.162109,-0.798523,-0.474182,up
74674,3.960938,8.539063,-3.3125,-0.097656,-0.107422,-0.087891,0.333435,0.162109,-0.798523,-0.474182,up
74679,3.925781,8.578125,-3.277344,-0.097656,-0.107422,-0.087891,0.332458,0.162109,-0.798401,-0.475098,up
74684,3.886719,8.503906,-3.3125,-0.097656,-0.107422,-0.087891,0.332214,0.16217,-0.798401,-0.475281,up
74689,3.925781,8.425781,-3.277344,-0.039063,-0.048828,-0.076172,0.332214,0.16217,-0.798401,-0.475281,up
74694,3.925781,8.34375,-3.238281,-0.039063,-0.048828,-0.076172,0.33197,0.162292,-0.79834,-0.475464,up
74699,3.960938,8.308594,-3.160156,-0.039063,-0.048828,-0.076172,0.331482,0.162476,-0.798279,-0.47583,up
74704,3.886719,8.265625,-3.160156,-0.039063,-0.048828,-0.076172,0.331299,0.162537,-0.798279,-0.476013,up
74709,3.886719,8.304688,-3.160156,-0.044922,-0.052734,-0.080078,0.331299,0.162537,-0.798279,-0.476013,up
74714,3.847656,8.34375,-3.199219,-0.044922,-0.052734,-0.080078,0.330811,0.16272,-0.798157,-0.47644,up
74719,3.847656,8.386719,-3.238281,-0.070312,-0.046875,-0.066406,0.330811,0.16272,-0.798157,-0.47644,up
74724,3.808594,8.386719,-3.199219,-0.091797,-0.033203,-0.066406,0.330627,0.162781,-0.798096,-0.476685,up
74729,3.847656,8.269531,-3.199219,-0.091797,-0.033203,-0.066406,0.330444,0.162842,-0.798035,-0.476929,up
