timestamp,ax,ay,az,gx,gy,gz,qw,qx,qy,qz,label
61296,-8.257813,4.289062,2.316406,0.291016,0.011719,0.367188,0.3349,-0.369202,0.498535,0.709229,up
61301,-8.296875,4.25,2.394531,0.169922,0.041016,0.378906,0.334229,-0.368591,0.499329,0.70929,up
61306,-8.261719,4.132812,2.394531,0.179687,0.041016,0.369141,0.334229,-0.368591,0.499329,0.70929,up
61312,-8.257813,4.171875,2.433594,0.179687,0.041016,0.369141,0.333252,-0.367554,0.50061,0.709351,up
61318,-8.261719,4.210937,2.433594,0.238281,0.007813,0.349609,0.333252,-0.367554,0.50061,0.709351,up
61324,-8.183594,4.210937,2.355469,0.275391,0.003906,0.347656,0.332031,-0.365662,0.502991,0.709229,up
61329,-8.0625,4.324219,2.277344,0.275391,0.003906,0.347656,0.332031,-0.365662,0.502991,0.709229,up
61334,-8.066406,4.402344,2.277344,0.380859,-0.007813,0.361328,0.331726,-0.364868,0.504028,0.709106,up
61339,-8.0625,4.441406,2.238281,0.380859,-0.007813,0.361328,0.331421,-0.364136,0.504883,0.708923,up
61344,-8.105469,4.402344,2.203125,0.375,-0.007813,0.375,0.331421,-0.364136,0.504883,0.708923,up
61349,-8.105469,4.402344,2.164063,0.375,-0.007813,0.375,0.330811,-0.362549,0.506958,0.708618,up
61354,-8.066406,4.363281,2.203125,0.375,-0.007813,0.375,0.330383,-0.361755,0.507935,0.708496,up
61360,-8.023438,4.363281,2.203125,0.277344,0.013672,0.363281,0.32959,-0.360474,0.509521,0.708374,up
61366,-7.953125,4.363281,2.125,0.277344,0.013672,0.363281,0.329163,-0.359924,0.510193,0.708374,up
61373,-7.875,4.402344,2.085938,0.154297,0.041016,0.332031,0.329163,-0.359924,0.510193,0.708374,up
61378,-7.878906,4.402344,2.011719,0.130859,0.050781,0.332031,0.328125,-0.358948,0.511475,0.708435,up
61384,-7.914062,4.441406,2.046875,0.109375,0.068359,0.330078,0.326965,-0.358154,0.512573,0.708557,up
61389,-7.835937,4.515625,2.046875,0.109375,0.068359,0.330078,0.326965,-0.358154,0.512573,0.708557,up
61394,-7.875,4.515625,2.011719,0.085937,0.140625,0.320313,0.326965,-0.358154,0.512573,0.708557,up
61399,-7.875,4.515625,2.011719,0.085937,0.140625,0.320313,0.325684,-0.357605,0.513672,0.708618,up
61404,-7.875,4.480469,1.972656,0.085937,0.140625,0.320313,0.324951,-0.357422,0.514282,0.708679,up
61410,-7.835937,4.515625,2.046875,0.048828,0.203125,0.322266,0.324951,-0.357422,0.514282,0.708679,up
61415,-7.917969,4.554687,1.933594,0.048828,0.203125,0.322266,0.322632,-0.357056,0.51593,0.708679,up
61421,-8.066406,4.363281,2.085938,0.048828,0.203125,0.322266,0.321838,-0.356995,0.516418,0.708679,up
61426,-8.066406,4.289062,2.164063,0.019531,0.212891,0.335938,0.321838,-0.356995,0.516418,0.708679,up
61432,-8.105469,4.25,2.203125,0.009766,0.205078,0.320313,0.321838,-0.356995,0.516418,0.708679,up
61437,-8.140625,4.25,2.164063,0.009766,0.205078,0.320313,0.319336,-0.356812,0.517883,0.708862,up
61443,-8.140625,4.25,2.164063,-0.021484,0.169922,0.279297,0.319336,-0.356812,0.517883,0.708862,up
61448,-8.105469,4.25,2.164063,-0.029297,0.148437,0.251953,0.319336,-0.356812,0.517883,0.708862,up
61453,-8.144531,4.324219,2.125,-0.019531,0.134766,0.220703,0.319336,-0.356812,0.517883,0.708862,up
61459,-8.140625,4.480469,2.046875,-0.019531,0.134766,0.220703,0.319336,-0.356812,0.517883,0.708862,up
61464,-8.0625,4.59375,2.011719,0.033203,0.115234,0.189453,0.319336,-0.356812,0.517883,0.708862,up
61469,-8.027344,4.59375,2.011719,0.0625,0.105469,0.181641,0.315308,-0.356445,0.520203,0.709167,up
61474,-8.023438,4.671875,1.972656,0.0625,0.105469,0.181641,0.315308,-0.356445,0.520203,0.709167,up
61480,-7.984375,4.632812,2.011719,0.076172,0.123047,0.171875,0.315308,-0.356445,0.520203,0.709167,up
61485,-7.988281,4.671875,1.972656,0.076172,0.123047,0.171875,0.314148,-0.356201,0.521423,0.708923,up
61490,-7.988281,4.632812,1.933594,0.076172,0.123047,0.171875,0.313721,-0.356201,0.52179,0.708862,up
61495,-7.914062,4.59375,1.894531,0.027344,0.144531,0.189453,0.313232,-0.35614,0.522156,0.708801,up
61501,-7.917969,4.632812,1.855469,0.027344,0.144531,0.189453,0.312744,-0.35614,0.522461,0.708801,up
61506,-7.917969,4.632812,1.820313,-0.013672,0.1875,0.193359,0.312195,-0.356201,0.522766,0.708801,up
61512,-7.914062,4.746094,1.78125,-0.013672,0.1875,0.193359,0.311523,-0.356323,0.523071,0.708801,up
61517,-7.878906,4.785156,1.820313,-0.041016,0.203125,0.226562,0.311523,-0.356323,0.523071,0.708801,up
61522,-7.839844,4.746094,1.855469,-0.048828,0.224609,0.240234,0.311523,-0.356323,0.523071,0.708801,up
61527,-7.835937,4.746094,1.742188,-0.048828,0.224609,0.240234,0.309326,-0.356628,0.523926,0.708923,up
61533,-7.835937,4.707031,1.742188,-0.074219,0.283203,0.261719,0.309326,-0.356628,0.523926,0.708923,up
61538,-7.875,4.707031,1.703125,-0.068359,0.310547,0.275391,0.309326,-0.356628,0.523926,0.708923,up
61544,-7.875,4.746094,1.703125,-0.056641,0.332031,0.283203,0.309326,-0.356628,0.523926,0.708923,up
61549,-7.835937,4.785156,1.78125,-0.056641,0.332031,0.283203,0.305481,-0.357605,0.525452,0.709045,up
61555,-7.796875,4.824219,1.78125,-0.035156,0.363281,0.304688,0.305481,-0.357605,0.525452,0.709045,up
61560,-7.878906,4.824219,1.78125,-0.011719,0.378906,0.310547,0.302307,-0.358398,0.527039,0.708801,up
61565,-7.878906,4.824219,1.78125,-0.011719,0.378906,0.310547,0.301086,-0.358765,0.527649,0.708679,up
61570,-7.875,4.863281,1.742188,-0.027344,0.429687,0.322266,0.301086,-0.358765,0.527649,0.708679,up
61575,-7.917969,4.785156,1.820313,-0.027344,0.429687,0.322266,0.298767,-0.359436,0.528748,0.708496,up
61580,-7.914062,4.785156,1.742188,-0.027344,0.429687,0.322266,0.297668,-0.359802,0.529236,0.708374,up
61585,-7.914062,4.785156,1.78125,-0.027344,0.429687,0.322266,0.296387,-0.360229,0.529785,0.708313,up
61590,-7.835937,4.785156,1.78125,-0.072266,0.439453,0.316406,0.296387,-0.360229,0.529785,0.708313,up
61595,-7.835937,4.746094,1.742188,-0.072266,0.439453,0.316406,0.294067,-0.360962,0.530762,0.708191,up
61600,-7.800781,4.785156,1.78125,-0.072266,0.439453,0.316406,0.292847,-0.361389,0.531189,0.70813,up
61605,-7.757812,4.785156,1.664063,-0.080078,0.419922,0.335938,0.292847,-0.361389,0.531189,0.70813,up
61610,-7.757812,4.863281,1.742188,-0.080078,0.419922,0.335938,0.291504,-0.361816,0.531738,0.708069,up
61615,-7.757812,4.9375,1.664063,-0.074219,0.40625,0.353516,0.291504,-0.361816,0.531738,0.708069,up
61620,-7.71875,5.015625,1.628906,-0.074219,0.40625,0.353516,0.289185,-0.362427,0.532654,0.708069,up
61625,-7.71875,5.015625,1.628906,-0.072266,0.408203,0.361328,0.287903,-0.362732,0.533142,0.708008,up
61630,-7.683594,5.015625,1.628906,-0.072266,0.408203,0.361328,0.286682,-0.363037,0.53363,0.708008,up
61635,-7.5625,5.054687,1.472656,-0.085937,0.429687,0.394531,0.285278,-0.363342,0.534119,0.708008,up
61640,-7.5625,5.054687,1.472656,-0.085937,0.445312,0.410156,0.283936,-0.363647,0.534668,0.708008,up
61646,-7.53125,5.089844,1.398438,-0.097656,0.462891,0.425781,0.281006,-0.364258,0.535767,0.708069,up
61651,-7.53125,5.128906,1.398438,-0.097656,0.462891,0.425781,0.281006,-0.364258,0.535767,0.708069,up
61656,-7.53125,5.128906,1.398438,-0.097656,0.462891,0.425781,0.277771,-0.364929,0.536865,0.70813,up
61661,-7.496094,5.089844,1.320313,-0.150391,0.537109,0.492187,0.275879,-0.365356,0.537476,0.70813,up
61667,-7.492187,5.128906,1.242188,-0.150391,0.537109,0.492187,0.274353,-0.365723,0.537964,0.708191,up
61673,-7.453125,5.089844,1.242188,-0.150391,0.537109,0.492187,0.272461,-0.366211,0.538513,0.708313,up
61678,-7.457031,5.089844,1.207031,-0.207031,0.599609,0.537109,0.272461,-0.366211,0.538513,0.708313,up
61684,-7.496094,5.054687,1.28125,-0.212891,0.605469,0.539062,0.272461,-0.366211,0.538513,0.708313,up
61689,-7.496094,5.054687,1.28125,-0.226562,0.619141,0.556641,0.272461,-0.366211,0.538513,0.708313,up
61694,-7.496094,5.054687,1.242188,-0.226562,0.619141,0.556641,0.264526,-0.368103,0.540649,0.708679,up
61699,-7.492187,5.015625,1.207031,-0.164062,0.642578,0.578125,0.264526,-0.368103,0.540649,0.708679,up
61704,-7.535156,5.054687,1.28125,-0.152344,0.621094,0.587891,0.264526,-0.368103,0.540649,0.708679,up
61709,-7.566406,5.015625,1.398438,-0.152344,0.621094,0.587891,0.258362,-0.369446,0.542664,0.70874,up
61715,-7.566406,4.976562,1.320313,-0.164062,0.605469,0.619141,0.258362,-0.369446,0.542664,0.70874,up
61720,-7.644531,4.9375,1.28125,-0.066406,0.597656,0.595703,0.258362,-0.369446,0.542664,0.70874,up
61725,-7.683594,4.9375,1.359375,-0.035156,0.560547,0.576172,0.252258,-0.370422,0.5448,0.70874,up
61730,-7.644531,4.9375,1.398438,-0.035156,0.560547,0.576172,0.250366,-0.370728,0.545654,0.708618,up
61735,-7.683594,4.976562,1.359375,-0.035156,0.560547,0.576172,0.248413,-0.370972,0.54657,0.708496,up
61740,-7.683594,4.976562,1.359375,0.011719,0.529297,0.501953,0.245422,-0.371399,0.548096,0.70813,up
61745,-7.679687,5.054687,1.359375,0.011719,0.529297,0.501953,0.243958,-0.371643,0.548889,0.707886,up
61750,-7.683594,5.167969,1.359375,0.011719,0.529297,0.501953,0.243958,-0.371643,0.548889,0.707886,up
61755,-7.679687,5.167969,1.320313,0.080078,0.455078,0.388672,0.243958,-0.371643,0.548889,0.707886,up
61760,-7.683594,5.246094,1.28125,0.111328,0.445312,0.347656,0.240417,-0.372314,0.55127,0.706909,up
61765,-7.71875,5.4375,1.28125,0.111328,0.445312,0.347656,0.240417,-0.372314,0.55127,0.706909,up
61770,-7.722656,5.476562,1.320313,0.056641,0.351563,0.261719,0.23938,-0.372559,0.552002,0.706543,up
61775,-7.683594,5.550781,1.320313,0.056641,0.351563,0.261719,0.238464,-0.372742,0.552612,0.706238,up
61781,-7.761719,5.628906,1.167969,0.056641,0.351563,0.261719,0.236816,-0.373291,0.55365,0.70575,up
61786,-7.796875,5.667969,1.207031,0.023437,0.306641,0.171875,0.236023,-0.373596,0.554077,0.705505,up
61791,-7.839844,5.742187,1.242188,-0.019531,0.285156,0.144531,0.235352,-0.373901,0.554382,0.705322,up
61797,-7.957031,5.78125,1.242188,-0.019531,0.285156,0.144531,0.234802,-0.374207,0.554626,0.7052,up
61803,-7.957031,5.859375,1.242188,-0.019531,0.285156,0.144531,0.234192,-0.374573,0.554687,0.705078,up
61808,-7.988281,5.859375,1.167969,-0.125,0.230469,0.027344,0.234192,-0.374573,0.554687,0.705078,up
61813,-7.988281,5.933594,1.207031,-0.146484,0.210937,-0.001953,0.234192,-0.374573,0.554687,0.705078,up
61818,-7.917969,5.933594,1.242188,-0.146484,0.210937,-0.001953,0.234192,-0.374573,0.554687,0.705078,up
61823,-7.988281,5.933594,1.167969,-0.171875,0.1875,-0.056641,0.234192,-0.374573,0.554687,0.705078,up
61828,-7.988281,5.933594,1.167969,-0.177734,0.175781,-0.089844,0.234192,-0.374573,0.554687,0.705078,up
61834,-7.988281,5.933594,1.207031,-0.177734,0.175781,-0.089844,0.231934,-0.377502,0.55365,0.705139,up
61840,-7.917969,5.894531,1.242188,-0.177734,0.175781,-0.089844,0.231567,-0.378601,0.552856,0.705261,up
61845,-7.988281,5.933594,1.207031,-0.177734,0.175781,-0.089844,0.231567,-0.378601,0.552856,0.705261,up
61850,-7.988281,5.894531,1.207031,-0.203125,0.132812,-0.146484,0.231323,-0.3797,0.552063,0.705383,up
61855,-7.953125,5.894531,1.207031,-0.203125,0.132812,-0.146484,0.231323,-0.3797,0.552063,0.705383,up
61860,-7.953125,5.933594,1.167969,-0.183594,0.089844,-0.166016,0.231201,-0.380249,0.551636,0.705444,up
61865,-7.957031,5.972656,1.207031,-0.183594,0.089844,-0.166016,0.231201,-0.380798,0.551147,0.705505,up
61871,-7.917969,5.972656,1.167969,-0.183594,0.089844,-0.166016,0.231262,-0.381714,0.550354,0.705627,up
61876,-7.957031,5.972656,1.207031,-0.136719,0.056641,-0.144531,0.231323,-0.382141,0.549988,0.705688,up
61881,-7.914062,5.972656,1.242188,-0.125,0.042969,-0.134766,0.231384,-0.382507,0.549622,0.70575,up
61886,-7.917969,5.972656,1.207031,-0.125,0.042969,-0.134766,0.231384,-0.382507,0.549622,0.70575,up
61892,-7.839844,5.972656,1.167969,-0.125,0.042969,-0.134766,0.231445,-0.383057,0.549072,0.705811,up
61897,-7.839844,5.972656,1.167969,-0.078125,0.017578,-0.101563,0.231567,-0.383362,0.548828,0.705872,up
61902,-7.835937,5.933594,1.128906,-0.078125,0.017578,-0.101563,0.231628,-0.383545,0.548645,0.705872,up
61907,-7.839844,5.972656,1.167969,-0.078125,0.017578,-0.101563,0.231628,-0.383728,0.548523,0.705872,up
61913,-7.800781,5.894531,1.207031,-0.078125,0.017578,-0.101563,0.231628,-0.383728,0.548523,0.705872,up
61918,-7.800781,5.894531,1.207031,-0.035156,0.037109,-0.048828,0.231689,-0.384033,0.548279,0.705872,up
61924,-7.757812,5.859375,1.207031,-0.013672,0.035156,-0.033203,0.231689,-0.384033,0.548279,0.705872,up
61930,-7.71875,5.820312,1.242188,-0.013672,0.035156,-0.033203,0.231689,-0.384033,0.548279,0.705872,up
61935,-7.683594,5.820312,1.242188,0.0,0.072266,-0.025391,0.231689,-0.384033,0.548279,0.705872,up
61941,-7.683594,5.78125,1.167969,0.009766,0.078125,-0.021484,0.231689,-0.384033,0.548279,0.705872,up
61946,-7.683594,5.78125,1.167969,0.009766,0.078125,-0.021484,0.231445,-0.384949,0.548401,0.705322,up
61951,-7.644531,5.78125,1.207031,0.009766,0.078125,-0.021484,0.231445,-0.384949,0.548401,0.705322,up
61956,-7.640625,5.742187,1.242188,0.072266,0.105469,0.019531,0.231445,-0.384949,0.548401,0.705322,up
61961,-7.640625,5.742187,1.242188,0.076172,0.101563,0.027344,0.23114,-0.385315,0.54895,0.704834,up
61966,-7.644531,5.78125,1.207031,0.076172,0.101563,0.027344,0.231018,-0.385437,0.549194,0.70459,up
61971,-7.71875,5.78125,1.167969,0.089844,0.109375,0.035156,0.231018,-0.385437,0.549194,0.70459,up
61976,-7.679687,5.820312,1.128906,0.089844,0.109375,0.035156,0.230835,-0.38562,0.549683,0.704163,up
61982,-7.757812,5.859375,1.167969,0.089844,0.109375,0.035156,0.230713,-0.385681,0.549927,0.703979,up
61987,-7.71875,5.859375,1.128906,0.095703,0.099609,0.039063,0.230591,-0.385742,0.550232,0.703735,up
61992,-7.71875,5.933594,1.128906,0.099609,0.095703,0.039063,0.230591,-0.385742,0.550232,0.703735,up
61997,-7.71875,5.933594,1.128906,0.087891,0.089844,0.042969,0.230591,-0.385742,0.550232,0.703735,up
62002,-7.761719,5.972656,1.128906,0.087891,0.089844,0.042969,0.230225,-0.385925,0.551025,0.703186,up
62008,-7.761719,5.972656,1.089844,0.072266,0.082031,0.060547,0.230103,-0.385986,0.55127,0.703003,up
62013,-7.761719,5.972656,1.089844,0.048828,0.072266,0.066406,0.230103,-0.385986,0.55127,0.703003,up
62018,-7.71875,6.011719,1.050781,0.048828,0.072266,0.066406,0.229736,-0.385986,0.551636,0.70282,up
62024,-7.722656,5.972656,1.089844,0.027344,0.064453,0.085937,0.229736,-0.385986,0.551636,0.70282,up
62029,-7.683594,5.972656,1.015625,0.005859,0.056641,0.09375,0.229736,-0.385986,0.551636,0.70282,up
62035,-7.683594,6.011719,1.015625,-0.003906,0.056641,0.125,0.229736,-0.385986,0.551636,0.70282,up
62040,-7.644531,5.972656,1.015625,-0.003906,0.056641,0.125,0.228821,-0.385864,0.552246,0.702698,up
62046,-7.683594,5.972656,1.015625,-0.009766,0.042969,0.160156,0.228821,-0.385864,0.552246,0.702698,up
62051,-7.683594,6.011719,1.015625,-0.009766,0.042969,0.160156,0.228149,-0.385681,0.552551,0.702759,up
62056,-7.644531,6.011719,1.015625,-0.009766,0.042969,0.160156,0.227478,-0.385315,0.552917,0.702881,up
62061,-7.679687,6.011719,0.976562,-0.009766,0.042969,0.160156,0.227478,-0.385315,0.552917,0.702881,up
62066,-7.683594,5.972656,1.015625,0.015625,0.042969,0.220703,0.226562,-0.384827,0.553467,0.703003,up
62071,-7.640625,5.933594,1.050781,0.015625,0.042969,0.220703,0.226135,-0.384521,0.553772,0.703064,up
62076,-7.640625,5.933594,1.015625,0.015625,0.042969,0.220703,0.225647,-0.384155,0.554138,0.703125,up
62081,-7.640625,5.933594,1.015625,0.015625,0.042969,0.220703,0.225647,-0.384155,0.554138,0.703125,up
62086,-7.605469,5.859375,1.015625,0.054687,0.035156,0.3125,0.224609,-0.383423,0.554932,0.703247,up
62091,-7.601562,5.820312,1.050781,0.054687,0.035156,0.3125,0.223938,-0.382874,0.555481,0.703308,up
62096,-7.566406,5.742187,1.050781,0.054687,0.035156,0.3125,0.22345,-0.382446,0.555908,0.703369,up
62101,-7.605469,5.78125,1.050781,0.054687,0.035156,0.3125,0.22345,-0.382446,0.555908,0.703369,up
62106,-7.640625,5.742187,1.015625,0.119141,0.035156,0.347656,0.22345,-0.382446,0.555908,0.703369,up
62111,-7.566406,5.742187,1.050781,0.119141,0.035156,0.347656,0.221741,-0.380981,0.557739,0.703308,up
62116,-7.605469,5.78125,1.015625,0.199219,0.041016,0.335938,0.221741,-0.380981,0.557739,0.703308,up
62121,-7.566406,5.78125,1.015625,0.199219,0.041016,0.335938,0.221313,-0.380554,0.558289,0.703186,up
62126,-7.566406,5.742187,1.050781,0.224609,0.027344,0.332031,0.221313,-0.380554,0.558289,0.703186,up
62131,-7.535156,5.703125,1.050781,0.289063,0.013672,0.289063,0.22052,-0.379456,0.559753,0.702881,up
62136,-7.53125,5.667969,1.050781,0.289063,0.013672,0.289063,0.220032,-0.378418,0.56134,0.702332,up
62141,-7.453125,5.78125,1.128906,0.289063,0.013672,0.289063,0.220032,-0.378418,0.56134,0.702332,up
62146,-7.457031,5.820312,1.128906,0.289063,0.013672,0.289063,0.219849,-0.377197,0.563049,0.70166,up
62151,-7.492187,5.820312,1.050781,0.289063,0.013672,0.289063,0.219849,-0.377197,0.563049,0.70166,up
62156,-7.457031,5.894531,1.050781,0.408203,-0.087891,0.203125,0.219849,-0.377197,0.563049,0.70166,up
62161,-7.457031,5.933594,1.050781,0.408203,-0.087891,0.203125,0.220215,-0.375366,0.565491,0.700562,up
62166,-7.496094,5.972656,1.089844,0.408203,-0.087891,0.203125,0.220459,-0.374573,0.566345,0.700195,up
62171,-7.457031,5.972656,1.089844,0.408203,-0.087891,0.203125,0.220459,-0.374573,0.566345,0.700195,up
62176,-7.457031,5.972656,1.089844,0.330078,-0.175781,0.189453,0.220459,-0.374573,0.566345,0.700195,up
62181,-7.457031,5.972656,1.167969,0.330078,-0.175781,0.189453,0.22113,-0.372437,0.568359,0.699524,up
62186,-7.457031,5.972656,1.089844,0.251953,-0.210937,0.166016,0.22113,-0.372437,0.568359,0.699524,up
62191,-7.417969,5.972656,1.167969,0.251953,-0.210937,0.166016,0.221436,-0.371643,0.56897,0.699402,up
62196,-7.375,5.894531,1.167969,0.183594,-0.248047,0.152344,0.221436,-0.371643,0.56897,0.699402,up
62202,-7.417969,5.859375,1.242188,0.183594,-0.248047,0.152344,0.222229,-0.369324,0.570068,0.699463,up
62207,-7.296875,5.742187,1.242188,0.126953,-0.279297,0.111328,0.222534,-0.368591,0.570251,0.699585,up
62213,-7.375,5.589844,1.28125,0.126953,-0.279297,0.111328,0.222839,-0.367981,0.570374,0.699707,up
62218,-7.375,5.4375,1.359375,0.126953,-0.279297,0.111328,0.223267,-0.36731,0.570435,0.69989,up
62223,-7.296875,5.320312,1.4375,0.105469,-0.337891,-0.013672,0.223267,-0.36731,0.570435,0.69989,up
62229,-7.257812,5.246094,1.398438,0.123047,-0.355469,-0.066406,0.223267,-0.36731,0.570435,0.69989,up
62235,-7.300781,5.320312,1.398438,0.123047,-0.355469,-0.066406,0.225342,-0.365479,0.570312,0.700256,up
62240,-7.261719,5.359375,1.359375,0.123047,-0.355469,-0.066406,0.225342,-0.365479,0.570312,0.700256,up
62245,-7.222656,5.4375,1.4375,0.197266,-0.433594,-0.208984,0.225342,-0.365479,0.570312,0.700256,up
62250,-7.257812,5.628906,1.359375,0.197266,-0.433594,-0.208984,0.228699,-0.363708,0.570068,0.700317,up
62255,-7.261719,5.703125,1.398438,0.197266,-0.433594,-0.208984,0.229919,-0.363159,0.570007,0.700195,up
62260,-7.257812,5.820312,1.359375,0.287109,-0.511719,-0.279297,0.229919,-0.363159,0.570007,0.700195,up
62265,-7.335937,5.972656,1.359375,0.279297,-0.541016,-0.285156,0.229919,-0.363159,0.570007,0.700195,up
62270,-7.417969,6.242187,1.359375,0.279297,-0.541016,-0.285156,0.234558,-0.361084,0.569763,0.699951,up
62275,-7.496094,6.277344,1.398438,0.279297,-0.541016,-0.285156,0.235962,-0.360352,0.56958,0.700012,up
62280,-7.535156,6.355469,1.511719,0.115234,-0.662109,-0.251953,0.235962,-0.360352,0.56958,0.700012,up
62285,-7.605469,6.355469,1.511719,0.115234,-0.662109,-0.251953,0.239014,-0.358582,0.568665,0.700623,up
62290,-7.722656,6.355469,1.472656,0.115234,-0.662109,-0.251953,0.240356,-0.357666,0.567993,0.701233,up
62295,-7.722656,6.316406,1.472656,0.115234,-0.662109,-0.251953,0.241638,-0.356628,0.567017,0.702087,up
62300,-7.722656,6.316406,1.511719,-0.378906,-0.896484,-0.125,0.241638,-0.356628,0.567017,0.702087,up
62305,-7.71875,6.125,1.511719,-0.378906,-0.896484,-0.125,0.243896,-0.354309,0.564392,0.70459,up
62310,-7.71875,6.085937,1.628906,-0.378906,-0.896484,-0.125,0.244934,-0.353088,0.562744,0.706177,up
62315,-7.761719,5.972656,1.628906,-0.744141,-1.0625,-0.070312,0.244934,-0.353088,0.562744,0.706177,up
62320,-7.71875,5.894531,1.628906,-0.841797,-1.117188,-0.070312,0.244934,-0.353088,0.562744,0.706177,up
62325,-7.644531,5.78125,1.628906,-0.841797,-1.117188,-0.070312,0.247925,-0.348999,0.556213,0.71228,up
62330,-7.5625,5.589844,1.703125,-0.841797,-1.117188,-0.070312,0.247925,-0.348999,0.556213,0.71228,up
62335,-7.5625,5.511719,1.664063,-0.841797,-1.117188,-0.070312,0.250183,-0.345947,0.551025,0.717041,up
62340,-7.53125,5.476562,1.703125,-0.949219,-1.337891,-0.164062,0.250183,-0.345947,0.551025,0.717041,up
62346,-7.5625,5.4375,1.664063,-0.949219,-1.337891,-0.164062,0.254333,-0.341309,0.543091,0.723816,up
62351,-7.566406,5.550781,1.703125,-0.949219,-1.337891,-0.164062,0.254333,-0.341309,0.543091,0.723816,up
62356,-7.5625,5.628906,1.664063,-0.744141,-1.488281,-0.384766,0.254333,-0.341309,0.543091,0.723816,up
62361,-7.535156,5.703125,1.742188,-0.744141,-1.488281,-0.384766,0.258118,-0.337952,0.53772,0.728027,up
62366,-7.453125,5.703125,1.820313,-0.744141,-1.488281,-0.384766,0.260254,-0.336243,0.535095,0.72998,up
62372,-7.417969,5.820312,1.820313,-0.59375,-1.521484,-0.513672,0.260254,-0.336243,0.535095,0.72998,up
62377,-7.457031,5.894531,1.894531,-0.59375,-1.521484,-0.513672,0.267639,-0.330933,0.527283,0.735413,up
62383,-7.453125,5.933594,2.011719,-0.59375,-1.521484,-0.513672,0.267639,-0.330933,0.527283,0.735413,up
62388,-7.457031,5.972656,1.972656,-0.525391,-1.496094,-0.53125,0.272461,-0.327698,0.522583,0.738464,up
62393,-7.457031,5.972656,1.972656,-0.533203,-1.384766,-0.494141,0.272461,-0.327698,0.522583,0.738464,up
62398,-7.417969,5.894531,2.085938,-0.533203,-1.384766,-0.494141,0.274902,-0.32605,0.520142,0.73999,up
62403,-7.417969,5.894531,2.085938,-0.564453,-1.326172,-0.458984,0.277039,-0.324524,0.517822,0.741455,up
62409,-7.339844,5.703125,2.125,-0.578125,-1.261719,-0.431641,0.281006,-0.321716,0.513184,0.744385,up
62414,-7.339844,5.703125,2.085938,-0.552734,-1.107422,-0.369141,0.281006,-0.321716,0.513184,0.744385,up
62419,-7.300781,5.589844,2.238281,-0.552734,-1.107422,-0.369141,0.284363,-0.319275,0.508972,0.74707,up
62424,-7.261719,5.550781,2.277344,-0.435547,-0.966797,-0.314453,0.284363,-0.319275,0.508972,0.74707,up
62430,-7.21875,5.511719,2.277344,-0.349609,-0.882812,-0.292969,0.284363,-0.319275,0.508972,0.74707,up
62435,-7.261719,5.511719,2.316406,-0.349609,-0.882812,-0.292969,0.284363,-0.319275,0.508972,0.74707,up
62440,-7.261719,5.589844,2.355469,-0.349609,-0.882812,-0.292969,0.290039,-0.315186,0.502991,0.750732,up
62445,-7.335937,5.703125,2.316406,0.033203,-0.636719,-0.261719,0.290039,-0.315186,0.502991,0.750732,up
62451,-7.378906,5.894531,2.46875,0.033203,-0.636719,-0.261719,0.292725,-0.313354,0.501709,0.751282,up
62456,-7.417969,6.050781,2.433594,0.033203,-0.636719,-0.261719,0.294006,-0.312439,0.501526,0.751221,up
62461,-7.417969,6.125,2.46875,0.033203,-0.636719,-0.261719,0.295349,-0.311584,0.501648,0.750977,up
62467,-7.457031,6.203125,2.507813,0.53125,-0.388672,-0.224609,0.297974,-0.309875,0.502686,0.75,up
62472,-7.453125,6.316406,2.433594,0.53125,-0.388672,-0.224609,0.299255,-0.309143,0.503479,0.749268,up
62478,-7.453125,6.472656,2.507813,0.53125,-0.388672,-0.224609,0.300293,-0.308472,0.504333,0.748596,up
62483,-7.453125,6.472656,2.507813,0.5625,-0.138672,-0.111328,0.30127,-0.307739,0.50531,0.747803,up
62489,-7.417969,6.625,2.585938,0.5625,-0.138672,-0.111328,0.301941,-0.307373,0.505981,0.747192,up
62495,-7.496094,6.585937,2.625,0.392578,-0.003906,-0.042969,0.301941,-0.307373,0.505981,0.747192,up
62500,-7.535156,6.585937,2.660156,0.271484,0.068359,-0.019531,0.301941,-0.307373,0.505981,0.747192,up
62506,-7.566406,6.394531,2.625,0.029297,0.189453,0.019531,0.301941,-0.307373,0.505981,0.747192,up
62511,-7.601562,6.316406,2.660156,0.029297,0.189453,0.019531,0.302612,-0.307129,0.508118,0.745605,up
62517,-7.683594,6.277344,2.699219,-0.068359,0.208984,0.03125,0.302612,-0.307129,0.508118,0.745605,up
62522,-7.683594,6.164062,2.890625,-0.166016,0.214844,0.037109,0.302612,-0.307129,0.508118,0.745605,up
62527,-7.679687,6.050781,2.851563,-0.166016,0.214844,0.037109,0.300781,-0.309082,0.50769,0.74585,up
62532,-7.71875,6.050781,2.890625,-0.351563,0.222656,0.048828,0.300781,-0.309082,0.50769,0.74585,up
62537,-7.722656,6.011719,2.929688,-0.351563,0.222656,0.048828,0.300171,-0.309631,0.507263,0.746155,up
62542,-7.722656,5.933594,3.007813,-0.380859,0.193359,0.054687,0.300171,-0.309631,0.507263,0.746155,up
62547,-7.722656,5.859375,3.121094,-0.380859,0.193359,0.054687,0.298279,-0.311401,0.505676,0.747192,up
62552,-7.757812,5.820312,3.160156,-0.382813,0.154297,0.052734,0.298279,-0.311401,0.505676,0.747192,up
62557,-7.796875,5.78125,3.121094,-0.382813,0.154297,0.052734,0.297119,-0.312378,0.504578,0.748047,up
62562,-7.796875,5.742187,3.160156,-0.382813,0.154297,0.052734,0.296631,-0.312744,0.504028,0.748474,up
62567,-7.71875,5.703125,3.199219,-0.382813,0.154297,0.052734,0.296631,-0.312744,0.504028,0.748474,up
62572,-7.640625,5.667969,3.273438,-0.378906,0.001953,0.052734,0.296631,-0.312744,0.504028,0.748474,up
62577,-7.605469,5.628906,3.234375,-0.394531,-0.039063,0.052734,0.295715,-0.313354,0.502686,0.749451,up
62582,-7.453125,5.550781,3.273438,-0.423828,-0.060547,0.054687,0.295349,-0.313538,0.502014,0.75,up
62587,-7.492187,5.550781,3.273438,-0.423828,-0.060547,0.054687,0.294983,-0.313721,0.50116,0.75061,up
62592,-7.492187,5.550781,3.273438,-0.46875,-0.109375,0.0625,0.294617,-0.313782,0.500305,0.751282,up
62598,-7.417969,5.511719,3.234375,-0.46875,-0.109375,0.0625,0.293945,-0.313904,0.498535,0.752686,up
62603,-7.375,5.4375,3.351563,-0.46875,-0.109375,0.0625,0.29364,-0.313843,0.497559,0.753479,up
62608,-7.378906,5.359375,3.351563,-0.546875,-0.207031,0.076172,0.29364,-0.313843,0.497559,0.753479,up
62613,-7.335937,5.28125,3.273438,-0.572266,-0.224609,0.082031,0.29364,-0.313843,0.497559,0.753479,up
62618,-7.296875,5.246094,3.234375,-0.572266,-0.224609,0.082031,0.292725,-0.313538,0.494019,0.756226,up
62623,-7.179687,5.207031,3.234375,-0.572266,-0.224609,0.082031,0.292725,-0.313538,0.494019,0.756226,up
62628,-7.152344,5.207031,3.199219,-0.621094,-0.339844,0.066406,0.292725,-0.313538,0.494019,0.756226,up
62633,-7.113281,5.246094,3.199219,-0.621094,-0.339844,0.066406,0.292053,-0.312805,0.48999,0.75946,up
62638,-7.070312,5.207031,3.199219,-0.621094,-0.339844,0.066406,0.291931,-0.3125,0.488464,0.76062,up
62643,-7.03125,5.207031,3.160156,-0.669922,-0.410156,0.050781,0.291809,-0.312134,0.486877,0.761841,up
62648,-6.914062,5.167969,3.160156,-0.669922,-0.410156,0.050781,0.291687,-0.311768,0.485168,0.763123,up
62653,-6.835937,5.128906,3.121094,-0.669922,-0.410156,0.050781,0.291565,-0.311462,0.483704,0.764221,up
62658,-6.839844,5.054687,3.082031,-0.792969,-0.412109,0.041016,0.291382,-0.311157,0.481873,0.765564,up
62664,-6.800781,4.976562,3.160156,-0.792969,-0.412109,0.041016,0.291199,-0.310913,0.480103,0.766846,up
62670,-6.835937,4.863281,3.160156,-0.792969,-0.412109,0.041016,0.290894,-0.31073,0.478149,0.76825,up
62675,-6.835937,4.746094,3.160156,-0.884766,-0.365234,0.025391,0.290894,-0.31073,0.478149,0.76825,up
62680,-6.796875,4.632812,3.199219,-0.902344,-0.330078,0.021484,0.290894,-0.31073,0.478149,0.76825,up
62685,-6.800781,4.554687,3.199219,-0.892578,-0.316406,0.017578,0.290894,-0.31073,0.478149,0.76825,up
62690,-6.835937,4.402344,3.351563,-0.892578,-0.316406,0.017578,0.290894,-0.31073,0.478149,0.76825,up
62696,-6.875,4.289062,3.351563,-0.892578,-0.316406,0.017578,0.289307,-0.310669,0.468567,0.774719,up
62702,-6.917969,4.210937,3.390625,-0.753906,-0.255859,-0.042969,0.28894,-0.310852,0.46521,0.776855,up
62707,-7.070312,3.941406,3.621094,-0.753906,-0.255859,-0.042969,0.28894,-0.310852,0.46521,0.776855,up
62712,-7.070312,3.867188,3.65625,-0.460937,-0.283203,-0.164062,0.28894,-0.310852,0.463745,0.77771,up
62717,-7.070312,3.867188,3.65625,-0.460937,-0.283203,-0.164062,0.289124,-0.310852,0.462341,0.778503,up
62722,-7.070312,3.867188,3.65625,-0.460937,-0.283203,-0.164062,0.28949,-0.310791,0.461304,0.778992,up
62727,-7.179687,3.902344,3.773438,-0.460937,-0.283203,-0.164062,0.28949,-0.310791,0.461304,0.778992,up
62732,-7.222656,4.058594,3.773438,-0.1875,-0.292969,-0.277344,0.28949,-0.310791,0.461304,0.778992,up
62737,-7.222656,4.058594,3.773438,0.103516,-0.298828,-0.357422,0.291931,-0.310364,0.45929,0.779419,up
62742,-7.261719,4.746094,3.734375,0.226562,-0.322266,-0.378906,0.294495,-0.309631,0.459045,0.77887,up
62747,-7.261719,4.9375,3.734375,0.226562,-0.322266,-0.378906,0.294495,-0.309631,0.459045,0.77887,up
62752,-7.21875,5.054687,3.734375,0.357422,-0.423828,-0.351563,0.294495,-0.309631,0.459045,0.77887,up
62757,-7.222656,5.207031,3.734375,0.357422,-0.423828,-0.351563,0.297363,-0.308411,0.459229,0.778198,up
62762,-7.179687,5.476562,3.65625,0.357422,-0.423828,-0.351563,0.30011,-0.306946,0.45929,0.777649,up
62767,-7.183594,5.476562,3.621094,0.357422,-0.423828,-0.351563,0.30011,-0.306946,0.45929,0.777649,up
62772,-7.148437,5.476562,3.582031,0.058594,-0.414062,-0.212891,0.30011,-0.306946,0.45929,0.777649,up
62777,-7.113281,5.359375,3.542969,0.058594,-0.414062,-0.212891,0.302368,-0.305603,0.458923,0.777527,up
62782,-6.992187,5.167969,3.464844,0.058594,-0.414062,-0.212891,0.303223,-0.305054,0.458435,0.77771,up
62787,-6.917969,4.976562,3.425781,0.058594,-0.414062,-0.212891,0.303955,-0.304565,0.457581,0.778076,up
62793,-6.878906,4.785156,3.425781,-0.34375,-0.361328,-0.158203,0.304932,-0.304077,0.455505,0.779175,up
62798,-6.835937,4.210937,3.542969,-0.34375,-0.361328,-0.158203,0.305298,-0.303894,0.454285,0.779785,up
62803,-6.839844,3.902344,3.65625,-0.501953,-0.390625,-0.257813,0.305298,-0.303894,0.454285,0.779785,up
62808,-6.878906,3.710938,3.734375,-0.501953,-0.390625,-0.257813,0.306519,-0.303711,0.451172,0.781189,up
62813,-6.800781,3.558594,3.886719,-0.501953,-0.390625,-0.257813,0.306519,-0.303711,0.451172,0.781189,up
62818,-6.835937,3.367188,4.003906,-0.501953,-0.390625,-0.257813,0.308594,-0.30365,0.447998,0.782227,up
62823,-6.957031,3.136719,3.964844,-0.314453,-0.566406,-0.730469,0.310364,-0.303589,0.446228,0.782593,up
62828,-7.035156,3.136719,4.003906,-0.314453,-0.566406,-0.730469,0.312439,-0.303528,0.44458,0.782715,up
62833,-7.074219,3.636719,4.15625,-0.314453,-0.566406,-0.730469,0.314819,-0.303345,0.443176,0.782593,up
62838,-7.03125,3.941406,4.269531,0.0,-0.802734,-1.210938,0.314819,-0.303345,0.443176,0.782593,up
62843,-7.152344,4.171875,4.230469,0.0,-0.802734,-1.210938,0.317993,-0.303101,0.441528,0.782349,up
62848,-7.183594,4.480469,4.15625,-0.007813,-0.902344,-1.458984,0.317993,-0.303101,0.441528,0.782349,up
62854,-7.257812,5.167969,3.886719,-0.007813,-0.902344,-1.458984,0.328735,-0.302551,0.43634,0.781006,up
62859,-7.257812,5.167969,3.886719,-0.167969,-1.039063,-1.521484,0.332703,-0.302307,0.434143,0.78064,up
62865,-7.113281,5.511719,3.734375,-0.167969,-1.039063,-1.521484,0.336548,-0.302063,0.431702,0.780457,up
62870,-7.035156,5.476562,3.773438,-0.167969,-1.039063,-1.521484,0.34021,-0.30188,0.428833,0.780518,up
62876,-7.109375,5.398437,3.773438,-0.707031,-1.023438,-1.263672,0.34021,-0.30188,0.428833,0.780518,up
62881,-7.074219,5.246094,3.8125,-0.933594,-0.986328,-1.144531,0.34021,-0.30188,0.428833,0.780518,up
62886,-7.148437,4.480469,3.925781,-1.123047,-0.929687,-1.037109,0.34021,-0.30188,0.428833,0.780518,up
62891,-7.261719,3.789063,4.15625,-1.265625,-0.865234,-0.949219,0.34021,-0.30188,0.428833,0.780518,up
62896,-7.417969,3.292969,4.347656,-1.265625,-0.865234,-0.949219,0.352356,-0.302795,0.410767,0.784485,up
62901,-7.492187,3.175781,4.347656,-1.408203,-0.791016,-1.029297,0.352356,-0.302795,0.410767,0.784485,up
62906,-7.835937,3.136719,4.808594,-1.408203,-0.791016,-1.029297,0.355957,-0.304199,0.402283,0.786743,up
62911,-7.957031,3.0625,4.921875,-1.408203,-0.791016,-1.029297,0.358154,-0.304932,0.397949,0.787598,up
62916,-7.953125,3.136719,4.882812,-1.197266,-0.960937,-1.529297,0.358154,-0.304932,0.397949,0.787598,up
62922,-7.953125,3.136719,4.882812,-1.068359,-1.085938,-1.744141,0.364319,-0.306274,0.389099,0.788696,up
62927,-7.496094,3.867188,4.539062,-1.068359,-1.085938,-1.744141,0.364319,-0.306274,0.389099,0.788696,up
62932,-7.222656,4.554687,4.195312,-0.978516,-1.15625,-1.929688,0.37262,-0.307251,0.380066,0.788879,up
62937,-7.222656,4.554687,4.195312,-0.978516,-1.15625,-1.929688,0.37262,-0.307251,0.380066,0.788879,up
62942,-6.648437,5.089844,3.695313,-0.910156,-1.162109,-2.09375,0.37262,-0.307251,0.380066,0.788879,up
62947,-6.613281,4.9375,3.734375,-0.910156,-1.162109,-2.09375,0.386108,-0.308716,0.366516,0.788208,up
62953,-6.457031,4.824219,3.964844,-1.185547,-1.03125,-1.84375,0.393677,-0.310364,0.356689,0.78833,up
62958,-6.347656,4.785156,4.230469,-1.683594,-0.849609,-1.455078,0.393677,-0.310364,0.356689,0.78833,up
62963,-6.191406,3.941406,4.613281,-1.683594,-0.849609,-1.455078,0.398193,-0.312866,0.346375,0.789673,up
62968,-6.308594,3.484375,4.882812,-2.175781,-0.447266,-1.140625,0.398193,-0.312866,0.346375,0.789673,up
62973,-6.417969,2.90625,5.0,-2.277344,-0.259766,-1.037109,0.399536,-0.315063,0.340454,0.79071,up
62978,-6.835937,2.179688,5.074219,-2.277344,-0.259766,-1.037109,0.400513,-0.320129,0.329407,0.792847,up
62983,-7.296875,1.335938,5.265625,-2.277344,-0.259766,-1.037109,0.400757,-0.322998,0.323669,0.793884,up
62988,-7.5625,0.648437,5.535156,-2.308594,-0.177734,-1.144531,0.400757,-0.322998,0.323669,0.793884,up
62993,-7.878906,0.878906,5.878906,-2.308594,-0.177734,-1.144531,0.401184,-0.326111,0.317505,0.794922,up
62998,-7.984375,1.566406,5.878906,-2.308594,-0.177734,-1.144531,0.401978,-0.328979,0.311768,0.795593,up
63003,-7.984375,1.566406,5.878906,-1.835938,-0.244141,-1.515625,0.403259,-0.331421,0.306885,0.795837,up
63008,-8.21875,2.488281,5.765625,-1.523438,-0.236328,-1.710938,0.403259,-0.331421,0.306885,0.795837,up
63013,-8.371094,4.402344,4.808594,-1.224609,-0.175781,-1.871094,0.407837,-0.336182,0.297424,0.795105,up
63018,-8.371094,4.402344,4.808594,-1.025391,-0.175781,-1.957031,0.407837,-0.336182,0.297424,0.795105,up
63024,-8.21875,4.9375,4.808594,-1.025391,-0.175781,-1.957031,0.417236,-0.342529,0.285645,0.791809,up
63029,-8.101563,4.515625,4.921875,-1.025391,-0.175781,-1.957031,0.417236,-0.342529,0.285645,0.791809,up
63035,-7.800781,3.253906,5.417969,-1.025391,-0.175781,-1.957031,0.422729,-0.347229,0.276489,0.7901,up
63040,-7.917969,2.523438,5.878906,-2.320313,0.0,-1.845703,0.424744,-0.350647,0.270508,0.789612,up
63046,-7.835937,1.796875,6.300781,-2.951172,0.203125,-1.806641,0.424744,-0.350647,0.270508,0.789612,up
63053,-8.261719,0.378906,6.414062,-2.951172,0.203125,-1.806641,0.424744,-0.350647,0.270508,0.789612,up
63058,-8.449219,-0.15625,6.492187,-3.796875,0.800781,-1.714844,0.424744,-0.350647,0.270508,0.789612,up
63063,-8.683594,-0.730469,6.492187,-3.980469,1.003906,-1.634766,0.424011,-0.380981,0.231384,0.788391,up
63068,-9.175781,-0.347656,6.796875,-3.980469,1.003906,-1.634766,0.424011,-0.380981,0.231384,0.788391,up
63073,-9.449219,-0.117188,6.953125,-3.537109,1.365234,-1.271484,0.422546,-0.387939,0.223938,0.787903,up
63078,-9.671875,0.265625,6.988281,-3.054688,1.519531,-1.115234,0.420715,-0.395752,0.216064,0.78717,up
63083,-9.671875,0.265625,6.988281,-3.054688,1.519531,-1.115234,0.419189,-0.4021,0.210449,0.786316,up
63088,-9.90625,0.570312,6.914062,-2.355469,1.609375,-0.953125,0.419189,-0.4021,0.210449,0.786316,up
63093,-9.90625,0.570312,6.914062,-1.509766,1.667969,-0.769531,0.416565,-0.414062,0.20282,0.783508,up
63098,-10.25,1.796875,6.914062,-1.509766,1.667969,-0.769531,0.415894,-0.418945,0.201782,0.781555,up
63103,-10.941406,2.371094,6.988281,0.166016,1.765625,-0.337891,0.415649,-0.422791,0.202698,0.779358,up
63109,-11.125,2.21875,7.027344,0.722656,1.771484,-0.095703,0.415649,-0.428711,0.209351,0.774353,up
63114,-11.320313,2.027344,7.105469,1.306641,1.703125,0.349609,0.415588,-0.430542,0.213501,0.772217,up
63119,-11.550781,1.835938,7.21875,1.279297,1.669922,0.511719,0.415222,-0.432251,0.218323,0.770081,up
63125,-11.625,1.183594,7.144531,1.279297,1.669922,0.511719,0.414551,-0.433716,0.222473,0.768433,up
63131,-11.78125,1.183594,7.144531,0.853516,1.712891,0.791016,0.414551,-0.433716,0.222473,0.768433,up
63136,-11.628906,1.070313,7.144531,0.40625,1.744141,0.929687,0.414551,-0.433716,0.222473,0.768433,up
63141,-11.546875,0.953125,6.570312,0.058594,1.818359,1.070313,0.40863,-0.440308,0.234192,0.764404,up
63146,-11.550781,0.917969,6.261719,-0.119141,1.878906,1.216797,0.40863,-0.440308,0.234192,0.764404,up
63152,-11.550781,1.03125,6.148437,-0.220703,1.876953,1.365234,0.40863,-0.440308,0.234192,0.764404,up
63157,-11.476563,1.144531,5.996094,-0.220703,1.876953,1.365234,0.396973,-0.449402,0.243652,0.762268,up
63163,-11.441406,1.375,5.609375,-0.220703,1.876953,1.365234,0.388428,-0.45459,0.250427,0.761414,up
63168,-11.546875,1.527344,5.382812,-0.220703,1.876953,1.365234,0.388428,-0.45459,0.250427,0.761414,up
63173,-11.746094,1.683594,5.226562,0.386719,1.966797,1.966797,0.379333,-0.458801,0.260193,0.760193,up
63178,-11.707031,1.757813,4.960937,0.386719,1.966797,1.966797,0.375,-0.460205,0.266479,0.759338,up
63183,-11.707031,1.757813,4.960937,0.386719,1.966797,1.966797,0.375,-0.460205,0.266479,0.759338,up
63188,-11.746094,1.914063,4.84375,1.576172,1.878906,2.335938,0.375,-0.460205,0.266479,0.759338,up
63193,-11.746094,1.914063,4.84375,1.875,1.824219,2.455078,0.367249,-0.461243,0.281128,0.757202,up
63198,-11.785156,2.21875,5.035156,1.875,1.824219,2.455078,0.367249,-0.461243,0.281128,0.757202,up
63203,-11.785156,2.5625,4.808594,2.083984,1.808594,2.578125,0.359558,-0.460632,0.298279,0.7547,up
63209,-11.902344,2.984375,4.691406,2.259766,1.820313,2.84375,0.35083,-0.458984,0.317444,0.752014,up
63215,-12.007813,3.40625,4.652344,2.259766,1.820313,2.84375,0.346619,-0.458008,0.325928,0.750916,up
63220,-12.007813,3.40625,4.652344,2.089844,1.820313,3.248047,0.341675,-0.456909,0.335083,0.749817,up
63225,-12.164063,3.597656,4.195312,2.089844,1.820313,3.248047,0.33606,-0.455811,0.344421,0.748779,up
63230,-12.046875,3.597656,4.078125,2.089844,1.820313,3.248047,0.329834,-0.45459,0.353943,0.747864,up
63235,-11.820313,3.980469,3.925781,2.089844,1.820313,3.248047,0.329834,-0.45459,0.353943,0.747864,up
63240,-11.820313,3.980469,3.925781,1.699219,1.833984,3.652344,0.329834,-0.45459,0.353943,0.747864,up
63245,-11.820313,3.980469,3.925781,1.699219,1.833984,3.652344,0.317017,-0.452087,0.371643,0.746338,up
63250,-11.519531,4.554687,3.199219,1.675781,1.859375,3.730469,0.317017,-0.452087,0.371643,0.746338,up
63255,-11.519531,4.554687,3.199219,1.6875,1.890625,3.806641,0.303955,-0.449463,0.388428,0.744812,up
63260,-11.398438,4.746094,2.929688,1.6875,1.890625,3.806641,0.296692,-0.447937,0.397522,0.743835,up
63265,-11.167969,4.976562,2.585938,1.662109,1.947266,3.939453,0.281921,-0.444763,0.415161,0.741821,up
63271,-10.976563,5.589844,2.164063,1.662109,1.947266,3.939453,0.273987,-0.443115,0.424316,0.740662,up
63276,-10.902344,5.742187,2.046875,1.525391,2.054688,4.121094,0.273987,-0.443115,0.424316,0.740662,up
63282,-10.898438,5.859375,1.933594,1.390625,2.080078,4.171875,0.273987,-0.443115,0.424316,0.740662,up
63288,-10.9375,5.933594,1.628906,1.390625,2.080078,4.171875,0.273987,-0.443115,0.424316,0.740662,up
63293,-10.976563,5.933594,1.589844,0.714844,2.181641,4.261719,0.273987,-0.443115,0.424316,0.740662,up
63298,-11.054688,5.933594,1.550781,0.714844,2.181641,4.261719,0.230286,-0.435059,0.465881,0.735291,up
63303,-11.054688,5.933594,1.550781,0.714844,2.181641,4.261719,0.220581,-0.433777,0.472717,0.734619,up
63308,-11.4375,5.820312,1.398438,0.714844,2.181641,4.261719,0.220581,-0.433777,0.472717,0.734619,up
63313,-11.546875,5.820312,1.28125,0.130859,2.314453,4.259766,0.199951,-0.431946,0.484741,0.733826,up
63318,-11.546875,5.820312,1.28125,-0.320313,2.359375,4.181641,0.199951,-0.431946,0.484741,0.733826,up
63324,-11.441406,5.972656,1.207031,-0.320313,2.359375,4.181641,0.188843,-0.431213,0.490173,0.733582,up
63329,-11.320313,6.125,1.167969,-0.519531,2.349609,4.060547,0.156006,-0.429443,0.503967,0.732971,up
63334,-11.246094,6.277344,1.128906,-0.394531,2.3125,4.005859,0.144592,-0.428772,0.508606,0.732544,up
63339,-11.164063,6.546875,1.089844,-0.394531,2.3125,4.005859,0.134888,-0.427979,0.512756,0.731934,up
63344,-11.019531,7.238281,1.089844,-0.013672,2.164063,3.998047,0.123535,-0.426819,0.518005,0.730957,up
63350,-10.78125,7.390625,1.089844,0.253906,2.085938,3.998047,0.113708,-0.425415,0.523071,0.729736,up
63355,-10.441406,7.660156,1.015625,0.253906,2.085938,3.998047,0.103882,-0.423706,0.528748,0.728088,up
63360,-10.25,7.773437,1.015625,0.253906,2.085938,3.998047,0.103882,-0.423706,0.528748,0.728088,up
63365,-10.25,7.773437,1.015625,0.6875,1.802734,4.060547,0.095459,-0.421753,0.534119,0.72644,up
63370,-10.097656,7.851562,1.015625,0.6875,1.802734,4.060547,0.086548,-0.419312,0.5401,0.724548,up
63376,-10.097656,7.851562,1.015625,0.828125,1.617188,4.130859,0.068787,-0.413513,0.552307,0.720581,up
63381,-9.789063,7.503906,0.746094,0.828125,1.617188,4.130859,0.068787,-0.413513,0.552307,0.720581,up
63387,-9.171875,7.199219,0.976562,0.667969,1.363281,4.162109,0.05127,-0.406494,0.563721,0.717163,up
63392,-8.910156,7.046875,0.976562,0.322266,1.113281,4.150391,0.05127,-0.406494,0.563721,0.717163,up
63398,-8.832031,6.890625,0.785156,0.322266,1.113281,4.150391,0.033813,-0.398621,0.573486,0.714905,up
63403,-8.832031,6.890625,0.785156,-0.142578,1.078125,4.072266,0.024963,-0.394714,0.577515,0.714172,up
63408,-8.792969,6.890625,0.707031,-0.351563,1.027344,4.005859,0.015747,-0.390625,0.581238,0.713684,up
63413,-8.792969,6.890625,0.707031,-0.53125,0.964844,3.923828,0.006897,-0.386719,0.58429,0.71344,up
63418,-7.953125,6.664062,0.746094,-0.53125,0.964844,3.923828,0.006897,-0.386719,0.58429,0.71344,up
63423,-7.953125,6.664062,0.746094,-0.65625,0.902344,3.769531,0.010864,0.378662,-0.589478,-0.71344,up
63428,-7.339844,6.96875,0.515625,-0.65625,0.902344,3.769531,0.010864,0.378662,-0.589478,-0.71344,up
63434,-7.222656,7.460937,0.25,-0.464844,0.916016,3.675781,0.036133,0.366882,-0.597046,-0.712463,up
63439,-6.992187,7.660156,0.132812,-0.464844,0.916016,3.675781,0.036133,0.366882,-0.597046,-0.712463,up
63444,-6.800781,7.816406,0.171875,0.015625,0.765625,3.652344,0.051758,0.358459,-0.603699,-0.710205,up
63449,-6.535156,8.347656,0.210937,0.015625,0.765625,3.652344,0.058838,0.354126,-0.607544,-0.708496,up
63454,-6.496094,8.503906,0.25,0.015625,0.765625,3.652344,0.066162,0.349365,-0.612,-0.70636,up
63459,-6.34375,8.542969,0.210937,0.015625,0.765625,3.652344,0.066162,0.349365,-0.612,-0.70636,up
63464,-6.34375,8.542969,0.210937,0.751953,0.525391,3.712891,0.072388,0.345154,-0.616089,-0.704346,up
63469,-6.113281,8.265625,0.285156,0.728516,0.466797,3.734375,0.078979,0.340454,-0.620422,-0.702087,up
63475,-6.113281,8.265625,0.285156,0.646484,0.392578,3.753906,0.085815,0.335388,-0.624817,-0.699829,up
63480,-5.691406,7.921875,0.402344,0.646484,0.392578,3.753906,0.092407,0.330322,-0.628845,-0.697754,up
63485,-5.078125,7.316406,0.363281,0.353516,0.279297,3.816406,0.09906,0.325012,-0.632629,-0.695984,up
63490,-4.847656,7.195312,0.402344,0.154297,0.248047,3.822266,0.113037,0.31366,-0.639221,-0.692993,up
63496,-4.351562,7.007812,0.363281,0.154297,0.248047,3.822266,0.120056,0.307922,-0.641968,-0.691833,up
63501,-4.160156,6.972656,0.324219,-0.25,0.246094,3.886719,0.127502,0.30188,-0.644592,-0.690735,up
63507,-3.738281,7.046875,0.054687,-0.25,0.246094,3.886719,0.134766,0.296021,-0.646973,-0.689697,up
63512,-3.546875,7.15625,-0.019531,-0.279297,0.339844,3.972656,0.134766,0.296021,-0.646973,-0.689697,up
63517,-3.277344,7.429687,-0.171875,-0.148437,0.423828,4.074219,0.134766,0.296021,-0.646973,-0.689697,up
63522,-3.277344,7.429687,-0.171875,0.041016,0.539062,4.197266,0.15802,0.278076,-0.654297,-0.685242,up
63527,-2.742188,7.503906,-0.632812,0.041016,0.539062,4.197266,0.15802,0.278076,-0.654297,-0.685242,up
63532,-2.398438,7.578125,-0.824219,0.595703,0.746094,4.554687,0.174805,0.266113,-0.660828,-0.679687,up
63537,-2.398438,7.578125,-0.824219,0.595703,0.746094,4.554687,0.174805,0.266113,-0.660828,-0.679687,up
63543,-1.707031,7.773437,-0.976562,0.953125,0.84375,4.769531,0.192261,0.254089,-0.669373,-0.671143,up
63548,-1.4375,7.460937,-0.746094,0.953125,0.84375,4.769531,0.192261,0.254089,-0.669373,-0.671143,up
63554,-1.324219,7.273437,-0.671875,1.941406,1.294922,5.457031,0.192261,0.254089,-0.669373,-0.671143,up
63559,-1.402344,6.890625,-0.519531,1.941406,1.294922,5.457031,0.221191,0.235229,-0.68573,-0.652283,up
63565,-1.324219,6.667969,-0.441406,2.021484,1.398438,5.546875,0.241394,0.222961,-0.696899,-0.637451,up
63570,-1.132813,6.316406,-0.328125,2.009766,1.505859,5.548828,0.252441,0.21637,-0.702637,-0.629089,up
63575,-0.558594,6.089844,-0.328125,2.009766,1.505859,5.548828,0.262634,0.210327,-0.707642,-0.621277,up
63580,-0.328125,5.972656,-0.328125,2.009766,1.505859,5.548828,0.262634,0.210327,-0.707642,-0.621277,up
63585,-0.328125,5.972656,-0.328125,1.841797,1.628906,5.519531,0.272522,0.204529,-0.712158,-0.61377,up
63590,-0.097656,5.933594,-0.402344,1.841797,1.628906,5.519531,0.282959,0.198547,-0.716492,-0.605957,up
63595,0.054687,5.933594,-0.363281,1.699219,1.904297,5.564453,0.282959,0.198547,-0.716492,-0.605957,up
63600,0.054687,5.933594,-0.363281,1.660156,2.054688,5.59375,0.304932,0.186646,-0.724182,-0.589722,up
63606,0.820312,5.398437,-0.480469,1.636719,2.169922,5.640625,0.327881,0.174988,-0.730652,-0.572754,up
63612,1.128906,4.175781,0.019531,1.636719,2.169922,5.640625,0.327881,0.174988,-0.730652,-0.572754,up
63618,1.320313,3.75,0.210937,1.65625,2.457031,5.582031,0.327881,0.174988,-0.730652,-0.572754,up
63623,1.320313,3.75,0.210937,1.734375,2.453125,5.482422,0.36261,0.158508,-0.738342,-0.546082,up
63628,1.550781,3.40625,0.515625,1.841797,2.457031,5.306641,0.36261,0.158508,-0.738342,-0.546082,up
63633,2.007813,2.714844,0.9375,1.841797,2.457031,5.306641,0.36261,0.158508,-0.738342,-0.546082,up
63639,2.007813,2.714844,0.9375,2.125,2.492188,4.90625,0.394897,0.144897,-0.744934,-0.517822,up
63645,2.351563,2.867188,1.015625,2.125,2.492188,4.90625,0.414856,0.138306,-0.749146,-0.497498,up
63651,2.699219,3.214844,1.242188,2.125,2.492188,4.90625,0.42334,0.136047,-0.75116,-0.487915,up
63656,2.8125,3.488281,1.167969,2.738281,2.353516,3.853516,0.43158,0.134338,-0.753174,-0.477905,up
63661,2.851563,3.871094,1.128906,2.832031,2.3125,3.607422,0.439636,0.133057,-0.755249,-0.467529,up
63668,2.851563,4.054687,1.128906,2.884766,2.199219,3.392578,0.439636,0.133057,-0.755249,-0.467529,up
63673,3.003906,4.132812,1.28125,2.884766,2.199219,3.392578,0.439636,0.133057,-0.755249,-0.467529,up
63678,3.082031,4.210937,1.398438,2.865234,1.894531,2.976563,0.439636,0.133057,-0.755249,-0.467529,up
63683,3.082031,4.210937,1.398438,2.736328,1.746094,2.794922,0.465515,0.131042,-0.763062,-0.428833,up
63688,3.347656,4.253906,1.511719,2.736328,1.746094,2.794922,0.465515,0.131042,-0.763062,-0.428833,up
63694,3.503906,4.132812,1.664063,2.517578,1.601563,2.638672,0.470703,0.130737,-0.764771,-0.420166,up
63699,3.503906,4.132812,1.664063,1.849609,1.302734,2.330078,0.47998,0.129456,-0.767456,-0.404785,up
63704,4.003906,3.367188,2.203125,1.849609,1.302734,2.330078,0.484192,0.128296,-0.768433,-0.398315,up
63709,4.117187,3.214844,2.277344,1.849609,1.302734,2.330078,0.487854,0.126892,-0.768982,-0.393066,up
63715,4.308594,3.023438,2.355469,0.394531,0.724609,1.673828,0.487854,0.126892,-0.768982,-0.393066,up
63720,4.382812,2.832031,2.394531,0.394531,0.724609,1.673828,0.497131,0.121155,-0.769409,-0.382324,up
63726,4.652344,2.792969,1.933594,0.394531,0.724609,1.673828,0.499329,0.119141,-0.769287,-0.380371,up
63731,4.730469,2.714844,1.628906,-0.101563,0.310547,1.144531,0.499329,0.119141,-0.769287,-0.380371,up
63736,4.726562,2.871094,1.398438,-0.15625,0.189453,0.974609,0.499329,0.119141,-0.769287,-0.380371,up
63741,4.847656,2.871094,1.207031,-0.128906,0.013672,0.830078,0.499329,0.119141,-0.769287,-0.380371,up
63746,5.070312,3.367188,0.9375,-0.128906,0.013672,0.830078,0.499329,0.119141,-0.769287,-0.380371,up
63751,5.152344,3.519531,0.707031,0.085937,-0.275391,0.546875,0.499329,0.119141,-0.769287,-0.380371,up
63756,5.191406,3.710938,0.441406,0.226562,-0.394531,0.410156,0.499329,0.119141,-0.769287,-0.380371,up
63761,5.226562,3.941406,0.171875,0.226562,-0.394531,0.410156,0.503662,0.108521,-0.771362,-0.373535,up
63767,5.453125,4.402344,-0.097656,0.226562,-0.394531,0.410156,0.502625,0.10791,-0.772522,-0.372742,up
63772,5.570312,4.632812,-0.210937,0.294922,-0.789062,0.107422,0.502625,0.10791,-0.772522,-0.372742,up
63777,5.761719,4.824219,-0.671875,0.294922,-0.789062,0.107422,0.499634,0.106812,-0.775085,-0.371765,up
63782,5.800781,5.015625,-0.976562,0.091797,-0.935547,-0.058594,0.499634,0.106812,-0.775085,-0.371765,up
63788,5.878906,5.128906,-1.167969,-0.041016,-1.042969,-0.136719,0.499634,0.106812,-0.775085,-0.371765,up
63793,5.992187,5.28125,-1.285156,-0.234375,-1.138672,-0.208984,0.499634,0.106812,-0.775085,-0.371765,up
63798,6.21875,5.628906,-1.742188,-0.234375,-1.138672,-0.208984,0.499634,0.106812,-0.775085,-0.371765,up
63804,6.375,5.78125,-2.011719,-0.234375,-1.138672,-0.208984,0.488464,0.102478,-0.780823,-0.375793,up
63809,6.496094,6.050781,-2.433594,-0.234375,-1.138672,-0.208984,0.485596,0.101074,-0.781677,-0.378052,up
63814,6.566406,6.164062,-2.664063,-0.234375,-1.138672,-0.208984,0.482849,0.099609,-0.782349,-0.380615,up
63819,6.601562,6.316406,-2.96875,-0.234375,-1.138672,-0.208984,0.480042,0.098145,-0.782837,-0.383484,up
63824,6.644531,6.472656,-3.3125,-1.255859,-1.373047,-0.65625,0.480042,0.098145,-0.782837,-0.383484,up
63829,6.757812,6.773437,-3.851563,-1.255859,-1.373047,-0.65625,0.473999,0.094971,-0.783569,-0.390259,up
63834,6.875,6.890625,-4.003906,-1.255859,-1.373047,-0.65625,0.470947,0.093445,-0.783752,-0.393921,up
63840,6.988281,7.046875,-4.195312,-1.222656,-1.349609,-0.728516,0.470947,0.093445,-0.783752,-0.393921,up
63845,7.027344,7.15625,-4.347656,-1.152344,-1.294922,-0.748047,0.461609,0.089661,-0.784363,-0.40448,up
63850,7.101562,7.273437,-4.464844,-1.152344,-1.294922,-0.748047,0.458435,0.088684,-0.784607,-0.407837,up
63855,7.140625,7.277344,-4.386719,-0.78125,-1.099609,-0.679687,0.458435,0.088684,-0.784607,-0.407837,up
63860,7.179687,7.277344,-4.386719,-0.78125,-1.099609,-0.679687,0.453186,0.087402,-0.785217,-0.412842,up
63865,7.183594,7.160156,-4.234375,-0.78125,-1.099609,-0.679687,0.453186,0.087402,-0.785217,-0.412842,up
63870,7.183594,7.160156,-4.234375,-0.78125,-1.099609,-0.679687,0.453186,0.087402,-0.785217,-0.412842,up
63875,7.21875,7.082031,-4.15625,-0.376953,-0.804687,-0.519531,0.453186,0.087402,-0.785217,-0.412842,up
63880,7.21875,7.082031,-4.15625,-0.125,-0.634766,-0.445312,0.445129,0.086548,-0.786743,-0.418762,up
63885,7.140625,6.929687,-3.925781,-0.125,-0.634766,-0.445312,0.443542,0.08667,-0.787231,-0.419495,up
63890,6.910156,6.890625,-3.582031,-0.125,-0.634766,-0.445312,0.441956,0.087036,-0.787842,-0.420044,up
63895,6.835937,6.96875,-3.429688,-0.125,-0.634766,-0.445312,0.441956,0.087036,-0.787842,-0.420044,up
63900,6.71875,7.078125,-3.3125,0.275391,-0.417969,-0.394531,0.441956,0.087036,-0.787842,-0.420044,up
63905,6.566406,7.351562,-3.277344,0.275391,-0.417969,-0.394531,0.438049,0.088745,-0.789673,-0.420288,up
63910,6.527344,7.433594,-3.199219,0.326172,-0.410156,-0.396484,0.438049,0.088745,-0.789673,-0.420288,up
63915,6.527344,7.503906,-3.199219,0.3125,-0.416016,-0.416016,0.436646,0.089539,-0.790405,-0.420166,up
63920,6.492187,7.5,-3.121094,0.3125,-0.416016,-0.416016,0.434082,0.090942,-0.791748,-0.420105,up
63925,6.492187,7.617187,-3.160156,0.3125,-0.416016,-0.416016,0.432739,0.091553,-0.792358,-0.420166,up
63930,6.453125,7.65625,-3.160156,0.3125,-0.416016,-0.416016,0.432739,0.091553,-0.792358,-0.420166,up
63935,6.453125,7.621094,-3.199219,0.115234,-0.443359,-0.408203,0.430054,0.092529,-0.793335,-0.420837,up
63940,6.492187,7.734375,-3.238281,-0.097656,-0.419922,-0.376953,0.430054,0.092529,-0.793335,-0.420837,up
63945,6.453125,7.65625,-3.277344,-0.097656,-0.419922,-0.376953,0.428772,0.092834,-0.79364,-0.421448,up
63950,6.453125,7.539062,-3.277344,-0.294922,-0.369141,-0.324219,0.42749,0.092957,-0.793884,-0.422363,up
63955,6.375,7.355469,-3.277344,-0.294922,-0.369141,-0.324219,0.426514,0.092957,-0.793945,-0.423218,up
63960,6.414062,7.316406,-3.238281,-0.294922,-0.369141,-0.324219,0.424683,0.092712,-0.793762,-0.425415,up
63965,6.375,7.199219,-3.160156,-0.294922,-0.369141,-0.324219,0.424011,0.09259,-0.79364,-0.426453,up
63970,6.335937,7.078125,-3.121094,-0.294922,-0.369141,-0.324219,0.424011,0.09259,-0.79364,-0.426453,up
63975,6.222656,6.890625,-2.929688,-0.330078,-0.226562,-0.242187,0.424011,0.09259,-0.79364,-0.426453,up
63980,6.183594,6.894531,-2.855469,-0.330078,-0.226562,-0.242187,0.422119,0.092468,-0.793152,-0.429138,up
63985,6.109375,6.855469,-2.894531,-0.330078,-0.226562,-0.242187,0.421631,0.092712,-0.793152,-0.429626,up
63990,5.992187,6.972656,-2.777344,-0.330078,-0.226562,-0.242187,0.421631,0.092712,-0.793152,-0.429626,up
63995,5.953125,7.046875,-2.664063,0.148437,-0.121094,-0.263672,0.421082,0.093079,-0.793213,-0.429932,up
64001,5.953125,7.15625,-2.664063,0.148437,-0.121094,-0.263672,0.419983,0.094177,-0.79364,-0.429993,up
64006,5.839844,7.351562,-2.738281,0.148437,-0.121094,-0.263672,0.419373,0.094849,-0.793945,-0.429871,up
64012,5.839844,7.539062,-2.546875,0.148437,-0.121094,-0.263672,0.418701,0.095581,-0.794312,-0.429687,up
64017,5.800781,7.503906,-2.546875,0.234375,-0.183594,-0.302734,0.418701,0.095581,-0.794312,-0.429687,up
64022,5.761719,7.542969,-2.585938,0.181641,-0.197266,-0.318359,0.417175,0.096863,-0.795044,-0.429504,up
64027,5.761719,7.5,-2.511719,0.115234,-0.222656,-0.326172,0.416382,0.097473,-0.795349,-0.429626,up
