timestamp,ax,ay,az,gx,gy,gz,qw,qx,qy,qz,label
626242,-8.609375,4.285156,2.019531,-0.054687,0.042969,-0.056641,0.552673,-0.200378,0.597046,0.545837,up
626247,-8.648438,4.285156,2.058594,-0.054687,0.042969,-0.056641,0.552734,-0.200867,0.596985,0.545593,up
626252,-8.609375,4.246094,2.058594,-0.054687,0.042969,-0.056641,0.552673,-0.201111,0.596985,0.545593,up
626258,-8.582031,4.207031,2.058594,-0.101563,0.056641,-0.029297,0.552673,-0.201111,0.596985,0.545593,up
626263,-8.582031,4.246094,2.058594,-0.101563,0.056641,-0.029297,0.552429,-0.201843,0.596802,0.545776,up
626268,-8.542969,4.246094,2.019531,-0.101563,0.056641,-0.029297,0.552307,-0.202087,0.596802,0.545898,up
626273,-8.582031,4.207031,2.058594,-0.066406,0.074219,-0.003906,0.552307,-0.202087,0.596802,0.545898,up
626278,-8.542969,4.207031,2.058594,-0.048828,0.080078,-0.005859,0.552124,-0.202332,0.596802,0.545959,up
626283,-8.542969,4.171875,1.945313,-0.048828,0.080078,-0.005859,0.55188,-0.202637,0.596863,0.546021,up
626288,-8.582031,4.132812,2.058594,-0.048828,0.080078,-0.005859,0.551697,-0.202759,0.596985,0.546021,up
626293,-8.5,4.054687,2.019531,0.025391,0.058594,-0.005859,0.551697,-0.202759,0.596985,0.546021,up
626298,-8.503906,4.015625,2.097656,0.058594,0.046875,-0.011719,0.551636,-0.20282,0.597107,0.545959,up
626303,-8.460938,4.132812,2.097656,0.058594,0.046875,-0.011719,0.551514,-0.20282,0.597351,0.545715,up
626308,-8.464844,4.09375,2.058594,0.058594,0.046875,-0.011719,0.551514,-0.20282,0.597595,0.545532,up
626313,-8.460938,4.09375,2.097656,0.087891,0.048828,-0.025391,0.551514,-0.20282,0.597595,0.545532,up
626318,-8.503906,4.132812,2.019531,0.087891,0.048828,-0.025391,0.551514,-0.202759,0.597778,0.545288,up
626323,-8.542969,4.207031,2.019531,0.087891,0.048828,-0.025391,0.551514,-0.202698,0.598145,0.544922,up
626328,-8.464844,4.246094,2.058594,0.087891,0.048828,-0.025391,0.551514,-0.202698,0.598145,0.544922,up
626333,-8.460938,4.324219,2.058594,0.091797,0.048828,-0.041016,0.551575,-0.202698,0.598511,0.544495,up
626338,-8.464844,4.363281,2.058594,0.091797,0.048828,-0.041016,0.551575,-0.202698,0.598633,0.544312,up
626343,-8.503906,4.363281,1.984375,0.091797,0.048828,-0.041016,0.551514,-0.202759,0.598755,0.544189,up
626348,-8.464844,4.363281,2.019531,0.091797,0.048828,-0.041016,0.551514,-0.202759,0.598755,0.544189,up
626353,-8.464844,4.363281,2.019531,0.003906,0.037109,-0.019531,0.551453,-0.202881,0.598877,0.544128,up
626358,-8.421875,4.285156,2.019531,0.003906,0.037109,-0.019531,0.551392,-0.202942,0.598877,0.544128,up
626363,-8.464844,4.285156,2.058594,0.003906,0.037109,-0.019531,0.551331,-0.203003,0.598877,0.544189,up
626368,-8.460938,4.324219,1.984375,0.003906,0.037109,-0.019531,0.551331,-0.203003,0.598877,0.544189,up
626373,-8.421875,4.324219,1.945313,-0.082031,0.041016,0.033203,0.551331,-0.203003,0.598877,0.544189,up
626378,-8.503906,4.207031,1.984375,-0.082031,0.041016,0.033203,0.550903,-0.203308,0.598816,0.544556,up
626383,-8.503906,4.171875,1.945313,-0.082031,0.041016,0.033203,0.55072,-0.20343,0.598816,0.544739,up
626388,-8.5,4.132812,1.945313,-0.068359,0.037109,0.052734,0.55072,-0.20343,0.598816,0.544739,up
626394,-8.503906,4.171875,1.945313,-0.068359,0.037109,0.052734,0.550415,-0.203552,0.598816,0.545044,up
626399,-8.542969,4.171875,1.945313,-0.068359,0.037109,0.052734,0.550232,-0.203552,0.598816,0.545166,up
626404,-8.542969,4.171875,1.945313,-0.007813,0.048828,0.046875,0.550049,-0.203613,0.598938,0.545227,up
626409,-8.542969,4.09375,1.90625,-0.007813,0.048828,0.046875,0.549927,-0.203552,0.59906,0.545227,up
626415,-8.539063,4.054687,1.90625,-0.007813,0.048828,0.046875,0.549805,-0.203552,0.599182,0.545227,up
626421,-8.5,4.09375,1.945313,0.072266,0.044922,0.03125,0.549805,-0.203552,0.599182,0.545227,up
626426,-8.464844,4.132812,1.867188,0.083984,0.052734,0.019531,0.549805,-0.203552,0.599182,0.545227,up
626433,-8.460938,4.171875,1.867188,0.083984,0.052734,0.019531,0.549805,-0.203552,0.599182,0.545227,up
626438,-8.421875,4.207031,1.828125,0.085937,0.0625,0.009766,0.549805,-0.203552,0.599182,0.545227,up
626443,-8.464844,4.207031,1.828125,0.085937,0.0625,0.009766,0.549377,-0.203186,0.60022,0.544678,up
626448,-8.425781,4.324219,1.867188,0.076172,0.060547,0.011719,0.549377,-0.203186,0.60022,0.544678,up
626453,-8.425781,4.324219,1.867188,0.072266,0.050781,0.011719,0.549255,-0.203064,0.600586,0.544434,up
626459,-8.425781,4.324219,1.90625,0.072266,0.050781,0.011719,0.549133,-0.203064,0.600769,0.544312,up
626464,-8.460938,4.324219,1.789063,0.025391,0.082031,0.037109,0.549011,-0.203064,0.600952,0.54425,up
626469,-8.503906,4.324219,1.714844,-0.021484,0.087891,0.0625,0.549011,-0.203064,0.600952,0.54425,up
626475,-8.464844,4.285156,1.828125,-0.021484,0.087891,0.0625,0.54834,-0.203125,0.601379,0.544434,up
626480,-8.5,4.324219,1.828125,-0.042969,0.095703,0.083984,0.548096,-0.203186,0.601501,0.544556,up
626485,-8.582031,4.207031,1.789063,-0.042969,0.095703,0.083984,0.547791,-0.203247,0.601624,0.544678,up
626490,-8.609375,4.09375,1.828125,-0.056641,0.121094,0.101563,0.547791,-0.203247,0.601624,0.544678,up
626495,-8.613281,4.015625,1.867188,-0.050781,0.117188,0.103516,0.547791,-0.203247,0.601624,0.544678,up
626501,-8.578125,4.015625,1.867188,-0.050781,0.117188,0.103516,0.547791,-0.203247,0.601624,0.544678,up
626507,-8.582031,3.976563,1.90625,-0.050781,0.117188,0.103516,0.546387,-0.203491,0.602234,0.545288,up
626512,-8.578125,4.015625,1.828125,0.009766,0.091797,0.056641,0.546387,-0.203491,0.602234,0.545288,up
626517,-8.542969,4.132812,1.828125,0.009766,0.091797,0.056641,0.545959,-0.203552,0.6026,0.545349,up
626522,-8.460938,4.171875,1.828125,0.009766,0.091797,0.056641,0.545776,-0.203552,0.602783,0.545288,up
626527,-8.464844,4.207031,1.789063,0.087891,0.078125,0.011719,0.545776,-0.203552,0.602783,0.545288,up
626533,-8.464844,4.246094,1.789063,0.099609,0.068359,0.015625,0.545532,-0.203369,0.603516,0.5448,up
626538,-8.460938,4.324219,1.789063,0.099609,0.068359,0.015625,0.545532,-0.203369,0.603516,0.5448,up
626543,-8.425781,4.324219,1.789063,0.099609,0.068359,0.015625,0.545471,-0.203308,0.603699,0.544678,up
626548,-8.425781,4.363281,1.753906,0.017578,0.070312,0.019531,0.545471,-0.203308,0.603699,0.544678,up
626553,-8.421875,4.324219,1.753906,0.017578,0.070312,0.019531,0.545227,-0.203308,0.604065,0.544495,up
626558,-8.421875,4.324219,1.753906,-0.070312,0.083984,0.025391,0.545105,-0.203369,0.604187,0.544495,up
626563,-8.382813,4.324219,1.675781,-0.070312,0.083984,0.025391,0.544922,-0.203491,0.604248,0.544556,up
626569,-8.386719,4.324219,1.714844,-0.121094,0.091797,0.035156,0.544373,-0.203979,0.604248,0.544922,up
626574,-8.386719,4.324219,1.753906,-0.121094,0.091797,0.035156,0.544006,-0.204285,0.604187,0.545227,up
626579,-8.386719,4.324219,1.714844,-0.121094,0.091797,0.035156,0.543701,-0.20459,0.604126,0.545532,up
626584,-8.382813,4.285156,1.753906,-0.230469,0.138672,0.076172,0.543274,-0.204956,0.604004,0.545898,up
626590,-8.382813,4.285156,1.714844,-0.230469,0.138672,0.076172,0.542786,-0.205322,0.603943,0.546326,up
626595,-8.382813,4.246094,1.714844,-0.230469,0.138672,0.076172,0.542297,-0.205688,0.603882,0.546753,up
626600,-8.421875,4.207031,1.675781,-0.255859,0.160156,0.119141,0.542297,-0.205688,0.603882,0.546753,up
626605,-8.425781,4.171875,1.675781,-0.232422,0.173828,0.132812,0.542297,-0.205688,0.603882,0.546753,up
626610,-8.460938,4.132812,1.753906,-0.232422,0.173828,0.132812,0.542297,-0.205688,0.603882,0.546753,up
626615,-8.5,3.941406,1.789063,-0.232422,0.173828,0.132812,0.540649,-0.206787,0.60376,0.548096,up
626620,-8.460938,3.902344,1.753906,-0.181641,0.173828,0.121094,0.540649,-0.206787,0.60376,0.548096,up
626625,-8.460938,3.902344,1.753906,-0.158203,0.175781,0.113281,0.539062,-0.207642,0.603882,0.549194,up
626630,-8.5,3.671875,1.828125,-0.158203,0.175781,0.113281,0.538574,-0.207947,0.604004,0.549438,up
626635,-8.421875,3.710938,1.867188,-0.109375,0.171875,0.056641,0.538574,-0.207947,0.604004,0.549438,up
626640,-8.421875,3.75,1.90625,-0.083984,0.167969,0.029297,0.538574,-0.207947,0.604004,0.549438,up
626646,-8.421875,3.75,1.90625,-0.044922,0.173828,-0.001953,0.537415,-0.208801,0.60437,0.549805,up
626651,-8.425781,3.941406,1.789063,-0.044922,0.173828,-0.001953,0.537415,-0.208801,0.60437,0.549805,up
626657,-8.421875,3.976563,1.90625,0.015625,0.167969,-0.046875,0.537415,-0.208801,0.60437,0.549805,up
626662,-8.460938,4.054687,1.984375,0.021484,0.162109,-0.060547,0.537415,-0.208801,0.60437,0.549805,up
626667,-8.503906,4.132812,1.90625,0.021484,0.162109,-0.060547,0.536621,-0.2099,0.605286,0.549194,up
626672,-8.539063,4.207031,1.945313,0.044922,0.162109,-0.056641,0.536621,-0.2099,0.605286,0.549194,up
626677,-8.542969,4.207031,1.90625,0.025391,0.146484,-0.052734,0.536621,-0.2099,0.605286,0.549194,up
626682,-8.582031,4.285156,1.90625,0.025391,0.146484,-0.052734,0.536194,-0.210693,0.605957,0.548584,up
626688,-8.582031,4.285156,1.867188,0.025391,0.146484,-0.052734,0.535889,-0.211182,0.606201,0.548462,up
626693,-8.539063,4.324219,1.984375,0.025391,0.146484,-0.052734,0.535889,-0.211182,0.606201,0.548462,up
626698,-8.503906,4.285156,1.867188,-0.085937,0.099609,-0.015625,0.535889,-0.211182,0.606201,0.548462,up
626703,-8.503906,4.285156,1.867188,-0.085937,0.099609,-0.015625,0.535522,-0.211731,0.606201,0.548584,up
626708,-8.464844,4.285156,1.867188,-0.173828,0.085937,0.035156,0.535278,-0.212036,0.60614,0.548767,up
626713,-8.460938,4.324219,1.867188,-0.173828,0.085937,0.035156,0.535034,-0.21228,0.606079,0.54895,up
626719,-8.421875,4.363281,1.867188,-0.183594,0.083984,0.060547,0.535034,-0.21228,0.606079,0.54895,up
626724,-8.5,4.398437,1.828125,-0.183594,0.083984,0.060547,0.533997,-0.213074,0.605774,0.549988,up
626729,-8.460938,4.4375,1.714844,-0.183594,0.083984,0.060547,0.533569,-0.213318,0.605713,0.550415,up
626734,-8.503906,4.515625,1.714844,-0.216797,0.130859,0.15625,0.533569,-0.213318,0.605713,0.550415,up
626740,-8.5,4.476562,1.636719,-0.216797,0.130859,0.15625,0.532532,-0.213745,0.605591,0.551331,up
626745,-8.5,4.476562,1.636719,-0.230469,0.150391,0.212891,0.53186,-0.213989,0.605591,0.55188,up
626750,-8.582031,4.476562,1.675781,-0.244141,0.171875,0.240234,0.531128,-0.214172,0.605591,0.55249,up
626756,-8.613281,4.398437,1.675781,-0.244141,0.171875,0.240234,0.530457,-0.214355,0.605652,0.55304,up
626762,-8.582031,4.398437,1.714844,-0.267578,0.195312,0.277344,0.530457,-0.214355,0.605652,0.55304,up
626767,-8.609375,4.398437,1.636719,-0.283203,0.220703,0.291016,0.530457,-0.214355,0.605652,0.55304,up
626773,-8.648438,4.363281,1.675781,-0.314453,0.244141,0.289063,0.530457,-0.214355,0.605652,0.55304,up
626778,-8.578125,4.324219,1.675781,-0.314453,0.244141,0.289063,0.526978,-0.215271,0.605835,0.555786,up
626784,-8.613281,4.285156,1.753906,-0.328125,0.25,0.294922,0.526978,-0.215271,0.605835,0.555786,up
626789,-8.542969,4.285156,1.789063,-0.316406,0.257813,0.300781,0.526978,-0.215271,0.605835,0.555786,up
626794,-8.542969,4.285156,1.828125,-0.316406,0.257813,0.300781,0.522888,-0.216553,0.606079,0.558838,up
626799,-8.539063,4.324219,1.789063,-0.261719,0.261719,0.314453,0.522888,-0.216553,0.606079,0.558838,up
626804,-8.542969,4.4375,1.789063,-0.261719,0.261719,0.314453,0.521912,-0.216858,0.606262,0.559509,up
626809,-8.503906,4.589844,1.828125,-0.236328,0.255859,0.332031,0.521912,-0.216858,0.606262,0.559509,up
626814,-8.503906,4.628906,1.90625,-0.208984,0.224609,0.384766,0.520081,-0.217163,0.606567,0.56073,up
626819,-8.503906,4.707031,1.90625,-0.208984,0.224609,0.384766,0.518005,-0.217102,0.607056,0.562195,up
626824,-8.425781,4.746094,1.945313,-0.179687,0.1875,0.476562,0.518005,-0.217102,0.607056,0.562195,up
626829,-8.421875,4.78125,1.945313,-0.179687,0.1875,0.476562,0.51593,-0.216614,0.607483,0.563782,up
626834,-8.425781,4.78125,1.828125,-0.167969,0.138672,0.601562,0.51593,-0.216614,0.607483,0.563782,up
626839,-8.421875,4.820312,1.828125,-0.167969,0.138672,0.601562,0.514709,-0.216125,0.607788,0.564758,up
626844,-8.386719,4.820312,1.867188,-0.167969,0.119141,0.654297,0.51239,-0.214905,0.608337,0.566772,up
626850,-8.308594,4.78125,1.90625,-0.167969,0.119141,0.654297,0.511169,-0.214111,0.608582,0.567932,up
626855,-8.265625,4.746094,1.867188,-0.167969,0.119141,0.654297,0.509827,-0.213257,0.608765,0.569153,up
626860,-8.195313,4.667969,1.828125,-0.214844,0.037109,0.851562,0.509827,-0.213257,0.608765,0.569153,up
626865,-8.230469,4.628906,1.789063,-0.214844,0.037109,0.851562,0.507019,-0.211304,0.609192,0.57196,up
626871,-8.160156,4.515625,1.753906,-0.214844,0.037109,0.851562,0.505371,-0.210205,0.609375,0.573669,up
626876,-8.121094,4.4375,1.675781,-0.287109,0.0625,0.923828,0.504028,-0.209351,0.609497,0.574951,up
626881,-8.082031,4.363281,1.675781,-0.287109,0.0625,0.923828,0.502258,-0.208313,0.60968,0.576721,up
626887,-8.042969,4.324219,1.5625,-0.287109,0.0625,0.923828,0.500793,-0.20752,0.609863,0.578064,up
626892,-7.960937,4.324219,1.597656,-0.267578,0.109375,0.90625,0.500793,-0.20752,0.609863,0.578064,up
626898,-7.882812,4.324219,1.636719,-0.267578,0.109375,0.90625,0.497559,-0.205688,0.610352,0.581055,up
626904,-7.882812,4.324219,1.597656,-0.154297,0.150391,0.818359,0.497559,-0.205688,0.610352,0.581055,up
626909,-7.921875,4.363281,1.636719,-0.154297,0.150391,0.818359,0.494446,-0.204041,0.610962,0.583618,up
626914,-7.847656,4.324219,1.675781,-0.082031,0.136719,0.78125,0.491577,-0.202148,0.611877,0.585754,up
626919,-7.886719,4.246094,1.714844,-0.082031,0.136719,0.78125,0.490356,-0.201233,0.612427,0.586548,up
626924,-7.8125,4.015625,1.789063,0.082031,0.146484,0.673828,0.490356,-0.201233,0.612427,0.586548,up
626929,-7.84375,3.941406,1.714844,0.082031,0.146484,0.673828,0.489136,-0.200256,0.613037,0.58728,up
626934,-7.84375,3.824219,1.714844,0.160156,0.087891,0.550781,0.489136,-0.200256,0.613037,0.58728,up
626939,-7.816406,3.75,1.984375,0.160156,0.087891,0.550781,0.487,-0.198364,0.614319,0.588257,up
626944,-7.695312,3.671875,2.019531,0.160156,0.087891,0.550781,0.486206,-0.197388,0.61499,0.588562,up
626950,-7.539062,3.59375,2.058594,0.324219,-0.015625,0.363281,0.485535,-0.195496,0.616272,0.58844,up
626955,-7.425781,3.59375,2.058594,0.324219,-0.015625,0.363281,0.485535,-0.194519,0.616882,0.588074,up
626960,-7.464844,3.671875,2.019531,0.556641,-0.123047,0.099609,0.485779,-0.19342,0.617676,0.587463,up
626965,-7.5,3.785156,1.984375,0.556641,-0.123047,0.099609,0.486084,-0.192566,0.618286,0.586792,up
626970,-7.582031,4.054687,1.90625,0.556641,-0.123047,0.099609,0.486755,-0.191406,0.61908,0.585815,up
626976,-7.738281,4.398437,1.867188,0.556641,-0.123047,0.099609,0.487427,-0.19043,0.619812,0.584839,up
626981,-7.8125,4.554687,1.789063,0.732422,-0.255859,-0.136719,0.487427,-0.19043,0.619812,0.584839,up
626987,-7.882812,4.707031,1.675781,0.732422,-0.294922,-0.179687,0.489319,-0.188293,0.621155,0.582458,up
626992,-7.964844,5.089844,1.636719,0.732422,-0.294922,-0.179687,0.490417,-0.187317,0.621704,0.581299,up
626997,-8.003906,5.203125,1.597656,0.628906,-0.361328,-0.246094,0.490417,-0.187317,0.621704,0.581299,up
627002,-8.042969,5.28125,1.636719,0.525391,-0.371094,-0.277344,0.490417,-0.187317,0.621704,0.581299,up
627008,-8.039063,5.320312,1.5625,0.412109,-0.365234,-0.294922,0.490417,-0.187317,0.621704,0.581299,up
627013,-8.117188,5.359375,1.40625,0.412109,-0.365234,-0.294922,0.490417,-0.187317,0.621704,0.581299,up
627018,-8.117188,5.320312,1.371094,0.412109,-0.365234,-0.294922,0.496338,-0.184082,0.622131,0.576843,up
627023,-8.082031,5.28125,1.332031,-0.001953,-0.347656,-0.333984,0.496338,-0.184082,0.622131,0.576843,up
627028,-8.078125,5.128906,1.332031,-0.001953,-0.347656,-0.333984,0.498352,-0.184082,0.620972,0.576294,up
627034,-8.082031,5.050781,1.332031,-0.285156,-0.310547,-0.365234,0.498352,-0.184082,0.620972,0.576294,up
627039,-8.039063,4.972656,1.371094,-0.322266,-0.28125,-0.384766,0.500244,-0.184753,0.619202,0.576355,up
627044,-8.042969,4.898437,1.371094,-0.322266,-0.28125,-0.384766,0.50116,-0.185364,0.618164,0.576538,up
627049,-8.078125,4.820312,1.371094,-0.322266,-0.28125,-0.384766,0.501953,-0.185913,0.617249,0.57666,up
627055,-8.078125,4.746094,1.371094,-0.291016,-0.207031,-0.439453,0.501953,-0.185913,0.617249,0.57666,up
627060,-8.082031,4.746094,1.40625,-0.291016,-0.207031,-0.439453,0.504456,-0.188171,0.61438,0.576782,up
627065,-8.082031,4.78125,1.371094,-0.291016,-0.207031,-0.439453,0.505188,-0.188782,0.61377,0.576538,up
627070,-8.15625,4.820312,1.371094,-0.072266,-0.128906,-0.478516,0.506104,-0.189514,0.613159,0.576172,up
627076,-8.230469,4.898437,1.445313,-0.072266,-0.128906,-0.478516,0.506958,-0.190125,0.612732,0.575684,up
627081,-8.226563,4.898437,1.484375,-0.072266,-0.128906,-0.478516,0.507751,-0.190674,0.612427,0.575134,up
627086,-8.265625,4.972656,1.484375,-0.072266,-0.128906,-0.478516,0.508545,-0.191223,0.612183,0.574463,up
627091,-8.304688,5.011719,1.523438,0.089844,-0.044922,-0.464844,0.509399,-0.191772,0.612,0.573792,up
627096,-8.34375,5.011719,1.5625,0.087891,-0.021484,-0.457031,0.509399,-0.191772,0.612,0.573792,up
627101,-8.425781,5.050781,1.523438,0.087891,-0.021484,-0.457031,0.510864,-0.192871,0.611755,0.572388,up
627107,-8.421875,5.089844,1.484375,0.087891,-0.021484,-0.457031,0.511475,-0.19342,0.611633,0.571716,up
627112,-8.460938,5.089844,1.5625,0.0625,0.025391,-0.402344,0.511475,-0.19342,0.611633,0.571716,up
627118,-8.460938,5.089844,1.597656,0.0625,0.025391,-0.402344,0.512695,-0.19458,0.61145,0.570435,up
627123,-8.5,5.128906,1.597656,0.041016,0.039063,-0.367188,0.512695,-0.19458,0.61145,0.570435,up
627128,-8.539063,5.089844,1.597656,0.046875,0.048828,-0.349609,0.512695,-0.19458,0.61145,0.570435,up
627134,-8.503906,5.050781,1.597656,0.046875,0.048828,-0.349609,0.514038,-0.196228,0.611328,0.568787,up
627139,-8.542969,5.050781,1.597656,0.046875,0.048828,-0.349609,0.514465,-0.196716,0.611328,0.568237,up
627144,-8.539063,5.011719,1.5625,0.046875,0.048828,-0.349609,0.514893,-0.197205,0.611328,0.567688,up
627149,-8.539063,5.011719,1.5625,0.140625,0.066406,-0.267578,0.514893,-0.197205,0.611328,0.567688,up
627155,-8.539063,5.011719,1.597656,0.166016,0.066406,-0.259766,0.515564,-0.197937,0.611572,0.566589,up
627160,-8.578125,5.011719,1.5625,0.166016,0.066406,-0.259766,0.51593,-0.198242,0.611694,0.565979,up
627165,-8.539063,5.050781,1.523438,0.179687,0.066406,-0.244141,0.51593,-0.198242,0.611694,0.565979,up
627170,-8.613281,5.050781,1.523438,0.191406,0.060547,-0.236328,0.51593,-0.198242,0.611694,0.565979,up
627175,-8.613281,5.128906,1.5625,0.191406,0.060547,-0.236328,0.517273,-0.199097,0.61261,0.563477,up
627180,-8.613281,5.089844,1.597656,0.191406,0.060547,-0.236328,0.517273,-0.199097,0.61261,0.563477,up
627185,-8.613281,5.089844,1.597656,0.154297,0.048828,-0.191406,0.517273,-0.199097,0.61261,0.563477,up
627191,-8.613281,5.089844,1.597656,0.150391,0.044922,-0.185547,0.518127,-0.199524,0.61322,0.56189,up
627196,-8.6875,5.128906,1.597656,0.150391,0.044922,-0.185547,0.518372,-0.199707,0.613403,0.561401,up
627202,-8.691406,5.164062,1.5625,0.113281,0.041016,-0.169922,0.518616,-0.19989,0.613525,0.560974,up
627207,-8.691406,5.164062,1.5625,0.095703,0.037109,-0.166016,0.51886,-0.200012,0.613586,0.560608,up
627212,-8.648438,5.164062,1.5625,0.095703,0.037109,-0.166016,0.519104,-0.200195,0.613708,0.560242,up
627218,-8.691406,5.164062,1.5625,0.056641,0.025391,-0.164062,0.519104,-0.200195,0.613708,0.560242,up
627224,-8.652344,5.089844,1.5625,0.058594,0.013672,-0.154297,0.519104,-0.200195,0.613708,0.560242,up
627230,-8.613281,5.089844,1.5625,0.058594,0.013672,-0.154297,0.519104,-0.200195,0.613708,0.560242,up
627235,-8.609375,5.011719,1.523438,0.052734,-0.009766,-0.126953,0.519104,-0.200195,0.613708,0.560242,up
627240,-8.613281,5.011719,1.5625,0.052734,-0.015625,-0.126953,0.520203,-0.201111,0.61377,0.558777,up
627245,-8.539063,5.011719,1.597656,0.052734,-0.015625,-0.126953,0.52063,-0.201294,0.61377,0.558289,up
627250,-8.539063,5.011719,1.597656,0.052734,-0.015625,-0.126953,0.520874,-0.201355,0.61377,0.558044,up
627255,-8.460938,4.972656,1.597656,0.052734,-0.015625,-0.126953,0.520874,-0.201355,0.61377,0.558044,up
627260,-8.460938,4.972656,1.597656,0.058594,-0.033203,-0.087891,0.521301,-0.201355,0.61377,0.557678,up
627265,-8.421875,4.898437,1.597656,0.058594,-0.033203,-0.087891,0.521484,-0.201294,0.61377,0.557495,up
627270,-8.386719,4.898437,1.597656,0.058594,-0.033203,-0.087891,0.521484,-0.201294,0.61377,0.557495,up
627275,-8.347656,4.859375,1.597656,0.082031,-0.048828,-0.046875,0.521851,-0.201111,0.613831,0.55719,up
627280,-8.347656,4.78125,1.597656,0.082031,-0.048828,-0.046875,0.522034,-0.200989,0.613831,0.557007,up
627285,-8.304688,4.78125,1.597656,0.082031,-0.048828,-0.046875,0.522217,-0.200806,0.613892,0.556824,up
627290,-8.308594,4.746094,1.636719,0.082031,-0.048828,-0.046875,0.522217,-0.200806,0.613892,0.556824,up
627295,-8.308594,4.746094,1.597656,0.117188,-0.041016,-0.015625,0.522522,-0.200439,0.614136,0.556519,up
627300,-8.34375,4.746094,1.597656,0.117188,-0.041016,-0.015625,0.522644,-0.200195,0.614258,0.556274,up
627305,-8.269531,4.746094,1.5625,0.117188,-0.041016,-0.015625,0.522766,-0.200012,0.614441,0.55603,up
627310,-8.304688,4.78125,1.597656,0.117188,-0.041016,-0.015625,0.522766,-0.200012,0.614441,0.55603,up
627315,-8.265625,4.78125,1.597656,0.167969,-0.009766,-0.011719,0.522766,-0.200012,0.614441,0.55603,up
627321,-8.269531,4.820312,1.636719,0.167969,-0.009766,-0.011719,0.523132,-0.199341,0.615051,0.555237,up
627326,-8.304688,4.859375,1.636719,0.167969,-0.009766,-0.011719,0.523193,-0.199158,0.615295,0.554993,up
627331,-8.34375,4.898437,1.675781,0.169922,0.003906,0.001953,0.523193,-0.199158,0.615295,0.554993,up
627336,-8.308594,4.898437,1.675781,0.169922,0.003906,0.001953,0.523376,-0.198792,0.615784,0.554443,up
627341,-8.308594,4.859375,1.675781,0.136719,0.007813,0.007813,0.523437,-0.198547,0.615967,0.554199,up
627347,-8.347656,4.898437,1.636719,0.136719,0.007813,0.007813,0.523499,-0.198425,0.61615,0.554016,up
627352,-8.308594,4.898437,1.675781,0.117188,-0.003906,0.011719,0.523499,-0.198242,0.616333,0.553833,up
627357,-8.34375,4.859375,1.675781,0.117188,-0.003906,0.011719,0.52356,-0.198059,0.616455,0.553711,up
627363,-8.304688,4.820312,1.675781,0.097656,-0.013672,0.019531,0.52356,-0.198059,0.616455,0.553711,up
627368,-8.304688,4.859375,1.636719,0.09375,-0.029297,0.017578,0.52356,-0.198059,0.616455,0.553711,up
627374,-8.304688,4.820312,1.675781,0.09375,-0.029297,0.017578,0.52356,-0.198059,0.616455,0.553711,up
627380,-8.308594,4.820312,1.714844,0.09375,-0.041016,0.013672,0.52356,-0.198059,0.616455,0.553711,up
627385,-8.304688,4.859375,1.636719,0.09375,-0.041016,0.013672,0.524048,-0.196899,0.617065,0.55304,up
627390,-8.347656,4.859375,1.597656,0.09375,-0.041016,0.013672,0.52417,-0.196716,0.617126,0.552917,up
627395,-8.304688,4.859375,1.636719,0.09375,-0.041016,0.013672,0.52417,-0.196716,0.617126,0.552917,up
627400,-8.265625,4.859375,1.5625,0.103516,-0.054687,-0.009766,0.524475,-0.19635,0.617249,0.552673,up
627405,-8.265625,4.859375,1.5625,0.103516,-0.054687,-0.009766,0.524475,-0.19635,0.617249,0.552673,up
627410,-8.265625,4.859375,1.5625,0.082031,-0.044922,-0.009766,0.524719,-0.196045,0.61731,0.552429,up
627415,-8.230469,4.898437,1.5625,0.082031,-0.044922,-0.009766,0.524719,-0.196045,0.61731,0.552429,up
627420,-8.265625,4.898437,1.597656,0.056641,-0.037109,0.0,0.524719,-0.196045,0.61731,0.552429,up
627425,-8.265625,4.898437,1.5625,0.056641,-0.037109,0.0,0.524963,-0.19574,0.617432,0.552185,up
627430,-8.265625,4.859375,1.597656,0.056641,-0.037109,0.0,0.525024,-0.195679,0.617432,0.552124,up
627435,-8.265625,4.859375,1.597656,0.056641,-0.037109,0.0,0.525146,-0.195557,0.617432,0.552063,up
627440,-8.230469,4.859375,1.597656,0.019531,-0.03125,0.011719,0.525208,-0.195374,0.617432,0.552063,up
627445,-8.265625,4.78125,1.5625,0.019531,-0.03125,0.011719,0.525208,-0.195374,0.617432,0.552063,up
627450,-8.269531,4.746094,1.597656,0.019531,-0.03125,0.011719,0.525269,-0.195312,0.617371,0.552063,up
627456,-8.265625,4.78125,1.5625,0.005859,-0.027344,0.009766,0.52533,-0.195129,0.617371,0.552124,up
627461,-8.226563,4.746094,1.5625,0.005859,-0.027344,0.009766,0.52533,-0.195068,0.61731,0.552185,up
627467,-8.265625,4.746094,1.523438,0.005859,-0.027344,0.009766,0.52533,-0.194946,0.61731,0.552185,up
627472,-8.304688,4.78125,1.597656,0.035156,-0.035156,0.019531,0.525391,-0.194824,0.61731,0.552185,up
627477,-8.308594,4.746094,1.597656,0.050781,-0.042969,0.015625,0.525452,-0.194702,0.617371,0.552185,up
627483,-8.269531,4.746094,1.5625,0.050781,-0.042969,0.015625,0.525513,-0.19458,0.617371,0.552124,up
627489,-8.265625,4.746094,1.523438,0.058594,-0.033203,0.007813,0.525513,-0.19458,0.617371,0.552124,up
627494,-8.269531,4.78125,1.523438,0.064453,-0.042969,0.013672,0.525513,-0.19458,0.617371,0.552124,up
627500,-8.265625,4.78125,1.5625,0.054687,-0.037109,0.017578,0.525513,-0.19458,0.617371,0.552124,up
627505,-8.230469,4.820312,1.523438,0.058594,-0.033203,0.003906,0.525513,-0.19458,0.617371,0.552124,up
627510,-8.269531,4.746094,1.5625,0.044922,-0.033203,0.007813,0.525513,-0.19458,0.617371,0.552124,up
627515,-8.269531,4.746094,1.5625,0.044922,-0.033203,0.007813,0.525879,-0.193726,0.617554,0.551819,up
627520,-8.269531,4.746094,1.5625,0.044922,-0.033203,0.007813,0.52594,-0.193604,0.617615,0.551819,up
627525,-8.308594,4.707031,1.5625,0.001953,-0.019531,0.015625,0.52594,-0.193604,0.617615,0.551819,up
627531,-8.265625,4.707031,1.523438,-0.009766,-0.021484,0.015625,0.526001,-0.193481,0.617493,0.55188,up
627537,-8.308594,4.667969,1.597656,-0.009766,-0.021484,0.015625,0.526001,-0.19342,0.617493,0.551941,up
627542,-8.308594,4.707031,1.597656,-0.027344,-0.005859,0.013672,0.526001,-0.19342,0.617493,0.551941,up
627547,-8.308594,4.667969,1.597656,-0.019531,-0.011719,0.017578,0.526001,-0.19342,0.617493,0.551941,up
627552,-8.34375,4.667969,1.636719,-0.019531,-0.011719,0.017578,0.52594,-0.19342,0.617371,0.552124,up
627557,-8.308594,4.628906,1.636719,-0.019531,-0.011719,0.017578,0.52594,-0.19342,0.617371,0.552124,up
627562,-8.308594,4.628906,1.636719,0.001953,-0.013672,0.017578,0.52594,-0.19342,0.617371,0.552124,up
627568,-8.308594,4.628906,1.636719,0.007813,-0.015625,0.025391,0.52594,-0.19342,0.617371,0.552124,up
627573,-8.347656,4.628906,1.675781,0.007813,-0.015625,0.025391,0.52594,-0.193176,0.61731,0.552307,up
627580,-8.34375,4.589844,1.714844,0.017578,-0.029297,0.025391,0.52594,-0.193176,0.61731,0.552307,up
627585,-8.34375,4.628906,1.636719,0.017578,-0.027344,0.027344,0.52594,-0.193176,0.61731,0.552307,up
627590,-8.34375,4.589844,1.597656,0.019531,-0.035156,0.035156,0.52594,-0.193176,0.61731,0.552307,up
627595,-8.347656,4.554687,1.714844,0.019531,-0.035156,0.035156,0.526001,-0.192749,0.61731,0.552368,up
627601,-8.347656,4.515625,1.714844,0.029297,-0.044922,0.037109,0.526062,-0.192444,0.61731,0.552429,up
627606,-8.34375,4.476562,1.753906,0.025391,-0.054687,0.035156,0.526062,-0.192444,0.61731,0.552429,up
627611,-8.304688,4.476562,1.675781,0.025391,-0.054687,0.035156,0.526123,-0.192078,0.617249,0.55249,up
627616,-8.304688,4.476562,1.675781,0.029297,-0.064453,0.03125,0.526123,-0.192078,0.617249,0.55249,up
627621,-8.265625,4.4375,1.675781,0.029297,-0.064453,0.03125,0.526245,-0.191895,0.617249,0.552551,up
627626,-8.265625,4.515625,1.636719,0.033203,-0.064453,0.03125,0.526245,-0.191895,0.617249,0.552551,up
627631,-8.304688,4.515625,1.636719,0.046875,-0.064453,0.019531,0.526489,-0.191345,0.617187,0.552551,up
627636,-8.304688,4.515625,1.714844,0.0625,-0.064453,0.013672,0.526489,-0.191345,0.617187,0.552551,up
627641,-8.304688,4.515625,1.636719,0.0625,-0.064453,0.013672,0.52655,-0.191162,0.617187,0.55249,up
627646,-8.304688,4.554687,1.636719,0.0625,-0.064453,0.013672,0.526733,-0.190735,0.617187,0.552429,up
627651,-8.347656,4.554687,1.636719,0.0625,-0.064453,0.013672,0.526733,-0.190735,0.617187,0.552429,up
627656,-8.347656,4.554687,1.636719,0.050781,-0.058594,0.023437,0.526917,-0.190369,0.617187,0.552429,up
627661,-8.34375,4.554687,1.675781,0.050781,-0.058594,0.023437,0.526978,-0.190186,0.617187,0.552429,up
627666,-8.347656,4.515625,1.636719,0.050781,-0.058594,0.023437,0.527039,-0.190002,0.617187,0.552429,up
627671,-8.347656,4.515625,1.636719,0.050781,-0.058594,0.023437,0.527039,-0.190002,0.617187,0.552429,up
627676,-8.347656,4.554687,1.636719,0.029297,-0.058594,0.029297,0.527161,-0.189636,0.617126,0.55249,up
627681,-8.386719,4.515625,1.636719,0.029297,-0.058594,0.029297,0.527222,-0.189453,0.617126,0.55249,up
627686,-8.347656,4.515625,1.636719,0.029297,-0.058594,0.029297,0.527344,-0.18927,0.617126,0.552551,up
627691,-8.382813,4.554687,1.675781,0.029297,-0.058594,0.029297,0.527344,-0.18927,0.617126,0.552551,up
627696,-8.382813,4.554687,1.675781,0.050781,-0.072266,0.021484,0.527344,-0.18927,0.617126,0.552551,up
627701,-8.386719,4.515625,1.753906,0.050781,-0.072266,0.021484,0.527649,-0.18866,0.617065,0.55249,up
627706,-8.386719,4.515625,1.714844,0.076172,-0.089844,0.021484,0.527649,-0.18866,0.617065,0.55249,up
627711,-8.421875,4.554687,1.714844,0.089844,-0.105469,0.03125,0.527771,-0.188416,0.617065,0.55249,up
627717,-8.386719,4.628906,1.675781,0.089844,-0.105469,0.03125,0.528076,-0.187805,0.617065,0.552368,up
627722,-8.382813,4.628906,1.636719,0.097656,-0.125,0.023437,0.52832,-0.187439,0.617004,0.552307,up
627728,-8.425781,4.667969,1.597656,0.097656,-0.125,0.023437,0.528503,-0.187134,0.617004,0.552246,up
627733,-8.460938,4.746094,1.636719,0.076172,-0.132812,0.015625,0.528503,-0.187134,0.617004,0.552246,up
627739,-8.460938,4.78125,1.523438,0.066406,-0.125,0.001953,0.528503,-0.187134,0.617004,0.552246,up
627745,-8.503906,4.78125,1.5625,0.042969,-0.126953,0.007813,0.528503,-0.187134,0.617004,0.552246,up
627750,-8.460938,4.820312,1.5625,0.025391,-0.121094,0.007813,0.528503,-0.187134,0.617004,0.552246,up
627755,-8.503906,4.820312,1.523438,0.001953,-0.097656,0.007813,0.528503,-0.187134,0.617004,0.552246,up
627760,-8.464844,4.820312,1.523438,0.001953,-0.097656,0.007813,0.529663,-0.185669,0.616455,0.552246,up
627766,-8.425781,4.78125,1.523438,0.011719,-0.0625,0.023437,0.529663,-0.185669,0.616455,0.552246,up
627771,-8.382813,4.78125,1.523438,0.011719,-0.0625,0.023437,0.529907,-0.185242,0.616211,0.552429,up
627776,-8.382813,4.78125,1.523438,0.052734,-0.044922,0.048828,0.529907,-0.185242,0.616211,0.552429,up
627781,-8.34375,4.78125,1.484375,0.052734,-0.044922,0.048828,0.529968,-0.185059,0.616211,0.552429,up
627786,-8.304688,4.746094,1.523438,0.095703,-0.021484,0.072266,0.529968,-0.185059,0.616211,0.552429,up
627792,-8.265625,4.78125,1.5625,0.095703,-0.021484,0.072266,0.529968,-0.184326,0.616577,0.552246,up
627797,-8.265625,4.746094,1.523438,0.166016,-0.007813,0.091797,0.529907,-0.18396,0.616882,0.552063,up
627803,-8.230469,4.746094,1.523438,0.166016,-0.007813,0.091797,0.529907,-0.183655,0.617126,0.551941,up
627808,-8.226563,4.707031,1.5625,0.210937,-0.001953,0.097656,0.529907,-0.183655,0.617126,0.551941,up
627814,-8.195313,4.746094,1.523438,0.210937,-0.001953,0.097656,0.529785,-0.182861,0.617859,0.551514,up
627820,-8.195313,4.746094,1.523438,0.234375,0.007813,0.109375,0.529785,-0.182861,0.617859,0.551514,up
627825,-8.195313,4.746094,1.523438,0.232422,0.009766,0.105469,0.529785,-0.182861,0.617859,0.551514,up
627830,-8.15625,4.78125,1.484375,0.236328,0.009766,0.101563,0.529785,-0.182861,0.617859,0.551514,up
627835,-8.15625,4.78125,1.523438,0.230469,0.013672,0.097656,0.529785,-0.182861,0.617859,0.551514,up
627840,-8.15625,4.859375,1.523438,0.230469,0.013672,0.097656,0.529541,-0.180725,0.619812,0.550232,up
627845,-8.15625,4.898437,1.523438,0.230469,0.013672,0.097656,0.52948,-0.18042,0.620117,0.549988,up
627851,-8.15625,4.898437,1.523438,0.160156,0.017578,0.068359,0.52948,-0.180115,0.620422,0.549805,up
627856,-8.15625,4.898437,1.523438,0.130859,0.011719,0.0625,0.529419,-0.179871,0.620728,0.549622,up
627861,-8.15625,4.859375,1.484375,0.130859,0.011719,0.0625,0.529358,-0.179687,0.620911,0.5495,up
627866,-8.15625,4.9375,1.5625,0.130859,0.011719,0.0625,0.529358,-0.179504,0.621033,0.549438,up
627871,-8.078125,4.898437,1.523438,0.130859,0.011719,0.0625,0.529358,-0.179382,0.621094,0.549377,up
627876,-8.078125,4.859375,1.523438,0.130859,0.011719,0.0625,0.529358,-0.179382,0.621094,0.549377,up
627882,-8.039063,4.859375,1.523438,-0.060547,-0.037109,0.0,0.529419,-0.179504,0.62085,0.549561,up
627887,-8.082031,4.820312,1.523438,-0.123047,-0.066406,-0.007813,0.529419,-0.179504,0.62085,0.549561,up
627892,-8.039063,4.78125,1.523438,-0.140625,-0.085937,-0.009766,0.52948,-0.179626,0.620605,0.549744,up
627898,-8.039063,4.78125,1.523438,-0.162109,-0.089844,-0.011719,0.529663,-0.17981,0.620056,0.550171,up
627903,-7.960937,4.550781,1.5625,-0.162109,-0.089844,-0.011719,0.529724,-0.179932,0.61969,0.550415,up
627908,-7.964844,4.550781,1.523438,-0.160156,-0.105469,-0.009766,0.529846,-0.180054,0.619324,0.55072,up
627914,-8.0,4.515625,1.523438,-0.150391,-0.105469,-0.019531,0.529846,-0.180054,0.619324,0.55072,up
627919,-7.964844,4.550781,1.523438,-0.138672,-0.111328,-0.021484,0.529846,-0.180054,0.619324,0.55072,up
627924,-8.003906,4.515625,1.5625,-0.123047,-0.111328,-0.03125,0.529846,-0.180054,0.619324,0.55072,up
627930,-8.0,4.550781,1.484375,-0.105469,-0.099609,-0.044922,0.529846,-0.180054,0.619324,0.55072,up
627936,-7.960937,4.550781,1.5625,-0.105469,-0.099609,-0.044922,0.530762,-0.180603,0.617493,0.551758,up
627941,-7.960937,4.550781,1.5625,-0.105469,-0.099609,-0.044922,0.530762,-0.180603,0.617493,0.551758,up
627946,-7.964844,4.589844,1.5625,-0.068359,-0.070312,-0.082031,0.530762,-0.180603,0.617493,0.551758,up
627951,-7.960937,4.589844,1.523438,-0.068359,-0.070312,-0.082031,0.531128,-0.180847,0.617004,0.551819,up
627956,-8.0,4.667969,1.597656,-0.068359,-0.070312,-0.082031,0.531311,-0.18103,0.61676,0.551819,up
627962,-8.0,4.707031,1.636719,-0.109375,-0.046875,-0.103516,0.531311,-0.18103,0.61676,0.551819,up
627967,-8.0,4.707031,1.597656,-0.109375,-0.046875,-0.103516,0.53186,-0.181763,0.616028,0.55188,up
627972,-8.039063,4.707031,1.597656,-0.109375,-0.046875,-0.103516,0.531982,-0.182068,0.615784,0.551941,up
627977,-8.042969,4.78125,1.636719,-0.171875,-0.039063,-0.117188,0.532104,-0.182434,0.615417,0.552063,up
627982,-8.039063,4.78125,1.675781,-0.171875,-0.039063,-0.117188,0.532288,-0.182861,0.615051,0.552185,up
627987,-8.082031,4.746094,1.675781,-0.205078,-0.041016,-0.107422,0.53241,-0.183228,0.614746,0.552368,up
627993,-8.117188,4.667969,1.753906,-0.205078,-0.041016,-0.107422,0.532532,-0.183655,0.61438,0.55249,up
627998,-8.117188,4.628906,1.753906,-0.216797,-0.060547,-0.101563,0.532532,-0.183655,0.61438,0.55249,up
628003,-8.082031,4.589844,1.789063,-0.207031,-0.072266,-0.101563,0.532532,-0.183655,0.61438,0.55249,up
628008,-8.078125,4.550781,1.90625,-0.207031,-0.072266,-0.101563,0.532959,-0.184692,0.613098,0.553101,up
628014,-8.15625,4.398437,1.90625,-0.207031,-0.072266,-0.101563,0.533142,-0.184998,0.612671,0.553345,up
628019,-8.15625,4.398437,1.867188,-0.166016,-0.142578,-0.109375,0.533142,-0.184998,0.612671,0.553345,up
628024,-8.195313,4.515625,1.945313,-0.166016,-0.142578,-0.109375,0.533142,-0.184998,0.612671,0.553345,up
628029,-8.230469,4.589844,1.867188,-0.111328,-0.185547,-0.140625,0.533142,-0.184998,0.612671,0.553345,up
628035,-8.195313,4.589844,1.828125,-0.109375,-0.203125,-0.179687,0.533142,-0.184998,0.612671,0.553345,up
628040,-8.230469,4.667969,1.828125,-0.097656,-0.224609,-0.208984,0.533142,-0.184998,0.612671,0.553345,up
628046,-8.121094,4.746094,1.867188,-0.097656,-0.224609,-0.208984,0.535767,-0.185974,0.609741,0.55365,up
628051,-8.117188,4.78125,1.867188,-0.097656,-0.224609,-0.208984,0.536438,-0.186157,0.609192,0.553589,up
628057,-8.078125,4.820312,1.753906,-0.160156,-0.283203,-0.306641,0.538086,-0.186768,0.607666,0.553467,up
628062,-8.117188,4.78125,1.90625,-0.160156,-0.283203,-0.306641,0.53894,-0.187317,0.606689,0.553528,up
628067,-8.078125,4.78125,1.867188,-0.160156,-0.283203,-0.306641,0.539734,-0.187866,0.605774,0.553589,up
628072,-8.082031,4.746094,1.867188,-0.445312,-0.308594,-0.423828,0.539734,-0.187866,0.605774,0.553589,up
628077,-8.003906,4.707031,1.789063,-0.445312,-0.308594,-0.423828,0.540588,-0.18866,0.604553,0.553772,up
628082,-8.042969,4.746094,1.828125,-0.445312,-0.308594,-0.423828,0.542358,-0.190613,0.601807,0.554443,up
628087,-8.003906,4.707031,1.90625,-0.445312,-0.308594,-0.423828,0.543091,-0.191589,0.600403,0.55481,up
628092,-8.042969,4.589844,1.90625,-0.445312,-0.308594,-0.423828,0.543091,-0.191589,0.600403,0.55481,up
628097,-8.117188,4.4375,2.097656,-0.724609,-0.380859,-0.511719,0.543091,-0.191589,0.600403,0.55481,up
628102,-8.199219,4.398437,2.25,-0.724609,-0.380859,-0.511719,0.546143,-0.195374,0.594788,0.556641,up
628107,-8.199219,4.324219,2.289063,-0.8125,-0.521484,-0.578125,0.546143,-0.195374,0.594788,0.556641,up
628112,-8.304688,3.976563,2.328125,-0.8125,-0.521484,-0.578125,0.54718,-0.196472,0.592896,0.557251,up
628118,-8.382813,3.785156,2.480469,-0.8125,-0.521484,-0.578125,0.549805,-0.198975,0.588379,0.558533,up
628123,-8.382813,3.785156,2.480469,-0.755859,-0.734375,-0.701172,0.551575,-0.200195,0.585693,0.559143,up
628129,-8.464844,3.519531,2.59375,-0.755859,-0.734375,-0.701172,0.553101,-0.201111,0.583557,0.559509,up
628135,-8.582031,3.363281,2.632813,-0.755859,-0.734375,-0.701172,0.555115,-0.201965,0.581116,0.559814,up
628140,-8.621094,3.480469,2.671875,-0.601562,-0.962891,-0.923828,0.555115,-0.201965,0.581116,0.559814,up
628145,-8.652344,3.710938,2.671875,-0.546875,-1.0625,-1.029297,0.555115,-0.201965,0.581116,0.559814,up
628150,-8.617188,3.863281,2.671875,-0.529297,-1.15625,-1.144531,0.555115,-0.201965,0.581116,0.559814,up
628155,-8.621094,4.246094,2.59375,-0.529297,-1.15625,-1.144531,0.555115,-0.201965,0.581116,0.559814,up
628161,-8.578125,4.550781,2.59375,-0.529297,-1.15625,-1.144531,0.569214,-0.206116,0.566589,0.55896,up
628166,-8.503906,4.707031,2.59375,-0.529297,-1.15625,-1.144531,0.572754,-0.207092,0.56311,0.558533,up
628172,-8.582031,4.667969,2.558594,-0.529297,-1.15625,-1.144531,0.579712,-0.209412,0.555664,0.557983,up
628177,-8.503906,4.589844,2.558594,-0.529297,-1.15625,-1.144531,0.579712,-0.209412,0.555664,0.557983,up
628182,-8.425781,4.550781,2.519531,-1.070313,-1.46875,-1.449219,0.586731,-0.212524,0.546753,0.558289,up
628187,-8.308594,4.015625,2.519531,-1.070313,-1.46875,-1.449219,0.586731,-0.212524,0.546753,0.558289,up
628192,-8.308594,4.015625,2.519531,-1.535156,-1.425781,-1.429688,0.589905,-0.214539,0.541931,0.558838,up
628198,-8.304688,3.671875,2.671875,-1.535156,-1.425781,-1.429688,0.592896,-0.216858,0.536865,0.559692,up
628203,-8.195313,3.019531,3.167969,-1.869141,-1.265625,-1.460938,0.595703,-0.21936,0.531677,0.560608,up
628208,-8.195313,3.019531,3.167969,-1.869141,-1.265625,-1.460938,0.595703,-0.21936,0.531677,0.560608,up
628213,-8.265625,1.792969,3.515625,-1.921875,-1.224609,-1.474609,0.60376,-0.228394,0.515442,0.563538,up
628218,-8.269531,1.601563,3.667969,-1.921875,-1.224609,-1.474609,0.606384,-0.231445,0.510132,0.564331,up
628223,-8.34375,1.449219,3.898438,-1.921875,-1.224609,-1.474609,0.609192,-0.234619,0.504578,0.565002,up
628228,-8.460938,1.449219,3.78125,-1.455078,-1.195313,-1.646484,0.611938,-0.237183,0.499878,0.565186,up
628233,-8.539063,1.601563,3.707031,-1.455078,-1.195313,-1.646484,0.61499,-0.239563,0.495178,0.565002,up
628239,-8.34375,1.984375,3.78125,-1.455078,-1.195313,-1.646484,0.618713,-0.241699,0.490234,0.564331,up
628245,-8.160156,2.753906,3.898438,-1.455078,-1.195313,-1.646484,0.622009,-0.243042,0.486389,0.563477,up
628251,-8.082031,2.980469,3.859375,-0.513672,-1.302734,-1.769531,0.622009,-0.243042,0.486389,0.563477,up
628257,-8.003906,3.058594,3.707031,-0.445312,-1.220703,-1.775391,0.632996,-0.246582,0.475098,0.559265,up
628262,-7.921875,2.980469,3.363281,-0.445312,-1.220703,-1.775391,0.632996,-0.246582,0.475098,0.559265,up
628267,-7.886719,2.945313,3.246094,-0.445312,-1.220703,-1.775391,0.636597,-0.248047,0.471436,0.557678,up
628272,-7.886719,2.945313,3.246094,-0.724609,-0.855469,-1.675781,0.639465,-0.249695,0.46814,0.556396,up
628277,-8.082031,1.640625,3.707031,-0.947266,-0.724609,-1.650391,0.642151,-0.251892,0.464722,0.555176,up
628282,-8.082031,1.640625,3.707031,-1.191406,-0.619141,-1.621094,0.64447,-0.254517,0.461182,0.55426,up
628287,-8.121094,1.335938,3.898438,-1.191406,-0.619141,-1.621094,0.646606,-0.257813,0.457336,0.553467,up
628292,-8.382813,0.605469,4.433594,-1.191406,-0.619141,-1.621094,0.648376,-0.261353,0.453613,0.552795,up
628297,-8.382813,0.605469,4.433594,-1.191406,-0.619141,-1.621094,0.651489,-0.269226,0.446045,0.551453,up
628302,-8.804688,0.03125,4.742187,-1.191406,-0.619141,-1.621094,0.651489,-0.269226,0.446045,0.551453,up
628307,-8.882813,-0.082031,4.855469,-1.330078,-0.287109,-1.677734,0.651489,-0.269226,0.446045,0.551453,up
628313,-9.109375,0.53125,5.085937,-1.330078,-0.287109,-1.677734,0.656433,-0.280334,0.435425,0.548523,up
628319,-8.960938,1.105469,5.085937,-1.330078,-0.287109,-1.677734,0.658752,-0.283447,0.431946,0.546875,up
628324,-9.152344,1.871094,5.199219,-0.539062,-0.476562,-1.730469,0.661194,-0.285828,0.429016,0.545044,up
628330,-9.269531,2.023438,5.160156,-0.279297,-0.490234,-1.683594,0.663513,-0.287537,0.426636,0.543213,up
628336,-9.535156,2.175781,5.085937,-0.279297,-0.490234,-1.683594,0.663513,-0.287537,0.426636,0.543213,up
628342,-9.34375,2.253906,5.199219,-0.138672,-0.720703,-1.462891,0.663513,-0.287537,0.426636,0.543213,up
628347,-9.308594,1.871094,5.199219,-0.138672,-0.720703,-1.462891,0.671448,-0.290894,0.419678,0.537048,up
628352,-9.34375,1.257813,5.429687,-0.138672,-0.720703,-1.462891,0.67395,-0.291748,0.417114,0.5354,up
628357,-9.347656,0.988281,5.507812,-0.138672,-0.720703,-1.462891,0.676514,-0.292969,0.41394,0.533997,up
628363,-9.34375,0.761719,5.46875,-0.828125,-0.759766,-1.314453,0.680359,-0.296448,0.407227,0.532349,up
628368,-9.265625,0.683594,5.507812,-1.205078,-0.660156,-1.302734,0.681885,-0.298706,0.403687,0.53186,up
628374,-9.003906,0.222656,5.390625,-1.205078,-0.660156,-1.302734,0.683228,-0.301331,0.400024,0.531372,up
628379,-9.070313,0.109375,5.316406,-1.535156,-0.513672,-1.263672,0.683228,-0.301331,0.400024,0.531372,up
628384,-9.148438,0.070312,5.316406,-1.613281,-0.410156,-1.230469,0.683228,-0.301331,0.400024,0.531372,up
628389,-9.269531,0.070312,5.277344,-1.613281,-0.410156,-1.230469,0.683228,-0.301331,0.400024,0.531372,up
628394,-9.417969,0.070312,5.238281,-1.546875,-0.34375,-1.222656,0.686035,-0.311096,0.388611,0.530579,up
628399,-9.417969,0.070312,5.238281,-1.546875,-0.34375,-1.222656,0.686829,-0.314331,0.385193,0.530212,up
628404,-9.765625,0.570312,5.429687,-1.248047,-0.291016,-1.220703,0.686829,-0.314331,0.385193,0.530212,up
628409,-9.765625,0.570312,5.429687,-0.853516,-0.253906,-1.197266,0.68866,-0.32019,0.378906,0.528809,up
628414,-9.765625,0.570312,5.429687,-0.853516,-0.253906,-1.197266,0.690918,-0.324829,0.373779,0.526733,up
628420,-10.378906,1.144531,5.890625,-0.853516,-0.253906,-1.197266,0.690918,-0.324829,0.373779,0.526733,up
628425,-10.457031,0.796875,5.8125,-0.617187,-0.353516,-1.119141,0.690918,-0.324829,0.373779,0.526733,up
628431,-10.570313,0.761719,5.8125,-0.697266,-0.396484,-1.070313,0.690918,-0.324829,0.373779,0.526733,up
628437,-10.414063,0.722656,5.890625,-1.123047,-0.443359,-0.917969,0.690918,-0.324829,0.373779,0.526733,up
628443,-10.296875,0.605469,6.003906,-1.123047,-0.443359,-0.917969,0.69696,-0.336365,0.358276,0.522278,up
628448,-10.261719,0.378906,5.8125,-1.4375,-0.265625,-0.648437,0.697021,-0.338928,0.355408,0.522461,up
628453,-10.492188,0.070312,5.929687,-1.542969,-0.205078,-0.472656,0.696716,-0.341675,0.3526,0.52301,up
628458,-10.375,-0.042969,6.042969,-1.542969,-0.205078,-0.472656,0.695984,-0.344666,0.349792,0.523926,up
628463,-10.378906,0.1875,6.082031,-1.542969,-0.205078,-0.472656,0.694824,-0.347595,0.347412,0.525024,up
628468,-10.378906,0.378906,6.082031,-1.275391,0.167969,0.169922,0.694824,-0.347595,0.347412,0.525024,up
628473,-10.417969,0.570312,6.121094,-1.275391,0.167969,0.169922,0.691956,-0.35199,0.345154,0.527466,up
628478,-10.644531,0.644531,6.082031,-1.275391,0.167969,0.169922,0.690125,-0.353455,0.345459,0.528625,up
628484,-11.375,0.683594,6.121094,-1.275391,0.167969,0.169922,0.687744,-0.354492,0.347107,0.529968,up
628489,-11.679688,0.761719,6.121094,0.175781,1.109375,1.363281,0.685486,-0.354797,0.349609,0.531128,up
628494,-12.105469,0.796875,5.964844,0.523437,1.474609,1.685547,0.685486,-0.354797,0.349609,0.531128,up
628500,-13.25,1.179688,5.582031,0.523437,1.474609,1.685547,0.679199,-0.354004,0.35907,0.533325,up
628506,-13.859375,1.566406,5.429687,1.125,2.294922,2.392578,0.679199,-0.354004,0.35907,0.533325,up
628512,-15.089844,2.675781,5.351562,1.427734,2.722656,2.785156,0.679199,-0.354004,0.35907,0.533325,up
628518,-15.894531,3.328125,5.199219,1.736328,3.177734,3.214844,0.658691,-0.348633,0.395081,0.53717,up
628523,-16.65625,3.976563,4.933594,2.164063,4.34375,4.144531,0.658691,-0.348633,0.395081,0.53717,up
628528,-17.539062,4.628906,4.433594,2.164063,4.34375,4.144531,0.642578,-0.344788,0.421875,0.538696,up
628533,-18.308594,5.242187,3.820313,2.164063,4.34375,4.144531,0.642578,-0.344788,0.421875,0.538696,up
628538,-19.800781,6.316406,2.976563,2.447266,5.509766,5.320312,0.632019,-0.34259,0.438171,0.539673,up
628543,-19.800781,6.316406,2.976563,2.814453,6.628906,6.794922,0.632019,-0.34259,0.438171,0.539673,up
628548,-20.417969,6.964844,2.519531,2.814453,6.628906,6.794922,0.606628,-0.337097,0.473816,0.542053,up
628553,-22.675781,9.878906,-0.316406,3.0625,7.257812,7.662109,0.590454,-0.333313,0.494751,0.543579,up
628558,-22.980469,11.292969,-1.425781,3.833984,8.089844,9.591797,0.590454,-0.333313,0.494751,0.543579,up
628563,-23.054687,12.671875,-2.382813,3.833984,8.089844,9.591797,0.55304,-0.322388,0.539795,0.546631,up
628568,-23.136719,14.054688,-3.1875,3.833984,8.089844,9.591797,0.507568,-0.303345,0.590637,0.549133,up
628574,-22.597656,18.574219,-5.179687,3.833984,8.089844,9.591797,0.481934,-0.289551,0.61792,0.549561,up
628579,-22.558594,19.953125,-5.753906,6.175781,8.253906,13.195313,0.481934,-0.289551,0.61792,0.549561,up
628584,-22.632812,20.757812,-6.253906,6.365234,8.152344,13.851563,0.481934,-0.289551,0.61792,0.549561,up
628589,-22.558594,21.101562,-6.445312,6.365234,8.152344,13.851563,0.481934,-0.289551,0.61792,0.549561,up
628594,-22.253906,20.679687,-6.636719,6.367187,8.003906,14.380859,0.398193,-0.235962,0.697327,0.547241,up
628599,-22.253906,20.679687,-6.636719,6.210937,7.853516,14.771484,0.368103,-0.215149,0.721497,0.545593,up
628604,-21.527344,18.574219,-7.289062,6.210937,7.853516,14.771484,0.336975,-0.19342,0.743896,0.543762,up
628609,-21.527344,18.574219,-7.289062,5.226562,7.548828,15.265625,0.303711,-0.170166,0.764954,0.541931,up
628614,-20.109375,16.160156,-7.25,4.505859,7.21875,15.345703,0.236877,-0.123413,0.798279,0.539856,up
628619,-19.6875,14.628906,-7.59375,4.505859,7.21875,15.345703,0.203796,-0.100769,0.810425,0.539917,up
628625,-16.964844,8.5,-6.101562,4.505859,7.21875,15.345703,0.170776,-0.078674,0.819763,0.540955,up
628630,-16.964844,8.5,-6.101562,4.505859,7.21875,15.345703,0.170776,-0.078674,0.819763,0.540955,up
628636,-15.667969,7.003906,-5.449219,1.027344,6.373047,14.328125,0.105103,-0.03595,0.831177,0.5448,up
628641,-13.515625,4.359375,-4.53125,1.027344,6.373047,14.328125,0.105103,-0.03595,0.831177,0.5448,up
628647,-13.515625,4.359375,-4.53125,-0.333984,6.470703,13.251953,0.041748,0.001831,0.833801,0.550476,up
628652,-9.765625,1.640625,-2.539063,-0.333984,6.470703,13.251953,0.041748,0.001831,0.833801,0.550476,up
628657,-7.882812,-0.390625,-1.617188,-1.644531,5.703125,11.353516,0.041748,0.001831,0.833801,0.550476,up
628662,-7.117187,-0.773437,-1.65625,-1.644531,5.703125,11.353516,0.043152,-0.050354,-0.8255,-0.560486,up
628667,-6.625,-0.464844,-2.078125,-1.820313,5.589844,10.210938,0.043152,-0.050354,-0.8255,-0.560486,up
628673,-6.433594,-0.351563,-2.269531,-0.337891,5.296875,9.195313,0.043152,-0.050354,-0.8255,-0.560486,up
628678,-6.164062,0.953125,-1.617188,-0.337891,5.296875,9.195313,0.141846,-0.099915,-0.807617,-0.563599,up
628683,-5.742187,1.566406,-0.738281,-0.337891,5.296875,9.195313,0.165527,-0.109924,-0.805481,-0.558289,up
628688,-5.546875,1.832031,0.335938,3.048828,4.871094,7.677734,0.165527,-0.109924,-0.805481,-0.558289,up
628693,-5.546875,1.832031,0.335938,3.048828,4.871094,7.677734,0.186096,-0.117615,-0.804687,-0.551392,up
628698,-5.085937,1.566406,1.597656,3.048828,4.871094,7.677734,0.186096,-0.117615,-0.804687,-0.551392,up
628704,-5.019531,1.335938,1.980469,3.728516,4.955078,7.1875,0.186096,-0.117615,-0.804687,-0.551392,up
628709,-5.019531,1.335938,1.980469,4.351562,4.427734,5.736328,0.265686,-0.136902,-0.806152,-0.510681,up
628714,-5.203125,0.835937,2.785156,4.259766,4.078125,5.191406,0.283081,-0.139709,-0.806824,-0.49939,up
628719,-4.824219,0.222656,4.664062,4.259766,4.078125,5.191406,0.29834,-0.141785,-0.807373,-0.488953,up
628724,-4.667969,0.1875,5.011719,3.476563,3.423828,4.140625,0.313293,-0.143616,-0.807617,-0.478577,up
628730,-4.402344,0.222656,5.316406,3.476563,3.423828,4.140625,0.324585,-0.14502,-0.807312,-0.471008,up
628735,-3.710938,0.300781,6.042969,3.476563,3.423828,4.140625,0.324585,-0.14502,-0.807312,-0.471008,up
628740,-3.710938,0.300781,6.042969,1.914063,2.810547,3.269531,0.345215,-0.148437,-0.804687,-0.459656,up
628745,-3.558594,0.492187,6.238281,1.914063,2.810547,3.269531,0.345215,-0.148437,-0.804687,-0.459656,up
628750,-2.792969,0.683594,5.816406,0.373047,2.427734,2.501953,0.353516,-0.15033,-0.802368,-0.456726,up
628755,-2.449219,0.722656,5.699219,-0.328125,2.175781,2.148438,0.366943,-0.154602,-0.796204,-0.455566,up
628761,-1.988281,0.796875,5.582031,-0.328125,2.175781,2.148438,0.366943,-0.154602,-0.796204,-0.455566,up
628766,-1.605469,0.722656,5.511719,-1.732422,1.314453,1.152344,0.366943,-0.154602,-0.796204,-0.455566,up
628771,-1.070313,0.644531,5.351562,-1.732422,1.314453,1.152344,0.366943,-0.154602,-0.796204,-0.455566,up
628776,-0.722656,0.570312,5.234375,-2.142578,0.845703,0.541016,0.366943,-0.154602,-0.796204,-0.455566,up
628782,-0.378906,0.53125,5.160156,-2.201172,0.617187,0.275391,0.366943,-0.154602,-0.796204,-0.455566,up
628787,0.386719,0.53125,4.972656,-2.201172,0.617187,0.275391,0.366943,-0.154602,-0.796204,-0.455566,up
628792,0.386719,0.53125,4.972656,-1.994141,0.099609,-0.205078,0.380859,-0.169312,-0.772705,-0.47876,up
628797,0.769531,0.644531,4.742187,-1.832031,-0.101563,-0.390625,0.380859,-0.169312,-0.772705,-0.47876,up
628803,1.152344,0.683594,4.550781,-1.720703,-0.289063,-0.556641,0.380859,-0.169312,-0.772705,-0.47876,up
628808,1.152344,0.683594,4.550781,-1.601563,-0.480469,-0.675781,0.380859,-0.169312,-0.772705,-0.47876,up
628814,2.492188,1.296875,3.203125,-1.601563,-0.480469,-0.675781,0.369934,-0.173889,-0.765625,-0.496704,up
628819,3.144531,1.871094,2.558594,-1.601563,-0.480469,-0.675781,0.366211,-0.174561,-0.765137,-0.499939,up
628824,3.488281,2.214844,2.289063,-1.601563,-0.480469,-0.675781,0.362732,-0.175171,-0.764954,-0.502563,up
628829,3.761719,2.523438,1.90625,-1.197266,-1.179688,-1.017578,0.358521,-0.175842,-0.764954,-0.505371,up
628834,3.984375,2.789063,1.523438,-1.197266,-1.179688,-1.017578,0.354675,-0.176392,-0.765015,-0.507812,up
628839,4.484375,3.25,0.949219,-1.197266,-1.179688,-1.017578,0.350098,-0.177063,-0.765137,-0.510559,up
628845,4.605469,3.402344,0.640625,-1.197266,-1.179688,-1.017578,0.345398,-0.177795,-0.765259,-0.513245,up
628850,4.792969,3.632813,0.257813,-1.185547,-1.332031,-1.064453,0.341187,-0.178467,-0.765381,-0.515686,up
628855,5.132812,3.976563,-0.316406,-1.207031,-1.357422,-1.074219,0.336853,-0.179138,-0.765503,-0.518127,up
628860,5.292969,4.167969,-0.507812,-1.207031,-1.357422,-1.074219,0.332336,-0.179871,-0.765625,-0.52063,up
628866,5.675781,4.628906,-0.890625,-1.207031,-1.357422,-1.074219,0.327515,-0.180603,-0.765747,-0.523193,up
628872,5.832031,4.9375,-1.160156,-1.105469,-1.427734,-1.130859,0.327515,-0.180603,-0.765747,-0.523193,up
628878,6.171875,5.511719,-1.542969,-0.931641,-1.498047,-1.185547,0.327515,-0.180603,-0.765747,-0.523193,up
628883,6.28125,5.816406,-1.886719,-0.931641,-1.498047,-1.185547,0.31311,-0.182251,-0.766663,-0.530029,up
628888,6.320312,6.125,-2.230469,-0.755859,-1.492188,-1.212891,0.31311,-0.182251,-0.766663,-0.530029,up
628893,6.476562,6.582031,-2.921875,-0.755859,-1.492188,-1.212891,0.303345,-0.182922,-0.767944,-0.533691,up
628899,6.59375,6.855469,-3.113281,-0.720703,-1.484375,-1.167969,0.303345,-0.182922,-0.767944,-0.533691,up
628904,6.632812,7.0,-3.378906,-0.720703,-1.484375,-1.167969,0.288452,-0.183655,-0.770081,-0.538513,up
628909,6.859375,7.3125,-3.570313,-0.753906,-1.472656,-1.126953,0.288452,-0.183655,-0.770081,-0.538513,up
628914,7.089844,7.578125,-3.839844,-0.753906,-1.472656,-1.126953,0.283752,-0.18396,-0.770752,-0.540039,up
628919,7.089844,7.578125,-3.839844,-0.759766,-1.439453,-1.126953,0.279419,-0.184265,-0.77124,-0.541443,up
628924,7.242187,7.726562,-4.03125,-0.759766,-1.439453,-1.126953,0.274658,-0.184509,-0.771729,-0.543091,up
628929,7.398437,8.042969,-4.453125,-0.818359,-1.371094,-1.103516,0.270142,-0.184753,-0.772156,-0.544678,up
628934,7.398437,8.042969,-4.453125,-0.890625,-1.328125,-1.072266,0.265686,-0.185059,-0.7724,-0.546387,up
628940,7.359375,8.078125,-4.605469,-0.892578,-1.144531,-0.962891,0.265686,-0.185059,-0.7724,-0.546387,up
628945,7.359375,8.078125,-4.605469,-0.855469,-1.074219,-0.902344,0.265686,-0.185059,-0.7724,-0.546387,up
628950,7.398437,8.042969,-4.53125,-0.855469,-1.074219,-0.902344,0.249634,-0.186157,-0.772461,-0.553467,up
628955,7.359375,7.925781,-4.414062,-0.855469,-1.074219,-0.902344,0.249634,-0.186157,-0.772461,-0.553467,up
628960,7.320312,7.886719,-4.300781,-0.494141,-0.826172,-0.703125,0.249634,-0.186157,-0.772461,-0.553467,up
628965,7.207031,7.882812,-4.261719,-0.328125,-0.75,-0.646484,0.249634,-0.186157,-0.772461,-0.553467,up
628971,7.015625,7.804687,-4.070312,-0.328125,-0.75,-0.646484,0.238281,-0.186462,-0.773254,-0.557312,up
628977,6.746094,7.730469,-3.800781,-0.328125,-0.75,-0.646484,0.236084,-0.186218,-0.773865,-0.557434,up
628982,6.59375,7.726562,-3.6875,0.210937,-0.558594,-0.523437,0.236084,-0.186218,-0.773865,-0.557434,up
628987,6.402344,8.003906,-3.496094,0.210937,-0.558594,-0.523437,0.232544,-0.185486,-0.775635,-0.556702,up
628992,6.324219,8.152344,-3.457031,0.429687,-0.492187,-0.496094,0.232544,-0.185486,-0.775635,-0.556702,up
628997,6.285156,8.265625,-3.457031,0.482422,-0.482422,-0.488281,0.232544,-0.185486,-0.775635,-0.556702,up
629002,6.210937,8.347656,-3.496094,0.482422,-0.482422,-0.488281,0.228088,-0.183838,-0.779053,-0.55426,up
629007,6.09375,8.421875,-3.496094,0.482422,-0.482422,-0.488281,0.228088,-0.183838,-0.779053,-0.55426,up
629012,6.09375,8.386719,-3.496094,0.310547,-0.449219,-0.460937,0.228088,-0.183838,-0.779053,-0.55426,up
629018,6.09375,8.347656,-3.496094,0.310547,-0.449219,-0.460937,0.223816,-0.182251,-0.782043,-0.552368,up
629023,6.132812,8.265625,-3.457031,0.310547,-0.449219,-0.460937,0.222351,-0.181885,-0.782593,-0.552246,up
629028,6.09375,8.230469,-3.457031,0.310547,-0.449219,-0.460937,0.220947,-0.181702,-0.782959,-0.552429,up
629034,6.09375,8.148438,-3.457031,-0.269531,-0.388672,-0.392578,0.218018,-0.181458,-0.783081,-0.553467,up
629039,6.019531,8.082031,-3.417969,-0.269531,-0.388672,-0.392578,0.216614,-0.181396,-0.782959,-0.554199,up
629044,5.902344,8.109375,-3.457031,-0.378906,-0.294922,-0.335938,0.216614,-0.181396,-0.782959,-0.554199,up
629049,5.863281,8.082031,-3.378906,-0.378906,-0.294922,-0.335938,0.215271,-0.181335,-0.782776,-0.555054,up
629054,5.75,8.0,-3.304688,-0.337891,-0.267578,-0.300781,0.215271,-0.181335,-0.782776,-0.555054,up
629059,5.75,8.0,-3.304688,-0.337891,-0.267578,-0.300781,0.212097,-0.181091,-0.78241,-0.556824,up
629064,5.636719,7.882812,-3.304688,-0.09375,-0.181641,-0.236328,0.212097,-0.181091,-0.78241,-0.556824,up
629069,5.597656,7.804687,-3.226563,-0.09375,-0.181641,-0.236328,0.21051,-0.180725,-0.782593,-0.557312,up
629074,5.519531,7.769531,-3.226563,-0.09375,-0.181641,-0.236328,0.2099,-0.18042,-0.782898,-0.55719,up
629080,5.40625,7.882812,-3.113281,0.197266,-0.125,-0.205078,0.209351,-0.180115,-0.783325,-0.556885,up
629085,5.40625,7.882812,-3.035156,0.240234,-0.123047,-0.212891,0.208862,-0.179749,-0.783813,-0.556519,up
629091,5.328125,7.925781,-3.035156,0.240234,-0.123047,-0.212891,0.208435,-0.179321,-0.784302,-0.556152,up
629097,5.289062,8.0,-2.921875,0.240234,-0.123047,-0.212891,0.208008,-0.178955,-0.78479,-0.555725,up
629102,5.25,8.042969,-2.882813,0.1875,-0.123047,-0.21875,0.208008,-0.178955,-0.78479,-0.555725,up
629107,5.25,8.003906,-2.84375,0.117188,-0.123047,-0.216797,0.208008,-0.178955,-0.78479,-0.555725,up
629112,5.25,7.925781,-2.769531,0.039063,-0.136719,-0.210937,0.208008,-0.178955,-0.78479,-0.555725,up
629118,5.289062,7.960937,-2.769531,0.039063,-0.136719,-0.210937,0.205811,-0.177612,-0.786194,-0.554993,up
629124,5.289062,7.847656,-2.804688,-0.175781,-0.177734,-0.179687,0.205811,-0.177612,-0.786194,-0.554993,up
629129,5.25,7.84375,-2.769531,-0.175781,-0.177734,-0.179687,0.204468,-0.177429,-0.786194,-0.555542,up
629134,5.25,7.84375,-2.769531,-0.150391,-0.224609,-0.142578,0.203674,-0.177429,-0.786133,-0.555908,up
629139,5.25,7.804687,-2.730469,-0.150391,-0.224609,-0.142578,0.202942,-0.17749,-0.786133,-0.556213,up
629144,5.175781,7.847656,-2.804688,-0.121094,-0.242187,-0.125,0.202942,-0.17749,-0.786133,-0.556213,up
629149,5.175781,7.847656,-2.804688,-0.121094,-0.242187,-0.125,0.200806,-0.177856,-0.786316,-0.55658,up
629154,5.136719,7.804687,-2.84375,0.076172,-0.261719,-0.070312,0.200806,-0.177856,-0.786316,-0.55658,up
629159,5.058594,7.808594,-2.882813,0.076172,-0.261719,-0.070312,0.200073,-0.17804,-0.78656,-0.556396,up
629164,5.023437,7.695312,-2.921875,0.136719,-0.251953,-0.056641,0.200073,-0.17804,-0.78656,-0.556396,up
629169,5.023437,7.695312,-2.921875,0.136719,-0.251953,-0.056641,0.198975,-0.178345,-0.787292,-0.555664,up
629174,5.023437,7.699219,-2.882813,0.234375,-0.236328,-0.033203,0.198486,-0.178467,-0.78772,-0.555237,up
629179,4.984375,7.699219,-2.882813,0.234375,-0.236328,-0.033203,0.197998,-0.17865,-0.788208,-0.554626,up
629185,4.945312,7.726562,-2.921875,0.234375,-0.236328,-0.033203,0.197205,-0.178833,-0.789124,-0.553589,up
629190,4.90625,7.726562,-2.960938,0.1875,-0.177734,-0.042969,0.196777,-0.178894,-0.789551,-0.55304,up
629196,4.90625,7.769531,-2.996094,0.1875,-0.177734,-0.042969,0.196411,-0.178894,-0.789856,-0.552734,up
629201,4.90625,7.808594,-2.996094,0.107422,-0.175781,-0.056641,0.196045,-0.178955,-0.790161,-0.552429,up
629206,4.90625,7.769531,-2.960938,0.107422,-0.175781,-0.056641,0.195618,-0.179016,-0.790405,-0.552185,up
629211,4.90625,7.769531,-2.960938,0.107422,-0.175781,-0.056641,0.195618,-0.179016,-0.790405,-0.552185,up
629216,4.867187,7.769531,-2.996094,0.044922,-0.162109,-0.078125,0.194763,-0.179077,-0.790771,-0.551941,up
629221,4.867187,7.808594,-2.960938,0.044922,-0.162109,-0.078125,0.194763,-0.179077,-0.790771,-0.551941,up
629226,4.867187,7.808594,-2.960938,0.011719,-0.167969,-0.109375,0.193848,-0.179016,-0.791077,-0.551819,up
629231,4.867187,7.804687,-2.921875,0.011719,-0.167969,-0.109375,0.193848,-0.179016,-0.791077,-0.551819,up
629237,4.832031,7.730469,-2.882813,0.015625,-0.162109,-0.136719,0.193848,-0.179016,-0.791077,-0.551819,up
629242,4.832031,7.730469,-2.882813,0.025391,-0.173828,-0.134766,0.193848,-0.179016,-0.791077,-0.551819,up
629248,4.867187,7.726562,-2.84375,0.039063,-0.1875,-0.138672,0.193848,-0.179016,-0.791077,-0.551819,up
629253,4.832031,7.726562,-2.921875,0.044922,-0.177734,-0.148437,0.193848,-0.179016,-0.791077,-0.551819,up
629259,4.832031,7.730469,-2.996094,0.058594,-0.183594,-0.158203,0.193848,-0.179016,-0.791077,-0.551819,up
629264,4.792969,7.730469,-2.960938,0.060547,-0.193359,-0.158203,0.193848,-0.179016,-0.791077,-0.551819,up
629269,4.792969,7.695312,-2.960938,0.060547,-0.193359,-0.158203,0.189331,-0.178467,-0.792786,-0.551208,up
629275,4.792969,7.730469,-2.960938,0.046875,-0.177734,-0.166016,0.188721,-0.178345,-0.79303,-0.551086,up
629280,4.753906,7.730469,-2.996094,0.046875,-0.177734,-0.166016,0.187439,-0.178101,-0.793518,-0.550842,up
629285,4.753906,7.730469,-2.996094,0.042969,-0.171875,-0.177734,0.187439,-0.178101,-0.793518,-0.550842,up
629290,4.753906,7.804687,-3.035156,0.042969,-0.171875,-0.177734,0.186279,-0.177795,-0.794006,-0.55072,up
629296,4.753906,7.964844,-3.113281,0.042969,-0.171875,-0.177734,0.18573,-0.177612,-0.794189,-0.550659,up
629302,4.792969,8.0,-3.113281,-0.003906,-0.164062,-0.201172,0.18573,-0.177612,-0.794189,-0.550659,up
629307,4.832031,8.039063,-3.152344,-0.017578,-0.164062,-0.207031,0.184326,-0.177246,-0.794556,-0.55072,up
629312,4.792969,8.0,-3.226563,-0.017578,-0.164062,-0.207031,0.183777,-0.177063,-0.794678,-0.550781,up
629318,4.832031,8.039063,-3.1875,-0.042969,-0.171875,-0.207031,0.183777,-0.177063,-0.794678,-0.550781,up
629323,4.832031,8.0,-3.226563,-0.039063,-0.166016,-0.199219,0.183777,-0.177063,-0.794678,-0.550781,up
629328,4.792969,8.039063,-3.226563,-0.021484,-0.175781,-0.189453,0.183777,-0.177063,-0.794678,-0.550781,up
629333,4.867187,8.003906,-3.1875,-0.021484,-0.175781,-0.189453,0.183777,-0.177063,-0.794678,-0.550781,up
629338,4.792969,8.0,-3.152344,-0.021484,-0.175781,-0.189453,0.180481,-0.17627,-0.79541,-0.551025,up
629343,4.832031,8.0,-3.152344,0.048828,-0.177734,-0.162109,0.180481,-0.17627,-0.79541,-0.551025,up
629348,4.753906,8.0,-3.1875,0.048828,-0.177734,-0.162109,0.179321,-0.176025,-0.795898,-0.550781,up
629354,4.792969,8.042969,-3.265625,0.048828,-0.177734,-0.162109,0.179321,-0.176025,-0.795898,-0.550781,up
629360,4.753906,8.078125,-3.226563,0.119141,-0.167969,-0.115234,0.177795,-0.175781,-0.796814,-0.550049,up
629365,4.753906,8.039063,-3.226563,0.119141,-0.167969,-0.115234,0.177429,-0.17572,-0.797058,-0.549866,up
629370,4.714844,8.039063,-3.226563,0.119141,-0.167969,-0.115234,0.177002,-0.17572,-0.797363,-0.549561,up
629375,4.714844,8.039063,-3.226563,0.136719,-0.136719,-0.076172,0.177002,-0.17572,-0.797363,-0.549561,up
629380,4.714844,8.0,-3.1875,0.125,-0.132812,-0.078125,0.176636,-0.175659,-0.797668,-0.549255,up
629386,4.714844,8.0,-3.152344,0.125,-0.132812,-0.078125,0.175903,-0.175598,-0.798218,-0.548706,up
