timestamp,ax,ay,az,gx,gy,gz,qw,qx,qy,qz,label
188030,-8.296875,4.539062,0.453125,0.048828,0.158203,0.158203,0.293213,-0.409058,0.554504,0.66272,up
188035,-8.339844,4.5,0.453125,0.048828,0.158203,0.158203,0.292358,-0.40918,0.555237,0.662415,up
188040,-8.261719,4.539062,0.453125,0.048828,0.158203,0.158203,0.292053,-0.40918,0.555725,0.662109,up
188045,-8.1875,4.613281,0.414062,0.238281,0.169922,0.128906,0.292053,-0.40918,0.555725,0.662109,up
188050,-8.230469,4.691406,0.375,0.294922,0.167969,0.128906,0.291809,-0.40918,0.556396,0.661682,up
188055,-8.1875,4.769531,0.414062,0.294922,0.167969,0.128906,0.291504,-0.409058,0.557861,0.660645,up
188060,-8.226563,4.882812,0.453125,0.294922,0.167969,0.128906,0.291443,-0.408936,0.558716,0.660095,up
188065,-8.261719,5.0,0.414062,0.294922,0.167969,0.128906,0.291443,-0.408936,0.558716,0.660095,up
188070,-8.257813,5.074219,0.414062,0.341797,0.166016,0.109375,0.291321,-0.408752,0.560303,0.658875,up
188075,-8.296875,5.113281,0.414062,0.285156,0.136719,0.085937,0.29126,-0.408691,0.561035,0.658325,up
188080,-8.300781,5.191406,0.414062,0.285156,0.136719,0.085937,0.291199,-0.40863,0.561707,0.657776,up
188085,-8.375,5.191406,0.375,0.148437,0.105469,0.068359,0.291199,-0.40863,0.561707,0.657776,up
188090,-8.261719,5.226562,0.414062,0.148437,0.105469,0.068359,0.291138,-0.40863,0.562195,0.65741,up
188095,-8.230469,5.304687,0.414062,0.148437,0.105469,0.068359,0.290833,-0.408752,0.562622,0.657104,up
188100,-8.230469,5.34375,0.296875,-0.099609,0.064453,0.054687,0.290833,-0.408752,0.562622,0.657104,up
188105,-8.230469,5.304687,0.335938,-0.173828,0.0625,0.060547,0.290527,-0.408875,0.562683,0.657104,up
188111,-8.152344,5.226562,0.335938,-0.173828,0.0625,0.060547,0.289856,-0.409241,0.562378,0.657471,up
188116,-8.152344,5.074219,0.296875,-0.173828,0.0625,0.060547,0.289368,-0.409485,0.562134,0.657715,up
188121,-8.070313,5.0,0.335938,-0.287109,0.070312,0.09375,0.289368,-0.409485,0.562134,0.657715,up
188126,-8.070313,4.960937,0.335938,-0.283203,0.085937,0.099609,0.289368,-0.409485,0.562134,0.657715,up
188131,-8.035156,4.84375,0.335938,-0.283203,0.085937,0.099609,0.28772,-0.410156,0.561279,0.658752,up
188137,-7.996094,4.613281,0.296875,-0.283203,0.085937,0.099609,0.28717,-0.4104,0.561035,0.659058,up
188142,-7.996094,4.539062,0.296875,-0.191406,0.119141,0.111328,0.28656,-0.410645,0.560913,0.659302,up
188147,-8.035156,4.5,0.335938,-0.191406,0.119141,0.111328,0.286011,-0.410828,0.560852,0.659424,up
188152,-8.035156,4.5,0.414062,-0.191406,0.119141,0.111328,0.286011,-0.410828,0.560852,0.659424,up
188157,-8.113281,4.539062,0.414062,-0.039063,0.148437,0.082031,0.286011,-0.410828,0.560852,0.659424,up
188163,-8.113281,4.613281,0.453125,0.017578,0.148437,0.064453,0.286011,-0.410828,0.560852,0.659424,up
188169,-8.1875,4.769531,0.488281,0.017578,0.148437,0.064453,0.286011,-0.410828,0.560852,0.659424,up
188174,-8.261719,4.960937,0.453125,0.099609,0.152344,0.037109,0.286011,-0.410828,0.560852,0.659424,up
188180,-8.296875,5.035156,0.527344,0.123047,0.136719,0.042969,0.284119,-0.411926,0.562378,0.658264,up
188185,-8.414063,5.191406,0.527344,0.123047,0.136719,0.042969,0.283997,-0.412048,0.562744,0.657959,up
188190,-8.375,5.226562,0.605469,0.123047,0.136719,0.042969,0.283997,-0.412048,0.562744,0.657959,up
188195,-8.417969,5.265625,0.566406,0.052734,0.064453,0.042969,0.283997,-0.412048,0.562744,0.657959,up
188200,-8.417969,5.265625,0.566406,0.052734,0.064453,0.042969,0.283813,-0.41217,0.563232,0.657532,up
188205,-8.414063,5.265625,0.527344,-0.042969,0.035156,0.060547,0.283691,-0.41217,0.563416,0.65741,up
188210,-8.375,5.265625,0.527344,-0.042969,0.035156,0.060547,0.283508,-0.412231,0.563538,0.65741,up
188215,-8.375,5.265625,0.527344,-0.150391,0.009766,0.095703,0.283264,-0.412231,0.563477,0.657471,up
188221,-8.339844,5.226562,0.527344,-0.150391,0.009766,0.095703,0.282654,-0.412231,0.563293,0.657898,up
188226,-8.261719,5.226562,0.453125,-0.199219,0.001953,0.130859,0.282227,-0.412231,0.56311,0.658264,up
188231,-8.296875,5.226562,0.488281,-0.212891,0.005859,0.162109,0.281738,-0.412231,0.562927,0.65863,up
188237,-8.230469,5.265625,0.414062,-0.212891,0.005859,0.162109,0.281311,-0.41217,0.562805,0.658997,up
188242,-8.191406,5.265625,0.375,-0.212891,0.005859,0.162109,0.280762,-0.412048,0.562683,0.659363,up
188247,-8.191406,5.265625,0.375,-0.193359,0.033203,0.228516,0.280762,-0.412048,0.562683,0.659363,up
188252,-8.191406,5.191406,0.335938,-0.175781,0.052734,0.257813,0.280762,-0.412048,0.562683,0.659363,up
188258,-8.1875,5.035156,0.335938,-0.175781,0.052734,0.257813,0.278748,-0.411743,0.562622,0.660461,up
188263,-8.226563,4.960937,0.335938,-0.162109,0.089844,0.289063,0.278748,-0.411743,0.562622,0.660461,up
188268,-8.261719,4.882812,0.375,-0.150391,0.105469,0.296875,0.278748,-0.411743,0.562622,0.660461,up
188274,-8.339844,4.769531,0.375,-0.150391,0.105469,0.296875,0.276428,-0.411316,0.562988,0.661377,up
188280,-8.339844,4.652344,0.453125,-0.150391,0.105469,0.296875,0.274902,-0.411133,0.563354,0.661865,up
188285,-8.296875,4.652344,0.453125,-0.150391,0.105469,0.296875,0.274902,-0.411133,0.563354,0.661865,up
188290,-8.335938,4.691406,0.488281,-0.068359,0.109375,0.242187,0.274902,-0.411133,0.563354,0.661865,up
188295,-8.296875,4.769531,0.488281,-0.068359,0.109375,0.242187,0.273132,-0.410889,0.564087,0.662109,up
188300,-8.296875,4.84375,0.527344,-0.068359,0.109375,0.242187,0.273132,-0.410889,0.564087,0.662109,up
188305,-8.300781,4.921875,0.414062,0.060547,0.101563,0.160156,0.272461,-0.410706,0.564758,0.661926,up
188310,-8.300781,5.074219,0.488281,0.060547,0.101563,0.160156,0.272461,-0.410706,0.564758,0.661926,up
188315,-8.296875,5.152344,0.488281,0.162109,0.082031,0.117188,0.272217,-0.410645,0.565125,0.661743,up
188320,-8.300781,5.265625,0.488281,0.162109,0.082031,0.117188,0.272034,-0.410522,0.565613,0.661499,up
188325,-8.261719,5.34375,0.453125,0.167969,0.083984,0.121094,0.272034,-0.410522,0.565613,0.661499,up
188330,-8.261719,5.34375,0.453125,0.167969,0.083984,0.121094,0.271606,-0.410095,0.566956,0.660767,up
188335,-8.1875,5.34375,0.453125,0.167969,0.083984,0.121094,0.271606,-0.410095,0.566956,0.660767,up
188340,-8.226563,5.382812,0.453125,0.085937,0.033203,0.130859,0.271606,-0.410095,0.566956,0.660767,up
188345,-8.113281,5.34375,0.375,0.041016,0.023437,0.142578,0.271606,-0.410095,0.566956,0.660767,up
188351,-8.070313,5.382812,0.414062,0.041016,0.023437,0.142578,0.27063,-0.409363,0.567932,0.660828,up
188356,-8.035156,5.34375,0.335938,-0.126953,-0.001953,0.203125,0.270264,-0.40918,0.567932,0.661011,up
188361,-7.992187,5.34375,0.335938,-0.179687,0.001953,0.212891,0.269714,-0.408997,0.567932,0.661377,up
188367,-7.992187,5.304687,0.296875,-0.179687,0.001953,0.212891,0.269165,-0.408875,0.567871,0.661743,up
188372,-7.957031,5.34375,0.261719,-0.255859,0.017578,0.253906,0.269165,-0.408875,0.567871,0.661743,up
188377,-7.953125,5.265625,0.261719,-0.28125,0.048828,0.273438,0.269165,-0.408875,0.567871,0.661743,up
188382,-8.035156,5.191406,0.222656,-0.291016,0.068359,0.291016,0.269165,-0.408875,0.567871,0.661743,up
188388,-7.996094,5.152344,0.222656,-0.291016,0.068359,0.291016,0.265991,-0.408447,0.567322,0.663696,up
188393,-8.035156,5.074219,0.261719,-0.275391,0.097656,0.306641,0.265991,-0.408447,0.567322,0.663696,up
188398,-8.035156,5.074219,0.261719,-0.226562,0.109375,0.306641,0.26416,-0.408325,0.5672,0.664612,up
188403,-7.996094,5.0,0.261719,-0.195312,0.119141,0.306641,0.263306,-0.408264,0.567261,0.664978,up
188408,-7.996094,5.035156,0.296875,-0.195312,0.119141,0.306641,0.26239,-0.408142,0.567383,0.665283,up
188414,-7.992187,5.074219,0.296875,-0.123047,0.132812,0.294922,0.26239,-0.408142,0.567383,0.665283,up
188420,-7.957031,5.113281,0.261719,-0.039063,0.154297,0.273438,0.26239,-0.408142,0.567383,0.665283,up
188425,-7.996094,5.152344,0.261719,-0.039063,0.154297,0.273438,0.26001,-0.407898,0.568115,0.665771,up
188430,-7.996094,5.226562,0.261719,0.023437,0.148437,0.265625,0.26001,-0.407898,0.568115,0.665771,up
188435,-7.953125,5.265625,0.296875,0.023437,0.148437,0.265625,0.258667,-0.407593,0.568909,0.665833,up
188441,-7.957031,5.34375,0.261719,0.023437,0.148437,0.265625,0.257446,-0.407349,0.569763,0.66571,up
188446,-7.957031,5.417969,0.261719,0.042969,0.15625,0.285156,0.257446,-0.407349,0.569763,0.66571,up
188451,-7.957031,5.535156,0.296875,0.042969,0.15625,0.285156,0.256042,-0.407043,0.57074,0.665588,up
188456,-7.996094,5.496094,0.296875,0.042969,0.15625,0.285156,0.256042,-0.407043,0.57074,0.665588,up
188461,-7.996094,5.496094,0.261719,0.042969,0.15625,0.285156,0.254639,-0.406738,0.571472,0.66571,up
188466,-7.953125,5.648437,0.296875,-0.083984,0.144531,0.308594,0.254639,-0.406738,0.571472,0.66571,up
188471,-7.992187,5.648437,0.296875,-0.083984,0.144531,0.308594,0.253845,-0.406616,0.571777,0.665833,up
188476,-7.992187,5.648437,0.296875,-0.166016,0.134766,0.332031,0.252197,-0.406372,0.572205,0.66626,up
188481,-7.953125,5.609375,0.261719,-0.166016,0.134766,0.332031,0.252197,-0.406372,0.572205,0.66626,up
188486,-7.957031,5.535156,0.222656,-0.220703,0.128906,0.332031,0.250244,-0.406128,0.572327,0.666992,up
188491,-7.917969,5.648437,0.183594,-0.220703,0.128906,0.332031,0.249146,-0.406067,0.572327,0.66748,up
188496,-7.917969,5.457031,0.222656,-0.220703,0.128906,0.332031,0.248108,-0.406067,0.572266,0.667908,up
188501,-7.957031,5.417969,0.222656,-0.361328,0.164062,0.333984,0.248108,-0.406067,0.572266,0.667908,up
188506,-7.953125,5.382812,0.183594,-0.380859,0.171875,0.330078,0.246826,-0.406067,0.572083,0.668518,up
188511,-7.917969,5.34375,0.222656,-0.380859,0.171875,0.330078,0.244568,-0.406189,0.571777,0.669556,up
188516,-7.875,5.304687,0.222656,-0.375,0.191406,0.320313,0.244568,-0.406189,0.571777,0.669556,up
188521,-7.875,5.265625,0.222656,-0.375,0.191406,0.320313,0.243225,-0.40625,0.571594,0.670105,up
188526,-7.878906,5.226562,0.222656,-0.345703,0.201172,0.304688,0.243225,-0.40625,0.571594,0.670105,up
188532,-7.847656,5.265625,0.261719,-0.345703,0.201172,0.304688,0.23999,-0.406616,0.571289,0.671326,up
188537,-7.847656,5.265625,0.261719,-0.240234,0.195312,0.269531,0.238953,-0.406738,0.571228,0.671692,up
188543,-7.847656,5.304687,0.296875,-0.240234,0.195312,0.269531,0.237976,-0.406799,0.571289,0.671936,up
188548,-7.847656,5.34375,0.335938,-0.240234,0.195312,0.269531,0.237122,-0.406921,0.571411,0.672058,up
188554,-7.84375,5.382812,0.296875,-0.074219,0.179687,0.240234,0.237122,-0.406921,0.571411,0.672058,up
188559,-7.957031,5.417969,0.296875,-0.044922,0.179687,0.232422,0.237122,-0.406921,0.571411,0.672058,up
188564,-7.953125,5.535156,0.375,-0.025391,0.167969,0.222656,0.237122,-0.406921,0.571411,0.672058,up
188569,-7.957031,5.574219,0.335938,-0.023437,0.150391,0.21875,0.237122,-0.406921,0.571411,0.672058,up
188574,-8.03125,5.574219,0.335938,-0.007813,0.134766,0.212891,0.237122,-0.406921,0.571411,0.672058,up
188579,-8.070313,5.496094,0.335938,-0.017578,0.111328,0.1875,0.237122,-0.406921,0.571411,0.672058,up
188584,-8.070313,5.496094,0.453125,-0.017578,0.111328,0.1875,0.237122,-0.406921,0.571411,0.672058,up
188589,-8.1875,5.496094,0.453125,-0.017578,0.111328,0.1875,0.2323,-0.406738,0.573364,0.672241,up
188594,-8.152344,5.457031,0.414062,-0.050781,0.0625,0.095703,0.2323,-0.406738,0.573364,0.672241,up
188599,-8.113281,5.382812,0.453125,-0.060547,0.035156,0.054687,0.2323,-0.406738,0.573364,0.672241,up
188604,-8.1875,5.34375,0.488281,-0.060547,0.035156,0.054687,0.2323,-0.406738,0.573364,0.672241,up
188610,-8.148438,5.382812,0.566406,-0.060547,0.035156,0.054687,0.231506,-0.406799,0.573364,0.672424,up
188616,-8.109375,5.304687,0.527344,-0.017578,-0.072266,-0.148437,0.231506,-0.406799,0.573364,0.672424,up
188621,-7.992187,5.457031,0.453125,-0.017578,-0.072266,-0.148437,0.232361,-0.407104,0.572815,0.672424,up
188626,-8.03125,5.609375,0.453125,0.056641,-0.146484,-0.220703,0.232361,-0.407104,0.572815,0.672424,up
188631,-8.035156,5.726562,0.488281,0.072266,-0.166016,-0.244141,0.232971,-0.407166,0.572571,0.672363,up
188636,-7.996094,5.765625,0.453125,0.072266,-0.166016,-0.244141,0.234314,-0.407227,0.572205,0.672241,up
188641,-7.953125,5.839844,0.414062,0.072266,-0.166016,-0.244141,0.235107,-0.407227,0.57196,0.672119,up
188646,-7.953125,5.839844,0.453125,0.072266,-0.166016,-0.244141,0.235107,-0.407227,0.57196,0.672119,up
188651,-7.953125,5.839844,0.414062,0.082031,-0.208984,-0.275391,0.236755,-0.407227,0.571472,0.671936,up
188656,-7.875,5.839844,0.335938,0.082031,-0.208984,-0.275391,0.236755,-0.407227,0.571472,0.671936,up
188661,-7.878906,5.839844,0.296875,-0.052734,-0.244141,-0.277344,0.236755,-0.407227,0.571472,0.671936,up
188666,-7.875,5.839844,0.335938,-0.052734,-0.244141,-0.277344,0.238464,-0.407288,0.570557,0.672119,up
188671,-7.878906,5.839844,0.296875,-0.052734,-0.244141,-0.277344,0.239197,-0.407288,0.570007,0.672302,up
188676,-7.878906,5.800781,0.335938,-0.052734,-0.244141,-0.277344,0.239868,-0.407349,0.569336,0.672546,up
188681,-7.847656,5.726562,0.335938,-0.292969,-0.222656,-0.255859,0.240417,-0.407471,0.568665,0.672913,up
188686,-7.804687,5.648437,0.261719,-0.292969,-0.222656,-0.255859,0.240906,-0.407654,0.567749,0.673401,up
188691,-7.804687,5.609375,0.296875,-0.292969,-0.222656,-0.255859,0.241638,-0.40802,0.565979,0.674377,up
188696,-7.804687,5.609375,0.261719,-0.292969,-0.222656,-0.255859,0.241943,-0.408325,0.565063,0.674866,up
188701,-7.804687,5.535156,0.335938,-0.292969,-0.222656,-0.255859,0.241943,-0.408325,0.565063,0.674866,up
188706,-7.804687,5.574219,0.296875,-0.279297,-0.140625,-0.208984,0.242493,-0.408752,0.563599,0.675659,up
188711,-7.765625,5.535156,0.335938,-0.279297,-0.140625,-0.208984,0.242493,-0.408752,0.563599,0.675659,up
188716,-7.804687,5.535156,0.335938,-0.074219,-0.074219,-0.173828,0.242798,-0.408997,0.562927,0.675903,up
188721,-7.765625,5.574219,0.296875,-0.074219,-0.074219,-0.173828,0.243103,-0.40918,0.562561,0.676025,up
188726,-7.765625,5.574219,0.261719,-0.005859,-0.058594,-0.158203,0.243103,-0.40918,0.562561,0.676025,up
188731,-7.765625,5.648437,0.261719,-0.005859,-0.058594,-0.158203,0.243774,-0.409424,0.562195,0.675964,up
188736,-7.769531,5.6875,0.261719,0.167969,-0.029297,-0.085937,0.244202,-0.409485,0.562195,0.675781,up
188741,-7.769531,5.726562,0.296875,0.167969,-0.029297,-0.085937,0.244873,-0.409424,0.5625,0.675232,up
188746,-7.804687,5.765625,0.222656,0.167969,-0.029297,-0.085937,0.245178,-0.409363,0.562805,0.674988,up
188751,-7.765625,5.765625,0.296875,0.167969,-0.029297,-0.085937,0.245178,-0.409363,0.562805,0.674988,up
188756,-7.765625,5.765625,0.261719,0.183594,0.003906,-0.023437,0.245178,-0.409363,0.562805,0.674988,up
188761,-7.808594,5.726562,0.261719,0.154297,0.015625,-0.001953,0.245667,-0.40918,0.56366,0.674194,up
188766,-7.847656,5.765625,0.261719,0.154297,0.015625,-0.001953,0.245667,-0.40918,0.56366,0.674194,up
188771,-7.878906,5.726562,0.261719,0.050781,0.048828,-0.003906,0.245728,-0.40918,0.563843,0.674011,up
188776,-7.917969,5.726562,0.261719,0.050781,0.048828,-0.003906,0.245728,-0.40918,0.563965,0.673889,up
188781,-7.914062,5.765625,0.261719,0.050781,0.048828,-0.003906,0.245728,-0.409241,0.564087,0.673767,up
188786,-7.953125,5.765625,0.296875,0.050781,0.048828,-0.003906,0.245728,-0.409363,0.564148,0.673645,up
188792,-7.957031,5.726562,0.296875,-0.009766,0.058594,-0.066406,0.245667,-0.409546,0.564148,0.673523,up
188797,-7.992187,5.765625,0.296875,-0.009766,0.058594,-0.066406,0.245728,-0.409912,0.564087,0.67334,up
188803,-7.953125,5.6875,0.414062,-0.009766,0.058594,-0.066406,0.245789,-0.410095,0.564026,0.673279,up
188809,-7.992187,5.6875,0.414062,-0.013672,0.027344,-0.105469,0.245789,-0.410095,0.564026,0.673279,up
188814,-7.992187,5.6875,0.414062,-0.025391,0.005859,-0.119141,0.246033,-0.410522,0.563782,0.673157,up
188820,-7.992187,5.6875,0.453125,-0.025391,0.005859,-0.119141,0.246216,-0.410706,0.563599,0.673096,up
188825,-7.953125,5.726562,0.453125,-0.025391,0.005859,-0.119141,0.246216,-0.410706,0.563599,0.673096,up
188831,-7.953125,5.6875,0.488281,-0.085937,-0.058594,-0.150391,0.246216,-0.410706,0.563599,0.673096,up
188836,-7.917969,5.648437,0.488281,-0.085937,-0.058594,-0.150391,0.246887,-0.411255,0.562866,0.673157,up
188841,-7.917969,5.648437,0.488281,-0.085937,-0.058594,-0.150391,0.247131,-0.411438,0.562439,0.673279,up
188847,-7.878906,5.574219,0.527344,-0.154297,-0.087891,-0.154297,0.24762,-0.411743,0.561462,0.673706,up
188852,-7.878906,5.457031,0.566406,-0.154297,-0.087891,-0.154297,0.247803,-0.411926,0.560913,0.674011,up
188857,-7.847656,5.417969,0.527344,-0.154297,-0.087891,-0.154297,0.247986,-0.412109,0.560364,0.674255,up
188862,-7.917969,5.382812,0.566406,-0.25,-0.119141,-0.162109,0.248169,-0.412292,0.559692,0.674683,up
188867,-7.878906,5.417969,0.605469,-0.25,-0.119141,-0.162109,0.248352,-0.412476,0.559021,0.675049,up
188872,-7.917969,5.34375,0.679687,-0.25,-0.119141,-0.162109,0.248535,-0.41272,0.55835,0.675354,up
188877,-7.917969,5.34375,0.679687,-0.248047,-0.117188,-0.1875,0.248779,-0.412903,0.557617,0.675781,up
188882,-7.996094,5.382812,0.679687,-0.248047,-0.117188,-0.1875,0.248962,-0.413147,0.557068,0.676025,up
188887,-8.03125,5.34375,0.679687,-0.228516,-0.121094,-0.199219,0.249268,-0.413391,0.556274,0.676392,up
188892,-8.035156,5.34375,0.757812,-0.228516,-0.121094,-0.199219,0.249512,-0.413574,0.555725,0.676636,up
188898,-8.109375,5.34375,0.796875,-0.228516,-0.121094,-0.199219,0.249878,-0.413818,0.555054,0.676941,up
188903,-8.148438,5.34375,0.796875,-0.175781,-0.142578,-0.205078,0.250244,-0.414001,0.554382,0.677246,up
188908,-8.1875,5.417969,0.871094,-0.175781,-0.142578,-0.205078,0.250549,-0.414124,0.553894,0.67749,up
188914,-8.1875,5.496094,0.871094,-0.175781,-0.142578,-0.205078,0.250977,-0.414185,0.553284,0.677734,up
188920,-8.1875,5.457031,0.871094,-0.162109,-0.189453,-0.191406,0.250977,-0.414185,0.553284,0.677734,up
188926,-8.152344,5.417969,0.871094,-0.15625,-0.210937,-0.185547,0.250977,-0.414185,0.553284,0.677734,up
188931,-8.152344,5.382812,0.871094,-0.169922,-0.214844,-0.183594,0.252686,-0.414246,0.550903,0.679016,up
188936,-8.152344,5.382812,0.835937,-0.169922,-0.214844,-0.183594,0.252686,-0.414246,0.550903,0.679016,up
188941,-8.1875,5.34375,0.835937,-0.189453,-0.246094,-0.171875,0.25354,-0.414185,0.549622,0.67981,up
188946,-8.109375,5.265625,0.835937,-0.189453,-0.246094,-0.171875,0.25354,-0.414185,0.549622,0.67981,up
188951,-8.148438,5.304687,0.871094,-0.189453,-0.246094,-0.171875,0.253967,-0.414124,0.548889,0.680237,up
188957,-8.109375,5.265625,0.871094,-0.208984,-0.261719,-0.175781,0.253967,-0.414124,0.548889,0.680237,up
188962,-8.109375,5.304687,0.835937,-0.208984,-0.261719,-0.175781,0.254822,-0.414001,0.547485,0.681152,up
188967,-8.109375,5.304687,0.835937,-0.193359,-0.263672,-0.193359,0.255798,-0.413818,0.546082,0.682007,up
188972,-8.191406,5.265625,0.910156,-0.177734,-0.277344,-0.197266,0.255798,-0.413818,0.546082,0.682007,up
188977,-8.191406,5.265625,0.871094,-0.177734,-0.277344,-0.197266,0.256775,-0.413635,0.544739,0.6828,up
188983,-8.226563,5.191406,0.949219,-0.177734,-0.277344,-0.197266,0.257324,-0.413574,0.544006,0.683228,up
188988,-8.226563,5.152344,0.988281,-0.179687,-0.283203,-0.212891,0.257874,-0.413513,0.543335,0.683594,up
188993,-8.191406,5.074219,1.027344,-0.166016,-0.292969,-0.220703,0.257874,-0.413513,0.543335,0.683594,up
188998,-8.1875,4.960937,0.988281,-0.162109,-0.289063,-0.244141,0.257874,-0.413513,0.543335,0.683594,up
189004,-8.152344,4.769531,1.027344,-0.162109,-0.289063,-0.244141,0.259705,-0.413269,0.541199,0.684753,up
189010,-8.148438,4.730469,1.0625,-0.171875,-0.267578,-0.28125,0.259705,-0.413269,0.541199,0.684753,up
189015,-8.1875,4.578125,1.0625,-0.175781,-0.257813,-0.291016,0.259705,-0.413269,0.541199,0.684753,up
189020,-8.1875,4.578125,0.988281,-0.175781,-0.257813,-0.291016,0.261719,-0.413452,0.53894,0.685669,up
189025,-8.226563,4.652344,0.871094,-0.126953,-0.212891,-0.324219,0.261719,-0.413452,0.53894,0.685669,up
189030,-8.257813,4.652344,0.796875,-0.078125,-0.205078,-0.318359,0.261719,-0.413452,0.53894,0.685669,up
189036,-8.261719,4.769531,0.757812,-0.078125,-0.205078,-0.318359,0.263916,-0.413818,0.537048,0.686096,up
189042,-8.261719,4.84375,0.835937,-0.078125,-0.205078,-0.318359,0.265686,-0.413879,0.536377,0.685852,up
189047,-8.300781,4.960937,0.796875,-0.078125,-0.205078,-0.318359,0.265686,-0.413879,0.536377,0.685852,up
189052,-8.257813,5.074219,0.910156,0.296875,-0.162109,-0.304688,0.2677,-0.413757,0.53656,0.685059,up
189057,-8.457031,5.496094,0.910156,0.296875,-0.162109,-0.304688,0.26886,-0.413574,0.536926,0.684448,up
189062,-8.53125,5.574219,0.871094,0.296875,-0.162109,-0.304688,0.26886,-0.413574,0.536926,0.684448,up
189067,-8.574219,5.609375,0.871094,0.556641,-0.152344,-0.294922,0.271423,-0.413086,0.537964,0.682861,up
189072,-8.574219,5.800781,0.910156,0.556641,-0.152344,-0.294922,0.272827,-0.412781,0.538452,0.682068,up
189077,-8.570313,5.765625,0.949219,0.556641,-0.152344,-0.294922,0.27417,-0.412537,0.538879,0.681396,up
189082,-8.609375,5.800781,1.027344,0.556641,-0.152344,-0.294922,0.27417,-0.412537,0.538879,0.681396,up
189087,-8.574219,5.800781,1.027344,0.339844,-0.257813,-0.376953,0.276855,-0.41217,0.538879,0.680481,up
189092,-8.574219,5.648437,1.0625,0.339844,-0.257813,-0.376953,0.278015,-0.41217,0.538452,0.680359,up
189097,-8.53125,5.609375,1.027344,0.339844,-0.257813,-0.376953,0.279053,-0.412231,0.537598,0.680603,up
189102,-8.457031,5.496094,1.027344,0.339844,-0.257813,-0.376953,0.279053,-0.412231,0.537598,0.680603,up
189107,-8.339844,5.226562,1.0625,-0.421875,-0.394531,-0.419922,0.279053,-0.412231,0.537598,0.680603,up
189112,-8.296875,5.152344,1.027344,-0.421875,-0.394531,-0.419922,0.281372,-0.412781,0.532898,0.682983,up
189117,-8.261719,5.035156,1.0625,-0.421875,-0.394531,-0.419922,0.281372,-0.412781,0.532898,0.682983,up
189122,-8.191406,4.921875,0.988281,-0.771484,-0.451172,-0.400391,0.282349,-0.413391,0.52887,0.685364,up
189127,-8.113281,4.769531,1.0625,-0.771484,-0.451172,-0.400391,0.282349,-0.413391,0.52887,0.685364,up
189132,-7.996094,4.691406,1.027344,-0.755859,-0.433594,-0.324219,0.282715,-0.413635,0.526794,0.686584,up
189137,-7.875,4.613281,1.101563,-0.755859,-0.433594,-0.324219,0.283447,-0.414062,0.52301,0.689026,up
189142,-7.847656,4.5,1.0625,-0.755859,-0.433594,-0.324219,0.283447,-0.414062,0.52301,0.689026,up
189147,-7.847656,4.460937,1.0625,-0.755859,-0.433594,-0.324219,0.28418,-0.414124,0.520081,0.690796,up
189152,-7.765625,4.421875,1.140625,-0.189453,-0.292969,-0.167969,0.28418,-0.414124,0.520081,0.690796,up
189157,-7.726562,4.421875,1.101563,-0.189453,-0.292969,-0.167969,0.285095,-0.413879,0.518677,0.691711,up
189162,-7.765625,4.460937,1.0625,-0.189453,-0.292969,-0.167969,0.285095,-0.413879,0.518677,0.691711,up
189167,-7.765625,4.5,1.101563,0.171875,-0.142578,-0.068359,0.285645,-0.413574,0.518433,0.691833,up
189172,-7.84375,4.539062,1.140625,0.171875,-0.142578,-0.068359,0.286133,-0.413269,0.518433,0.691772,up
189177,-7.878906,4.578125,1.179688,0.171875,-0.142578,-0.068359,0.286621,-0.413025,0.518616,0.691589,up
189182,-7.917969,4.613281,1.140625,0.279297,-0.048828,-0.011719,0.286621,-0.413025,0.518616,0.691589,up
189187,-8.03125,4.808594,1.179688,0.279297,-0.048828,-0.011719,0.287354,-0.412415,0.519348,0.691101,up
189192,-8.035156,4.882812,1.257813,0.232422,-0.037109,-0.037109,0.287781,-0.41217,0.519836,0.690735,up
189197,-8.074219,4.921875,1.21875,0.232422,-0.037109,-0.037109,0.288147,-0.411926,0.520203,0.69043,up
189202,-8.152344,4.960937,1.21875,0.232422,-0.037109,-0.037109,0.288696,-0.411743,0.520508,0.690063,up
189207,-8.113281,4.960937,1.292969,0.232422,-0.037109,-0.037109,0.288696,-0.411743,0.520508,0.690063,up
189212,-8.035156,4.882812,1.292969,-0.021484,-0.058594,-0.111328,0.289185,-0.411804,0.520142,0.690063,up
189217,-7.992187,4.769531,1.332031,-0.021484,-0.058594,-0.111328,0.289185,-0.411804,0.520142,0.690063,up
189223,-7.957031,4.730469,1.257813,-0.236328,-0.125,-0.173828,0.289185,-0.411804,0.520142,0.690063,up
189228,-7.84375,4.691406,1.292969,-0.236328,-0.125,-0.173828,0.289856,-0.412292,0.518311,0.690918,up
189234,-7.730469,4.578125,1.292969,-0.236328,-0.125,-0.173828,0.2901,-0.412476,0.517578,0.691223,up
189239,-7.652344,4.386719,1.292969,-0.236328,-0.125,-0.173828,0.290344,-0.412659,0.516724,0.69165,up
189244,-7.652344,4.347656,1.332031,-0.283203,-0.1875,-0.203125,0.290344,-0.412659,0.516724,0.69165,up
189249,-7.609375,4.308594,1.371094,-0.257813,-0.201172,-0.197266,0.290344,-0.412659,0.516724,0.69165,up
189255,-7.570312,4.230469,1.332031,-0.257813,-0.201172,-0.197266,0.29126,-0.413025,0.514282,0.692871,up
189261,-7.6875,4.230469,1.371094,-0.257813,-0.201172,-0.197266,0.29126,-0.413025,0.514282,0.692871,up
189267,-7.730469,4.308594,1.410156,-0.03125,-0.189453,-0.164062,0.29126,-0.413025,0.514282,0.692871,up
189272,-7.917969,4.460937,1.449219,0.013672,-0.199219,-0.177734,0.292542,-0.412964,0.512634,0.693604,up
189277,-7.957031,4.539062,1.449219,0.013672,-0.199219,-0.177734,0.29364,-0.412659,0.512024,0.693787,up
189282,-8.074219,4.578125,1.449219,0.013672,-0.199219,-0.177734,0.29364,-0.412659,0.512024,0.693787,up
189287,-8.113281,4.691406,1.523438,0.029297,-0.232422,-0.199219,0.295044,-0.412354,0.511353,0.693909,up
189292,-8.1875,4.730469,1.523438,0.029297,-0.232422,-0.199219,0.295044,-0.412354,0.511353,0.693909,up
189297,-8.226563,4.691406,1.523438,0.029297,-0.232422,-0.199219,0.295837,-0.412231,0.510864,0.69397,up
189303,-8.230469,4.652344,1.484375,-0.082031,-0.273438,-0.3125,0.297424,-0.412109,0.509521,0.694336,up
189308,-8.1875,4.539062,1.5625,-0.082031,-0.273438,-0.3125,0.298218,-0.41217,0.508606,0.694641,up
189313,-8.152344,4.5,1.601563,-0.082031,-0.273438,-0.3125,0.299072,-0.412354,0.507202,0.695129,up
189318,-8.1875,4.347656,1.675781,-0.484375,-0.404297,-0.435547,0.299072,-0.412354,0.507202,0.695129,up
189323,-8.1875,4.230469,1.675781,-0.484375,-0.404297,-0.435547,0.299805,-0.412476,0.505859,0.69574,up
189329,-8.226563,4.078125,1.832031,-0.484375,-0.404297,-0.435547,0.301331,-0.412964,0.50238,0.697327,up
189335,-8.335938,4.117187,1.984375,-0.654297,-0.521484,-0.492187,0.301331,-0.412964,0.50238,0.697327,up
189341,-8.417969,4.308594,2.097656,-0.628906,-0.599609,-0.482422,0.30304,-0.413269,0.498291,0.699341,up
189347,-8.496094,4.386719,2.175781,-0.628906,-0.599609,-0.482422,0.305237,-0.413086,0.494141,0.701416,up
189352,-8.574219,4.539062,2.175781,-0.628906,-0.599609,-0.482422,0.305237,-0.413086,0.494141,0.701416,up
189357,-8.679688,4.730469,2.25,-0.525391,-0.912109,-0.636719,0.305237,-0.413086,0.494141,0.701416,up
189362,-8.679688,4.730469,2.25,-0.525391,-0.912109,-0.636719,0.308228,-0.412476,0.489746,0.703613,up
189367,-8.875,5.035156,2.289063,-0.552734,-0.990234,-0.685547,0.309998,-0.411987,0.487305,0.704773,up
189373,-9.105469,5.382812,2.136719,-0.552734,-0.990234,-0.685547,0.314026,-0.411072,0.48175,0.707336,up
189379,-9.101563,5.34375,1.984375,-0.552734,-0.990234,-0.685547,0.31604,-0.410706,0.478638,0.708801,up
189384,-8.992188,5.226562,2.058594,-0.552734,-0.990234,-0.685547,0.318054,-0.4104,0.474854,0.710571,up
189389,-8.800781,4.84375,2.25,-0.552734,-0.990234,-0.685547,0.320007,-0.410217,0.470276,0.71283,up
189394,-8.800781,4.652344,2.367188,-1.775391,-1.396484,-1.080078,0.320007,-0.410217,0.470276,0.71283,up
189399,-8.878906,4.460937,2.480469,-1.775391,-1.396484,-1.080078,0.323486,-0.410583,0.459473,0.718079,up
189405,-9.335938,3.695313,2.597656,-1.775391,-1.396484,-1.080078,0.324951,-0.411072,0.453369,0.721008,up
189412,-9.523438,3.425781,2.636719,-2.421875,-1.439453,-1.267578,0.324951,-0.411072,0.453369,0.721008,up
189417,-9.988281,3.390625,2.828125,-2.501953,-1.511719,-1.359375,0.329529,-0.413208,0.432373,0.73053,up
189422,-10.105469,3.542969,3.210938,-2.546875,-1.818359,-1.634766,0.329529,-0.413208,0.432373,0.73053,up
189428,-10.066406,3.695313,3.476563,-2.507813,-2.019531,-1.800781,0.331604,-0.413757,0.424805,0.733765,up
189433,-10.292969,3.65625,3.976563,-2.507813,-2.019531,-1.800781,0.334412,-0.414185,0.416016,0.737244,up
189438,-10.144531,3.695313,4.050781,-2.507813,-2.019531,-1.800781,0.34082,-0.414001,0.399719,0.743469,up
189443,-9.832031,3.695313,4.050781,-2.507813,-2.019531,-1.800781,0.345276,-0.413391,0.389832,0.746948,up
189448,-9.417969,3.542969,3.976563,-2.425781,-2.828125,-2.310547,0.345276,-0.413391,0.389832,0.746948,up
189453,-8.761719,3.351563,3.976563,-2.425781,-2.828125,-2.310547,0.353821,-0.41156,0.371765,0.753174,up
189458,-8.457031,3.199219,3.824219,-2.425781,-2.828125,-2.310547,0.358704,-0.410217,0.361145,0.756714,up
189463,-8.457031,3.199219,3.824219,-2.425781,-2.828125,-2.310547,0.358704,-0.410217,0.361145,0.756714,up
189468,-8.113281,2.816406,3.554688,-2.623047,-2.792969,-2.205078,0.358704,-0.410217,0.361145,0.756714,up
189473,-7.726562,1.742188,3.554688,-2.751953,-2.740234,-2.119141,0.366211,-0.408264,0.342529,0.762817,up
189478,-7.726562,1.742188,3.554688,-2.820313,-2.615234,-2.046875,0.369568,-0.407471,0.332703,0.76593,up
189483,-7.152344,0.9375,3.632813,-2.820313,-2.615234,-2.046875,0.375732,-0.406494,0.3125,0.771973,up
189488,-7.304687,0.632812,3.898438,-2.820313,-2.615234,-2.046875,0.375732,-0.406494,0.3125,0.771973,up
189493,-7.386719,0.441406,3.746094,-2.820313,-2.615234,-2.046875,0.380859,-0.406616,0.294495,0.776428,up
189498,-7.34375,0.285156,3.632813,-2.820313,-2.615234,-2.046875,0.380859,-0.406616,0.294495,0.776428,up
189503,-7.386719,0.171875,3.632813,-2.199219,-1.580078,-1.878906,0.385803,-0.407227,0.279907,0.779114,up
189508,-7.914062,0.285156,4.398437,-2.199219,-1.580078,-1.878906,0.388855,-0.407349,0.273254,0.779846,up
189513,-8.257813,0.441406,4.703125,-1.021484,-1.195313,-1.939453,0.388855,-0.407349,0.273254,0.779846,up
189518,-8.453125,0.476562,4.855469,-1.021484,-1.195313,-1.939453,0.392395,-0.407349,0.267273,0.780151,up
189523,-8.761719,0.632812,5.085937,-0.65625,-1.097656,-2.029297,0.392395,-0.407349,0.267273,0.780151,up
189528,-8.796875,0.785156,5.203125,-0.65625,-1.097656,-2.029297,0.405334,-0.406311,0.25415,0.778442,up
189533,-8.683594,0.9375,5.316406,-0.222656,-1.292969,-2.382813,0.405334,-0.406311,0.25415,0.778442,up
189538,-8.640625,0.707031,5.277344,-0.222656,-1.292969,-2.382813,0.410522,-0.405579,0.249939,0.777527,up
189543,-8.640625,0.707031,5.277344,-0.222656,-1.292969,-2.382813,0.415527,-0.404846,0.24585,0.77655,up
189548,-8.300781,1.128906,5.011719,-0.222656,-1.292969,-2.382813,0.415527,-0.404846,0.24585,0.77655,up
189553,-8.109375,1.015625,5.203125,-0.851562,-1.410156,-2.724609,0.415527,-0.404846,0.24585,0.77655,up
189558,-7.875,0.824219,5.316406,-1.207031,-1.404297,-2.779297,0.435669,-0.404358,0.222534,0.772766,up
189563,-7.304687,0.632812,5.507812,-1.207031,-1.404297,-2.779297,0.440002,-0.405518,0.214355,0.772034,up
189568,-7.1875,0.09375,5.546875,-2.625,-1.050781,-2.818359,0.440002,-0.405518,0.214355,0.772034,up
189573,-7.074219,-0.363281,5.585937,-3.064453,-0.912109,-2.753906,0.443848,-0.407532,0.205078,0.771301,up
189578,-7.230469,-0.519531,5.851562,-3.064453,-0.912109,-2.753906,0.446899,-0.410278,0.195374,0.770569,up
189583,-7.074219,-1.015625,5.699219,-3.064453,-0.912109,-2.753906,0.450989,-0.416626,0.176697,0.769287,up
189588,-7.152344,-1.054688,5.660156,-3.064453,-0.912109,-2.753906,0.450989,-0.416626,0.176697,0.769287,up
189593,-7.1875,-0.976562,5.929687,-3.275391,-0.509766,-2.357422,0.453735,-0.424072,0.157776,0.7677,up
189598,-7.53125,-1.515625,6.617187,-2.904297,-0.21875,-1.917969,0.453735,-0.424072,0.157776,0.7677,up
189603,-7.53125,-1.515625,6.617187,-2.904297,-0.21875,-1.917969,0.455139,-0.431091,0.142456,0.765991,up
189608,-8.226563,-2.050781,7.15625,-2.904297,-0.21875,-1.917969,0.455139,-0.431091,0.142456,0.765991,up
189613,-8.644531,-1.898438,7.421875,-1.931641,0.210937,-1.488281,0.456543,-0.437256,0.132202,0.763489,up
189618,-9.375,-1.515625,8.035156,-1.931641,0.210937,-1.488281,0.456543,-0.437256,0.132202,0.763489,up
189623,-9.375,-1.515625,8.035156,-0.816406,0.458984,-1.076172,0.457458,-0.439697,0.129211,0.762024,up
189629,-9.832031,-1.324219,8.382813,-0.322266,0.572266,-0.880859,0.457458,-0.439697,0.129211,0.762024,up
189634,-11.558594,-0.632812,8.957031,0.027344,0.666016,-0.701172,0.459656,-0.443176,0.127197,0.759033,up
189639,-11.980469,-0.25,9.183594,0.265625,0.703125,-0.503906,0.461731,-0.445496,0.128784,0.756165,up
189645,-12.9375,-0.136719,9.683594,0.265625,0.703125,-0.503906,0.462463,-0.446106,0.130676,0.755005,up
189650,-13.394531,-0.328125,9.914063,0.677734,0.769531,0.351563,0.462463,-0.446106,0.130676,0.755005,up
189655,-14.316406,-1.167969,10.296875,0.677734,0.769531,0.351563,0.462036,-0.447266,0.135803,0.753662,up
189660,-14.582031,-1.207031,10.144531,0.603516,1.121094,1.140625,0.460571,-0.448181,0.139282,0.753418,up
189667,-14.851563,-1.09375,9.683594,0.677734,1.414063,1.611328,0.460571,-0.448181,0.139282,0.753418,up
189672,-15.847656,-0.328125,8.992188,1.095703,2.310547,2.791016,0.460571,-0.448181,0.139282,0.753418,up
189677,-16.503906,0.632812,8.765625,1.095703,2.310547,2.791016,0.450623,-0.452637,0.155823,0.75354,up
189682,-17.230469,1.550781,8.417969,1.503906,2.953125,3.513672,0.450623,-0.452637,0.155823,0.75354,up
189688,-19.101562,4.195312,7.230469,2.03125,3.845703,4.345703,0.450623,-0.452637,0.155823,0.75354,up
189694,-20.410156,6.261719,6.390625,3.261719,6.044922,6.513672,0.429871,-0.460999,0.190979,0.752441,up
189699,-22.097656,8.101563,5.699219,4.0,7.201172,7.757812,0.418274,-0.465637,0.21106,0.750793,up
189704,-24.773437,12.738281,4.128906,4.0,7.201172,7.757812,0.389771,-0.47522,0.259827,0.744812,up
189709,-26.003906,15.953125,2.941406,4.0,7.201172,7.757812,0.373291,-0.479126,0.287598,0.74054,up
189714,-27.796875,19.09375,2.097656,6.880859,9.757813,12.583984,0.350525,-0.482056,0.324829,0.734375,up
189719,-29.90625,22.429687,1.21875,7.744141,10.111328,14.519531,0.328125,-0.482361,0.359741,0.72821,up
189724,-34.042969,29.628906,-2.269531,7.744141,10.111328,14.519531,0.328125,-0.482361,0.359741,0.72821,up
189729,-34.042969,29.628906,-2.269531,8.369141,10.416016,16.523437,0.300232,-0.479858,0.400574,0.72052,up
189734,-34.042969,29.628906,-2.269531,7.90625,10.621094,20.193359,0.268372,-0.474182,0.443481,0.71167,up
189739,-41.78125,36.371094,-11.808594,6.625,10.496094,21.462891,0.230652,-0.464905,0.488342,0.701538,up
189744,-44.199219,33.691406,-13.875,6.625,10.496094,21.462891,0.143372,-0.437744,0.569702,0.680603,up
189749,-39.25,23.539062,-14.027344,6.625,10.496094,21.462891,0.143372,-0.437744,0.569702,0.680603,up
189754,-39.25,23.539062,-14.027344,2.53125,9.931641,23.580078,0.044922,-0.40033,0.63446,0.659729,up
189760,-37.183594,17.523437,-10.273438,2.53125,9.931641,23.580078,0.008484,0.377441,-0.662292,-0.647217,up
189766,-31.703125,3.847656,-5.984375,2.53125,9.931641,23.580078,0.059204,0.353943,-0.685669,-0.633301,up
189771,-27.796875,-2.664063,-4.488281,2.083984,8.667969,22.017578,0.059204,0.353943,-0.685669,-0.633301,up
189776,-22.742187,-5.6875,-3.339844,2.628906,7.636719,21.322266,0.059204,0.353943,-0.685669,-0.633301,up
189781,-11.132813,-3.773438,3.324219,2.628906,7.636719,21.322266,0.195312,0.276917,-0.740845,-0.579956,up
189786,-8.835938,-4.308594,10.945313,4.486328,4.640625,19.410156,0.195312,0.276917,-0.740845,-0.579956,up
189792,-7.496094,-8.90625,19.457031,5.757812,3.935547,18.017578,0.195312,0.276917,-0.740845,-0.579956,up
189797,-5.199219,-14.613281,24.660156,5.757812,3.935547,18.017578,0.29126,0.198242,-0.786865,-0.506653,up
189803,-8.492188,-7.871094,12.175781,5.757812,3.935547,18.017578,0.345337,0.167358,-0.806702,-0.449341,up
189808,-12.132813,-3.46875,10.335938,5.757812,3.935547,18.017578,0.345337,0.167358,-0.806702,-0.449341,up
189813,-15.964844,-2.164063,11.367188,7.046875,5.683594,10.607422,0.385498,0.149231,-0.819702,-0.396484,up
189818,-18.835937,-3.390625,15.160156,7.046875,5.683594,10.607422,0.385498,0.149231,-0.819702,-0.396484,up
189823,-16.269531,-4.386719,16.042969,7.046875,5.683594,10.607422,0.397888,0.145569,-0.826355,-0.371033,up
189829,-13.933594,-5.382812,16.542969,7.480469,1.882813,3.021484,0.406311,0.151062,-0.837769,-0.33197,up
189834,-10.601563,-6.683594,15.816406,7.480469,1.882813,3.021484,0.406128,0.158997,-0.842407,-0.316406,up
189839,-9.488281,-7.03125,16.078125,7.480469,1.882813,3.021484,0.40509,0.167542,-0.844971,-0.306396,up
189844,-8.800781,-7.070312,13.941406,0.740234,0.933594,-2.521484,0.40509,0.167542,-0.844971,-0.306396,up
189849,-8.492188,-8.601563,8.875,0.740234,0.933594,-2.521484,0.404358,0.175842,-0.84491,-0.302856,up
189855,-6.5,-6.992187,8.308594,0.740234,0.933594,-2.521484,0.40387,0.182373,-0.839172,-0.315369,up
189860,-5.660156,-5.0,7.804687,-5.644531,-0.669922,-1.527344,0.403564,0.180908,-0.834961,-0.327454,up
189865,-4.585937,-3.351563,7.5,-7.595703,-0.921875,-0.835937,0.403564,0.180908,-0.834961,-0.327454,up
189870,-2.824219,-2.585938,7.269531,-7.595703,-0.921875,-0.835937,0.405029,0.167419,-0.822937,-0.361511,up
189876,-1.367188,-1.015625,6.503906,-7.595703,-0.921875,-0.835937,0.407227,0.155151,-0.814331,-0.383362,up
189882,-1.445313,0.019531,5.695312,-12.740234,-1.085938,0.939453,0.407227,0.155151,-0.814331,-0.383362,up
189887,1.429688,0.746094,2.9375,-11.806641,-1.123047,0.734375,0.407227,0.155151,-0.814331,-0.383362,up
189893,2.6875,0.210937,1.640625,-9.691406,-1.125,0.472656,0.407227,0.155151,-0.814331,-0.383362,up
189898,3.652344,0.515625,-0.160156,-6.740234,-1.074219,0.21875,0.407227,0.155151,-0.814331,-0.383362,up
189904,3.496094,3.582031,-1.921875,-3.470703,-1.019531,0.042969,0.407227,0.155151,-0.814331,-0.383362,up
189909,3.730469,3.65625,-1.464844,-3.470703,-1.019531,0.042969,0.409424,0.089539,-0.769043,-0.482605,up
189914,4.417969,3.007813,-0.8125,2.826172,-1.158203,-0.615234,0.409424,0.089539,-0.769043,-0.482605,up
189919,4.839844,3.042969,-0.507812,2.826172,-1.158203,-0.615234,0.402832,0.094788,-0.777405,-0.473633,up
189924,4.875,3.621094,-0.699219,2.826172,-1.158203,-0.615234,0.400757,0.100098,-0.782471,-0.465942,up
189929,4.53125,5.0,-2.804688,2.826172,-1.158203,-0.615234,0.399048,0.108459,-0.788879,-0.45459,up
189934,4.53125,5.496094,-4.335937,5.728516,0.478516,-0.921875,0.399048,0.108459,-0.788879,-0.45459,up
189939,4.53125,5.992187,-5.675781,5.728516,0.478516,-0.921875,0.395386,0.123352,-0.799561,-0.434875,up
189944,4.417969,6.835937,-6.480469,5.728516,0.478516,-0.921875,0.39209,0.12915,-0.804382,-0.427307,up
189949,5.296875,7.832031,-6.253906,2.181641,-1.335938,-0.927734,0.39209,0.12915,-0.804382,-0.427307,up
189954,6.101562,8.214844,-5.027344,0.890625,-1.423828,-0.810547,0.387756,0.132996,-0.808411,-0.422485,up
189959,6.5625,8.59375,-3.839844,0.890625,-1.423828,-0.810547,0.380249,0.135376,-0.812317,-0.420959,up
189964,7.019531,9.058594,-3.53125,0.890625,-1.423828,-0.810547,0.378235,0.135437,-0.812256,-0.422974,up
189969,6.828125,9.675781,-4.683594,0.890625,-1.423828,-0.810547,0.378235,0.135437,-0.812256,-0.422974,up
189974,6.828125,9.859375,-5.066406,-1.943359,-0.248047,-0.548828,0.376953,0.133362,-0.808411,-0.431946,up
189979,6.5625,9.941406,-4.757812,-1.943359,-0.248047,-0.548828,0.376953,0.133362,-0.808411,-0.431946,up
189984,6.371094,9.824219,-4.453125,-3.546875,-0.589844,-0.392578,0.375854,0.126953,-0.801392,-0.447693,up
189989,6.445312,9.675781,-4.296875,-3.546875,-0.589844,-0.392578,0.375854,0.126953,-0.801392,-0.447693,up
189994,6.371094,9.632813,-4.296875,-3.617188,-0.902344,-0.457031,0.373535,0.120483,-0.795044,-0.462463,up
189999,6.179687,9.476563,-4.453125,-3.617188,-0.902344,-0.457031,0.371765,0.118042,-0.792664,-0.468506,up
190004,6.140625,9.402344,-4.414062,-3.617188,-0.902344,-0.457031,0.369507,0.116272,-0.791138,-0.473328,up
190009,6.0625,9.214844,-4.375,-0.595703,-0.912109,-0.626953,0.369507,0.116272,-0.791138,-0.473328,up
190014,5.71875,9.097656,-3.992188,-0.595703,-0.912109,-0.626953,0.367126,0.115479,-0.790649,-0.476257,up
190019,5.757812,8.871094,-3.914063,-0.595703,-0.912109,-0.626953,0.36261,0.115906,-0.79187,-0.477539,up
190024,5.605469,8.945313,-3.6875,-0.595703,-0.912109,-0.626953,0.360413,0.116821,-0.793274,-0.476562,up
190029,5.375,8.832031,-3.800781,-0.595703,-0.912109,-0.626953,0.360413,0.116821,-0.793274,-0.476562,up
190034,5.222656,8.488281,-3.878906,1.269531,-0.466797,-0.332031,0.360413,0.116821,-0.793274,-0.476562,up
190039,4.992187,8.484375,-3.570313,1.269531,-0.466797,-0.332031,0.355713,0.120239,-0.798828,-0.470032,up
190044,4.875,8.566406,-3.457031,1.269531,-0.466797,-0.332031,0.355713,0.120239,-0.798828,-0.470032,up
190049,4.761719,8.792969,-3.417969,1.669922,-0.224609,-0.023437,0.353638,0.122681,-0.802917,-0.463867,up
190054,4.644531,8.867188,-3.1875,1.669922,-0.224609,-0.023437,0.352722,0.123779,-0.805115,-0.460449,up
190059,4.683594,8.867188,-2.882813,1.669922,-0.224609,-0.023437,0.352051,0.124451,-0.806702,-0.458069,up
190064,4.570312,8.949219,-2.574219,1.669922,-0.224609,-0.023437,0.352051,0.124451,-0.806702,-0.458069,up
190069,4.261719,8.949219,-2.421875,0.84375,-0.115234,0.203125,0.352051,0.124451,-0.806702,-0.458069,up
190074,4.1875,8.867188,-2.421875,0.275391,-0.072266,0.269531,0.35144,0.124878,-0.809021,-0.454285,up
190080,4.1875,8.828125,-2.421875,0.275391,-0.072266,0.269531,0.35144,0.124207,-0.809998,-0.452698,up
190085,4.148437,8.710938,-2.269531,0.275391,-0.072266,0.269531,0.351318,0.123474,-0.810303,-0.452515,up
190091,4.261719,8.445313,-2.152344,0.275391,-0.072266,0.269531,0.351013,0.122742,-0.810486,-0.452637,up
190096,4.300781,8.289063,-2.269531,-0.212891,-0.349609,0.132812,0.351013,0.122742,-0.810486,-0.452637,up
190102,4.300781,8.253906,-2.574219,-0.234375,-0.359375,0.082031,0.351013,0.122742,-0.810486,-0.452637,up
190107,4.417969,8.144531,-2.996094,-0.234375,-0.359375,0.082031,0.349426,0.120361,-0.81073,-0.454041,up
190112,4.570312,8.066406,-3.148438,-0.318359,-0.357422,-0.021484,0.349426,0.120361,-0.81073,-0.454041,up
190117,4.644531,7.945312,-3.1875,-0.337891,-0.373047,-0.080078,0.349426,0.120361,-0.81073,-0.454041,up
190122,4.683594,7.832031,-3.226563,-0.355469,-0.375,-0.126953,0.349426,0.120361,-0.81073,-0.454041,up
190128,4.722656,7.722656,-3.226563,-0.355469,-0.375,-0.126953,0.349426,0.120361,-0.81073,-0.454041,up
190133,4.722656,7.566406,-3.1875,-0.355469,-0.375,-0.126953,0.345703,0.11792,-0.810242,-0.458374,up
190139,4.722656,7.488281,-3.109375,-0.261719,-0.255859,-0.208984,0.345703,0.11792,-0.810242,-0.458374,up
190145,4.722656,7.449219,-2.882813,-0.261719,-0.255859,-0.208984,0.343567,0.117554,-0.809814,-0.460815,up
190150,4.683594,7.40625,-2.765625,-0.121094,-0.214844,-0.162109,0.342896,0.117554,-0.809753,-0.461426,up
190156,4.53125,7.679687,-2.804688,-0.121094,-0.214844,-0.162109,0.342285,0.117493,-0.809814,-0.461792,up
190161,4.492187,7.90625,-2.804688,-0.121094,-0.214844,-0.162109,0.341797,0.117493,-0.809875,-0.462036,up
190167,4.492187,8.023438,-2.882813,0.029297,-0.207031,-0.044922,0.341797,0.117493,-0.809875,-0.462036,up
190173,4.53125,8.144531,-3.109375,0.091797,-0.185547,-0.007813,0.341797,0.117493,-0.809875,-0.462036,up
190178,4.53125,8.253906,-3.109375,0.132812,-0.166016,0.025391,0.341797,0.117493,-0.809875,-0.462036,up
190183,4.683594,8.328125,-3.226563,0.132812,-0.166016,0.025391,0.341797,0.117493,-0.809875,-0.462036,up
190189,4.644531,8.371094,-3.300781,0.224609,-0.162109,0.066406,0.341797,0.117493,-0.809875,-0.462036,up
190194,4.683594,8.445313,-3.300781,0.244141,-0.154297,0.078125,0.33905,0.116699,-0.812134,-0.460266,up
190199,4.722656,8.527344,-3.378906,0.244141,-0.154297,0.078125,0.33905,0.116699,-0.812134,-0.460266,up
190205,4.761719,8.527344,-3.417969,0.15625,-0.177734,0.074219,0.338745,0.116577,-0.812561,-0.459778,up
190210,4.761719,8.597656,-3.496094,0.15625,-0.177734,0.074219,0.338074,0.11615,-0.813232,-0.459167,up
190215,4.800781,8.566406,-3.457031,0.15625,-0.177734,0.074219,0.33783,0.115906,-0.813416,-0.459106,up
190221,4.835937,8.25,-3.457031,0.15625,-0.177734,0.074219,0.337585,0.115479,-0.813538,-0.459229,up
190226,4.835937,8.179688,-3.417969,-0.142578,-0.138672,0.0625,0.337341,0.115051,-0.813538,-0.459473,up
190231,4.800781,7.988281,-3.457031,-0.142578,-0.138672,0.0625,0.337219,0.114685,-0.813477,-0.459717,up
190237,4.800781,7.910156,-3.457031,-0.142578,-0.138672,0.0625,0.337097,0.114258,-0.813416,-0.460022,up
190243,4.800781,7.945312,-3.496094,-0.167969,-0.103516,0.082031,0.337097,0.114258,-0.813416,-0.460022,up
190248,4.761719,7.988281,-3.53125,-0.154297,-0.089844,0.080078,0.337097,0.114258,-0.813416,-0.460022,up
190253,4.835937,8.023438,-3.496094,-0.154297,-0.089844,0.080078,0.337097,0.114258,-0.813416,-0.460022,up
190258,4.835937,7.988281,-3.570313,-0.154297,-0.089844,0.080078,0.336914,0.112793,-0.81311,-0.461121,up
190263,4.835937,7.949219,-3.609375,-0.033203,-0.001953,0.066406,0.336914,0.112793,-0.81311,-0.461121,up
190268,4.835937,7.984375,-3.609375,-0.033203,-0.001953,0.066406,0.337036,0.112488,-0.81311,-0.461182,up
190273,4.835937,8.214844,-3.609375,-0.033203,-0.001953,0.066406,0.337036,0.112488,-0.81311,-0.461182,up
190278,4.761719,8.253906,-3.457031,-0.033203,-0.001953,0.066406,0.337036,0.112549,-0.813293,-0.460754,up
190283,4.761719,8.183594,-3.417969,0.169922,-0.019531,0.005859,0.337036,0.112549,-0.813293,-0.460754,up
190288,4.761719,8.214844,-3.417969,0.169922,-0.019531,0.005859,0.336853,0.112793,-0.813721,-0.460083,up
190293,4.644531,8.210938,-3.378906,0.158203,-0.03125,0.029297,0.336853,0.112793,-0.813721,-0.460083,up
190298,4.609375,8.144531,-3.265625,0.105469,-0.041016,0.042969,0.336853,0.112793,-0.813721,-0.460083,up
190303,4.570312,8.0625,-3.226563,0.076172,-0.066406,0.050781,0.336853,0.112793,-0.813721,-0.460083,up
190309,4.644531,7.984375,-3.109375,0.076172,-0.066406,0.050781,0.336182,0.112549,-0.814575,-0.459106,up
