timestamp,ax,ay,az,gx,gy,gz,qw,qx,qy,qz,label
214734,-8.972656,3.054688,1.296875,-0.220703,0.029297,0.294922,0.384399,-0.389404,0.530579,0.647339,up
214739,-8.933594,3.167969,1.296875,0.0625,-0.042969,0.119141,0.384399,-0.389404,0.530579,0.647339,up
214744,-8.78125,3.4375,1.261719,0.0625,-0.042969,0.119141,0.384155,-0.38916,0.530762,0.647522,up
214750,-8.78125,3.707031,1.261719,0.0625,-0.042969,0.119141,0.384094,-0.388611,0.53125,0.647461,up
214755,-8.742188,3.820313,1.222656,0.126953,-0.025391,0.068359,0.384155,-0.388367,0.531494,0.6474,up
214760,-8.742188,3.898438,1.183594,0.097656,-0.019531,0.082031,0.384155,-0.388367,0.531494,0.6474,up
214765,-8.703125,3.9375,1.222656,0.097656,-0.019531,0.082031,0.384094,-0.387939,0.531982,0.647278,up
214770,-8.742188,3.9375,1.222656,0.097656,-0.019531,0.082031,0.384094,-0.387939,0.531982,0.647278,up
214775,-8.746094,3.9375,1.183594,-0.089844,-0.023437,0.103516,0.384094,-0.387939,0.531982,0.647278,up
214780,-8.746094,3.9375,1.183594,-0.179687,-0.029297,0.113281,0.383484,-0.387634,0.532043,0.647766,up
214785,-8.707031,3.898438,1.105469,-0.179687,-0.029297,0.113281,0.383057,-0.387634,0.531799,0.648193,up
214790,-8.707031,3.859375,1.105469,-0.339844,-0.009766,0.148437,0.382507,-0.387756,0.531372,0.648804,up
214796,-8.707031,3.820313,1.03125,-0.339844,-0.009766,0.148437,0.381958,-0.387878,0.531006,0.649353,up
214801,-8.746094,3.707031,1.03125,-0.339844,-0.009766,0.148437,0.381226,-0.388062,0.530518,0.650085,up
214806,-8.746094,3.4375,1.03125,-0.339844,-0.009766,0.148437,0.381226,-0.388062,0.530518,0.650085,up
214812,-8.820313,3.246094,1.03125,-0.458984,0.074219,0.193359,0.381226,-0.388062,0.530518,0.650085,up
214817,-8.78125,3.132813,1.105469,-0.40625,0.082031,0.171875,0.381226,-0.388062,0.530518,0.650085,up
214822,-8.664063,3.015625,1.144531,-0.40625,0.082031,0.171875,0.381226,-0.388062,0.530518,0.650085,up
214828,-8.664063,3.015625,1.183594,-0.40625,0.082031,0.171875,0.377319,-0.389343,0.528564,0.653198,up
214834,-8.625,3.09375,1.105469,-0.011719,0.089844,0.046875,0.377319,-0.389343,0.528564,0.653198,up
214839,-8.550781,3.398438,1.183594,-0.011719,0.089844,0.046875,0.376404,-0.389771,0.528687,0.653381,up
214844,-8.546875,3.515625,1.296875,0.175781,0.09375,0.023437,0.376404,-0.389771,0.528687,0.653381,up
214849,-8.585938,3.707031,1.296875,0.175781,0.09375,0.023437,0.376343,-0.389771,0.529053,0.653137,up
214854,-8.628906,3.820313,1.335938,0.244141,0.089844,0.03125,0.376343,-0.389771,0.529053,0.653137,up
214860,-8.707031,3.9375,1.335938,0.244141,0.089844,0.03125,0.376404,-0.389526,0.530518,0.652039,up
214865,-8.707031,3.9375,1.375,0.167969,0.056641,0.029297,0.376465,-0.389404,0.530945,0.651733,up
214871,-8.746094,3.9375,1.375,0.167969,0.056641,0.029297,0.376465,-0.389343,0.53125,0.651489,up
214877,-8.703125,3.898438,1.335938,-0.035156,0.017578,0.035156,0.376465,-0.389343,0.53125,0.651489,up
214882,-8.742188,3.898438,1.335938,-0.148437,0.001953,0.042969,0.376465,-0.389343,0.53125,0.651489,up
214887,-8.667969,3.859375,1.296875,-0.251953,-0.009766,0.039063,0.376465,-0.389343,0.53125,0.651489,up
214893,-8.667969,3.78125,1.296875,-0.251953,-0.009766,0.039063,0.375549,-0.389709,0.530579,0.652344,up
214898,-8.664063,3.707031,1.222656,-0.394531,-0.035156,0.060547,0.375549,-0.389709,0.530579,0.652344,up
214903,-8.625,3.667969,1.222656,-0.394531,-0.035156,0.060547,0.374695,-0.390198,0.529419,0.653503,up
214909,-8.589844,3.4375,1.183594,-0.398438,-0.025391,0.046875,0.374695,-0.390198,0.529419,0.653503,up
214914,-8.585938,3.398438,1.183594,-0.398438,-0.025391,0.046875,0.373474,-0.390991,0.52771,0.65509,up
214919,-8.507813,3.359375,1.144531,-0.398438,-0.025391,0.046875,0.373291,-0.391174,0.527344,0.655396,up
214924,-8.507813,3.398438,1.183594,-0.398438,-0.025391,0.046875,0.373291,-0.391174,0.527344,0.655396,up
214929,-8.398438,3.515625,1.183594,-0.082031,-0.009766,-0.046875,0.373291,-0.391174,0.527344,0.655396,up
214934,-8.363281,3.589844,1.183594,-0.082031,-0.009766,-0.046875,0.373413,-0.391479,0.527039,0.655396,up
214939,-8.363281,3.628906,1.144531,-0.082031,-0.009766,-0.046875,0.373413,-0.391479,0.527039,0.655396,up
214944,-8.324219,3.707031,1.105469,0.146484,0.023437,-0.078125,0.37384,-0.391479,0.527405,0.654846,up
214949,-8.398438,3.859375,1.183594,0.146484,0.023437,-0.078125,0.37384,-0.391479,0.527405,0.654846,up
214954,-8.402344,3.859375,1.261719,0.146484,0.023437,-0.078125,0.374084,-0.391479,0.52771,0.654419,up
214960,-8.441406,3.9375,1.222656,0.142578,0.046875,-0.080078,0.374512,-0.391602,0.528137,0.653809,up
214965,-8.546875,4.011719,1.144531,0.142578,0.046875,-0.080078,0.374573,-0.391785,0.528259,0.653564,up
214971,-8.546875,3.972656,1.183594,0.142578,0.046875,-0.080078,0.374634,-0.391968,0.52832,0.653381,up
214977,-8.585938,4.011719,1.222656,-0.082031,0.048828,-0.09375,0.374634,-0.392212,0.528259,0.653259,up
214983,-8.625,4.011719,1.222656,-0.134766,0.052734,-0.089844,0.374634,-0.392212,0.528259,0.653259,up
214989,-8.628906,4.050781,1.261719,-0.134766,0.052734,-0.089844,0.374634,-0.392212,0.528259,0.653259,up
214994,-8.667969,4.050781,1.222656,-0.181641,0.039063,-0.09375,0.374634,-0.392212,0.528259,0.653259,up
214999,-8.625,4.089844,1.222656,-0.177734,0.029297,-0.082031,0.374634,-0.392212,0.528259,0.653259,up
215004,-8.625,4.089844,1.222656,-0.177734,0.029297,-0.082031,0.374146,-0.393921,0.526978,0.653564,up
215009,-8.625,4.050781,1.183594,-0.177734,0.029297,-0.082031,0.373962,-0.394287,0.526733,0.653625,up
215015,-8.628906,4.089844,1.144531,-0.064453,0.0625,-0.03125,0.373962,-0.394287,0.526733,0.653625,up
215020,-8.625,4.050781,1.144531,-0.064453,0.0625,-0.03125,0.373596,-0.394958,0.526489,0.653625,up
215025,-8.585938,4.050781,1.144531,-0.001953,0.095703,-0.001953,0.373596,-0.394958,0.526489,0.653625,up
215030,-8.546875,4.089844,1.144531,-0.001953,0.095703,-0.001953,0.373291,-0.395325,0.526733,0.653381,up
215035,-8.546875,4.011719,1.144531,0.050781,0.134766,0.025391,0.373108,-0.395508,0.526978,0.653198,up
215040,-8.585938,3.898438,1.183594,0.050781,0.134766,0.025391,0.372864,-0.39563,0.527283,0.653015,up
215045,-8.628906,3.859375,1.222656,0.097656,0.158203,0.017578,0.372864,-0.39563,0.527283,0.653015,up
215050,-8.628906,3.898438,1.261719,0.097656,0.158203,0.017578,0.372559,-0.395935,0.528015,0.652405,up
215056,-8.664063,3.972656,1.296875,0.146484,0.160156,0.0,0.372437,-0.396057,0.528442,0.652039,up
215061,-8.664063,4.203125,1.335938,0.146484,0.160156,0.0,0.372314,-0.396179,0.52887,0.651672,up
215066,-8.667969,4.242187,1.296875,0.158203,0.144531,-0.007813,0.372314,-0.396179,0.52887,0.651672,up
215072,-8.742188,4.28125,1.335938,0.152344,0.136719,0.003906,0.372314,-0.396179,0.52887,0.651672,up
215078,-8.78125,4.203125,1.375,0.123047,0.119141,0.005859,0.372314,-0.396179,0.52887,0.651672,up
215083,-8.824219,4.164062,1.414063,0.095703,0.101563,0.003906,0.372314,-0.396179,0.52887,0.651672,up
215088,-8.824219,4.164062,1.414063,0.064453,0.083984,-0.009766,0.372314,-0.396179,0.52887,0.651672,up
215095,-8.78125,4.203125,1.375,0.064453,0.083984,-0.009766,0.371826,-0.396973,0.530884,0.649841,up
215100,-8.78125,4.242187,1.414063,-0.09375,0.054687,-0.0625,0.371826,-0.396973,0.530884,0.649841,up
215105,-8.742188,4.242187,1.335938,-0.150391,0.058594,-0.068359,0.371765,-0.397217,0.530823,0.649841,up
215110,-8.746094,4.28125,1.296875,-0.150391,0.058594,-0.068359,0.37146,-0.397827,0.530457,0.649902,up
215115,-8.707031,4.28125,1.296875,-0.220703,0.064453,-0.052734,0.37146,-0.397827,0.530457,0.649902,up
215120,-8.707031,4.242187,1.296875,-0.220703,0.064453,-0.052734,0.370972,-0.398621,0.529846,0.650269,up
215125,-8.703125,4.242187,1.335938,-0.220703,0.064453,-0.052734,0.370972,-0.398621,0.529846,0.650269,up
215130,-8.664063,4.164062,1.335938,-0.220703,0.064453,-0.052734,0.370239,-0.399353,0.529297,0.650574,up
215135,-8.664063,4.164062,1.335938,-0.179687,0.115234,0.033203,0.370239,-0.399353,0.529297,0.650574,up
215140,-8.703125,4.089844,1.296875,-0.179687,0.115234,0.033203,0.369873,-0.399658,0.529175,0.650757,up
215145,-8.746094,3.9375,1.335938,-0.138672,0.113281,0.058594,0.369873,-0.399658,0.529175,0.650757,up
215150,-8.78125,3.859375,1.453125,-0.138672,0.113281,0.058594,0.368652,-0.400269,0.529236,0.65094,up
215155,-8.824219,3.859375,1.414063,-0.138672,0.113281,0.058594,0.368347,-0.40033,0.52948,0.650879,up
215160,-8.820313,3.820313,1.453125,-0.138672,0.113281,0.058594,0.368347,-0.40033,0.52948,0.650879,up
215165,-8.855469,3.820313,1.527344,0.080078,0.101563,0.087891,0.368347,-0.40033,0.52948,0.650879,up
215170,-8.855469,3.898438,1.605469,0.185547,0.085937,0.064453,0.36792,-0.40033,0.530212,0.650635,up
215175,-8.824219,4.011719,1.566406,0.185547,0.085937,0.064453,0.367737,-0.400085,0.531128,0.650085,up
215180,-8.824219,4.164062,1.488281,0.185547,0.085937,0.064453,0.367737,-0.399963,0.531677,0.649719,up
215185,-8.824219,4.203125,1.527344,0.185547,0.085937,0.064453,0.367737,-0.399841,0.532166,0.649414,up
215190,-8.78125,4.242187,1.488281,0.185547,0.085937,0.064453,0.367737,-0.399841,0.532166,0.649414,up
215195,-8.824219,4.28125,1.527344,0.146484,0.048828,0.041016,0.367737,-0.399841,0.532166,0.649414,up
215200,-8.824219,4.203125,1.527344,0.146484,0.048828,0.041016,0.367737,-0.399597,0.53302,0.648865,up
215205,-8.851563,4.242187,1.488281,0.033203,0.041016,0.039063,0.367676,-0.399475,0.533325,0.648621,up
215210,-8.824219,4.242187,1.527344,0.033203,0.041016,0.039063,0.367615,-0.399475,0.533569,0.64856,up
215215,-8.824219,4.203125,1.453125,0.033203,0.041016,0.039063,0.367249,-0.399475,0.533691,0.648621,up
215220,-8.785156,4.128906,1.488281,0.033203,0.041016,0.039063,0.367249,-0.399475,0.533691,0.648621,up
215225,-8.707031,4.089844,1.488281,-0.169922,0.035156,0.083984,0.367004,-0.399536,0.53363,0.648743,up
215230,-8.703125,4.050781,1.453125,-0.169922,0.035156,0.083984,0.366638,-0.399658,0.533508,0.649048,up
215235,-8.707031,3.972656,1.414063,-0.181641,0.044922,0.099609,0.366211,-0.39978,0.533386,0.649292,up
215241,-8.707031,3.972656,1.414063,-0.160156,0.044922,0.109375,0.365417,-0.399963,0.533203,0.64978,up
215246,-8.703125,3.742188,1.375,-0.126953,0.048828,0.117188,0.364929,-0.400024,0.533142,0.650085,up
215251,-8.707031,3.707031,1.375,-0.126953,0.048828,0.117188,0.364563,-0.400085,0.533142,0.650269,up
215256,-8.628906,3.707031,1.414063,-0.126953,0.048828,0.117188,0.364319,-0.400085,0.533203,0.65033,up
215261,-8.628906,3.667969,1.414063,-0.126953,0.048828,0.117188,0.364014,-0.400085,0.533325,0.650391,up
215266,-8.589844,3.707031,1.414063,0.035156,0.0625,0.042969,0.364014,-0.400085,0.533325,0.650391,up
215271,-8.507813,3.742188,1.488281,0.035156,0.0625,0.042969,0.364014,-0.400085,0.533325,0.650391,up
215277,-8.511719,3.898438,1.566406,0.035156,0.0625,0.042969,0.363708,-0.400146,0.533875,0.650085,up
215282,-8.550781,3.859375,1.527344,0.058594,0.064453,-0.011719,0.363708,-0.400146,0.533875,0.650085,up
215288,-8.550781,3.859375,1.527344,0.011719,0.074219,-0.017578,0.363708,-0.400146,0.533875,0.650085,up
215293,-8.546875,3.859375,1.566406,0.011719,0.074219,-0.017578,0.363525,-0.400452,0.534241,0.649658,up
215299,-8.664063,3.820313,1.605469,0.011719,0.074219,-0.017578,0.363525,-0.400452,0.534241,0.649658,up
215305,-8.703125,3.742188,1.644531,-0.130859,0.070312,-0.025391,0.362976,-0.401184,0.533997,0.649719,up
215310,-8.824219,3.78125,1.757813,-0.130859,0.070312,-0.025391,0.362732,-0.401489,0.533752,0.649902,up
215315,-8.820313,3.707031,1.71875,-0.130859,0.070312,-0.025391,0.362427,-0.401794,0.533447,0.650085,up
215320,-8.851563,3.78125,1.71875,-0.130859,0.070312,-0.025391,0.362427,-0.401794,0.533447,0.650085,up
215325,-8.890625,3.820313,1.71875,-0.234375,0.041016,-0.017578,0.361877,-0.402405,0.532776,0.650574,up
215331,-8.855469,3.859375,1.679688,-0.234375,0.041016,-0.017578,0.361633,-0.402649,0.532471,0.650818,up
215336,-8.851563,3.898438,1.71875,-0.152344,0.033203,0.007813,0.361389,-0.402832,0.532288,0.651001,up
215341,-8.851563,3.898438,1.644531,-0.111328,0.039063,0.019531,0.361145,-0.403015,0.532166,0.651123,up
215347,-8.851563,3.972656,1.605469,-0.111328,0.039063,0.019531,0.360962,-0.403076,0.532104,0.651245,up
215352,-8.851563,3.972656,1.566406,-0.050781,0.048828,0.033203,0.360962,-0.403076,0.532104,0.651245,up
215358,-8.851563,3.9375,1.566406,-0.033203,0.052734,0.050781,0.360962,-0.403076,0.532104,0.651245,up
215363,-8.890625,3.9375,1.527344,-0.023437,0.058594,0.058594,0.360962,-0.403076,0.532104,0.651245,up
215369,-8.855469,3.9375,1.488281,-0.03125,0.072266,0.0625,0.360962,-0.403076,0.532104,0.651245,up
215374,-8.855469,3.972656,1.527344,-0.046875,0.072266,0.074219,0.360962,-0.403076,0.532104,0.651245,up
215380,-8.894531,4.050781,1.453125,-0.054687,0.083984,0.078125,0.360962,-0.403076,0.532104,0.651245,up
215385,-8.933594,4.050781,1.414063,-0.054687,0.083984,0.078125,0.359192,-0.403564,0.532593,0.651489,up
215390,-8.972656,4.089844,1.414063,-0.064453,0.09375,0.109375,0.358765,-0.403687,0.532715,0.651611,up
215395,-8.972656,4.128906,1.414063,-0.064453,0.09375,0.109375,0.358398,-0.403748,0.532776,0.651672,up
215401,-8.933594,4.203125,1.335938,-0.064453,0.09375,0.109375,0.357666,-0.40387,0.53302,0.651855,up
215406,-8.972656,4.242187,1.296875,-0.03125,0.085937,0.132812,0.357239,-0.40387,0.533203,0.651917,up
215411,-8.972656,4.28125,1.261719,-0.003906,0.074219,0.134766,0.356873,-0.403809,0.533386,0.651978,up
215416,-8.894531,4.320312,1.261719,0.023437,0.0625,0.150391,0.356506,-0.403748,0.53363,0.652039,up
215422,-8.851563,4.394531,1.144531,0.023437,0.0625,0.150391,0.356201,-0.403625,0.533875,0.652039,up
215427,-8.851563,4.433594,1.183594,0.037109,0.0625,0.167969,0.355896,-0.403442,0.53418,0.652039,up
215433,-8.851563,4.433594,1.144531,0.041016,0.054687,0.181641,0.355896,-0.403442,0.53418,0.652039,up
215438,-8.820313,4.433594,1.105469,0.041016,0.054687,0.181641,0.355164,-0.403076,0.53479,0.652161,up
215443,-8.820313,4.433594,1.070313,0.009766,0.052734,0.199219,0.355164,-0.403076,0.53479,0.652161,up
215449,-8.78125,4.472656,1.070313,-0.021484,0.058594,0.205078,0.355164,-0.403076,0.53479,0.652161,up
215455,-8.703125,4.394531,1.03125,-0.048828,0.056641,0.216797,0.353394,-0.402405,0.535767,0.652771,up
215460,-8.625,4.394531,1.03125,-0.048828,0.056641,0.216797,0.353394,-0.402405,0.535767,0.652771,up
215465,-8.585938,4.394531,0.953125,-0.119141,0.070312,0.263672,0.353394,-0.402405,0.535767,0.652771,up
215470,-8.507813,4.394531,0.953125,-0.119141,0.070312,0.263672,0.352173,-0.402161,0.536072,0.653381,up
215475,-8.507813,4.394531,0.953125,-0.119141,0.070312,0.263672,0.35144,-0.401978,0.536255,0.653748,up
215481,-8.507813,4.355469,0.878906,-0.148437,0.107422,0.310547,0.35144,-0.401978,0.536255,0.653748,up
215486,-8.507813,4.320312,0.878906,-0.148437,0.107422,0.310547,0.34906,-0.401611,0.536743,0.654785,up
215491,-8.507813,4.320312,0.878906,-0.148437,0.107422,0.310547,0.348267,-0.401428,0.537048,0.65509,up
215496,-8.511719,4.203125,0.878906,-0.089844,0.128906,0.357422,0.347351,-0.401245,0.537354,0.655457,up
215502,-8.507813,4.164062,0.914062,-0.089844,0.128906,0.357422,0.346558,-0.401062,0.53772,0.655701,up
215507,-8.511719,4.128906,0.914062,-0.011719,0.126953,0.353516,0.346558,-0.401062,0.53772,0.655701,up
215512,-8.507813,4.164062,0.914062,-0.011719,0.126953,0.353516,0.346558,-0.401062,0.53772,0.655701,up
215517,-8.507813,4.164062,0.914062,0.070312,0.095703,0.330078,0.344299,-0.400208,0.539124,0.65625,up
215522,-8.441406,4.203125,0.914062,0.097656,0.087891,0.324219,0.343628,-0.39978,0.539734,0.656311,up
215527,-8.359375,4.320312,0.839844,0.097656,0.087891,0.324219,0.34314,-0.399414,0.540283,0.656372,up
215532,-8.359375,4.28125,0.800781,0.126953,0.082031,0.287109,0.34314,-0.399414,0.540283,0.656372,up
215537,-8.359375,4.28125,0.800781,0.136719,0.078125,0.285156,0.342224,-0.398682,0.541443,0.656372,up
215542,-8.398438,4.320312,0.839844,0.136719,0.078125,0.285156,0.341736,-0.398315,0.542053,0.656311,up
215548,-8.363281,4.28125,0.878906,0.136719,0.078125,0.285156,0.34137,-0.39801,0.54248,0.656311,up
215554,-8.359375,4.355469,0.839844,0.068359,0.0625,0.230469,0.34137,-0.39801,0.54248,0.656311,up
215559,-8.398438,4.355469,0.839844,0.048828,0.058594,0.203125,0.34137,-0.39801,0.54248,0.656311,up
215565,-8.402344,4.320312,0.800781,-0.015625,0.052734,0.166016,0.34137,-0.39801,0.54248,0.656311,up
215570,-8.398438,4.320312,0.839844,-0.015625,0.052734,0.166016,0.339783,-0.397034,0.543884,0.656555,up
215576,-8.398438,4.355469,0.839844,-0.050781,0.058594,0.128906,0.339783,-0.397034,0.543884,0.656555,up
215581,-8.441406,4.320312,0.839844,-0.050781,0.058594,0.128906,0.33905,-0.396912,0.544189,0.656799,up
215587,-8.4375,4.355469,0.800781,-0.050781,0.058594,0.128906,0.338379,-0.396912,0.544373,0.657043,up
215592,-8.441406,4.394531,0.800781,-0.066406,0.072266,0.074219,0.338013,-0.396912,0.544373,0.657104,up
215598,-8.4375,4.394531,0.839844,-0.052734,0.080078,0.064453,0.337769,-0.397034,0.544434,0.657166,up
215603,-8.511719,4.355469,0.800781,-0.052734,0.080078,0.064453,0.337463,-0.397095,0.544495,0.657227,up
215609,-8.472656,4.394531,0.839844,-0.021484,0.087891,0.035156,0.337463,-0.397095,0.544495,0.657227,up
215615,-8.472656,4.433594,0.878906,-0.003906,0.089844,0.025391,0.337463,-0.397095,0.544495,0.657227,up
215620,-8.546875,4.433594,0.839844,-0.003906,0.089844,0.025391,0.336853,-0.3974,0.5448,0.657104,up
215625,-8.511719,4.511719,0.914062,-0.003906,0.089844,0.025391,0.336731,-0.397522,0.544983,0.656982,up
215631,-8.511719,4.472656,0.914062,0.052734,0.095703,0.025391,0.336426,-0.397705,0.545349,0.656677,up
215636,-8.472656,4.511719,0.914062,0.072266,0.089844,0.03125,0.336304,-0.397766,0.545593,0.656555,up
215641,-8.507813,4.585937,0.914062,0.072266,0.089844,0.03125,0.336182,-0.397766,0.545898,0.656311,up
215646,-8.507813,4.546875,0.878906,0.080078,0.101563,0.048828,0.336182,-0.397766,0.545898,0.656311,up
215651,-8.46875,4.585937,0.914062,0.080078,0.101563,0.048828,0.335999,-0.397827,0.546143,0.656189,up
215656,-8.507813,4.585937,0.914062,0.080078,0.101563,0.048828,0.335693,-0.397827,0.546631,0.655884,up
215661,-8.472656,4.546875,0.914062,0.080078,0.101563,0.048828,0.335693,-0.397827,0.546631,0.655884,up
215666,-8.472656,4.546875,0.953125,0.070312,0.107422,0.070312,0.335327,-0.397827,0.547241,0.655579,up
215671,-8.511719,4.546875,0.914062,0.070312,0.107422,0.070312,0.335083,-0.397827,0.547546,0.655518,up
215676,-8.507813,4.585937,0.914062,0.070312,0.107422,0.070312,0.334839,-0.397766,0.547791,0.655396,up
215681,-8.472656,4.546875,0.914062,0.070312,0.107422,0.070312,0.334839,-0.397766,0.547791,0.655396,up
215686,-8.511719,4.546875,0.914062,0.0625,0.101563,0.107422,0.33429,-0.397705,0.548401,0.655212,up
215691,-8.46875,4.585937,0.914062,0.0625,0.101563,0.107422,0.333984,-0.397705,0.548706,0.655151,up
215696,-8.46875,4.546875,0.839844,0.0625,0.101563,0.107422,0.333679,-0.397644,0.549011,0.655029,up
215701,-8.511719,4.585937,0.839844,0.0625,0.101563,0.107422,0.333679,-0.397644,0.549011,0.655029,up
215706,-8.46875,4.625,0.800781,0.029297,0.121094,0.142578,0.332947,-0.397583,0.549622,0.654968,up
215711,-8.46875,4.585937,0.800781,0.029297,0.121094,0.142578,0.332458,-0.397583,0.549988,0.654907,up
215716,-8.441406,4.625,0.800781,0.029297,0.160156,0.167969,0.332458,-0.397583,0.549988,0.654907,up
215721,-8.472656,4.664062,0.722656,0.029297,0.160156,0.167969,0.332092,-0.397522,0.550293,0.654846,up
215726,-8.472656,4.625,0.722656,0.021484,0.177734,0.179687,0.332092,-0.397522,0.550293,0.654846,up
215731,-8.472656,4.625,0.722656,0.021484,0.177734,0.179687,0.330322,-0.397583,0.551453,0.654724,up
215736,-8.46875,4.664062,0.683594,0.003906,0.226562,0.224609,0.330322,-0.397583,0.551453,0.654724,up
215741,-8.4375,4.664062,0.722656,0.003906,0.226562,0.224609,0.329712,-0.397644,0.551819,0.654724,up
215747,-8.4375,4.664062,0.722656,0.001953,0.246094,0.253906,0.328308,-0.397705,0.552734,0.654663,up
215752,-8.363281,4.664062,0.722656,0.003906,0.267578,0.267578,0.327454,-0.397766,0.553223,0.654602,up
215757,-8.402344,4.664062,0.761719,0.003906,0.267578,0.267578,0.32666,-0.397827,0.553711,0.654541,up
215762,-8.4375,4.664062,0.761719,0.003906,0.267578,0.267578,0.32666,-0.397827,0.553711,0.654541,up
215767,-8.359375,4.703125,0.800781,-0.003906,0.296875,0.298828,0.324829,-0.397949,0.55481,0.65448,up
215772,-8.4375,4.703125,0.761719,0.003906,0.320313,0.324219,0.323792,-0.39801,0.55542,0.654419,up
215777,-8.472656,4.625,0.839844,0.003906,0.320313,0.324219,0.322876,-0.398071,0.555969,0.654358,up
215784,-8.550781,4.546875,0.878906,0.003906,0.320313,0.324219,0.321838,-0.398132,0.55658,0.654297,up
215790,-8.546875,4.511719,0.953125,-0.025391,0.347656,0.326172,0.321838,-0.398132,0.55658,0.654297,up
215796,-8.589844,4.511719,0.953125,-0.023437,0.335938,0.335938,0.321838,-0.398132,0.55658,0.654297,up
215801,-8.507813,4.511719,1.070313,-0.03125,0.320313,0.326172,0.317627,-0.398499,0.558838,0.654236,up
215806,-8.550781,4.472656,1.105469,-0.03125,0.320313,0.326172,0.317627,-0.398499,0.558838,0.654236,up
215811,-8.546875,4.472656,1.144531,-0.011719,0.277344,0.289063,0.317627,-0.398499,0.558838,0.654236,up
215816,-8.589844,4.472656,1.144531,-0.003906,0.263672,0.269531,0.315796,-0.398621,0.559814,0.654175,up
215822,-8.511719,4.546875,1.144531,-0.001953,0.236328,0.259766,0.314941,-0.398682,0.560364,0.654175,up
215827,-8.507813,4.585937,1.144531,-0.001953,0.236328,0.259766,0.313293,-0.398682,0.561279,0.654114,up
215833,-8.4375,4.585937,1.222656,-0.001953,0.236328,0.259766,0.312744,-0.398682,0.561584,0.654114,up
215838,-8.507813,4.585937,1.144531,-0.001953,0.236328,0.259766,0.312134,-0.398682,0.56189,0.654114,up
215844,-8.507813,4.546875,1.070313,-0.054687,0.152344,0.175781,0.312134,-0.398682,0.56189,0.654114,up
215849,-8.46875,4.546875,1.070313,-0.091797,0.136719,0.158203,0.312134,-0.398682,0.56189,0.654114,up
215854,-8.441406,4.546875,1.070313,-0.091797,0.136719,0.158203,0.310425,-0.398865,0.562378,0.654419,up
215859,-8.441406,4.546875,1.105469,-0.138672,0.097656,0.126953,0.309937,-0.398926,0.562439,0.654602,up
215865,-8.441406,4.546875,1.105469,-0.177734,0.091797,0.105469,0.309937,-0.398926,0.562439,0.654602,up
215870,-8.402344,4.511719,1.03125,-0.197266,0.089844,0.083984,0.309937,-0.398926,0.562439,0.654602,up
215875,-8.402344,4.546875,1.03125,-0.226562,0.082031,0.072266,0.309937,-0.398926,0.562439,0.654602,up
215880,-8.402344,4.511719,0.992187,-0.214844,0.068359,0.060547,0.309937,-0.398926,0.562439,0.654602,up
215886,-8.402344,4.511719,0.992187,-0.214844,0.0625,0.044922,0.307312,-0.399902,0.561279,0.656189,up
215891,-8.359375,4.625,0.992187,-0.214844,0.0625,0.044922,0.307312,-0.399902,0.561279,0.656189,up
215896,-8.402344,4.664062,0.839844,-0.119141,0.056641,0.035156,0.306946,-0.400085,0.561096,0.656433,up
215901,-8.402344,4.664062,0.839844,-0.119141,0.056641,0.035156,0.306702,-0.400208,0.560974,0.656555,up
215906,-8.324219,4.703125,0.800781,-0.080078,0.046875,0.046875,0.306702,-0.400208,0.560974,0.656555,up
215911,-8.28125,4.738281,0.800781,-0.080078,0.046875,0.046875,0.306213,-0.40033,0.560852,0.656799,up
215916,-8.324219,4.777344,0.800781,-0.080078,0.046875,0.046875,0.30603,-0.40033,0.560913,0.656799,up
215922,-8.28125,4.816406,0.761719,0.035156,0.027344,0.072266,0.305786,-0.400146,0.561218,0.656799,up
215928,-8.246094,4.933594,0.722656,0.035156,0.027344,0.072266,0.305664,-0.400024,0.561462,0.656738,up
215933,-8.242188,4.96875,0.683594,0.091797,0.015625,0.121094,0.305542,-0.39978,0.561707,0.656738,up
215938,-8.28125,5.007812,0.609375,0.097656,0.001953,0.144531,0.30542,-0.399536,0.562012,0.656677,up
215943,-8.28125,5.007812,0.648437,0.097656,0.001953,0.144531,0.305237,-0.399231,0.562317,0.656677,up
215950,-8.28125,5.007812,0.648437,0.097656,0.001953,0.144531,0.305237,-0.399231,0.562317,0.656677,up
215955,-8.28125,4.96875,0.648437,0.046875,0.001953,0.189453,0.305237,-0.399231,0.562317,0.656677,up
215961,-8.28125,4.96875,0.648437,0.017578,-0.011719,0.181641,0.305237,-0.399231,0.562317,0.656677,up
215966,-8.242188,4.933594,0.648437,0.017578,-0.011719,0.181641,0.30426,-0.39801,0.563354,0.657043,up
215972,-8.203125,4.855469,0.722656,-0.009766,-0.017578,0.154297,0.30426,-0.39801,0.563354,0.657043,up
215977,-8.246094,4.816406,0.648437,-0.009766,-0.017578,0.154297,0.303467,-0.397217,0.563782,0.657471,up
215982,-8.242188,4.777344,0.648437,-0.009766,-0.017578,0.154297,0.303284,-0.396973,0.563904,0.657593,up
215987,-8.207031,4.855469,0.648437,0.015625,-0.035156,0.105469,0.303284,-0.396973,0.563904,0.657593,up
215992,-8.167969,4.855469,0.683594,0.041016,-0.041016,0.089844,0.303162,-0.396667,0.564026,0.657776,up
215997,-8.167969,4.855469,0.648437,0.041016,-0.041016,0.089844,0.30304,-0.39624,0.56427,0.657898,up
216002,-8.164063,4.894531,0.648437,0.041016,-0.041016,0.089844,0.30304,-0.395996,0.564392,0.657898,up
216007,-8.125,4.933594,0.648437,0.058594,-0.058594,0.037109,0.30304,-0.395996,0.564392,0.657898,up
216012,-8.164063,4.894531,0.648437,0.052734,-0.058594,0.015625,0.303101,-0.395813,0.564453,0.657898,up
216017,-8.125,4.933594,0.648437,0.052734,-0.058594,0.015625,0.303284,-0.395447,0.564575,0.657898,up
216022,-8.164063,4.96875,0.609375,0.052734,-0.058594,0.015625,0.303406,-0.395386,0.564575,0.657959,up
216027,-8.128906,4.96875,0.570312,-0.003906,-0.0625,-0.023437,0.303406,-0.395386,0.564575,0.657959,up
216032,-8.050781,5.007812,0.648437,-0.003906,-0.0625,-0.023437,0.303528,-0.395264,0.564514,0.657959,up
216037,-8.015625,5.007812,0.609375,-0.003906,-0.0625,-0.023437,0.303711,-0.395203,0.56427,0.658142,up
216042,-7.980469,5.046875,0.609375,-0.003906,-0.0625,-0.023437,0.303711,-0.395203,0.56427,0.658142,up
216047,-7.9375,5.085937,0.53125,-0.111328,-0.03125,0.0,0.303528,-0.395203,0.563843,0.658569,up
216052,-7.902344,5.085937,0.648437,-0.111328,-0.03125,0.0,0.303345,-0.395264,0.56366,0.658813,up
216057,-7.859375,5.046875,0.609375,-0.111328,-0.03125,0.0,0.30304,-0.395264,0.563477,0.659119,up
216062,-7.898437,5.007812,0.570312,-0.111328,-0.03125,0.0,0.30304,-0.395264,0.563477,0.659119,up
216067,-7.9375,4.933594,0.609375,-0.203125,0.033203,0.111328,0.302185,-0.395325,0.563049,0.659851,up
216072,-8.046875,4.855469,0.648437,-0.203125,0.033203,0.111328,0.301575,-0.395386,0.562866,0.660217,up
216077,-8.089844,4.816406,0.609375,-0.203125,0.033203,0.111328,0.301147,-0.395447,0.562744,0.660522,up
216082,-8.125,4.777344,0.648437,-0.167969,0.074219,0.144531,0.301147,-0.395447,0.562744,0.660522,up
216087,-8.125,4.738281,0.683594,-0.167969,0.074219,0.144531,0.300537,-0.395508,0.562622,0.660828,up
216092,-8.128906,4.777344,0.761719,-0.078125,0.052734,0.134766,0.300049,-0.395508,0.562561,0.661072,up
216097,-8.164063,4.738281,0.800781,-0.078125,0.052734,0.134766,0.299316,-0.395447,0.562683,0.661377,up
216102,-8.164063,4.777344,0.800781,-0.078125,0.052734,0.134766,0.299072,-0.395325,0.562805,0.661438,up
216107,-8.125,4.816406,0.761719,-0.078125,0.052734,0.134766,0.29895,-0.395264,0.562988,0.661438,up
216112,-8.089844,4.855469,0.683594,-0.078125,0.052734,0.134766,0.298889,-0.395142,0.563171,0.661316,up
216117,-8.125,4.933594,0.683594,-0.078125,0.052734,0.134766,0.298889,-0.395142,0.563171,0.661316,up
216122,-8.089844,4.96875,0.722656,0.082031,0.033203,0.023437,0.298828,-0.395081,0.563538,0.661072,up
216127,-8.046875,4.96875,0.722656,0.082031,0.033203,0.023437,0.298828,-0.395081,0.563538,0.661072,up
216132,-8.046875,5.007812,0.761719,0.021484,0.068359,-0.035156,0.298889,-0.395142,0.56366,0.66095,up
216137,-8.125,5.160156,0.800781,0.021484,0.068359,-0.035156,0.298828,-0.395264,0.563721,0.660828,up
216143,-8.167969,5.199219,0.914062,0.021484,0.068359,-0.035156,0.298767,-0.395569,0.56366,0.660767,up
216148,-8.125,5.160156,0.914062,0.021484,0.068359,-0.035156,0.298584,-0.395691,0.563477,0.660828,up
216153,-8.242188,5.199219,0.878906,-0.201172,0.035156,0.023437,0.298401,-0.395874,0.563232,0.661072,up
216158,-8.28125,5.160156,0.914062,-0.238281,0.009766,0.054687,0.298096,-0.395996,0.562927,0.661377,up
216164,-8.363281,5.046875,0.914062,-0.238281,0.009766,0.054687,0.297729,-0.396057,0.562622,0.661804,up
216169,-8.324219,4.933594,0.953125,-0.238281,0.009766,0.054687,0.297302,-0.396118,0.562195,0.662292,up
216174,-8.324219,4.894531,0.953125,-0.287109,-0.072266,0.111328,0.297302,-0.396118,0.562195,0.662292,up
216180,-8.285156,4.855469,0.953125,-0.265625,-0.099609,0.109375,0.297302,-0.396118,0.562195,0.662292,up
216185,-8.246094,4.816406,0.953125,-0.224609,-0.132812,0.107422,0.297302,-0.396118,0.562195,0.662292,up
216190,-8.125,4.777344,0.953125,-0.175781,-0.166016,0.097656,0.297302,-0.396118,0.562195,0.662292,up
216195,-8.125,4.777344,0.953125,-0.123047,-0.179687,0.087891,0.297302,-0.396118,0.562195,0.662292,up
216200,-8.046875,4.855469,0.914062,-0.123047,-0.179687,0.087891,0.297302,-0.396118,0.562195,0.662292,up
216206,-8.019531,4.855469,0.914062,-0.123047,-0.179687,0.087891,0.296204,-0.39447,0.559998,0.665649,up
216212,-7.980469,4.894531,0.878906,0.003906,-0.195312,0.041016,0.296631,-0.393677,0.559753,0.666138,up
216218,-7.863281,4.96875,0.914062,0.003906,-0.195312,0.041016,0.296875,-0.393372,0.559631,0.666321,up
216223,-7.824219,4.894531,0.878906,-0.058594,-0.160156,-0.033203,0.297119,-0.393066,0.559448,0.666504,up
216229,-7.78125,4.855469,0.800781,-0.058594,-0.160156,-0.033203,0.297302,-0.392944,0.559143,0.666809,up
216234,-7.664062,5.046875,0.683594,-0.058594,-0.160156,-0.033203,0.297424,-0.392883,0.558777,0.667053,up
216239,-7.59375,5.160156,0.648437,-0.261719,-0.101563,-0.046875,0.297424,-0.392883,0.558228,0.66748,up
216244,-7.597656,5.238281,0.722656,-0.347656,-0.064453,-0.03125,0.297424,-0.392883,0.558228,0.66748,up
216249,-7.636719,5.238281,0.722656,-0.425781,-0.017578,-0.009766,0.297424,-0.392883,0.558228,0.66748,up
216254,-7.742187,5.199219,0.683594,-0.425781,-0.017578,-0.009766,0.29657,-0.393555,0.556213,0.669189,up
216259,-7.9375,5.160156,0.648437,-0.425781,-0.017578,-0.009766,0.29657,-0.393555,0.556213,0.669189,up
216264,-8.015625,5.125,0.683594,-0.583984,0.109375,0.099609,0.29657,-0.393555,0.556213,0.669189,up
216271,-8.089844,5.007812,0.839844,-0.560547,0.117188,0.132812,0.29657,-0.393555,0.556213,0.669189,up
216277,-8.089844,4.96875,0.839844,-0.525391,0.107422,0.164062,0.29657,-0.393555,0.556213,0.669189,up
216282,-8.089844,4.855469,0.914062,-0.382813,0.095703,0.191406,0.29657,-0.393555,0.556213,0.669189,up
216287,-8.125,4.738281,0.914062,-0.382813,0.095703,0.191406,0.291321,-0.395752,0.552063,0.673645,up
216292,-8.125,4.777344,0.953125,-0.134766,0.017578,0.207031,0.290527,-0.395874,0.551758,0.674133,up
216297,-8.046875,4.816406,1.03125,-0.134766,0.017578,0.207031,0.289917,-0.395752,0.551636,0.674561,up
216302,-8.085938,4.894531,1.144531,-0.134766,0.017578,0.207031,0.28949,-0.395508,0.551697,0.674805,up
216307,-8.128906,4.855469,1.144531,-0.134766,0.017578,0.207031,0.289246,-0.395081,0.552002,0.674927,up
216312,-8.164063,4.933594,1.144531,-0.134766,0.017578,0.207031,0.289246,-0.394653,0.552368,0.674927,up
216317,-8.207031,5.007812,1.222656,0.242187,-0.171875,0.087891,0.289246,-0.394653,0.552368,0.674927,up
216322,-8.324219,5.199219,1.222656,0.242187,-0.171875,0.087891,0.289612,-0.393433,0.553162,0.674805,up
216327,-8.324219,5.199219,1.222656,0.242187,-0.171875,0.087891,0.290527,-0.392334,0.553528,0.674744,up
216332,-8.402344,5.429687,1.183594,0.242187,-0.171875,0.087891,0.290527,-0.392334,0.553528,0.674744,up
216337,-8.398438,5.621094,1.144531,-0.185547,-0.310547,-0.1875,0.290527,-0.392334,0.553528,0.674744,up
216342,-8.398438,5.773437,1.070313,-0.185547,-0.310547,-0.1875,0.291748,-0.391663,0.552795,0.675171,up
216347,-8.359375,5.851562,0.992187,-0.185547,-0.310547,-0.1875,0.292236,-0.391602,0.551819,0.675781,up
216353,-8.359375,5.8125,0.953125,-0.544922,-0.326172,-0.25,0.292969,-0.391968,0.549011,0.677612,up
216358,-8.246094,5.773437,0.914062,-0.849609,-0.341797,-0.234375,0.293091,-0.392273,0.54718,0.678833,up
216364,-8.164063,5.316406,1.105469,-0.849609,-0.341797,-0.234375,0.29303,-0.392639,0.545288,0.680176,up
216369,-8.242188,4.933594,1.144531,-0.994141,-0.345703,-0.164062,0.29303,-0.392639,0.545288,0.680176,up
216374,-8.242188,4.585937,1.183594,-0.990234,-0.375,-0.158203,0.29303,-0.392639,0.545288,0.680176,up
216379,-8.246094,4.355469,1.335938,-0.990234,-0.375,-0.158203,0.29248,-0.393494,0.53894,0.684998,up
216385,-8.203125,4.128906,1.566406,-0.990234,-0.375,-0.158203,0.292419,-0.393555,0.536804,0.686646,up
216392,-8.242188,4.011719,1.605469,-0.835937,-0.509766,-0.175781,0.292419,-0.393555,0.536804,0.686646,up
216397,-8.285156,4.050781,1.605469,-0.634766,-0.539062,-0.212891,0.293396,-0.393188,0.53125,0.690735,up
216402,-8.320313,4.394531,1.566406,-0.634766,-0.539062,-0.212891,0.293396,-0.393188,0.53125,0.690735,up
216407,-8.285156,4.585937,1.566406,-0.634766,-0.539062,-0.212891,0.294495,-0.392639,0.529785,0.691711,up
216412,-8.285156,4.96875,1.679688,-0.634766,-0.539062,-0.212891,0.295837,-0.391907,0.528748,0.692322,up
216417,-8.246094,5.125,1.679688,-0.634766,-0.539062,-0.212891,0.297363,-0.391113,0.527893,0.69281,up
216423,-8.203125,5.199219,1.679688,0.003906,-0.710937,-0.416016,0.297363,-0.391113,0.527893,0.69281,up
216428,-8.246094,5.277344,1.566406,0.003906,-0.710937,-0.416016,0.302368,-0.388916,0.525146,0.69397,up
216433,-8.28125,5.238281,1.453125,0.003906,-0.710937,-0.416016,0.303772,-0.388489,0.523987,0.694458,up
216439,-8.242188,5.125,1.375,0.003906,-0.710937,-0.416016,0.305115,-0.388306,0.522461,0.695129,up
216444,-8.164063,5.007812,1.375,-0.623047,-0.568359,-0.486328,0.306274,-0.388306,0.520508,0.696045,up
216449,-8.085938,4.777344,1.375,-0.623047,-0.568359,-0.486328,0.307129,-0.38855,0.518311,0.697144,up
216455,-8.019531,4.472656,1.414063,-0.623047,-0.568359,-0.486328,0.307739,-0.388916,0.516296,0.698242,up
216460,-8.050781,4.394531,1.414063,-1.005859,-0.408203,-0.494141,0.308167,-0.389526,0.513794,0.699524,up
216465,-8.089844,4.355469,1.453125,-1.001953,-0.373047,-0.492187,0.308167,-0.389526,0.513794,0.699524,up
216470,-8.320313,4.546875,1.644531,-1.001953,-0.373047,-0.492187,0.308167,-0.389526,0.513794,0.699524,up
216476,-8.441406,4.703125,1.835938,-0.865234,-0.398438,-0.478516,0.308167,-0.389526,0.513794,0.699524,up
216482,-8.441406,4.703125,1.835938,-0.753906,-0.427734,-0.490234,0.309998,-0.39209,0.504089,0.704346,up
216487,-8.746094,4.855469,2.292969,-0.615234,-0.478516,-0.498047,0.31073,-0.392395,0.502075,0.705261,up
216492,-8.746094,4.855469,2.292969,-0.5,-0.576172,-0.507812,0.311768,-0.392578,0.500122,0.706116,up
216497,-8.820313,4.777344,2.449219,-0.5,-0.576172,-0.507812,0.312988,-0.392517,0.498291,0.706848,up
216502,-8.929688,4.664062,2.523438,-0.443359,-0.724609,-0.607422,0.312988,-0.392517,0.498291,0.706848,up
216507,-8.890625,4.511719,2.601563,-0.443359,-0.724609,-0.607422,0.316223,-0.39209,0.494141,0.708557,up
216512,-8.855469,4.394531,2.640625,-0.443359,-0.724609,-0.607422,0.318115,-0.391846,0.49176,0.709534,up
216518,-8.894531,4.355469,2.640625,-0.785156,-1.089844,-0.914062,0.318115,-0.391846,0.49176,0.709534,up
216524,-8.894531,4.355469,2.640625,-0.939453,-1.150391,-0.990234,0.324219,-0.391174,0.483032,0.713074,up
216529,-8.589844,3.972656,2.5625,-0.939453,-1.150391,-0.990234,0.326843,-0.391113,0.478638,0.714905,up
216534,-8.550781,3.9375,2.523438,-1.228516,-1.208984,-1.126953,0.326843,-0.391113,0.478638,0.714905,up
216539,-8.550781,3.9375,2.523438,-1.349609,-1.212891,-1.185547,0.331238,-0.391479,0.470276,0.718262,up
216544,-8.472656,3.820313,2.410156,-1.349609,-1.212891,-1.185547,0.333252,-0.391846,0.466003,0.71991,up
216550,-8.46875,3.78125,2.371094,-1.423828,-1.179688,-1.279297,0.33551,-0.392334,0.461304,0.721619,up
216555,-8.46875,3.742188,2.332031,-1.394531,-1.144531,-1.318359,0.337769,-0.392883,0.456543,0.723267,up
216560,-8.359375,3.707031,2.449219,-1.394531,-1.144531,-1.318359,0.34021,-0.393494,0.45166,0.724854,up
216567,-8.359375,3.707031,2.523438,-1.318359,-1.103516,-1.388672,0.34021,-0.393494,0.45166,0.724854,up
216572,-8.402344,3.707031,2.601563,-1.226563,-1.025391,-1.427734,0.34021,-0.393494,0.45166,0.724854,up
216577,-8.585938,3.515625,2.601563,-1.226563,-1.025391,-1.427734,0.347595,-0.395569,0.437683,0.728821,up
216582,-8.664063,3.476563,2.640625,-1.199219,-1.019531,-1.431641,0.347595,-0.395569,0.437683,0.728821,up
216587,-8.746094,3.398438,2.640625,-1.195313,-1.029297,-1.419922,0.347595,-0.395569,0.437683,0.728821,up
216592,-9.085938,3.015625,2.832031,-1.195313,-1.029297,-1.419922,0.355347,-0.397705,0.423706,0.732178,up
216597,-9.085938,3.015625,2.832031,-1.195313,-1.029297,-1.419922,0.357849,-0.398254,0.419189,0.733215,up
216602,-9.351563,2.632813,2.984375,-1.195313,-1.029297,-1.419922,0.357849,-0.398254,0.419189,0.733215,up
216607,-9.585938,2.210938,3.289063,-1.212891,-1.085938,-1.390625,0.357849,-0.398254,0.419189,0.733215,up
216612,-9.585938,2.210938,3.289063,-1.134766,-1.212891,-1.5,0.365356,-0.399658,0.405701,0.736328,up
216617,-9.628906,1.90625,3.980469,-1.134766,-1.212891,-1.5,0.368408,-0.399902,0.401001,0.737244,up
216623,-9.46875,2.25,4.210937,-1.134766,-1.212891,-1.5,0.375488,-0.400269,0.391541,0.738586,up
216628,-9.390625,2.480469,4.09375,-1.134766,-1.212891,-1.5,0.375488,-0.400269,0.391541,0.738586,up
216633,-9.050781,3.054688,3.941406,-0.738281,-1.275391,-1.923828,0.375488,-0.400269,0.391541,0.738586,up
216638,-8.890625,3.359375,3.789063,-0.738281,-1.275391,-1.923828,0.387878,-0.400574,0.378296,0.738892,up
216643,-8.820313,3.667969,3.636719,-0.738281,-1.275391,-1.923828,0.387878,-0.400574,0.378296,0.738892,up
216648,-8.667969,3.78125,3.558594,-0.40625,-1.222656,-1.818359,0.396057,-0.400208,0.370728,0.738586,up
216653,-8.628906,3.820313,3.480469,-0.40625,-1.222656,-1.818359,0.396057,-0.400208,0.370728,0.738586,up
216658,-8.667969,3.628906,3.480469,-0.636719,-1.097656,-1.470703,0.400085,-0.399963,0.36676,0.738525,up
216663,-8.820313,3.132813,3.597656,-0.830078,-1.060547,-1.380859,0.402954,-0.399841,0.363525,0.738647,up
216668,-8.703125,2.519531,4.019531,-0.830078,-1.060547,-1.380859,0.406128,-0.399841,0.359314,0.738953,up
216673,-8.933594,2.25,4.132812,-1.148438,-0.949219,-1.269531,0.40863,-0.400024,0.355286,0.739441,up
216678,-9.050781,1.828125,4.363281,-1.148438,-0.949219,-1.269531,0.410767,-0.400391,0.351074,0.740051,up
216683,-9.394531,1.101563,4.515625,-1.148438,-0.949219,-1.269531,0.412659,-0.401123,0.346619,0.740723,up
216688,-9.433594,0.871094,4.515625,-1.148438,-0.949219,-1.269531,0.414551,-0.402222,0.341431,0.741516,up
216693,-9.550781,0.757812,4.515625,-1.671875,-0.806641,-1.501953,0.416016,-0.40332,0.336853,0.742126,up
216699,-9.511719,0.71875,4.632812,-1.445313,-0.785156,-1.597656,0.417908,-0.404907,0.330933,0.742859,up
216704,-9.933594,0.984375,4.59375,-1.445313,-0.785156,-1.597656,0.419739,-0.406189,0.326111,0.743347,up
216709,-9.933594,0.984375,4.59375,-1.302734,-0.808594,-1.679688,0.422058,-0.407471,0.320923,0.74353,up
216714,-9.933594,0.984375,4.59375,-1.302734,-0.808594,-1.679688,0.427795,-0.409485,0.311584,0.743103,up
216719,-10.15625,1.980469,5.128906,-1.302734,-0.808594,-1.679688,0.431519,-0.410156,0.307373,0.74231,up
216725,-10.238281,3.667969,4.746094,-1.302734,-0.808594,-1.679688,0.435608,-0.410645,0.303772,0.74115,up
216730,-10.160156,4.089844,4.632812,-0.207031,-0.6875,-2.1875,0.435608,-0.410645,0.303772,0.74115,up
216736,-10.039063,4.433594,4.210937,-0.199219,-0.554687,-2.166016,0.444702,-0.411926,0.29657,0.737915,up
216741,-10.234375,4.585937,4.132812,-0.34375,-0.484375,-2.070313,0.444702,-0.411926,0.29657,0.737915,up
216747,-10.351563,4.433594,4.324219,-0.619141,-0.390625,-1.898438,0.444702,-0.411926,0.29657,0.737915,up
216753,-10.8125,4.320312,4.476562,-1.216797,-0.025391,-1.46875,0.444702,-0.411926,0.29657,0.737915,up
216758,-11.769531,3.78125,5.207031,-1.216797,-0.025391,-1.46875,0.456421,-0.41748,0.283081,0.732971,up
216763,-12.414063,3.4375,5.472656,-1.216797,-0.025391,-1.46875,0.457397,-0.420349,0.279053,0.7323,up
216768,-13.109375,3.4375,5.589844,-1.216797,-0.025391,-1.46875,0.457336,-0.424377,0.274414,0.73175,up
216773,-13.878906,3.4375,5.550781,-2.136719,0.769531,-0.833984,0.454834,-0.432678,0.266968,0.731201,up
216778,-14.792969,3.667969,5.820312,-2.191406,1.214844,-0.255859,0.454834,-0.432678,0.266968,0.731201,up
216784,-16.941406,4.242187,6.738281,-1.863281,1.412109,0.115234,0.452454,-0.437439,0.263733,0.731018,up
216789,-18.242187,4.816406,7.390625,-1.863281,1.412109,0.115234,0.446106,-0.446594,0.26062,0.73053,up
216794,-21.082031,6.539062,8.347656,-1.863281,1.412109,0.115234,0.442444,-0.450378,0.262268,0.729797,up
216799,-22.496094,7.269531,8.539063,-1.863281,1.412109,0.115234,0.438904,-0.453308,0.266418,0.728638,up
216804,-22.496094,7.269531,8.539063,-1.863281,1.412109,0.115234,0.438904,-0.453308,0.266418,0.728638,up
216809,-23.839844,7.726562,8.652344,2.039063,3.058594,2.347656,0.438904,-0.453308,0.266418,0.728638,up
216814,-27.46875,10.945313,7.847656,3.361328,3.423828,3.21875,0.430664,-0.456604,0.286133,0.723999,up
216820,-28.394531,11.941406,6.625,4.578125,3.894531,4.128906,0.420288,-0.454712,0.319824,0.717163,up
216825,-29.734375,13.703125,3.40625,4.578125,3.894531,4.128906,0.413147,-0.452026,0.342224,0.712646,up
216830,-30.121094,14.277344,2.5625,4.578125,3.894531,4.128906,0.404114,-0.44812,0.367798,0.70752,up
216835,-29.734375,15.234375,1.03125,4.578125,3.894531,4.128906,0.404114,-0.44812,0.367798,0.70752,up
216840,-29.734375,15.234375,1.03125,7.011719,5.970703,8.494141,0.404114,-0.44812,0.367798,0.70752,up
216846,-29.921875,16.15625,-1.726563,7.011719,5.970703,8.494141,0.367737,-0.433838,0.445618,0.691345,up
216852,-29.65625,16.617187,-3.71875,7.011719,5.970703,8.494141,0.350159,-0.429077,0.473328,0.684998,up
216857,-28.699219,18.683594,-6.210937,7.011719,5.970703,8.494141,0.350159,-0.429077,0.473328,0.684998,up
216862,-28.699219,18.683594,-6.210937,4.080078,7.902344,11.074219,0.307434,-0.420593,0.523987,0.673828,up
216867,-28.734375,19.988281,-6.632812,3.126953,8.451172,11.880859,0.280334,-0.416199,0.548645,0.668762,up
216872,-28.734375,19.988281,-6.632812,2.265625,9.001953,12.695313,0.250732,-0.411743,0.571411,0.664124,up
216877,-29.847656,21.136719,-8.546875,2.265625,9.001953,12.695313,0.217957,-0.406738,0.59314,0.659729,up
216882,-30.082031,21.480469,-10.039063,2.265625,9.001953,12.695313,0.217957,-0.406738,0.59314,0.659729,up
216888,-30.425781,21.402344,-10.960938,2.265625,9.001953,12.695313,0.139954,-0.391296,0.635315,0.650879,up
216893,-30.726562,21.671875,-11.265625,2.265625,9.001953,12.695313,0.101379,-0.38092,0.653198,0.646484,up
216898,-31.070312,20.636719,-11.265625,0.736328,7.957031,18.292969,0.101379,-0.38092,0.653198,0.646484,up
216904,-31.386719,15.542969,-10.578125,0.736328,7.957031,18.292969,0.018066,-0.34967,0.689148,0.63446,up
216909,-31.453125,13.054688,-9.773438,0.984375,7.658203,19.832031,0.025635,0.328857,-0.706665,-0.625977,up
216914,-30.726562,10.945313,-9.160156,0.984375,7.658203,19.832031,0.114319,0.280151,-0.738037,-0.603088,up
216919,-29.621094,8.761719,-8.203125,1.890625,6.607422,19.896484,0.114319,0.280151,-0.738037,-0.603088,up
216924,-27.589844,1.445313,-2.992188,1.890625,6.607422,19.896484,0.191345,0.229431,-0.762573,-0.573792,up
216930,-22.109375,-7.019531,1.105469,1.890625,6.607422,19.896484,0.228577,0.202576,-0.773743,-0.555054,up
216935,-20.34375,-6.367187,3.214844,3.892578,5.287109,16.992187,0.228577,0.202576,-0.773743,-0.555054,up
216940,-19.050781,-6.523437,6.011719,3.892578,5.287109,16.992187,0.292236,0.154968,-0.792358,-0.512573,up
216946,-15.523438,-5.410156,12.253906,3.892578,5.287109,16.992187,0.318909,0.136047,-0.800354,-0.489136,up
216953,-14.679688,-4.183594,16.085937,6.552734,5.287109,12.890625,0.318909,0.136047,-0.800354,-0.489136,up
216958,-17.015625,-10.160156,22.480469,7.179687,5.771484,11.693359,0.318909,0.136047,-0.800354,-0.489136,up
216963,-17.4375,-11.65625,23.597656,7.355469,6.371094,10.189453,0.318909,0.136047,-0.800354,-0.489136,up
216968,-17.554687,-12.039063,25.050781,7.355469,6.371094,10.189453,0.411316,0.092224,-0.822449,-0.381958,up
216974,-17.859375,-12.84375,27.082031,7.359375,5.652344,6.820312,0.442505,0.089966,-0.826477,-0.336243,up
216979,-18.894531,-13.109375,30.679687,7.359375,5.652344,6.820312,0.453247,0.09259,-0.827759,-0.317444,up
216984,-18.472656,-11.730469,29.992187,7.359375,5.652344,6.820312,0.462891,0.098267,-0.828674,-0.29895,up
216989,-17.554687,-10.351563,28.226562,4.263672,2.917969,0.839844,0.462891,0.098267,-0.828674,-0.29895,up
216994,-15.523438,-9.355469,26.816406,4.263672,2.917969,0.839844,0.469482,0.103943,-0.828857,-0.28595,up
216999,-13.796875,-9.355469,25.429687,4.263672,2.917969,0.839844,0.476624,0.110168,-0.827515,-0.275452,up
217004,-12.265625,-9.96875,23.398437,-2.105469,0.431641,-0.201172,0.476624,0.110168,-0.827515,-0.275452,up
217009,-10.503906,-10.582031,20.492187,-3.232422,-0.212891,-0.445312,0.478577,0.109497,-0.825684,-0.277832,up
217015,-6.789062,-8.359375,15.507813,-3.232422,-0.212891,-0.445312,0.478699,0.103333,-0.821594,-0.29187,up
217020,-4.988281,-7.25,13.328125,-5.810547,-1.416016,-0.697266,0.47699,0.097412,-0.818848,-0.304016,up
217026,-2.230469,-5.105469,8.539063,-5.810547,-1.416016,-0.697266,0.474976,0.090759,-0.815918,-0.316895,up
217032,0.796875,-2.730469,5.324219,-5.810547,-1.416016,-0.697266,0.471985,0.080322,-0.811035,-0.336182,up
217037,2.214844,-1.808594,3.980469,-9.455078,-2.080078,-0.871094,0.471985,0.080322,-0.811035,-0.336182,up
217042,3.480469,-1.199219,2.292969,-9.261719,-1.849609,-1.125,0.471985,0.080322,-0.811035,-0.336182,up
217047,4.507812,-0.394531,0.035156,-8.177734,-1.433594,-1.410156,0.471985,0.080322,-0.811035,-0.336182,up
217052,6.011719,2.402344,-4.867187,-8.177734,-1.433594,-1.410156,0.471985,0.080322,-0.811035,-0.336182,up
217058,6.503906,3.9375,-6.636719,-8.177734,-1.433594,-1.410156,0.455322,0.039429,-0.78186,-0.424011,up
217064,6.964844,5.851562,-7.589844,-3.570313,-1.287109,-2.056641,0.446167,0.036438,-0.776428,-0.443542,up
217069,7.769531,7.535156,-8.050781,-3.570313,-1.287109,-2.056641,0.441589,0.037048,-0.775696,-0.449341,up
217074,8.839844,9.457031,-8.507813,-3.570313,-1.287109,-2.056641,0.441589,0.037048,-0.775696,-0.449341,up
217079,8.957031,10.179688,-8.851563,-0.220703,-0.894531,-2.242188,0.441589,0.037048,-0.775696,-0.449341,up
217084,9.453125,10.671875,-9.351563,-0.220703,-0.894531,-2.242188,0.431885,0.041504,-0.776001,-0.457764,up
217090,9.492188,9.949219,-9.425781,0.605469,-0.371094,-1.892578,0.42749,0.045166,-0.776611,-0.46051,up
217095,9.605469,9.835938,-9.425781,0.605469,-0.371094,-1.892578,0.421082,0.052917,-0.778625,-0.462219,up
217100,10.066406,10.257813,-9.390625,1.474609,-0.480469,-1.347656,0.418213,0.056885,-0.780457,-0.461182,up
217106,10.027344,10.945313,-6.9375,1.474609,-0.480469,-1.347656,0.415771,0.059753,-0.782288,-0.4599,up
217113,9.875,11.253906,-5.789062,1.216797,-0.779297,-0.835937,0.415771,0.059753,-0.782288,-0.4599,up
217118,9.605469,11.175781,-4.640625,0.980469,-0.683594,-0.625,0.415771,0.059753,-0.782288,-0.4599,up
217124,8.6875,10.289063,-3.949219,0.929687,-0.373047,-0.501953,0.40741,0.067322,-0.789246,-0.454468,up
217129,8.191406,9.875,-4.140625,0.929687,-0.373047,-0.501953,0.40741,0.067322,-0.789246,-0.454468,up
217134,7.730469,9.457031,-4.179687,1.304688,0.121094,-0.435547,0.406067,0.07196,-0.791931,-0.450256,up
217139,7.347656,8.953125,-3.871094,1.503906,-0.214844,-0.484375,0.406067,0.07196,-0.791931,-0.450256,up
217145,6.808594,8.339844,-2.648438,1.410156,-0.416016,-0.486328,0.404968,0.074402,-0.793701,-0.447815,up
217150,6.582031,8.296875,-1.882813,1.410156,-0.416016,-0.486328,0.401672,0.07843,-0.797485,-0.443359,up
217156,6.199219,8.109375,-1.0,1.410156,-0.416016,-0.486328,0.399841,0.079956,-0.799072,-0.441833,up
217161,5.816406,7.917969,-0.960937,1.410156,-0.416016,-0.486328,0.398376,0.081055,-0.800049,-0.441162,up
217167,5.621094,7.847656,-1.269531,0.074219,-0.238281,-0.429687,0.398376,0.081055,-0.800049,-0.441162,up
217172,5.46875,7.808594,-1.574219,-0.259766,-0.117188,-0.396484,0.398376,0.081055,-0.800049,-0.441162,up
217177,5.355469,7.769531,-1.84375,-0.494141,-0.083984,-0.351563,0.398376,0.081055,-0.800049,-0.441162,up
217184,5.203125,7.84375,-2.148438,-0.494141,-0.083984,-0.351563,0.398376,0.081055,-0.800049,-0.441162,up
217189,5.316406,7.992187,-2.148438,-0.742187,-0.126953,-0.291016,0.394348,0.082336,-0.798096,-0.448059,up
217194,5.238281,8.265625,-2.074219,-0.742187,-0.126953,-0.291016,0.394348,0.082336,-0.798096,-0.448059,up
217199,5.238281,8.375,-2.265625,-0.742187,-0.126953,-0.291016,0.393738,0.081238,-0.796204,-0.452148,up
217204,5.164062,8.339844,-2.457031,-0.742187,-0.126953,-0.291016,0.393738,0.081238,-0.796204,-0.452148,up
217209,5.164062,8.148438,-2.53125,-0.828125,-0.064453,-0.169922,0.393311,0.080139,-0.794434,-0.455811,up
217214,5.203125,7.691406,-2.339844,-0.828125,-0.064453,-0.169922,0.393311,0.080139,-0.794434,-0.455811,up
217219,5.203125,7.421875,-2.226563,-0.828125,-0.064453,-0.169922,0.392883,0.079651,-0.793762,-0.457458,up
217224,5.203125,7.269531,-2.148438,-0.464844,-0.160156,-0.117188,0.391907,0.078979,-0.792969,-0.459778,up
217229,5.355469,6.921875,-2.109375,-0.464844,-0.160156,-0.117188,0.391907,0.078979,-0.792969,-0.459778,up
217234,5.203125,6.921875,-1.957031,-0.464844,-0.160156,-0.117188,0.391296,0.078979,-0.792969,-0.460266,up
217239,4.933594,6.886719,-1.917969,-0.464844,-0.160156,-0.117188,0.390625,0.078979,-0.793152,-0.46051,up
217245,5.316406,7.191406,-2.109375,0.054687,-0.253906,-0.134766,0.389099,0.079224,-0.793762,-0.460754,up
217250,5.394531,7.078125,-2.683594,0.054687,-0.253906,-0.134766,0.388245,0.079407,-0.794067,-0.460876,up
217255,5.507812,7.191406,-2.457031,-0.080078,-0.328125,-0.160156,0.387268,0.079468,-0.794373,-0.461243,up
217260,5.429687,7.226562,-2.226563,-0.080078,-0.328125,-0.160156,0.386536,0.079468,-0.794495,-0.461548,up
217265,5.355469,7.53125,-2.648438,-0.080078,-0.328125,-0.160156,0.385925,0.079651,-0.794617,-0.461853,up
217270,5.277344,7.6875,-2.953125,-0.080078,-0.328125,-0.160156,0.385498,0.079956,-0.794678,-0.462036,up
217275,5.277344,7.730469,-3.261719,-0.177734,-0.091797,-0.177734,0.385071,0.080261,-0.794556,-0.462524,up
217280,5.316406,7.886719,-3.335938,-0.177734,-0.091797,-0.177734,0.384644,0.080261,-0.794434,-0.463135,up
217285,5.46875,8.113281,-3.070313,-0.177734,-0.091797,-0.177734,0.383972,0.080261,-0.794312,-0.463867,up
217291,5.507812,8.1875,-2.878906,-0.177734,-0.091797,-0.177734,0.38324,0.080139,-0.794189,-0.464661,up
217296,5.585937,8.148438,-2.683594,-0.212891,-0.171875,-0.162109,0.382629,0.080078,-0.794128,-0.465332,up
217301,5.507812,7.996094,-2.492188,-0.212891,-0.171875,-0.162109,0.382202,0.080078,-0.794006,-0.465881,up
217307,5.394531,7.84375,-2.492188,-0.212891,-0.171875,-0.162109,0.381836,0.080139,-0.793884,-0.46637,up
217312,5.277344,7.882812,-2.53125,-0.0625,-0.068359,-0.123047,0.381836,0.080139,-0.793884,-0.46637,up
217318,5.238281,7.953125,-2.570313,0.037109,-0.101563,-0.130859,0.381836,0.080139,-0.793884,-0.46637,up
217323,5.125,8.113281,-2.417969,0.037109,-0.101563,-0.130859,0.380615,0.080688,-0.794067,-0.46698,up
217329,5.125,8.113281,-2.339844,0.144531,-0.205078,-0.150391,0.380615,0.080688,-0.794067,-0.46698,up
217334,5.085937,8.109375,-2.265625,0.197266,-0.228516,-0.138672,0.380615,0.080688,-0.794067,-0.46698,up
217339,5.125,8.070313,-2.226563,0.197266,-0.228516,-0.138672,0.378601,0.081421,-0.795166,-0.466675,up
217345,5.085937,8.070313,-2.378906,0.197266,-0.228516,-0.138672,0.377319,0.081909,-0.795898,-0.46637,up
217350,5.046875,8.035156,-2.492188,0.083984,-0.136719,-0.132812,0.377319,0.081909,-0.795898,-0.46637,up
217355,5.011719,7.992187,-2.648438,0.083984,-0.136719,-0.132812,0.37677,0.082153,-0.796143,-0.466309,up
217360,5.011719,7.992187,-2.648438,-0.09375,-0.146484,-0.119141,0.375854,0.082458,-0.796387,-0.466614,up
217365,5.046875,7.917969,-2.570313,-0.154297,-0.136719,-0.113281,0.375854,0.082458,-0.796387,-0.466614,up
217370,5.046875,7.917969,-2.570313,-0.154297,-0.136719,-0.113281,0.375,0.082336,-0.796204,-0.46759,up
217375,5.011719,7.953125,-2.492188,-0.154297,-0.136719,-0.113281,0.375,0.082336,-0.796204,-0.46759,up
217380,5.046875,7.953125,-2.492188,-0.154297,-0.136719,-0.113281,0.374329,0.082092,-0.795959,-0.468567,up
217385,5.046875,7.886719,-2.492188,-0.185547,-0.089844,-0.037109,0.374329,0.082092,-0.795959,-0.468567,up
217390,5.046875,7.882812,-2.570313,-0.142578,-0.072266,-0.027344,0.374084,0.081909,-0.795837,-0.469055,up
217396,5.046875,7.882812,-2.570313,-0.070312,-0.070312,-0.023437,0.373657,0.081665,-0.795654,-0.469727,up
217401,5.085937,7.886719,-2.570313,-0.070312,-0.070312,-0.023437,0.373474,0.081665,-0.795654,-0.469849,up
217406,5.046875,7.882812,-2.570313,0.087891,-0.068359,-0.011719,0.37323,0.081665,-0.795776,-0.469788,up
217411,5.046875,7.808594,-2.570313,0.087891,-0.068359,-0.011719,0.373047,0.081787,-0.795959,-0.469666,up
217417,5.046875,7.765625,-2.492188,0.087891,-0.068359,-0.011719,0.372803,0.08197,-0.796265,-0.46936,up
217423,5.011719,7.769531,-2.457031,0.226562,-0.060547,-0.021484,0.372803,0.08197,-0.796265,-0.46936,up
217428,4.972656,7.726562,-2.339844,0.251953,-0.078125,-0.011719,0.372803,0.08197,-0.796265,-0.46936,up
217434,4.972656,7.726562,-2.226563,0.251953,-0.078125,-0.011719,0.372803,0.08197,-0.796265,-0.46936,up
217439,4.894531,7.613281,-2.148438,0.222656,-0.105469,-0.005859,0.372803,0.08197,-0.796265,-0.46936,up
217445,4.933594,7.535156,-2.109375,0.169922,-0.109375,0.005859,0.371155,0.082825,-0.798279,-0.467041,up
217450,4.933594,7.460937,-2.148438,0.169922,-0.109375,0.005859,0.370911,0.082825,-0.798462,-0.46698,up
217455,4.933594,7.464844,-2.1875,-0.013672,-0.126953,-0.001953,0.370605,0.082703,-0.798584,-0.46698,up
217460,4.972656,7.535156,-2.1875,-0.013672,-0.126953,-0.001953,0.370361,0.082581,-0.798645,-0.467102,up
217465,4.933594,7.691406,-2.417969,-0.097656,-0.134766,-0.033203,0.370361,0.082581,-0.798645,-0.467102,up
217470,5.011719,7.6875,-2.457031,-0.097656,-0.134766,-0.033203,0.369995,0.082458,-0.798645,-0.467346,up
217475,5.085937,7.726562,-2.53125,-0.097656,-0.134766,-0.033203,0.369324,0.082153,-0.798645,-0.468018,up
217480,5.164062,7.726562,-2.609375,-0.097656,-0.134766,-0.033203,0.369324,0.082153,-0.798645,-0.468018,up
217485,5.203125,7.808594,-2.800781,-0.171875,-0.113281,-0.101563,0.369324,0.082153,-0.798645,-0.468018,up
217490,5.203125,7.847656,-2.839844,-0.171875,-0.113281,-0.101563,0.368286,0.082092,-0.798279,-0.469482,up
