timestamp,ax,ay,az,gx,gy,gz,qw,qx,qy,qz,label
187422,-8.707031,0.148437,4.226562,0.015625,-0.027344,0.169922,0.65802,-0.316406,0.433167,0.528442,up
187428,-8.585938,0.03125,4.304687,0.015625,-0.027344,0.169922,0.657654,-0.315918,0.433411,0.528992,up
187433,-8.585938,0.03125,4.304687,0.048828,-0.044922,0.173828,0.657532,-0.315552,0.433533,0.529297,up
187438,-8.511719,0.03125,4.226562,0.048828,-0.044922,0.173828,0.657349,-0.315186,0.433655,0.529602,up
187444,-8.398438,0.148437,4.074219,0.048828,-0.044922,0.173828,0.657227,-0.314941,0.433838,0.529785,up
187449,-8.324219,0.148437,4.074219,0.103516,0.005859,0.164062,0.657227,-0.314941,0.433838,0.529785,up
187455,-8.285156,0.1875,4.074219,0.152344,0.023437,0.177734,0.656921,-0.314209,0.434448,0.53009,up
187460,-8.324219,0.1875,4.035156,0.207031,0.044922,0.189453,0.656921,-0.314209,0.434448,0.53009,up
187465,-8.402344,0.109375,4.035156,0.207031,0.044922,0.189453,0.656616,-0.313232,0.435425,0.530212,up
187471,-8.402344,0.109375,3.996094,0.292969,0.09375,0.212891,0.656616,-0.313232,0.435425,0.530212,up
187476,-8.402344,0.109375,3.996094,0.347656,0.107422,0.208984,0.656311,-0.312073,0.436829,0.530151,up
187481,-8.441406,0.222656,3.996094,0.357422,0.115234,0.193359,0.656311,-0.312073,0.436829,0.530151,up
187486,-8.441406,0.222656,3.996094,0.369141,0.123047,0.171875,0.656067,-0.31073,0.438477,0.529846,up
187491,-8.667969,0.453125,4.035156,0.369141,0.123047,0.171875,0.656067,-0.31073,0.438477,0.529846,up
187496,-8.667969,0.453125,4.035156,0.375,0.130859,0.142578,0.656006,-0.30957,0.440125,0.529297,up
187502,-8.742188,0.683594,4.074219,0.375,0.130859,0.142578,0.656006,-0.30957,0.440125,0.529297,up
187507,-8.742188,0.683594,4.074219,0.226562,0.126953,0.117188,0.656006,-0.30957,0.440125,0.529297,up
187512,-8.824219,0.683594,4.074219,0.226562,0.126953,0.117188,0.655823,-0.308167,0.442261,0.528564,up
187517,-8.859375,0.683594,4.074219,0.103516,0.085937,0.101563,0.655823,-0.308167,0.442261,0.528564,up
187522,-8.929688,0.683594,4.1875,0.039063,0.070312,0.097656,0.655518,-0.307617,0.443237,0.528442,up
187527,-8.929688,0.683594,4.113281,0.039063,0.070312,0.097656,0.655151,-0.307434,0.443726,0.528564,up
187532,-8.890625,0.683594,4.113281,-0.085937,0.052734,0.082031,0.655151,-0.307434,0.443726,0.528564,up
187537,-8.820313,0.683594,4.035156,-0.085937,0.052734,0.082031,0.654724,-0.307617,0.443848,0.528931,up
187542,-8.78125,0.683594,4.074219,-0.113281,0.015625,0.097656,0.654724,-0.307617,0.443848,0.528931,up
187547,-8.746094,0.683594,4.035156,-0.113281,0.015625,0.097656,0.654419,-0.307678,0.443787,0.529175,up
187552,-8.742188,0.570312,3.996094,-0.107422,0.003906,0.125,0.654419,-0.307678,0.443787,0.529175,up
187557,-8.703125,0.378906,3.996094,-0.089844,0.001953,0.130859,0.653687,-0.307739,0.443787,0.53009,up
187562,-8.664063,0.339844,3.996094,-0.033203,-0.021484,0.144531,0.653687,-0.307739,0.443787,0.53009,up
187567,-8.550781,0.261719,3.957031,-0.033203,-0.021484,0.144531,0.653503,-0.307617,0.443787,0.530457,up
187572,-8.511719,0.261719,3.921875,-0.033203,-0.021484,0.144531,0.653198,-0.307251,0.44397,0.530884,up
187577,-8.507813,0.261719,3.882813,-0.033203,-0.021484,0.144531,0.653198,-0.307251,0.44397,0.530884,up
187582,-8.441406,0.300781,3.804688,0.097656,-0.003906,0.105469,0.653076,-0.306702,0.444397,0.531006,up
187587,-8.441406,0.300781,3.765625,0.097656,-0.003906,0.105469,0.653076,-0.306702,0.444397,0.531006,up
187592,-8.4375,0.378906,3.804688,0.097656,-0.003906,0.105469,0.653015,-0.305908,0.44519,0.530823,up
187597,-8.4375,0.414062,3.84375,0.271484,0.060547,0.089844,0.653015,-0.305908,0.44519,0.530823,up
187602,-8.46875,0.414062,3.804688,0.271484,0.060547,0.089844,0.653015,-0.305481,0.445679,0.53064,up
187607,-8.472656,0.492187,3.84375,0.300781,0.082031,0.089844,0.653015,-0.305481,0.445679,0.53064,up
187612,-8.46875,0.53125,3.765625,0.3125,0.091797,0.0625,0.653076,-0.304504,0.446838,0.530212,up
187617,-8.46875,0.605469,3.84375,0.3125,0.091797,0.0625,0.653137,-0.303589,0.448059,0.529541,up
187622,-8.441406,0.683594,3.691406,0.3125,0.091797,0.0625,0.653137,-0.303589,0.448059,0.529541,up
187627,-8.46875,0.683594,3.730469,0.3125,0.091797,0.0625,0.653198,-0.302917,0.44928,0.528931,up
187632,-8.441406,0.683594,3.730469,0.3125,0.091797,0.0625,0.653198,-0.302917,0.44928,0.528931,up
187637,-8.441406,0.683594,3.765625,0.140625,0.101563,0.03125,0.653198,-0.302917,0.44928,0.528931,up
187642,-8.46875,0.683594,3.730469,0.140625,0.101563,0.03125,0.653137,-0.302551,0.450134,0.528503,up
187647,-8.507813,0.644531,3.804688,0.048828,0.095703,0.039063,0.653076,-0.302429,0.4505,0.52832,up
187653,-8.589844,0.605469,3.765625,0.048828,0.095703,0.039063,0.652832,-0.302368,0.450989,0.528198,up
187658,-8.511719,0.570312,3.765625,0.048828,0.095703,0.039063,0.652649,-0.302429,0.451233,0.528198,up
187664,-8.472656,0.605469,3.730469,0.048828,0.095703,0.039063,0.652527,-0.30249,0.451355,0.528198,up
187669,-8.441406,0.644531,3.691406,0.013672,0.078125,0.013672,0.652527,-0.30249,0.451355,0.528198,up
187674,-8.46875,0.644531,3.691406,0.035156,0.082031,0.013672,0.652527,-0.30249,0.451355,0.528198,up
187680,-8.546875,0.570312,3.730469,0.035156,0.082031,0.013672,0.652283,-0.302551,0.451904,0.528015,up
187685,-8.628906,0.570312,3.730469,0.091797,0.095703,0.013672,0.652283,-0.302551,0.451904,0.528015,up
187690,-8.628906,0.570312,3.765625,0.140625,0.087891,0.003906,0.652283,-0.302551,0.451904,0.528015,up
187695,-8.628906,0.605469,3.804688,0.166016,0.087891,-0.023437,0.652283,-0.302551,0.451904,0.528015,up
187701,-8.703125,0.644531,3.765625,0.166016,0.087891,-0.023437,0.652283,-0.302551,0.451904,0.528015,up
187706,-8.664063,0.683594,3.730469,0.166016,0.087891,-0.023437,0.652283,-0.302124,0.453552,0.526794,up
187712,-8.664063,0.683594,3.765625,0.126953,0.140625,-0.076172,0.652283,-0.302124,0.453552,0.526794,up
187718,-8.742188,0.722656,3.84375,0.126953,0.140625,-0.076172,0.652405,-0.302246,0.45459,0.525696,up
187723,-8.703125,0.761719,3.882813,0.058594,0.160156,-0.048828,0.652344,-0.302429,0.454895,0.525391,up
187729,-8.78125,0.722656,3.84375,0.021484,0.166016,-0.033203,0.652283,-0.302612,0.4552,0.525146,up
187734,-8.894531,0.683594,3.921875,0.021484,0.166016,-0.033203,0.6521,-0.302795,0.455444,0.524963,up
187739,-8.929688,0.683594,3.957031,-0.017578,0.164062,-0.003906,0.6521,-0.302795,0.455444,0.524963,up
187744,-8.933594,0.683594,3.921875,-0.021484,0.160156,0.011719,0.6521,-0.302795,0.455444,0.524963,up
187749,-8.929688,0.644531,3.957031,-0.021484,0.166016,0.023437,0.6521,-0.302795,0.455444,0.524963,up
187754,-8.929688,0.683594,3.882813,-0.021484,0.166016,0.023437,0.651306,-0.303711,0.456482,0.524597,up
187760,-8.890625,0.683594,3.882813,-0.021484,0.166016,0.023437,0.651062,-0.303894,0.456787,0.524536,up
187765,-8.863281,0.683594,3.882813,0.029297,0.164062,0.0625,0.651062,-0.303894,0.456787,0.524536,up
187770,-8.929688,0.683594,3.84375,0.056641,0.169922,0.078125,0.651062,-0.303894,0.456787,0.524536,up
187775,-8.929688,0.644531,3.84375,0.078125,0.167969,0.085937,0.651062,-0.303894,0.456787,0.524536,up
187780,-8.972656,0.644531,3.84375,0.095703,0.173828,0.095703,0.651062,-0.303894,0.456787,0.524536,up
187785,-8.972656,0.644531,3.882813,0.126953,0.175781,0.099609,0.651062,-0.303894,0.456787,0.524536,up
187790,-9.007813,0.605469,3.882813,0.126953,0.175781,0.099609,0.649536,-0.303894,0.459412,0.524048,up
187795,-9.050781,0.605469,3.84375,0.126953,0.175781,0.099609,0.649536,-0.303894,0.459412,0.524048,up
187800,-9.085938,0.644531,3.804688,0.123047,0.175781,0.054687,0.649536,-0.303894,0.459412,0.524048,up
187805,-9.085938,0.683594,3.804688,0.119141,0.160156,0.03125,0.649536,-0.303894,0.459412,0.524048,up
187811,-9.050781,0.722656,3.882813,0.111328,0.148437,0.005859,0.649536,-0.303894,0.459412,0.524048,up
187816,-9.050781,0.761719,3.84375,0.103516,0.154297,-0.013672,0.649536,-0.303894,0.459412,0.524048,up
187821,-9.050781,0.800781,3.804688,0.085937,0.152344,-0.021484,0.649536,-0.303894,0.459412,0.524048,up
187827,-9.046875,0.875,3.84375,0.085937,0.152344,-0.021484,0.648499,-0.304016,0.462708,0.5224,up
187832,-9.089844,0.914062,3.84375,0.085937,0.152344,-0.021484,0.648499,-0.304016,0.462708,0.5224,up
187837,-9.050781,0.875,3.765625,0.001953,0.152344,-0.017578,0.648499,-0.304016,0.462708,0.5224,up
187842,-9.050781,0.914062,3.765625,-0.027344,0.146484,0.0,0.648499,-0.304016,0.462708,0.5224,up
187847,-9.050781,0.875,3.730469,-0.027344,0.146484,0.0,0.64801,-0.304688,0.463379,0.522034,up
187852,-8.96875,0.875,3.730469,-0.105469,0.132812,0.019531,0.64801,-0.304688,0.463379,0.522034,up
187858,-8.96875,0.914062,3.691406,-0.117188,0.125,0.041016,0.64801,-0.304688,0.463379,0.522034,up
187863,-8.894531,0.835937,3.730469,-0.117188,0.125,0.041016,0.64679,-0.305969,0.463745,0.522461,up
187868,-8.894531,0.800781,3.730469,-0.128906,0.111328,0.115234,0.64679,-0.305969,0.463745,0.522461,up
187873,-8.96875,0.800781,3.730469,-0.128906,0.111328,0.115234,0.646057,-0.306396,0.463928,0.522949,up
187878,-8.933594,0.761719,3.652344,-0.128906,0.111328,0.115234,0.645691,-0.306519,0.464111,0.523193,up
187883,-8.894531,0.722656,3.652344,-0.082031,0.130859,0.169922,0.645203,-0.306641,0.464294,0.523499,up
187888,-8.933594,0.683594,3.691406,-0.060547,0.132812,0.173828,0.645203,-0.306641,0.464294,0.523499,up
187893,-8.929688,0.683594,3.613281,-0.060547,0.132812,0.173828,0.644409,-0.306763,0.464844,0.523987,up
187899,-8.972656,0.570312,3.691406,-0.060547,0.132812,0.173828,0.643982,-0.306824,0.465149,0.52417,up
187904,-8.890625,0.605469,3.691406,0.025391,0.140625,0.128906,0.643677,-0.306824,0.465515,0.524292,up
187909,-8.859375,0.644531,3.730469,0.074219,0.128906,0.101563,0.643372,-0.306824,0.465881,0.524292,up
187915,-8.824219,0.683594,3.691406,0.074219,0.128906,0.101563,0.643188,-0.306702,0.466248,0.524231,up
187920,-8.820313,0.722656,3.691406,0.111328,0.142578,0.048828,0.643188,-0.306702,0.466248,0.524231,up
187925,-8.820313,0.722656,3.730469,0.117188,0.158203,0.035156,0.643188,-0.306702,0.466248,0.524231,up
187930,-8.824219,0.835937,3.691406,0.105469,0.169922,0.021484,0.643188,-0.306702,0.466248,0.524231,up
187935,-8.824219,0.875,3.730469,0.105469,0.169922,0.021484,0.642578,-0.306702,0.467957,0.523499,up
187941,-8.824219,0.914062,3.765625,0.050781,0.195312,0.011719,0.642578,-0.306702,0.467957,0.523499,up
187946,-8.824219,0.953125,3.804688,0.009766,0.205078,0.023437,0.642578,-0.306702,0.467957,0.523499,up
187951,-8.824219,0.953125,3.765625,0.009766,0.205078,0.023437,0.641846,-0.307251,0.469055,0.523071,up
187957,-8.824219,1.027344,3.804688,0.009766,0.205078,0.023437,0.641846,-0.307251,0.469055,0.523071,up
187963,-8.824219,1.027344,3.765625,-0.123047,0.191406,0.068359,0.640686,-0.308289,0.469788,0.523254,up
187968,-8.746094,1.066406,3.730469,-0.123047,0.191406,0.068359,0.640198,-0.308716,0.469971,0.523437,up
187973,-8.742188,1.144531,3.691406,-0.197266,0.210937,0.148437,0.640198,-0.308716,0.469971,0.523437,up
187978,-8.703125,1.21875,3.691406,-0.197266,0.210937,0.148437,0.639648,-0.309143,0.470154,0.523743,up
187983,-8.664063,1.296875,3.652344,-0.201172,0.210937,0.197266,0.638245,-0.309875,0.470642,0.524536,up
187989,-8.785156,1.027344,3.613281,-0.201172,0.210937,0.197266,0.637512,-0.310181,0.470886,0.525024,up
187994,-8.785156,1.027344,3.613281,-0.201172,0.263672,0.371094,0.636597,-0.310486,0.471313,0.525635,up
187999,-8.96875,0.722656,3.539063,-0.179687,0.273438,0.380859,0.635498,-0.31073,0.471863,0.526306,up
188005,-9.011719,0.570312,3.574219,-0.179687,0.273438,0.380859,0.634644,-0.310852,0.47229,0.526855,up
188010,-9.011719,0.570312,3.765625,-0.179687,0.273438,0.380859,0.633789,-0.310852,0.472717,0.527405,up
188016,-8.929688,0.570312,3.765625,-0.060547,0.175781,0.306641,0.633789,-0.310852,0.472717,0.527405,up
188021,-8.929688,0.605469,3.691406,0.007813,0.169922,0.244141,0.633789,-0.310852,0.472717,0.527405,up
188028,-8.863281,0.683594,3.652344,0.007813,0.169922,0.244141,0.633789,-0.310852,0.472717,0.527405,up
188033,-8.824219,0.761719,3.652344,0.169922,0.148437,0.144531,0.633789,-0.310852,0.472717,0.527405,up
188038,-8.746094,0.914062,3.613281,0.240234,0.146484,0.115234,0.631409,-0.309875,0.475952,0.527954,up
188043,-8.742188,1.296875,3.539063,0.240234,0.146484,0.115234,0.631287,-0.30957,0.476685,0.527649,up
188048,-8.742188,1.449219,3.5,0.259766,0.207031,0.125,0.631287,-0.30957,0.476685,0.527649,up
188053,-8.746094,1.601563,3.460938,0.259766,0.207031,0.125,0.630859,-0.30896,0.478271,0.5271,up
188058,-8.707031,1.757813,3.460938,0.259766,0.207031,0.125,0.630859,-0.30896,0.478271,0.5271,up
188063,-8.746094,1.832031,3.382813,0.166016,0.240234,0.216797,0.629944,-0.308533,0.479858,0.527039,up
188068,-8.667969,1.871094,3.382813,0.166016,0.240234,0.216797,0.629944,-0.308533,0.479858,0.527039,up
188073,-8.628906,1.988281,3.308594,-0.052734,0.314453,0.425781,0.629944,-0.308533,0.479858,0.527039,up
188078,-8.625,2.0625,3.230469,-0.052734,0.314453,0.425781,0.62738,-0.30835,0.481995,0.528137,up
188083,-8.589844,2.140625,3.191406,-0.052734,0.314453,0.425781,0.625977,-0.308411,0.482849,0.529053,up
188088,-8.667969,2.140625,3.191406,-0.052734,0.314453,0.425781,0.625977,-0.308411,0.482849,0.529053,up
188093,-8.746094,2.140625,3.191406,-0.267578,0.429687,0.820312,0.625977,-0.308411,0.482849,0.529053,up
188099,-8.824219,2.023438,3.117188,-0.267578,0.429687,0.820312,0.620972,-0.308411,0.485474,0.532532,up
188104,-8.859375,1.949219,3.078125,-0.275391,0.5,0.994141,0.618713,-0.30835,0.486694,0.534119,up
188110,-8.929688,1.757813,3.078125,-0.275391,0.5,0.994141,0.616577,-0.308228,0.487854,0.535583,up
188116,-9.011719,1.601563,2.960938,-0.261719,0.544922,1.091797,0.616577,-0.308228,0.487854,0.535583,up
188121,-9.011719,1.601563,2.960938,-0.210937,0.572266,1.115234,0.616577,-0.308228,0.487854,0.535583,up
188126,-8.894531,1.566406,2.960938,-0.125,0.570312,1.130859,0.616577,-0.308228,0.487854,0.535583,up
188132,-8.929688,1.488281,3.0,-0.125,0.570312,1.130859,0.607422,-0.306946,0.49353,0.541504,up
188138,-8.890625,1.601563,3.0,-0.125,0.570312,1.130859,0.602905,-0.305603,0.497192,0.543945,up
188143,-8.863281,1.601563,2.925781,-0.125,0.570312,1.130859,0.602905,-0.305603,0.497192,0.543945,up
188148,-8.820313,1.679688,2.886719,0.195312,0.587891,1.130859,0.598633,-0.303772,0.501282,0.546021,up
188153,-8.785156,1.792969,2.808594,0.195312,0.587891,1.130859,0.598633,-0.303772,0.501282,0.546021,up
188158,-8.746094,1.910156,2.734375,0.304688,0.574219,1.160156,0.596375,-0.302673,0.503479,0.546997,up
188163,-8.824219,2.023438,2.734375,0.304688,0.574219,1.160156,0.594299,-0.301575,0.505615,0.547913,up
188169,-8.785156,2.292969,2.65625,0.304688,0.574219,1.160156,0.59021,-0.299316,0.509827,0.549683,up
188174,-8.742188,2.484375,2.578125,0.304688,0.574219,1.160156,0.59021,-0.299316,0.509827,0.549683,up
188179,-8.742188,2.484375,2.578125,0.300781,0.609375,1.248047,0.588013,-0.298157,0.512024,0.550659,up
188184,-8.785156,2.597656,2.578125,0.279297,0.642578,1.279297,0.588013,-0.298157,0.512024,0.550659,up
188189,-8.820313,2.789063,2.542969,0.259766,0.677734,1.326172,0.588013,-0.298157,0.512024,0.550659,up
188194,-8.820313,2.789063,2.542969,0.224609,0.710937,1.376953,0.580627,-0.294678,0.518921,0.553894,up
188200,-9.007813,3.097656,2.503906,0.224609,0.710937,1.376953,0.574951,-0.292358,0.523682,0.556458,up
188205,-9.089844,3.25,2.503906,0.224609,0.710937,1.376953,0.571655,-0.291077,0.526367,0.558044,up
188212,-9.246094,3.441406,2.617188,0.224609,0.710937,1.376953,0.571655,-0.291077,0.526367,0.558044,up
188218,-9.3125,3.289063,2.808594,0.230469,0.644531,1.763672,0.571655,-0.291077,0.526367,0.558044,up
188223,-9.3125,3.25,2.769531,0.255859,0.599609,1.863281,0.562012,-0.286194,0.533936,0.56311,up
188228,-9.277344,3.136719,2.695313,0.255859,0.599609,1.863281,0.559082,-0.284363,0.536255,0.564819,up
188233,-9.246094,3.097656,2.65625,0.326172,0.591797,2.099609,0.559082,-0.284363,0.536255,0.564819,up
188238,-9.242188,3.058594,2.617188,0.373047,0.572266,2.212891,0.548279,-0.276611,0.544739,0.571106,up
188243,-9.242188,3.058594,2.617188,0.373047,0.572266,2.212891,0.548279,-0.276611,0.544739,0.571106,up
188248,-9.164063,3.058594,2.578125,0.373047,0.572266,2.212891,0.544128,-0.273193,0.548157,0.573486,up
188254,-9.125,3.058594,2.578125,0.777344,0.490234,2.431641,0.544128,-0.273193,0.548157,0.573486,up
188259,-8.972656,3.097656,2.578125,0.777344,0.490234,2.431641,0.533386,-0.262756,0.557861,0.579041,up
188264,-8.929688,3.175781,2.542969,0.777344,0.490234,2.431641,0.529358,-0.258545,0.561829,0.58075,up
188269,-8.863281,3.210938,2.503906,1.117188,0.582031,2.363281,0.529358,-0.258545,0.561829,0.58075,up
188274,-8.824219,3.289063,2.425781,1.117188,0.582031,2.363281,0.522461,-0.250732,0.569397,0.583008,up
188279,-8.824219,3.824219,2.503906,1.117188,0.582031,2.363281,0.522461,-0.250732,0.569397,0.583008,up
188284,-8.824219,3.824219,2.503906,1.400391,0.515625,2.302734,0.519287,-0.246704,0.573303,0.58374,up
188289,-8.78125,4.015625,2.503906,1.400391,0.515625,2.302734,0.516174,-0.242187,0.577454,0.584351,up
188294,-8.707031,4.285156,2.503906,1.693359,0.369141,2.316406,0.513123,-0.237244,0.581848,0.584717,up
188299,-8.707031,4.285156,2.503906,1.8125,0.34375,2.359375,0.510254,-0.232178,0.586182,0.584961,up
188305,-8.585938,4.820312,2.15625,1.888672,0.318359,2.423828,0.504333,-0.221069,0.595276,0.585144,up
188311,-8.546875,5.050781,1.890625,1.888672,0.318359,2.423828,0.501221,-0.215332,0.599854,0.585266,up
188316,-8.402344,5.203125,1.929688,1.888672,0.318359,2.423828,0.497986,-0.209412,0.604492,0.585449,up
188322,-8.28125,5.203125,1.851563,1.900391,0.337891,2.757813,0.497986,-0.209412,0.604492,0.585449,up
188327,-8.125,5.28125,1.738281,1.841797,0.365234,2.792969,0.497986,-0.209412,0.604492,0.585449,up
188332,-8.164063,5.320312,1.699219,1.763672,0.382813,2.802734,0.497986,-0.209412,0.604492,0.585449,up
188337,-8.128906,5.203125,1.773438,1.650391,0.373047,2.800781,0.497986,-0.209412,0.604492,0.585449,up
188342,-8.058594,5.28125,1.699219,1.566406,0.361328,2.78125,0.497986,-0.209412,0.604492,0.585449,up
188348,-7.824219,5.28125,1.429688,1.566406,0.361328,2.78125,0.475037,-0.173828,0.630615,0.588562,up
188353,-7.742187,5.28125,1.355469,1.566406,0.361328,2.78125,0.47113,-0.168335,0.634399,0.589233,up
188358,-7.742187,5.28125,1.355469,1.558594,0.394531,2.683594,0.467041,-0.162659,0.638367,0.589783,up
188363,-7.636719,5.320312,1.277344,1.583984,0.404297,2.621094,0.467041,-0.162659,0.638367,0.589783,up
188368,-7.636719,5.320312,1.277344,1.644531,0.378906,2.541016,0.459412,-0.151855,0.645935,0.590454,up
188373,-7.476562,5.394531,1.277344,1.644531,0.378906,2.541016,0.459412,-0.151855,0.645935,0.590454,up
188378,-7.476562,5.394531,1.277344,1.783203,0.277344,2.318359,0.452393,-0.14093,0.653625,0.590149,up
188384,-7.324219,5.585937,1.355469,1.783203,0.277344,2.318359,0.44635,-0.13031,0.661072,0.588867,up
188389,-7.285156,5.703125,1.277344,1.783203,0.277344,2.318359,0.443481,-0.124634,0.665161,0.587708,up
188394,-7.210937,5.855469,1.199219,1.783203,0.277344,2.318359,0.443481,-0.124634,0.665161,0.587708,up
188399,-7.25,6.007812,1.160156,2.007813,0.119141,1.783203,0.439209,-0.114929,0.672058,0.585022,up
188404,-7.175781,6.085937,1.125,2.007813,0.119141,1.783203,0.437378,-0.110168,0.675415,0.583435,up
188409,-7.097656,6.199219,1.125,1.861328,-0.048828,1.472656,0.437378,-0.110168,0.675415,0.583435,up
188414,-7.058594,6.351562,1.007813,1.861328,-0.048828,1.472656,0.435547,-0.10498,0.678894,0.581726,up
188419,-6.871094,6.507812,0.855469,1.779297,-0.060547,1.404297,0.435547,-0.10498,0.678894,0.581726,up
188424,-6.871094,6.507812,0.855469,1.779297,-0.060547,1.404297,0.431396,-0.092529,0.68689,0.577515,up
188429,-6.75,6.660156,0.703125,1.779297,-0.060547,1.404297,0.431396,-0.092529,0.68689,0.577515,up
188434,-6.710937,6.8125,0.625,1.210938,-0.083984,1.126953,0.431396,-0.092529,0.68689,0.577515,up
188439,-6.710937,6.8125,0.625,1.210938,-0.083984,1.126953,0.428833,-0.085205,0.691284,0.575317,up
188444,-6.558594,6.960937,0.472656,1.210938,-0.083984,1.126953,0.428833,-0.085205,0.691284,0.575317,up
188449,-6.484375,7.003906,0.585937,1.048828,-0.097656,1.072266,0.428833,-0.085205,0.691284,0.575317,up
188454,-6.484375,7.003906,0.585937,0.705078,-0.164062,0.904297,0.424622,-0.073425,0.696899,0.573303,up
188459,-6.40625,7.042969,0.550781,0.705078,-0.164062,0.904297,0.423706,-0.070923,0.697876,0.57312,up
188464,-6.328125,6.964844,0.550781,0.615234,-0.160156,0.763672,0.423706,-0.070923,0.697876,0.57312,up
188469,-6.367187,6.933594,0.550781,0.615234,-0.160156,0.763672,0.422913,-0.06842,0.698792,0.572876,up
188474,-6.367187,6.890625,0.511719,0.5625,-0.228516,0.630859,0.422913,-0.06842,0.698792,0.572876,up
188479,-6.289062,6.964844,0.550781,0.5625,-0.228516,0.630859,0.421448,-0.062378,0.700867,0.572083,up
188484,-6.289062,6.964844,0.550781,0.550781,-0.271484,0.498047,0.421448,-0.062378,0.700867,0.572083,up
188489,-6.328125,7.039062,0.472656,0.558594,-0.294922,0.429687,0.421204,-0.060364,0.701538,0.571655,up
188494,-6.367187,7.078125,0.472656,0.558594,-0.294922,0.429687,0.421143,-0.056885,0.702576,0.57074,up
188499,-6.328125,7.082031,0.433594,0.558594,-0.294922,0.429687,0.421265,-0.055298,0.703064,0.570251,up
188504,-6.289062,7.238281,0.433594,0.558594,-0.294922,0.429687,0.421265,-0.055298,0.703064,0.570251,up
188509,-6.289062,7.277344,0.394531,0.488281,-0.341797,0.289063,0.421753,-0.052307,0.703796,0.569214,up
188514,-6.328125,7.277344,0.394531,0.488281,-0.341797,0.289063,0.421753,-0.052307,0.703796,0.569214,up
188519,-6.328125,7.3125,0.394531,0.367188,-0.390625,0.154297,0.421753,-0.052307,0.703796,0.569214,up
188524,-6.328125,7.347656,0.394531,0.367188,-0.390625,0.154297,0.422668,-0.0495,0.704285,0.568298,up
188530,-6.367187,7.386719,0.394531,0.259766,-0.445312,0.060547,0.423218,-0.04834,0.704346,0.567871,up
188535,-6.367187,7.386719,0.359375,0.259766,-0.445312,0.060547,0.424561,-0.046387,0.704163,0.5672,up
188540,-6.367187,7.382812,0.320313,0.132812,-0.505859,-0.029297,0.425537,-0.045471,0.703857,0.566956,up
188546,-6.367187,7.34375,0.320313,0.132812,-0.505859,-0.029297,0.426575,-0.044678,0.70343,0.566772,up
188552,-6.367187,7.34375,0.320313,0.132812,-0.505859,-0.029297,0.42749,-0.044067,0.702942,0.566711,up
188557,-6.367187,7.316406,0.320313,-0.007813,-0.556641,-0.125,0.42749,-0.044067,0.702942,0.566711,up
188563,-6.328125,7.3125,0.359375,-0.041016,-0.576172,-0.162109,0.42749,-0.044067,0.702942,0.566711,up
188569,-6.328125,7.121094,0.433594,-0.109375,-0.625,-0.230469,0.42749,-0.044067,0.702942,0.566711,up
188574,-6.40625,7.0,0.472656,-0.109375,-0.625,-0.230469,0.432434,-0.042114,0.700195,0.566528,up
188579,-6.445312,6.890625,0.550781,-0.105469,-0.779297,-0.365234,0.432434,-0.042114,0.700195,0.566528,up
188584,-6.519531,6.46875,0.96875,-0.105469,-0.779297,-0.365234,0.435669,-0.041443,0.698242,0.566467,up
188589,-6.632812,6.351562,1.160156,-0.105469,-0.779297,-0.365234,0.437866,-0.041077,0.697144,0.566223,up
188594,-6.832031,6.238281,1.355469,-0.066406,-1.033203,-0.625,0.437866,-0.041077,0.697144,0.566223,up
188600,-7.019531,6.277344,1.621094,-0.041016,-1.216797,-0.800781,0.446838,-0.040222,0.692871,0.564453,up
188606,-7.558594,6.964844,2.542969,-0.041016,-1.216797,-0.800781,0.450684,-0.039978,0.691223,0.563477,up
188611,-7.632812,6.964844,2.464844,-0.005859,-1.734375,-1.419922,0.450684,-0.039978,0.691223,0.563477,up
188616,-7.707031,6.8125,2.121094,-0.101563,-1.769531,-1.576172,0.450684,-0.039978,0.691223,0.563477,up
188622,-7.902344,6.964844,1.125,-0.222656,-1.773438,-1.707031,0.450684,-0.039978,0.691223,0.563477,up
188628,-8.015625,7.121094,0.894531,-0.330078,-1.867188,-1.800781,0.450684,-0.039978,0.691223,0.563477,up
188633,-7.976562,7.195312,0.933594,-0.417969,-2.041016,-1.851563,0.450684,-0.039978,0.691223,0.563477,up
188638,-7.976562,7.195312,0.933594,-0.501953,-2.228516,-1.869141,0.483398,-0.042969,0.675354,0.555359,up
188643,-7.632812,7.734375,1.316406,-0.501953,-2.228516,-1.869141,0.483398,-0.042969,0.675354,0.555359,up
188648,-7.515625,8.117188,1.390625,-0.615234,-2.316406,-1.855469,0.496216,-0.044312,0.667542,0.553406,up
188653,-7.515625,8.117188,1.390625,-0.615234,-2.316406,-1.855469,0.496216,-0.044312,0.667542,0.553406,up
188658,-7.25,7.808594,1.199219,-1.099609,-2.289063,-1.613281,0.496216,-0.044312,0.667542,0.553406,up
188664,-7.210937,7.386719,1.238281,-1.304688,-2.277344,-1.505859,0.496216,-0.044312,0.667542,0.553406,up
188669,-7.171875,6.851562,1.429688,-1.599609,-2.277344,-1.388672,0.496216,-0.044312,0.667542,0.553406,up
188674,-7.097656,6.546875,1.738281,-1.599609,-2.277344,-1.388672,0.52533,-0.049011,0.643616,0.554443,up
188679,-7.171875,5.777344,2.273438,-1.757813,-2.136719,-1.503906,0.52533,-0.049011,0.643616,0.554443,up
188684,-7.253906,5.511719,2.3125,-1.757813,-2.136719,-1.503906,0.536011,-0.05188,0.632629,0.55658,up
188689,-7.28125,5.359375,2.273438,-1.757813,-2.136719,-1.503906,0.541626,-0.053955,0.626709,0.557617,up
188694,-7.285156,4.859375,2.082031,-1.757813,-2.136719,-1.503906,0.547058,-0.056274,0.621155,0.55835,up
188699,-7.285156,4.859375,2.082031,-1.757813,-2.136719,-1.503906,0.557495,-0.061157,0.611084,0.558594,up
188704,-7.253906,4.9375,2.121094,-1.757813,-2.136719,-1.503906,0.557495,-0.061157,0.611084,0.558594,up
188709,-7.285156,4.9375,2.234375,-1.291016,-1.833984,-2.144531,0.568604,-0.066162,0.601624,0.557129,up
188714,-7.398437,5.164062,2.425781,-1.291016,-1.833984,-2.144531,0.568604,-0.066162,0.601624,0.557129,up
188720,-7.398437,5.164062,2.425781,-0.773437,-1.707031,-2.193359,0.574036,-0.068298,0.597595,0.555664,up
188725,-7.398437,5.394531,2.425781,-0.537109,-1.667969,-2.136719,0.574036,-0.068298,0.597595,0.555664,up
188730,-7.558594,5.933594,2.542969,-0.332031,-1.634766,-2.035156,0.584778,-0.071594,0.590393,0.551697,up
188735,-7.558594,5.933594,2.542969,-0.332031,-1.634766,-2.035156,0.584778,-0.071594,0.590393,0.551697,up
188740,-7.558594,5.933594,2.542969,-0.1875,-1.611328,-1.914063,0.599243,-0.073792,0.581604,0.545166,up
188745,-7.632812,5.777344,2.542969,-0.1875,-1.611328,-1.914063,0.599243,-0.073792,0.581604,0.545166,up
188750,-7.480469,5.742187,2.578125,-0.1875,-1.611328,-1.914063,0.607727,-0.073914,0.576111,0.541565,up
188756,-7.4375,5.703125,2.542969,-0.15625,-1.439453,-1.148438,0.611694,-0.073853,0.573303,0.5401,up
188761,-7.324219,5.359375,2.578125,-0.15625,-1.439453,-1.148438,0.61499,-0.073792,0.570801,0.539001,up
188766,-7.25,5.320312,2.617188,-0.328125,-1.300781,-0.966797,0.618164,-0.073853,0.568176,0.538147,up
188772,-7.171875,5.011719,2.695313,-0.328125,-1.300781,-0.966797,0.621094,-0.074097,0.565613,0.537415,up
188778,-7.253906,4.898437,2.617188,-0.359375,-1.054688,-0.912109,0.621094,-0.074097,0.565613,0.537415,up
188783,-7.324219,4.859375,2.578125,-0.25,-0.970703,-0.917969,0.621094,-0.074097,0.565613,0.537415,up
188789,-7.25,4.859375,2.847656,-0.25,-0.970703,-0.917969,0.621094,-0.074097,0.565613,0.537415,up
188794,-7.285156,4.820312,2.808594,-0.199219,-0.802734,-0.953125,0.621094,-0.074097,0.565613,0.537415,up
188800,-7.519531,4.746094,2.769531,-0.177734,-0.675781,-0.978516,0.621094,-0.074097,0.565613,0.537415,up
188805,-7.515625,4.78125,2.769531,-0.177734,-0.675781,-0.978516,0.638062,-0.078003,0.552856,0.530212,up
188810,-7.597656,4.898437,2.734375,-0.177734,-0.675781,-0.978516,0.640381,-0.078918,0.551697,0.528503,up
188815,-7.554687,4.898437,2.734375,-0.177734,-0.675781,-0.978516,0.640381,-0.078918,0.551697,0.528503,up
188820,-7.59375,5.128906,2.734375,0.041016,-0.423828,-1.078125,0.640381,-0.078918,0.551697,0.528503,up
188825,-7.597656,5.203125,2.769531,0.041016,-0.423828,-1.078125,0.646301,-0.081726,0.549255,0.523376,up
188830,-7.636719,5.242187,2.769531,-0.03125,-0.279297,-1.044922,0.646301,-0.081726,0.549255,0.523376,up
188835,-7.671875,5.242187,2.769531,-0.03125,-0.279297,-1.044922,0.64978,-0.083923,0.547729,0.520325,up
188840,-7.675781,5.242187,2.886719,-0.03125,-0.279297,-1.044922,0.64978,-0.083923,0.547729,0.520325,up
188845,-7.675781,5.242187,2.886719,-0.306641,-0.230469,-0.949219,0.651184,-0.085205,0.546936,0.519226,up
188850,-7.703125,5.242187,2.960938,-0.306641,-0.230469,-0.949219,0.652588,-0.086853,0.545837,0.518311,up
188855,-7.703125,5.242187,2.960938,-0.681641,-0.169922,-0.839844,0.654907,-0.090881,0.543152,0.517517,up
188860,-7.980469,4.363281,3.191406,-0.681641,-0.169922,-0.839844,0.654907,-0.090881,0.543152,0.517517,up
188865,-8.089844,4.167969,3.230469,-1.013672,-0.142578,-0.761719,0.65686,-0.095947,0.539612,0.517822,up
188870,-8.125,4.015625,3.421875,-1.013672,-0.142578,-0.761719,0.657898,-0.098816,0.537537,0.518127,up
188875,-8.128906,3.632813,3.574219,-1.013672,-0.142578,-0.761719,0.658875,-0.101501,0.535583,0.518372,up
188880,-8.125,3.519531,3.613281,-1.146484,-0.207031,-0.929687,0.658875,-0.101501,0.535583,0.518372,up
188885,-8.054688,3.402344,3.652344,-1.146484,-0.207031,-0.929687,0.660095,-0.104675,0.533325,0.518494,up
188890,-7.941406,3.402344,3.691406,-1.091797,-0.226562,-1.003906,0.662659,-0.110168,0.529358,0.518188,up
188896,-7.824219,3.402344,3.691406,-0.859375,-0.199219,-1.121094,0.664062,-0.112793,0.527588,0.5177,up
188901,-7.554687,3.441406,3.613281,-0.859375,-0.199219,-1.121094,0.665649,-0.115601,0.525757,0.516846,up
188907,-7.4375,3.480469,3.691406,-0.628906,-0.115234,-1.148438,0.666992,-0.117859,0.524414,0.51593,up
188912,-7.59375,3.558594,3.5,-0.628906,-0.115234,-1.148438,0.668396,-0.120178,0.523193,0.514832,up
188917,-7.59375,3.558594,3.5,-0.476562,-0.029297,-1.107422,0.669739,-0.122314,0.522156,0.513611,up
188923,-7.597656,3.59375,3.574219,-0.476562,-0.029297,-1.107422,0.669739,-0.122314,0.522156,0.513611,up
188928,-7.78125,3.710938,3.691406,-0.458984,-0.003906,-1.005859,0.669739,-0.122314,0.522156,0.513611,up
188934,-8.058594,3.824219,3.84375,-0.458984,-0.003906,-1.005859,0.673401,-0.128784,0.519287,0.510193,up
188940,-8.164063,3.710938,3.957031,-0.658203,-0.091797,-0.818359,0.673401,-0.128784,0.519287,0.510193,up
188945,-8.285156,3.558594,4.148437,-0.658203,-0.091797,-0.818359,0.675354,-0.132874,0.51709,0.508728,up
188951,-8.285156,3.558594,4.148437,-0.804687,-0.195312,-0.671875,0.677124,-0.136902,0.514221,0.508179,up
188956,-8.402344,3.210938,4.148437,-0.855469,-0.279297,-0.613281,0.678101,-0.139038,0.51239,0.50824,up
188962,-8.46875,2.789063,4.378906,-0.855469,-0.279297,-0.613281,0.678833,-0.140686,0.510681,0.508484,up
188968,-8.402344,2.636719,4.417969,-0.855469,-0.279297,-0.613281,0.67981,-0.142334,0.508667,0.508789,up
188973,-8.363281,2.636719,4.378906,-0.738281,-0.507812,-0.507812,0.67981,-0.142334,0.508667,0.508789,up
188978,-8.28125,2.597656,4.304687,-0.642578,-0.580078,-0.501953,0.67981,-0.142334,0.508667,0.508789,up
188984,-8.167969,2.675781,4.265625,-0.642578,-0.580078,-0.501953,0.682983,-0.145691,0.502808,0.509399,up
188990,-7.9375,2.753906,4.074219,-0.642578,-0.580078,-0.501953,0.685608,-0.146606,0.499146,0.509216,up
188995,-7.859375,2.789063,4.074219,-0.642578,-0.580078,-0.501953,0.685608,-0.146606,0.499146,0.509216,up
189000,-7.820312,2.90625,3.957031,-0.103516,-0.666016,-0.486328,0.688416,-0.146484,0.496216,0.508301,up
189005,-7.707031,3.058594,3.996094,-0.103516,-0.666016,-0.486328,0.688416,-0.146484,0.496216,0.508301,up
189010,-7.636719,3.097656,3.996094,0.068359,-0.589844,-0.480469,0.690002,-0.146179,0.494873,0.507568,up
189015,-7.597656,3.175781,3.921875,0.068359,-0.589844,-0.480469,0.691345,-0.145874,0.493713,0.506897,up
189020,-7.554687,3.210938,3.921875,0.068359,-0.589844,-0.480469,0.692688,-0.145691,0.492676,0.506226,up
189025,-7.554687,3.210938,3.921875,-0.021484,-0.486328,-0.482422,0.693848,-0.14563,0.491638,0.505615,up
189030,-7.558594,3.175781,3.957031,-0.021484,-0.486328,-0.482422,0.693848,-0.14563,0.491638,0.505615,up
189035,-7.597656,3.097656,3.996094,-0.242187,-0.388672,-0.458984,0.693848,-0.14563,0.491638,0.505615,up
189040,-7.597656,3.097656,3.996094,-0.34375,-0.332031,-0.445312,0.69696,-0.146729,0.488281,0.504272,up
189045,-7.675781,2.636719,4.304687,-0.34375,-0.332031,-0.445312,0.697754,-0.147522,0.487122,0.50415,up
189050,-7.742187,2.445313,4.339844,-0.34375,-0.332031,-0.445312,0.699097,-0.149963,0.484497,0.504028,up
189055,-7.824219,2.292969,4.457031,-0.34375,-0.332031,-0.445312,0.699097,-0.149963,0.484497,0.504028,up
189060,-7.859375,2.253906,4.496094,-0.34375,-0.332031,-0.445312,0.700195,-0.152649,0.482117,0.503967,up
189065,-7.898437,2.214844,4.570312,-0.34375,-0.332031,-0.445312,0.700195,-0.152649,0.482117,0.503967,up
189070,-7.859375,2.179688,4.609375,-0.451172,-0.113281,-0.464844,0.701294,-0.154968,0.480347,0.503479,up
189075,-7.898437,2.253906,4.6875,-0.451172,-0.113281,-0.464844,0.701294,-0.154968,0.480347,0.503479,up
189081,-7.941406,2.332031,4.6875,-0.037109,-0.025391,-0.464844,0.701294,-0.154968,0.480347,0.503479,up
189086,-7.898437,2.371094,4.726562,-0.037109,-0.025391,-0.464844,0.703125,-0.157166,0.479065,0.501465,up
189091,-7.9375,2.484375,4.726562,-0.037109,-0.025391,-0.464844,0.703735,-0.157471,0.479126,0.500427,up
189096,-8.015625,2.523438,4.761719,-0.037109,-0.025391,-0.464844,0.704224,-0.157532,0.479309,0.499451,up
189101,-8.085938,2.523438,4.761719,0.355469,0.052734,-0.416016,0.704895,-0.157532,0.479675,0.498169,up
189106,-8.089844,2.636719,4.917969,0.392578,0.048828,-0.408203,0.704895,-0.157532,0.479675,0.498169,up
189111,-8.125,2.867188,4.878906,0.392578,0.048828,-0.408203,0.706055,-0.157349,0.480408,0.495911,up
189116,-8.125,2.828125,4.878906,0.246094,0.048828,-0.394531,0.706665,-0.157349,0.480774,0.494751,up
189121,-8.085938,2.828125,4.878906,0.246094,0.048828,-0.394531,0.707092,-0.157532,0.480896,0.493896,up
189126,-8.085938,2.789063,4.878906,0.246094,0.048828,-0.394531,0.707642,-0.157959,0.480896,0.492981,up
189132,-8.058594,2.636719,4.917969,0.246094,0.048828,-0.394531,0.708008,-0.158569,0.480774,0.492432,up
189137,-8.058594,2.636719,4.917969,-0.230469,0.037109,-0.373047,0.708374,-0.159424,0.480469,0.491882,up
189143,-7.9375,2.484375,4.917969,-0.230469,0.037109,-0.373047,0.708374,-0.159424,0.480469,0.491882,up
189148,-7.902344,2.332031,4.953125,-0.404297,0.044922,-0.373047,0.708374,-0.159424,0.480469,0.491882,up
189153,-7.820312,2.214844,4.953125,-0.443359,0.054687,-0.349609,0.708374,-0.159424,0.480469,0.491882,up
189159,-7.824219,2.140625,4.992187,-0.441406,0.064453,-0.322266,0.708374,-0.159424,0.480469,0.491882,up
189164,-7.820312,2.101563,4.953125,-0.441406,0.064453,-0.322266,0.709412,-0.165222,0.477844,0.491089,up
189170,-7.820312,2.0625,4.953125,-0.441406,0.064453,-0.322266,0.709412,-0.166321,0.477417,0.491028,up
189175,-7.820312,1.988281,4.953125,-0.279297,0.128906,-0.177734,0.709412,-0.166321,0.477417,0.491028,up
189181,-7.9375,1.792969,4.992187,-0.191406,0.152344,-0.126953,0.709229,-0.16864,0.477112,0.490845,up
189186,-8.128906,1.640625,5.144531,-0.191406,0.152344,-0.126953,0.709106,-0.169067,0.477356,0.490662,up
189191,-8.246094,1.640625,5.144531,0.117188,0.160156,-0.117188,0.709106,-0.169067,0.477356,0.490662,up
189196,-8.359375,1.71875,5.144531,0.117188,0.160156,-0.117188,0.709106,-0.169312,0.478027,0.489868,up
189201,-8.472656,1.792969,5.222656,0.117188,0.160156,-0.117188,0.70929,-0.16925,0.478394,0.489258,up
189206,-8.589844,2.101563,5.222656,0.117188,0.160156,-0.117188,0.709717,-0.169189,0.478638,0.488464,up
189211,-8.550781,2.332031,5.183594,0.214844,-0.070312,-0.359375,0.709717,-0.169189,0.478638,0.488464,up
189216,-8.511719,2.523438,5.144531,0.214844,-0.070312,-0.359375,0.710876,-0.169128,0.478577,0.486816,up
189222,-8.402344,2.828125,4.953125,0.214844,-0.070312,-0.359375,0.711609,-0.16925,0.478271,0.486084,up
189227,-8.320313,2.828125,4.992187,-0.136719,-0.242187,-0.4375,0.712402,-0.169617,0.4776,0.485413,up
189233,-8.242188,2.753906,4.953125,-0.328125,-0.294922,-0.439453,0.712402,-0.169617,0.4776,0.485413,up
189238,-8.128906,2.636719,4.839844,-0.539062,-0.310547,-0.427734,0.713867,-0.171204,0.475342,0.484924,up
189244,-8.054688,2.484375,4.761719,-0.744141,-0.316406,-0.414062,0.713867,-0.171204,0.475342,0.484924,up
189249,-8.019531,2.332031,4.761719,-0.923828,-0.3125,-0.416016,0.713867,-0.171204,0.475342,0.484924,up
189255,-7.976562,2.140625,4.6875,-0.923828,-0.3125,-0.416016,0.715393,-0.175903,0.470154,0.486023,up
189260,-8.019531,1.832031,4.6875,-1.15625,-0.267578,-0.416016,0.715759,-0.177979,0.46814,0.486694,up
189265,-8.015625,1.640625,4.761719,-1.15625,-0.267578,-0.416016,0.716064,-0.180176,0.466064,0.487427,up
189271,-8.015625,1.566406,4.761719,-1.138672,-0.232422,-0.449219,0.716675,-0.184692,0.462036,0.488647,up
189276,-8.125,1.640625,4.761719,-1.138672,-0.232422,-0.449219,0.716675,-0.184692,0.462036,0.488647,up
189281,-8.164063,1.71875,4.800781,-0.904297,-0.177734,-0.576172,0.716675,-0.184692,0.462036,0.488647,up
189286,-8.203125,1.792969,4.800781,-0.904297,-0.177734,-0.576172,0.718079,-0.191162,0.456665,0.489197,up
189291,-8.285156,1.910156,4.761719,-0.904297,-0.177734,-0.576172,0.718079,-0.191162,0.456665,0.489197,up
189296,-8.363281,1.988281,4.761719,-0.904297,-0.177734,-0.576172,0.719299,-0.194885,0.453674,0.488708,up
189301,-8.320313,1.988281,4.761719,-0.724609,-0.166016,-0.746094,0.719299,-0.194885,0.453674,0.488708,up
189306,-8.363281,2.0625,4.761719,-0.755859,-0.175781,-0.777344,0.720032,-0.19696,0.452026,0.488281,up
189311,-8.359375,2.140625,4.6875,-0.755859,-0.175781,-0.777344,0.721558,-0.200928,0.448792,0.487366,up
189316,-8.363281,2.140625,4.800781,-0.755859,-0.175781,-0.777344,0.72229,-0.203247,0.446899,0.487061,up
189321,-8.285156,2.101563,4.6875,-1.205078,-0.224609,-0.8125,0.72229,-0.203247,0.446899,0.487061,up
189326,-8.128906,1.871094,4.6875,-1.205078,-0.224609,-0.8125,0.723022,-0.206055,0.44458,0.486938,up
189332,-8.058594,1.375,4.6875,-1.205078,-0.224609,-0.8125,0.723999,-0.211975,0.43988,0.487244,up
189337,-8.058594,1.375,4.6875,-1.205078,-0.224609,-0.8125,0.723999,-0.211975,0.43988,0.487244,up
189342,-8.058594,1.183594,4.726562,-1.765625,-0.171875,-0.765625,0.724304,-0.215454,0.437195,0.487671,up
189347,-8.125,0.875,4.800781,-1.765625,-0.171875,-0.765625,0.724304,-0.215454,0.437195,0.487671,up
189352,-8.125,0.875,4.800781,-1.765625,-0.171875,-0.765625,0.724304,-0.215454,0.437195,0.487671,up
189357,-8.246094,0.761719,4.992187,-1.779297,-0.205078,-0.744141,0.724854,-0.230652,0.425415,0.490234,up
189362,-8.363281,0.761719,5.03125,-1.779297,-0.205078,-0.744141,0.725098,-0.234619,0.422241,0.490845,up
189369,-8.589844,0.683594,5.070312,-1.779297,-0.205078,-0.744141,0.725281,-0.237732,0.419739,0.491211,up
189375,-8.707031,0.683594,4.917969,-1.472656,-0.238281,-0.847656,0.725281,-0.237732,0.419739,0.491211,up
189381,-8.707031,0.683594,4.839844,-1.208984,-0.341797,-0.9375,0.725281,-0.237732,0.419739,0.491211,up
189386,-8.664063,0.761719,4.839844,-1.208984,-0.341797,-0.9375,0.727722,-0.25,0.408508,0.490967,up
189391,-8.511719,0.800781,4.917969,-1.208984,-0.341797,-0.9375,0.727722,-0.25,0.408508,0.490967,up
189396,-8.324219,0.992187,4.992187,-1.078125,-0.503906,-0.990234,0.727722,-0.25,0.408508,0.490967,up
189401,-8.4375,0.914062,4.839844,-1.121094,-0.507812,-0.958984,0.729675,-0.254578,0.402954,0.490295,up
189406,-8.320313,1.027344,4.839844,-1.121094,-0.507812,-0.958984,0.730652,-0.257019,0.400024,0.489929,up
189411,-8.320313,0.992187,4.839844,-1.386719,-0.486328,-0.835937,0.731567,-0.259705,0.396851,0.489746,up
189416,-8.285156,0.875,4.839844,-1.386719,-0.486328,-0.835937,0.7323,-0.262451,0.393677,0.489807,up
189422,-8.285156,0.875,4.839844,-1.550781,-0.460937,-0.6875,0.733093,-0.267883,0.387634,0.490417,up
189427,-8.242188,0.492187,4.953125,-1.595703,-0.435547,-0.615234,0.733276,-0.27124,0.384033,0.49115,up
189433,-8.128906,0.1875,5.03125,-1.595703,-0.435547,-0.615234,0.733276,-0.274292,0.380798,0.491943,up
189438,-8.128906,-0.273438,5.144531,-1.595703,-0.435547,-0.615234,0.733215,-0.276855,0.378235,0.492615,up
189445,-8.203125,-0.273438,5.222656,-1.554688,-0.322266,-0.439453,0.733215,-0.276855,0.378235,0.492615,up
189451,-8.125,-0.160156,5.183594,-1.230469,-0.242187,-0.384766,0.733215,-0.276855,0.378235,0.492615,up
189456,-8.246094,-0.234375,5.335937,-1.230469,-0.242187,-0.384766,0.732544,-0.284973,0.370239,0.495056,up
189461,-8.246094,-0.234375,5.335937,-1.044922,-0.205078,-0.375,0.732544,-0.284973,0.370239,0.495056,up
189467,-8.28125,-0.121094,5.375,-1.044922,-0.205078,-0.375,0.732422,-0.28717,0.368164,0.495544,up
189472,-8.398438,-0.042969,5.375,-0.742187,-0.162109,-0.353516,0.732422,-0.292053,0.363403,0.496216,up
189477,-8.398438,-0.042969,5.375,-0.742187,-0.162109,-0.353516,0.732422,-0.292053,0.363403,0.496216,up
189482,-8.589844,0.1875,5.644531,-0.589844,-0.085937,-0.353516,0.732544,-0.294678,0.361084,0.496155,up
189487,-8.667969,0.222656,5.644531,-0.589844,-0.085937,-0.353516,0.732483,-0.296143,0.360107,0.496033,up
189492,-8.78125,0.378906,5.566406,-0.589844,-0.085937,-0.353516,0.7323,-0.297852,0.359192,0.495972,up
189497,-8.820313,0.378906,5.683594,-0.589844,-0.085937,-0.353516,0.731995,-0.299438,0.358459,0.496033,up
189502,-8.972656,0.222656,5.835937,-0.886719,0.216797,-0.150391,0.731323,-0.301636,0.357544,0.496338,up
189507,-9.128906,-0.234375,5.914062,-0.886719,0.216797,-0.150391,0.73053,-0.303711,0.35675,0.496765,up
189512,-9.125,-0.3125,5.757812,-0.886719,0.216797,-0.150391,0.729675,-0.305664,0.356079,0.497314,up
189517,-9.242188,-0.3125,5.875,-0.929687,0.25,0.078125,0.728638,-0.3078,0.355347,0.498047,up
189523,-9.351563,-0.464844,5.988281,-0.929687,0.25,0.078125,0.727661,-0.309448,0.354919,0.498779,up
189528,-9.246094,-0.425781,6.371094,-0.929687,0.25,0.078125,0.726685,-0.310852,0.354675,0.499512,up
189534,-9.164063,-0.386719,6.410156,-0.580078,0.271484,0.257813,0.726685,-0.310852,0.354675,0.499512,up
189539,-9.207031,-0.425781,6.21875,-0.449219,0.347656,0.308594,0.724609,-0.313232,0.354675,0.501038,up
189544,-9.203125,-0.503906,6.027344,-0.236328,0.404297,0.347656,0.724609,-0.313232,0.354675,0.501038,up
189549,-9.125,-0.503906,5.835937,-0.236328,0.404297,0.347656,0.722656,-0.314453,0.356079,0.502136,up
189555,-9.128906,-0.582031,5.796875,0.068359,0.375,0.431641,0.722656,-0.314453,0.356079,0.502136,up
189560,-9.089844,-0.582031,5.796875,0.220703,0.349609,0.46875,0.722656,-0.314453,0.356079,0.502136,up
189566,-8.859375,-0.542969,5.71875,0.335938,0.359375,0.498047,0.719604,-0.313232,0.361206,0.503601,up
189571,-8.890625,-0.617187,5.71875,0.335938,0.359375,0.498047,0.719604,-0.313232,0.361206,0.503601,up
189576,-8.863281,-0.65625,5.644531,0.480469,0.455078,0.580078,0.719604,-0.313232,0.361206,0.503601,up
189581,-8.742188,-0.464844,5.492187,0.480469,0.455078,0.580078,0.71814,-0.311646,0.364746,0.504089,up
189586,-8.703125,-0.386719,5.453125,0.480469,0.455078,0.580078,0.717285,-0.31073,0.366821,0.504395,up
189592,-8.742188,-0.3125,5.414062,0.464844,0.568359,0.650391,0.717285,-0.31073,0.366821,0.504395,up
189597,-8.785156,-0.234375,5.375,0.464844,0.568359,0.650391,0.714355,-0.308472,0.373047,0.50531,up
189602,-8.78125,-0.121094,5.300781,0.464844,0.568359,0.650391,0.713379,-0.307861,0.375122,0.505554,up
189607,-8.859375,0.03125,5.335937,0.490234,0.677734,0.746094,0.712097,-0.307007,0.377747,0.505981,up
189612,-8.929688,0.070312,5.375,0.490234,0.728516,0.785156,0.710815,-0.306335,0.380188,0.506287,up
189617,-9.007813,0.109375,5.335937,0.490234,0.728516,0.785156,0.709595,-0.305664,0.382568,0.506653,up
189622,-9.046875,0.300781,5.222656,0.490234,0.728516,0.785156,0.707947,-0.304932,0.385559,0.507141,up
189627,-9.167969,0.300781,5.222656,0.515625,0.802734,0.896484,0.706482,-0.304199,0.388306,0.507568,up
189632,-9.167969,0.378906,5.300781,0.515625,0.8125,0.943359,0.706482,-0.304199,0.388306,0.507568,up
189637,-9.242188,0.492187,5.375,0.515625,0.8125,0.943359,0.70343,-0.302612,0.393616,0.508606,up
189643,-9.699219,0.070312,5.300781,0.515625,0.8125,0.943359,0.701721,-0.301758,0.396484,0.509277,up
189648,-9.585938,0.148437,5.183594,0.496094,0.832031,1.066406,0.701721,-0.301758,0.396484,0.509277,up
189653,-9.550781,0.339844,5.261719,0.496094,0.832031,1.066406,0.697937,-0.299866,0.402527,0.510803,up
189658,-9.628906,0.339844,5.414062,0.496094,0.832031,1.066406,0.69635,-0.298889,0.40509,0.511597,up
189664,-9.546875,0.378906,5.375,0.496094,0.832031,1.066406,0.69458,-0.297791,0.407776,0.512451,up
189669,-9.507813,0.53125,5.144531,0.535156,0.679687,1.113281,0.69458,-0.297791,0.407776,0.512451,up
189674,-9.507813,0.683594,5.03125,0.535156,0.679687,1.113281,0.691101,-0.295349,0.413208,0.514221,up
189679,-9.429688,0.761719,4.992187,0.583984,0.597656,1.152344,0.689392,-0.293945,0.415894,0.515137,up
189685,-9.3125,0.914062,5.03125,0.601562,0.5625,1.193359,0.689392,-0.293945,0.415894,0.515137,up
189691,-9.242188,1.144531,4.992187,0.603516,0.542969,1.234375,0.689392,-0.293945,0.415894,0.515137,up
189696,-9.207031,1.105469,5.03125,0.603516,0.542969,1.234375,0.684204,-0.289185,0.423828,0.518311,up
189702,-9.164063,1.144531,4.953125,0.507812,0.599609,1.410156,0.684204,-0.289185,0.423828,0.518311,up
189707,-9.242188,1.296875,4.6875,0.507812,0.599609,1.410156,0.680176,-0.285828,0.429138,0.520996,up
189713,-9.273438,1.066406,4.648437,0.507812,0.599609,1.410156,0.675659,-0.282715,0.434509,0.524109,up
189718,-9.273438,1.066406,4.648437,0.310547,0.640625,1.582031,0.673218,-0.28125,0.437134,0.525879,up
189723,-9.242188,0.953125,4.609375,0.242187,0.685547,1.619141,0.670288,-0.279785,0.440002,0.528015,up
189728,-9.277344,0.761719,4.570312,0.242187,0.685547,1.619141,0.667542,-0.278564,0.442566,0.529968,up
189734,-9.246094,0.683594,4.6875,0.242187,0.685547,1.619141,0.664917,-0.277466,0.444946,0.53186,up
189739,-9.246094,0.683594,4.6875,0.117188,0.757812,1.652344,0.661804,-0.276306,0.447632,0.534119,up
189744,-9.246094,0.683594,4.6875,0.113281,0.833984,1.626953,0.658936,-0.27533,0.450134,0.536011,up
189749,-9.394531,0.683594,4.53125,0.113281,0.833984,1.626953,0.658936,-0.27533,0.450134,0.536011,up
189754,-9.394531,0.722656,4.496094,0.128906,0.890625,1.603516,0.652771,-0.27356,0.455688,0.539795,up
189759,-9.394531,0.722656,4.496094,0.128906,0.890625,1.603516,0.652771,-0.27356,0.455688,0.539795,up
189764,-9.472656,0.992187,4.457031,0.478516,0.882812,1.511719,0.647095,-0.271301,0.461548,0.542786,up
189771,-9.355469,1.375,4.496094,0.478516,0.882812,1.511719,0.647095,-0.271301,0.461548,0.542786,up
189776,-9.390625,1.488281,4.417969,0.578125,0.910156,1.484375,0.647095,-0.271301,0.461548,0.542786,up
189782,-9.390625,1.71875,4.378906,0.626953,0.917969,1.480469,0.647095,-0.271301,0.461548,0.542786,up
189787,-9.472656,1.871094,4.378906,0.595703,0.894531,1.523438,0.636169,-0.265503,0.474609,0.547302,up
189792,-9.429688,1.988281,4.339844,0.595703,0.894531,1.523438,0.630371,-0.262268,0.481445,0.549622,up
189797,-9.429688,2.023438,4.304687,0.466797,0.908203,1.576172,0.630371,-0.262268,0.481445,0.549622,up
189802,-9.390625,1.988281,4.113281,0.466797,0.908203,1.576172,0.624634,-0.259583,0.487427,0.552185,up
189807,-9.351563,1.871094,4.074219,0.466797,0.908203,1.576172,0.624634,-0.259583,0.487427,0.552185,up
189812,-9.273438,1.792969,4.035156,0.285156,0.912109,1.650391,0.618042,-0.257141,0.493286,0.555481,up
189817,-9.273438,1.792969,3.957031,0.285156,0.912109,1.650391,0.618042,-0.257141,0.493286,0.555481,up
189822,-9.207031,1.757813,3.84375,0.091797,0.976562,1.748047,0.610962,-0.255249,0.498718,0.559326,up
189827,-9.167969,1.757813,3.84375,0.091797,0.976562,1.748047,0.610962,-0.255249,0.498718,0.559326,up
189832,-9.246094,1.757813,3.882813,-0.076172,1.013672,1.880859,0.603088,-0.25354,0.50415,0.563843,up
189837,-9.242188,1.871094,3.730469,-0.076172,1.013672,1.880859,0.603088,-0.25354,0.50415,0.563843,up
189842,-9.355469,1.949219,3.730469,0.431641,1.132813,1.984375,0.603088,-0.25354,0.50415,0.563843,up
189847,-9.433594,1.988281,3.691406,0.431641,1.132813,1.984375,0.594666,-0.250916,0.510803,0.567932,up
189853,-9.589844,2.214844,3.539063,0.431641,1.132813,1.984375,0.58667,-0.24707,0.518677,0.57074,up
189859,-9.628906,2.40625,3.574219,0.431641,1.132813,1.984375,0.58313,-0.244995,0.522522,0.571716,up
189864,-9.628906,2.40625,3.574219,0.960937,1.123047,2.041016,0.579346,-0.242615,0.526733,0.572754,up
189869,-9.699219,2.5625,3.652344,0.960937,1.123047,2.041016,0.579346,-0.242615,0.526733,0.572754,up
189874,-9.734375,2.980469,3.652344,1.017578,1.091797,2.033203,0.579346,-0.242615,0.526733,0.572754,up
189879,-9.734375,2.980469,3.652344,1.060547,1.072266,2.019531,0.571716,-0.237427,0.535339,0.574585,up
189885,-9.777344,3.328125,3.308594,1.060547,1.072266,2.019531,0.568115,-0.234741,0.53949,0.575439,up
189891,-9.734375,3.632813,3.191406,0.970703,0.931641,1.994141,0.568115,-0.234741,0.53949,0.575439,up
189896,-9.777344,3.710938,3.152344,0.830078,0.878906,1.996094,0.568115,-0.234741,0.53949,0.575439,up
189901,-9.695313,3.75,3.078125,0.695312,0.839844,2.009766,0.568115,-0.234741,0.53949,0.575439,up
189907,-9.585938,3.902344,2.960938,0.580078,0.802734,2.023438,0.568115,-0.234741,0.53949,0.575439,up
189912,-9.472656,3.902344,2.886719,0.580078,0.802734,2.023438,0.542114,-0.216492,0.563904,0.584167,up
189917,-9.433594,3.976563,2.808594,0.580078,0.802734,2.023438,0.542114,-0.216492,0.563904,0.584167,up
189922,-9.355469,4.054687,2.734375,0.357422,0.740234,2.105469,0.542114,-0.216492,0.563904,0.584167,up
189927,-9.125,4.132812,2.734375,0.357422,0.740234,2.105469,0.534363,-0.211792,0.569275,0.58783,up
189932,-9.085938,4.167969,2.65625,0.412109,0.757812,2.150391,0.530212,-0.20929,0.57196,0.589844,up
189937,-9.085938,4.246094,2.617188,0.412109,0.757812,2.150391,0.525879,-0.206604,0.574829,0.591858,up
189943,-9.007813,4.167969,2.578125,0.412109,0.757812,2.150391,0.517822,-0.201416,0.580505,0.595276,up
189949,-8.929688,4.167969,2.542969,0.412109,0.757812,2.150391,0.514038,-0.19873,0.583313,0.59668,up
189955,-8.859375,4.324219,2.542969,0.726562,0.71875,2.060547,0.514038,-0.19873,0.583313,0.59668,up
189960,-8.859375,4.324219,2.542969,0.759766,0.689453,2.001953,0.506592,-0.193115,0.589233,0.59906,up
189965,-8.824219,4.554687,2.503906,0.759766,0.689453,2.001953,0.506592,-0.193115,0.589233,0.59906,up
189970,-8.820313,4.746094,2.503906,0.785156,0.603516,1.878906,0.502869,-0.190125,0.592285,0.600159,up
189975,-8.820313,4.746094,2.503906,0.785156,0.603516,1.878906,0.502869,-0.190125,0.592285,0.600159,up
189980,-8.746094,5.050781,2.15625,0.769531,0.599609,1.802734,0.49292,-0.181763,0.600586,0.602722,up
189985,-8.703125,5.359375,2.003906,0.769531,0.599609,1.802734,0.49292,-0.181763,0.600586,0.602722,up
189991,-8.703125,5.472656,1.929688,0.769531,0.599609,1.802734,0.486633,-0.176758,0.605469,0.604431,up
189997,-8.667969,5.777344,1.929688,0.423828,0.53125,1.675781,0.486633,-0.176758,0.605469,0.604431,up
190002,-8.625,5.894531,1.964844,0.322266,0.507812,1.708984,0.47699,-0.170044,0.611267,0.608215,up
190007,-8.628906,6.007812,1.929688,0.322266,0.507812,1.708984,0.47699,-0.170044,0.611267,0.608215,up
190012,-8.585938,6.046875,1.890625,0.181641,0.519531,1.863281,0.47699,-0.170044,0.611267,0.608215,up
190017,-8.546875,6.238281,1.699219,0.181641,0.519531,1.863281,0.469971,-0.165588,0.614685,0.61145,up
190023,-8.46875,6.199219,1.773438,0.167969,0.492187,1.960938,0.469971,-0.165588,0.614685,0.61145,up
190028,-8.359375,6.238281,1.8125,0.167969,0.492187,1.960938,0.458679,-0.158142,0.61969,0.616943,up
190033,-8.207031,6.316406,1.8125,0.167969,0.492187,1.960938,0.454773,-0.155334,0.621399,0.618774,up
190038,-8.128906,6.316406,1.8125,0.167969,0.492187,1.960938,0.451233,-0.152771,0.622986,0.620422,up
190043,-8.054688,6.316406,1.773438,0.375,0.429687,2.144531,0.447144,-0.149536,0.624939,0.622192,up
190048,-7.980469,6.390625,1.738281,0.416016,0.410156,2.169922,0.443176,-0.146301,0.626892,0.623901,up
190053,-7.78125,6.316406,1.8125,0.416016,0.410156,2.169922,0.439148,-0.142944,0.628845,0.625549,up
190058,-7.746094,6.238281,1.8125,0.416016,0.410156,2.169922,0.43573,-0.140015,0.630432,0.626953,up
190063,-7.746094,6.238281,1.8125,0.416016,0.410156,2.169922,0.43573,-0.140015,0.630432,0.626953,up
190068,-7.703125,6.238281,1.773438,0.330078,0.355469,2.201172,0.43573,-0.140015,0.630432,0.626953,up
190073,-7.59375,5.933594,1.507813,0.246094,0.34375,2.171875,0.427856,-0.133484,0.633728,0.630432,up
190078,-7.59375,5.933594,1.507813,0.246094,0.34375,2.171875,0.427856,-0.133484,0.633728,0.630432,up
190083,-7.480469,6.007812,1.429688,0.0625,0.304688,2.078125,0.416382,-0.124329,0.637451,0.636292,up
190088,-7.25,6.007812,1.46875,0.058594,0.320313,2.074219,0.416382,-0.124329,0.637451,0.636292,up
190093,-6.898437,6.046875,1.46875,0.058594,0.320313,2.074219,0.408325,-0.118225,0.639709,0.640381,up
190098,-6.710937,6.125,1.46875,0.058594,0.320313,2.074219,0.404907,-0.115601,0.640808,0.641907,up
190103,-6.410156,6.125,1.546875,0.330078,0.365234,2.181641,0.400574,-0.112183,0.642334,0.643738,up
190108,-6.253906,6.273437,1.507813,0.330078,0.365234,2.181641,0.39679,-0.10907,0.64386,0.64502,up
190113,-5.984375,6.546875,1.390625,0.689453,0.490234,2.410156,0.392029,-0.105164,0.646118,0.646362,up
190118,-5.945312,6.8125,1.355469,0.890625,0.550781,2.550781,0.392029,-0.105164,0.646118,0.646362,up
190123,-5.832031,7.277344,1.199219,1.046875,0.595703,2.683594,0.387756,-0.101563,0.648315,0.647278,up
190129,-5.410156,7.539062,1.125,1.046875,0.595703,2.683594,0.377686,-0.092773,0.654114,0.648743,up
190134,-5.410156,7.539062,1.125,1.234375,0.681641,2.916016,0.37146,-0.087402,0.657776,0.649414,up
190139,-5.179687,7.847656,1.007813,1.234375,0.681641,2.916016,0.366394,-0.083069,0.660706,0.649841,up
190144,-5.101562,7.960937,0.933594,1.234375,0.681641,2.916016,0.360046,-0.077881,0.664185,0.650513,up
190149,-4.949219,8.152344,0.664062,1.234375,0.681641,2.916016,0.360046,-0.077881,0.664185,0.650513,up
190154,-4.910156,8.308594,0.511719,0.988281,0.896484,3.205078,0.347717,-0.06842,0.670288,0.651978,up
190160,-4.910156,8.308594,0.511719,0.804687,0.933594,3.275391,0.341064,-0.063782,0.673096,0.653137,up
190165,-4.71875,8.609375,0.359375,0.804687,0.933594,3.275391,0.341064,-0.063782,0.673096,0.653137,up
190170,-4.71875,8.609375,0.359375,0.595703,0.970703,3.353516,0.326904,-0.054565,0.677673,0.656494,up
190175,-4.796875,8.6875,0.359375,0.595703,0.970703,3.353516,0.326904,-0.054565,0.677673,0.656494,up
190180,-4.949219,8.570313,0.203125,-0.136719,1.107422,3.605469,0.311646,-0.045837,0.680603,0.661499,up
190185,-4.875,8.230469,0.203125,-0.136719,1.107422,3.605469,0.303711,-0.041687,0.681458,0.664551,up
190190,-4.757812,8.078125,0.320313,-0.515625,1.119141,3.869141,0.303711,-0.041687,0.681458,0.664551,up
190195,-4.683594,7.925781,0.433594,-0.570312,1.109375,4.021484,0.303711,-0.041687,0.681458,0.664551,up
190200,-4.453125,7.3125,0.511719,-0.507812,1.113281,4.185547,0.303711,-0.041687,0.681458,0.664551,up
190206,-4.414062,7.003906,0.472656,-0.386719,1.136719,4.351562,0.303711,-0.041687,0.681458,0.664551,up
190211,-4.335937,6.960937,0.394531,-0.160156,1.138672,4.511719,0.303711,-0.041687,0.681458,0.664551,up
190217,-4.261719,6.964844,0.394531,-0.160156,1.138672,4.511719,0.249512,-0.01178,0.684021,0.685364,up
190222,-4.105469,6.933594,0.433594,-0.160156,1.138672,4.511719,0.249512,-0.01178,0.684021,0.685364,up
190227,-3.992188,6.890625,0.359375,0.298828,1.091797,4.748047,0.249512,-0.01178,0.684021,0.685364,up
190232,-3.992188,6.890625,0.359375,0.947266,1.15625,4.730469,0.219421,0.007568,0.688477,0.691223,up
190237,-3.339844,7.078125,0.011719,0.947266,1.15625,4.730469,0.219421,0.007568,0.688477,0.691223,up
190242,-2.804688,7.734375,-0.21875,1.283203,1.150391,4.646484,0.199158,0.021057,0.693848,0.691711,up
190248,-2.5,8.226563,-0.371094,2.089844,1.169922,4.345703,0.199158,0.021057,0.693848,0.691711,up
190253,-2.152344,9.113281,-0.636719,2.089844,1.169922,4.345703,0.179504,0.034485,0.700867,0.689514,up
190258,-1.925781,9.265625,-0.828125,2.089844,1.169922,4.345703,0.169678,0.040894,0.704712,0.687683,up
190263,-1.925781,9.265625,-0.828125,2.275391,1.429688,4.234375,0.159851,0.046936,0.708618,0.685608,up
190268,-1.730469,9.417969,-1.019531,2.265625,1.59375,4.214844,0.159851,0.046936,0.708618,0.685608,up
190273,-1.503906,9.574219,-1.214844,2.1875,1.71875,4.232422,0.159851,0.046936,0.708618,0.685608,up
190278,-1.503906,9.574219,-1.214844,2.095703,1.832031,4.236328,0.128418,0.063599,0.720032,0.679016,up
190283,-1.347656,9.53125,-1.214844,1.994141,1.890625,4.259766,0.106384,0.073853,0.726379,0.674927,up
190288,-1.273438,9.230469,-0.90625,1.994141,1.890625,4.259766,0.106384,0.073853,0.726379,0.674927,up
190293,-1.082031,9.074219,-0.753906,1.994141,1.890625,4.259766,0.083862,0.084229,0.731384,0.67157,up
190298,-0.929687,8.769531,-0.714844,1.994141,1.890625,4.259766,0.083862,0.084229,0.731384,0.67157,up
190303,-0.929687,8.769531,-0.714844,1.271484,1.744141,4.058594,0.073547,0.088928,0.733093,0.670288,up
190308,-0.277344,8.804688,-0.714844,1.164063,1.681641,3.958984,0.06427,0.093262,0.734375,0.669189,up
190313,-0.277344,8.804688,-0.714844,1.154297,1.578125,3.865234,0.054199,0.098022,0.735657,0.66803,up
190318,-0.351563,8.882813,-0.867187,1.154297,1.578125,3.865234,0.044861,0.102539,0.736877,0.666687,up
190323,-0.351563,8.882813,-0.867187,1.222656,1.410156,3.634766,0.026733,0.111511,0.739258,0.663574,up
190328,0.183594,8.804688,-0.945312,1.345703,1.347656,3.433594,0.026733,0.111511,0.739258,0.663574,up
190333,0.605469,8.765625,-1.175781,1.345703,1.347656,3.433594,0.009033,0.120178,0.742004,0.659485,up
190338,0.796875,8.847656,-1.175781,1.345703,1.347656,3.433594,0.001526,0.123779,0.743286,0.657471,up
190343,1.21875,8.808594,-1.175781,1.515625,1.220703,3.052734,0.001526,0.123779,0.743286,0.657471,up
190348,1.332031,8.503906,-1.097656,1.515625,1.220703,3.052734,0.006714,-0.127625,-0.744812,-0.654907,up
190353,1.5625,8.1875,-1.058594,1.535156,1.160156,2.789063,0.014771,-0.131409,-0.746399,-0.652222,up
190358,1.675781,8.042969,-1.019531,1.535156,1.160156,2.789063,0.022156,-0.134766,-0.747925,-0.649597,up
190364,1.832031,7.882812,-0.945312,1.535156,1.160156,2.789063,0.029175,-0.137939,-0.749329,-0.646973,up
190369,1.945313,7.921875,-0.867187,1.443359,1.097656,2.595703,0.035461,-0.140686,-0.75061,-0.644592,up
190375,1.945313,7.921875,-0.867187,1.369141,1.039063,2.505859,0.048462,-0.146606,-0.752991,-0.639648,up
190380,2.097656,7.84375,-0.714844,1.369141,1.039063,2.505859,0.048462,-0.146606,-0.752991,-0.639648,up
190385,2.097656,7.84375,-0.714844,1.173828,0.863281,2.386719,0.054382,-0.149475,-0.753967,-0.63739,up
190390,2.328125,7.695312,-0.792969,1.173828,0.863281,2.386719,0.065796,-0.155396,-0.75531,-0.63324,up
190395,2.40625,7.578125,-0.867187,1.173828,0.863281,2.386719,0.071899,-0.158691,-0.755859,-0.631165,up
190400,2.480469,7.34375,-0.945312,1.173828,0.863281,2.386719,0.076355,-0.161194,-0.756104,-0.6297,up
190408,2.789063,7.117187,-1.058594,1.173828,0.863281,2.386719,0.076355,-0.161194,-0.756104,-0.6297,up
190413,2.828125,7.121094,-1.136719,0.705078,0.658203,2.025391,0.090698,-0.169312,-0.756531,-0.625122,up
190418,3.019531,7.0,-1.175781,0.705078,0.658203,2.025391,0.090698,-0.169312,-0.756531,-0.625122,up
190423,3.09375,7.078125,-1.367188,0.767578,0.710937,1.824219,0.090698,-0.169312,-0.756531,-0.625122,up
190428,3.210938,7.117187,-1.367188,0.767578,0.710937,1.824219,0.10022,-0.174133,-0.756897,-0.621887,up
190434,3.363281,7.347656,-1.480469,0.767578,0.710937,1.824219,0.109009,-0.178162,-0.757446,-0.618591,up
190439,3.4375,7.34375,-1.519531,0.767578,0.710937,1.824219,0.109009,-0.178162,-0.757446,-0.618591,up
190444,3.4375,7.34375,-1.519531,0.927734,0.751953,1.755859,0.113342,-0.179993,-0.757812,-0.616821,up
190449,3.4375,7.316406,-1.519531,0.927734,0.751953,1.755859,0.117859,-0.181885,-0.758301,-0.614868,up
190454,3.59375,7.0,-1.367188,0.988281,0.742187,1.738281,0.117859,-0.181885,-0.758301,-0.614868,up
190460,3.59375,7.0,-1.367188,1.025391,0.654297,1.695313,0.126892,-0.185608,-0.759277,-0.610718,up
190465,3.746094,6.578125,-0.984375,1.025391,0.654297,1.695313,0.135559,-0.189453,-0.760376,-0.606262,up
190470,3.820313,6.546875,-0.984375,1.083984,0.535156,1.615234,0.135559,-0.189453,-0.760376,-0.606262,up
190475,3.859375,6.550781,-0.984375,1.083984,0.535156,1.615234,0.135559,-0.189453,-0.760376,-0.606262,up
190482,3.898438,6.695312,-0.984375,1.089844,0.464844,1.488281,0.135559,-0.189453,-0.760376,-0.606262,up
190488,3.859375,6.621094,-1.019531,1.050781,0.408203,1.429688,0.135559,-0.189453,-0.760376,-0.606262,up
190493,4.089844,6.699219,-1.019531,1.050781,0.408203,1.429688,0.154053,-0.198364,-0.763977,-0.59436,up
190498,4.089844,6.816406,-1.175781,1.03125,0.310547,1.269531,0.154053,-0.198364,-0.763977,-0.59436,up
190504,4.128906,6.890625,-1.289063,0.929687,0.246094,1.148438,0.154053,-0.198364,-0.763977,-0.59436,up
190510,4.433594,6.777344,-1.558594,0.929687,0.246094,1.148438,0.165344,-0.204407,-0.766907,-0.585449,up
190515,4.511719,6.816406,-1.632813,0.769531,0.199219,1.060547,0.165344,-0.204407,-0.766907,-0.585449,up
190520,4.625,6.8125,-1.710938,0.681641,0.164062,1.033203,0.165344,-0.204407,-0.766907,-0.585449,up
190525,4.625,6.777344,-1.710938,0.681641,0.164062,1.033203,0.171997,-0.20874,-0.76825,-0.5802,up
190530,4.703125,6.695312,-1.75,0.681641,0.164062,1.033203,0.17395,-0.210205,-0.768494,-0.578735,up
190537,4.78125,6.660156,-1.789063,0.435547,0.070312,0.970703,0.17395,-0.210205,-0.768494,-0.578735,up
190542,4.816406,6.429687,-1.710938,0.373047,0.035156,0.943359,0.17395,-0.210205,-0.768494,-0.578735,up
190547,4.816406,6.316406,-1.75,0.326172,-0.009766,0.925781,0.17395,-0.210205,-0.768494,-0.578735,up
190552,4.894531,6.3125,-1.710938,0.314453,-0.048828,0.896484,0.17395,-0.210205,-0.768494,-0.578735,up
190557,4.933594,6.351562,-1.710938,0.333984,-0.085937,0.855469,0.17395,-0.210205,-0.768494,-0.578735,up
190563,4.933594,6.3125,-1.789063,0.388672,-0.103516,0.822266,0.184082,-0.221313,-0.769043,-0.570679,up
190568,4.972656,6.390625,-1.710938,0.388672,-0.103516,0.822266,0.184082,-0.221313,-0.769043,-0.570679,up
190573,4.972656,6.511719,-1.75,0.5,-0.179687,0.712891,0.185913,-0.22406,-0.769836,-0.567932,up
190578,4.972656,6.617187,-1.75,0.5,-0.179687,0.712891,0.185913,-0.22406,-0.769836,-0.567932,up
190583,4.972656,6.695312,-1.824219,0.572266,-0.226562,0.589844,0.185913,-0.22406,-0.769836,-0.567932,up
190588,4.972656,6.695312,-1.824219,0.582031,-0.240234,0.511719,0.187317,-0.22644,-0.771057,-0.56488,up
190593,5.085937,6.816406,-2.054688,0.546875,-0.255859,0.443359,0.187805,-0.227417,-0.771667,-0.563477,up
190598,5.085937,6.777344,-2.09375,0.546875,-0.255859,0.443359,0.188171,-0.228333,-0.772278,-0.562134,up
190603,5.085937,6.777344,-2.09375,0.417969,-0.273438,0.314453,0.188416,-0.229187,-0.772888,-0.560913,up
190609,5.277344,6.582031,-2.4375,0.417969,-0.273438,0.314453,0.188416,-0.230713,-0.773804,-0.559021,up
190614,5.316406,6.621094,-2.554688,0.417969,-0.273438,0.314453,0.188416,-0.230713,-0.773804,-0.559021,up
190619,5.316406,6.617187,-2.628906,0.417969,-0.273438,0.314453,0.187927,-0.232178,-0.774231,-0.557983,up
190625,5.355469,6.546875,-2.59375,0.417969,-0.273438,0.314453,0.187622,-0.232849,-0.774292,-0.557678,up
190630,5.355469,6.546875,-2.59375,-0.054687,-0.277344,0.197266,0.187622,-0.232849,-0.774292,-0.557678,up
190635,5.429687,6.578125,-2.628906,-0.054687,-0.277344,0.197266,0.187012,-0.234436,-0.774231,-0.557312,up
190641,5.355469,6.773437,-2.667969,-0.054687,-0.277344,0.197266,0.186768,-0.235291,-0.774231,-0.557068,up
190647,5.355469,6.855469,-2.667969,0.095703,-0.3125,0.255859,0.186768,-0.235291,-0.774231,-0.557068,up
190653,5.394531,7.0,-2.859375,0.222656,-0.333984,0.277344,0.186768,-0.235291,-0.774231,-0.557068,up
190658,5.394531,7.082031,-2.976563,0.339844,-0.355469,0.277344,0.186768,-0.235291,-0.774231,-0.557068,up
190663,5.355469,7.273437,-3.167969,0.443359,-0.376953,0.269531,0.186768,-0.235291,-0.774231,-0.557068,up
190669,5.394531,7.621094,-3.320313,0.519531,-0.40625,0.253906,0.186768,-0.235291,-0.774231,-0.557068,up
190674,5.394531,7.699219,-3.394531,0.556641,-0.445312,0.183594,0.185852,-0.240356,-0.776917,-0.551392,up
190679,5.46875,7.808594,-3.433594,0.556641,-0.445312,0.183594,0.185242,-0.24176,-0.778687,-0.548584,up
190684,5.546875,7.925781,-3.589844,0.476562,-0.449219,0.089844,0.185242,-0.24176,-0.778687,-0.548584,up
190689,5.546875,7.964844,-3.742188,0.476562,-0.449219,0.089844,0.184326,-0.242859,-0.780273,-0.546143,up
190694,5.585937,7.882812,-3.78125,0.236328,-0.441406,0.017578,0.184326,-0.242859,-0.780273,-0.546143,up
190699,5.621094,7.769531,-3.894531,0.236328,-0.441406,0.017578,0.182861,-0.243896,-0.781311,-0.544617,up
190704,5.738281,7.660156,-3.972656,-0.060547,-0.419922,-0.042969,0.182861,-0.243896,-0.781311,-0.544617,up
190709,5.738281,7.660156,-3.972656,-0.060547,-0.419922,-0.042969,0.18103,-0.244934,-0.781616,-0.544373,up
190714,5.777344,7.460937,-3.933594,-0.060547,-0.419922,-0.042969,0.18103,-0.244934,-0.781616,-0.544373,up
190719,5.8125,7.34375,-3.894531,-0.435547,-0.345703,-0.105469,0.18103,-0.244934,-0.781616,-0.544373,up
190724,5.777344,7.238281,-3.855469,-0.472656,-0.306641,-0.128906,0.178833,-0.245911,-0.781128,-0.545288,up
190729,5.8125,7.277344,-3.855469,-0.472656,-0.306641,-0.128906,0.177734,-0.246338,-0.780762,-0.546082,up
190734,5.8125,7.277344,-3.855469,-0.427734,-0.222656,-0.154297,0.176575,-0.246704,-0.780273,-0.546936,up
190739,5.777344,7.34375,-3.894531,-0.427734,-0.222656,-0.154297,0.175659,-0.246887,-0.779846,-0.547729,up
190744,5.699219,7.386719,-4.007812,-0.427734,-0.222656,-0.154297,0.174072,-0.24707,-0.779297,-0.54895,up
190749,5.660156,7.386719,-3.972656,-0.130859,-0.144531,-0.185547,0.174072,-0.24707,-0.779297,-0.54895,up
190754,5.585937,7.425781,-3.894531,-0.007813,-0.142578,-0.169922,0.17334,-0.246948,-0.779236,-0.549377,up
190759,5.621094,7.5,-3.742188,-0.007813,-0.142578,-0.169922,0.172302,-0.246704,-0.77948,-0.549377,up
190764,5.621094,7.539062,-3.664063,-0.007813,-0.142578,-0.169922,0.171997,-0.246521,-0.779785,-0.549133,up
190769,5.546875,7.542969,-3.625,-0.007813,-0.142578,-0.169922,0.171997,-0.246521,-0.779785,-0.549133,up
190774,5.546875,7.539062,-3.589844,0.195312,-0.099609,-0.103516,0.171509,-0.246155,-0.780579,-0.54834,up
190779,5.46875,7.578125,-3.550781,0.195312,-0.099609,-0.103516,0.171509,-0.246155,-0.780579,-0.54834,up
190784,5.429687,7.578125,-3.511719,0.166016,-0.117188,-0.080078,0.171509,-0.246155,-0.780579,-0.54834,up
190789,5.429687,7.617187,-3.472656,0.166016,-0.117188,-0.080078,0.171082,-0.245911,-0.781311,-0.547546,up
190795,5.394531,7.621094,-3.472656,0.166016,-0.117188,-0.080078,0.17041,-0.24585,-0.781799,-0.547058,up
