timestamp,ax,ay,az,gx,gy,gz,qw,qx,qy,qz,label
678596,-7.722656,5.359375,0.171875,0.193359,0.099609,0.105469,0.483276,-0.131836,0.695984,0.514465,up
678602,-7.757812,5.398437,0.132812,0.195312,0.095703,0.09375,0.483276,-0.131836,0.695984,0.514465,up
678608,-7.835937,5.550781,0.09375,0.195312,0.095703,0.09375,0.483276,-0.131836,0.695984,0.514465,up
678613,-7.839844,5.628906,0.09375,0.1875,0.082031,0.050781,0.483276,-0.131836,0.695984,0.514465,up
678619,-7.878906,5.667969,0.09375,0.169922,0.074219,0.041016,0.483276,-0.131836,0.695984,0.514465,up
678624,-7.917969,5.667969,0.09375,0.142578,0.068359,0.025391,0.479858,-0.128479,0.701172,0.511475,up
678629,-7.875,5.667969,0.054687,0.142578,0.068359,0.025391,0.479858,-0.128479,0.701172,0.511475,up
678634,-7.875,5.628906,0.054687,0.087891,0.058594,0.011719,0.479675,-0.128418,0.701599,0.511108,up
678639,-7.917969,5.589844,0.09375,0.015625,0.041016,-0.011719,0.479553,-0.128418,0.701721,0.510986,up
678644,-7.878906,5.589844,0.09375,0.015625,0.041016,-0.011719,0.479492,-0.12854,0.701782,0.510925,up
678649,-7.917969,5.589844,0.09375,-0.042969,0.037109,-0.023437,0.479492,-0.12854,0.701782,0.510925,up
678654,-7.875,5.550781,0.09375,-0.066406,0.035156,-0.037109,0.479431,-0.128662,0.701782,0.510925,up
678659,-7.875,5.550781,0.09375,-0.066406,0.035156,-0.037109,0.479309,-0.128967,0.701782,0.511047,up
678664,-7.796875,5.589844,0.09375,-0.078125,0.027344,-0.023437,0.479309,-0.128967,0.701782,0.511047,up
678669,-7.796875,5.589844,0.09375,-0.080078,0.033203,-0.025391,0.479248,-0.12915,0.701721,0.511108,up
678675,-7.796875,5.589844,0.09375,-0.080078,0.033203,-0.025391,0.479126,-0.129517,0.701599,0.511292,up
678681,-7.800781,5.589844,0.054687,-0.080078,0.033203,-0.025391,0.479065,-0.129639,0.701538,0.511414,up
678687,-7.800781,5.589844,0.054687,-0.068359,0.035156,0.007813,0.479065,-0.129639,0.701538,0.511414,up
678694,-7.835937,5.628906,0.054687,-0.064453,0.044922,0.013672,0.478699,-0.129944,0.701538,0.511719,up
678699,-7.878906,5.628906,0.019531,-0.064453,0.044922,0.013672,0.478699,-0.129944,0.701538,0.511719,up
678704,-7.878906,5.589844,0.019531,-0.066406,0.056641,0.013672,0.478699,-0.129944,0.701538,0.511719,up
678709,-7.835937,5.550781,0.019531,-0.066406,0.056641,0.013672,0.478394,-0.130188,0.701538,0.511902,up
678715,-7.839844,5.550781,0.054687,-0.066406,0.056641,0.013672,0.477966,-0.130371,0.701599,0.512146,up
678720,-7.839844,5.550781,0.054687,-0.091797,0.076172,0.025391,0.477722,-0.130554,0.70166,0.512268,up
678725,-7.875,5.511719,0.054687,-0.091797,0.076172,0.025391,0.477478,-0.130737,0.70166,0.512451,up
678731,-7.878906,5.4375,0.09375,-0.091797,0.076172,0.025391,0.477234,-0.13092,0.70166,0.512634,up
678736,-7.914062,5.359375,0.09375,-0.125,0.09375,0.027344,0.477234,-0.13092,0.70166,0.512634,up
678742,-7.835937,5.28125,0.09375,-0.128906,0.087891,0.025391,0.477234,-0.13092,0.70166,0.512634,up
678747,-7.839844,5.246094,0.09375,-0.126953,0.087891,0.015625,0.477234,-0.13092,0.70166,0.512634,up
678754,-7.796875,5.207031,0.09375,-0.126953,0.087891,0.015625,0.477234,-0.13092,0.70166,0.512634,up
678759,-7.800781,5.246094,0.054687,-0.058594,0.072266,-0.013672,0.477234,-0.13092,0.70166,0.512634,up
678764,-7.722656,5.320312,0.09375,-0.058594,0.072266,-0.013672,0.47583,-0.132263,0.701599,0.513611,up
678769,-7.722656,5.320312,0.019531,-0.058594,0.072266,-0.013672,0.475708,-0.132446,0.701721,0.513611,up
678774,-7.800781,5.320312,0.054687,0.021484,0.072266,-0.029297,0.475708,-0.132446,0.701721,0.513611,up
678779,-7.800781,5.359375,0.09375,0.021484,0.072266,-0.029297,0.475464,-0.13269,0.701965,0.513428,up
678786,-7.878906,5.476562,-0.019531,0.021484,0.072266,-0.029297,0.475281,-0.132874,0.702271,0.513123,up
678791,-7.878906,5.511719,-0.019531,0.052734,0.068359,-0.056641,0.475159,-0.132996,0.702393,0.512939,up
678796,-7.796875,5.511719,0.019531,0.044922,0.056641,-0.058594,0.475159,-0.133118,0.702576,0.512756,up
678801,-7.914062,5.550781,0.019531,0.015625,0.064453,-0.064453,0.475159,-0.133118,0.702576,0.512756,up
678806,-7.875,5.550781,-0.019531,-0.017578,0.0625,-0.076172,0.475159,-0.133118,0.702576,0.512756,up
678812,-7.875,5.550781,-0.019531,-0.041016,0.052734,-0.080078,0.475159,-0.133118,0.702576,0.512756,up
678817,-7.917969,5.589844,-0.019531,-0.083984,0.050781,-0.09375,0.475159,-0.133118,0.702576,0.512756,up
678822,-7.957031,5.589844,-0.019531,-0.083984,0.050781,-0.09375,0.474976,-0.134338,0.702698,0.51239,up
678827,-7.957031,5.628906,-0.058594,-0.138672,0.039063,-0.111328,0.474976,-0.134338,0.702698,0.51239,up
678832,-7.984375,5.628906,-0.019531,-0.15625,0.035156,-0.105469,0.474976,-0.134338,0.702698,0.51239,up
678838,-7.957031,5.589844,-0.058594,-0.15625,0.035156,-0.105469,0.474915,-0.135559,0.702271,0.512695,up
678844,-7.957031,5.589844,-0.058594,-0.15625,0.035156,-0.105469,0.474976,-0.136475,0.701904,0.512939,up
678849,-7.957031,5.628906,-0.058594,-0.15625,0.035156,-0.105469,0.474976,-0.136475,0.701904,0.512939,up
678854,-7.914062,5.667969,-0.097656,-0.144531,0.023437,-0.128906,0.474976,-0.136475,0.701904,0.512939,up
678859,-7.914062,5.628906,-0.097656,-0.144531,0.023437,-0.128906,0.475098,-0.137268,0.701538,0.513123,up
678864,-7.914062,5.667969,-0.136719,-0.144531,0.023437,-0.128906,0.475159,-0.137695,0.701355,0.513184,up
678870,-7.875,5.667969,-0.136719,-0.105469,0.015625,-0.121094,0.475342,-0.138428,0.701111,0.513184,up
678875,-7.878906,5.703125,-0.136719,-0.105469,0.015625,-0.121094,0.475403,-0.138733,0.700989,0.513184,up
678880,-7.878906,5.742187,-0.171875,-0.105469,0.015625,-0.121094,0.475403,-0.139099,0.700928,0.513184,up
678885,-7.917969,5.742187,-0.171875,-0.101563,0.027344,-0.103516,0.475464,-0.139465,0.700806,0.513245,up
678890,-7.917969,5.703125,-0.171875,-0.101563,0.027344,-0.103516,0.475464,-0.139771,0.700684,0.513245,up
678895,-7.917969,5.703125,-0.171875,-0.101563,0.027344,-0.103516,0.475464,-0.140076,0.700562,0.513306,up
678900,-7.957031,5.703125,-0.171875,-0.121094,0.037109,-0.080078,0.475403,-0.140442,0.7005,0.513428,up
678906,-7.957031,5.703125,-0.136719,-0.121094,0.037109,-0.080078,0.475403,-0.140747,0.700378,0.513489,up
678912,-8.023438,5.667969,-0.136719,-0.121094,0.037109,-0.080078,0.475342,-0.141113,0.700256,0.513611,up
678917,-8.023438,5.667969,-0.171875,-0.136719,0.046875,-0.085937,0.475342,-0.141113,0.700256,0.513611,up
678923,-8.027344,5.703125,-0.136719,-0.134766,0.050781,-0.085937,0.475342,-0.141113,0.700256,0.513611,up
678929,-8.0625,5.742187,-0.171875,-0.128906,0.048828,-0.089844,0.475159,-0.142578,0.699768,0.514038,up
678934,-8.0625,5.703125,-0.136719,-0.128906,0.048828,-0.089844,0.475159,-0.142578,0.699768,0.514038,up
678939,-8.0625,5.742187,-0.097656,-0.115234,0.052734,-0.101563,0.475159,-0.142578,0.699768,0.514038,up
678944,-8.027344,5.742187,-0.136719,-0.105469,0.050781,-0.091797,0.475098,-0.143677,0.699463,0.51416,up
678949,-8.027344,5.78125,-0.136719,-0.105469,0.050781,-0.091797,0.475098,-0.143677,0.699463,0.51416,up
678954,-7.984375,5.742187,-0.097656,-0.105469,0.050781,-0.091797,0.475098,-0.144043,0.699341,0.514221,up
678960,-7.984375,5.742187,-0.136719,-0.103516,0.046875,-0.089844,0.475098,-0.144043,0.699341,0.514221,up
678965,-7.917969,5.742187,-0.136719,-0.103516,0.046875,-0.089844,0.475037,-0.14502,0.699097,0.514404,up
678970,-7.878906,5.703125,-0.136719,-0.103516,0.046875,-0.089844,0.474976,-0.145386,0.698975,0.514465,up
678975,-7.875,5.667969,-0.171875,-0.105469,0.037109,-0.064453,0.474976,-0.145386,0.698975,0.514465,up
678980,-7.835937,5.628906,-0.097656,-0.105469,0.037109,-0.064453,0.474915,-0.145935,0.698792,0.514648,up
678986,-7.796875,5.550781,-0.136719,-0.105469,0.037109,-0.064453,0.474854,-0.146179,0.69873,0.514771,up
678991,-7.800781,5.589844,-0.136719,-0.099609,0.033203,-0.029297,0.474792,-0.146362,0.698608,0.514893,up
678997,-7.757812,5.511719,-0.136719,-0.097656,0.029297,-0.021484,0.474792,-0.146362,0.698608,0.514893,up
679002,-7.71875,5.511719,-0.136719,-0.097656,0.029297,-0.021484,0.474609,-0.146729,0.698425,0.515137,up
679008,-7.71875,5.511719,-0.136719,-0.080078,0.033203,-0.011719,0.474609,-0.146729,0.698425,0.515137,up
679013,-7.757812,5.511719,-0.171875,-0.064453,0.03125,-0.007813,0.474609,-0.146729,0.698425,0.515137,up
679018,-7.839844,5.550781,-0.136719,-0.042969,0.035156,-0.007813,0.474609,-0.146729,0.698425,0.515137,up
679023,-7.914062,5.628906,-0.136719,-0.042969,0.035156,-0.007813,0.474609,-0.146729,0.698425,0.515137,up
679028,-7.875,5.628906,-0.171875,-0.042969,0.035156,-0.007813,0.474243,-0.147339,0.698364,0.515442,up
679033,-7.875,5.628906,-0.136719,-0.009766,0.021484,-0.03125,0.474243,-0.147339,0.698364,0.515442,up
679038,-7.914062,5.628906,-0.136719,-0.009766,0.021484,-0.03125,0.474182,-0.147522,0.698364,0.515381,up
679044,-7.957031,5.703125,-0.171875,0.005859,0.005859,-0.050781,0.474182,-0.147522,0.698364,0.515381,up
679049,-7.957031,5.742187,-0.171875,0.005859,0.005859,-0.050781,0.474243,-0.147766,0.698425,0.515259,up
679055,-7.984375,5.859375,-0.171875,-0.001953,0.007813,-0.070312,0.474243,-0.147766,0.698425,0.515259,up
679060,-7.957031,5.820312,-0.210937,-0.001953,0.007813,-0.070312,0.474426,-0.148071,0.698364,0.515076,up
679065,-7.957031,5.820312,-0.210937,-0.048828,-0.021484,-0.074219,0.474426,-0.148071,0.698364,0.515076,up
679070,-7.875,5.859375,-0.210937,-0.056641,-0.03125,-0.060547,0.474548,-0.148254,0.698242,0.515015,up
679076,-7.875,5.859375,-0.210937,-0.080078,-0.039063,-0.060547,0.474731,-0.148499,0.697998,0.515076,up
679081,-7.878906,5.78125,-0.171875,-0.080078,-0.042969,-0.058594,0.474854,-0.148682,0.697876,0.515198,up
679086,-7.835937,5.742187,-0.25,-0.080078,-0.042969,-0.058594,0.474976,-0.148804,0.697693,0.515259,up
679092,-7.71875,5.703125,-0.210937,-0.080078,-0.042969,-0.058594,0.475037,-0.148926,0.69751,0.515381,up
679097,-7.71875,5.703125,-0.25,-0.09375,-0.054687,-0.033203,0.475037,-0.148926,0.69751,0.515381,up
679103,-7.722656,5.667969,-0.210937,-0.089844,-0.054687,-0.021484,0.475037,-0.148926,0.69751,0.515381,up
679108,-7.679687,5.667969,-0.289063,-0.080078,-0.054687,-0.009766,0.475037,-0.148926,0.69751,0.515381,up
679114,-7.640625,5.628906,-0.210937,-0.080078,-0.054687,-0.009766,0.475037,-0.148926,0.69751,0.515381,up
679120,-7.640625,5.628906,-0.289063,-0.042969,-0.042969,0.019531,0.475037,-0.148926,0.69751,0.515381,up
679125,-7.605469,5.628906,-0.25,-0.033203,-0.046875,0.027344,0.475403,-0.149048,0.696594,0.516235,up
679131,-7.640625,5.667969,-0.25,-0.033203,-0.046875,0.027344,0.475403,-0.148926,0.696594,0.516296,up
679136,-7.644531,5.703125,-0.25,0.005859,-0.029297,0.046875,0.475403,-0.148804,0.696594,0.516357,up
679142,-7.71875,5.703125,-0.210937,0.005859,-0.029297,0.046875,0.475403,-0.148682,0.696594,0.516418,up
679147,-7.761719,5.667969,-0.210937,0.005859,-0.029297,0.046875,0.475342,-0.148499,0.696594,0.516479,up
679152,-7.722656,5.628906,-0.25,0.015625,-0.011719,0.064453,0.475342,-0.148499,0.696594,0.516479,up
679157,-7.800781,5.628906,-0.171875,0.015625,-0.013672,0.056641,0.475342,-0.148499,0.696594,0.516479,up
679162,-7.800781,5.628906,-0.171875,0.017578,-0.005859,0.054687,0.475342,-0.148499,0.696594,0.516479,up
679167,-7.875,5.667969,-0.171875,0.017578,-0.005859,0.054687,0.475342,-0.148499,0.696594,0.516479,up
679172,-7.878906,5.703125,-0.136719,0.001953,-0.019531,0.039063,0.475342,-0.148499,0.696594,0.516479,up
679177,-7.917969,5.742187,-0.136719,0.001953,-0.021484,0.039063,0.475342,-0.148499,0.696594,0.516479,up
679182,-7.957031,5.78125,-0.136719,0.011719,-0.025391,0.025391,0.475342,-0.148499,0.696594,0.516479,up
679187,-7.953125,5.820312,-0.136719,0.011719,-0.025391,0.025391,0.475342,-0.148499,0.696594,0.516479,up
679193,-7.984375,5.859375,-0.136719,-0.011719,-0.048828,0.021484,0.475342,-0.148499,0.696594,0.516479,up
679199,-7.984375,5.859375,-0.097656,-0.019531,-0.066406,0.023437,0.475342,-0.148499,0.696594,0.516479,up
679205,-7.957031,5.78125,-0.136719,-0.025391,-0.076172,0.019531,0.475342,-0.147156,0.696472,0.517029,up
679210,-7.957031,5.78125,-0.097656,-0.025391,-0.076172,0.019531,0.475342,-0.147156,0.696472,0.517029,up
679215,-7.957031,5.742187,-0.097656,-0.046875,-0.103516,0.035156,0.475525,-0.146851,0.696167,0.517334,up
679221,-7.914062,5.703125,-0.058594,-0.046875,-0.103516,0.035156,0.475525,-0.146851,0.696167,0.517334,up
679226,-7.957031,5.703125,-0.097656,-0.060547,-0.123047,0.070312,0.475708,-0.146484,0.69574,0.517822,up
679231,-7.917969,5.667969,-0.058594,-0.060547,-0.123047,0.070312,0.47583,-0.146301,0.695557,0.518005,up
679236,-7.875,5.550781,0.019531,-0.060547,-0.123047,0.070312,0.475891,-0.146057,0.695374,0.518311,up
679242,-7.914062,5.550781,-0.019531,-0.060547,-0.123047,0.070312,0.475952,-0.145752,0.695251,0.518494,up
679247,-7.914062,5.550781,-0.019531,-0.033203,-0.121094,0.123047,0.475952,-0.145752,0.695251,0.518494,up
679252,-7.917969,5.511719,-0.019531,-0.007813,-0.123047,0.138672,0.475952,-0.145752,0.695251,0.518494,up
679257,-7.957031,5.511719,-0.058594,-0.007813,-0.123047,0.138672,0.476074,-0.144653,0.694885,0.519165,up
679262,-7.878906,5.476562,0.019531,-0.007813,-0.123047,0.138672,0.476074,-0.144653,0.694885,0.519165,up
679267,-7.875,5.511719,0.054687,0.070312,-0.105469,0.179687,0.476074,-0.144653,0.694885,0.519165,up
679273,-7.957031,5.511719,0.019531,0.085937,-0.101563,0.189453,0.476074,-0.144653,0.694885,0.519165,up
679279,-7.953125,5.511719,0.054687,0.109375,-0.087891,0.201172,0.476074,-0.144653,0.694885,0.519165,up
679284,-7.957031,5.511719,0.09375,0.107422,-0.091797,0.214844,0.476074,-0.144653,0.694885,0.519165,up
679290,-7.957031,5.476562,0.09375,0.125,-0.085937,0.220703,0.476074,-0.144653,0.694885,0.519165,up
679295,-7.917969,5.476562,0.09375,0.136719,-0.089844,0.238281,0.475647,-0.140625,0.695435,0.519958,up
679300,-7.878906,5.476562,0.09375,0.136719,-0.089844,0.238281,0.475525,-0.139893,0.695618,0.52002,up
679305,-7.839844,5.4375,0.09375,0.136719,-0.089844,0.238281,0.475281,-0.138428,0.695923,0.520203,up
679310,-7.839844,5.4375,0.132812,0.136719,-0.089844,0.238281,0.475159,-0.137695,0.696106,0.520264,up
679315,-7.835937,5.398437,0.132812,0.136719,-0.089844,0.238281,0.475159,-0.137695,0.696106,0.520264,up
679320,-7.839844,5.398437,0.171875,0.148437,-0.101563,0.283203,0.475159,-0.137695,0.696106,0.520264,up
679325,-7.835937,5.398437,0.132812,0.164062,-0.091797,0.302734,0.475159,-0.137695,0.696106,0.520264,up
679330,-7.839844,5.4375,0.132812,0.164062,-0.091797,0.302734,0.47467,-0.135254,0.696716,0.520569,up
679336,-7.800781,5.4375,0.171875,0.207031,-0.107422,0.324219,0.474487,-0.134277,0.69696,0.52063,up
679341,-7.839844,5.4375,0.210937,0.207031,-0.107422,0.324219,0.474182,-0.132385,0.697449,0.520752,up
679347,-7.835937,5.550781,0.132812,0.207031,-0.107422,0.324219,0.473999,-0.131409,0.697754,0.520752,up
679352,-7.839844,5.511719,0.132812,0.207031,-0.107422,0.324219,0.473877,-0.13031,0.698059,0.520752,up
679357,-7.835937,5.589844,0.171875,0.322266,-0.148437,0.351563,0.473877,-0.13031,0.698059,0.520752,up
679362,-7.839844,5.589844,0.132812,0.333984,-0.154297,0.359375,0.473877,-0.13031,0.698059,0.520752,up
679367,-7.796875,5.667969,0.132812,0.333984,-0.154297,0.359375,0.473877,-0.13031,0.698059,0.520752,up
679372,-7.796875,5.667969,0.09375,0.355469,-0.173828,0.376953,0.473877,-0.13031,0.698059,0.520752,up
679377,-7.757812,5.703125,0.019531,0.363281,-0.175781,0.378906,0.473877,-0.13031,0.698059,0.520752,up
679383,-7.71875,5.703125,0.019531,0.363281,-0.175781,0.378906,0.473328,-0.122742,0.700317,0.52002,up
679389,-7.683594,5.742187,0.019531,0.369141,-0.1875,0.380859,0.473328,-0.122742,0.700317,0.52002,up
679394,-7.71875,5.742187,-0.019531,0.378906,-0.193359,0.378906,0.473328,-0.122742,0.700317,0.52002,up
679399,-7.683594,5.703125,-0.019531,0.392578,-0.193359,0.380859,0.473328,-0.122742,0.700317,0.52002,up
679405,-7.601562,5.742187,-0.058594,0.392578,-0.193359,0.380859,0.473328,-0.122742,0.700317,0.52002,up
679411,-7.601562,5.78125,-0.058594,0.400391,-0.191406,0.380859,0.473022,-0.114441,0.702759,0.518921,up
679416,-7.605469,5.820312,-0.058594,0.400391,-0.191406,0.380859,0.473022,-0.113098,0.703186,0.518738,up
679421,-7.605469,5.820312,-0.058594,0.400391,-0.191406,0.380859,0.472961,-0.111877,0.703552,0.518433,up
679426,-7.566406,5.78125,-0.097656,0.449219,-0.154297,0.330078,0.472961,-0.111877,0.703552,0.518433,up
679431,-7.601562,5.859375,-0.210937,0.449219,-0.154297,0.330078,0.4729,-0.109131,0.704529,0.517761,up
679436,-7.566406,5.859375,-0.136719,0.449219,-0.154297,0.330078,0.4729,-0.107971,0.704956,0.517456,up
679442,-7.496094,5.894531,-0.171875,0.449219,-0.154297,0.330078,0.4729,-0.106689,0.705444,0.51709,up
679447,-7.496094,5.894531,-0.136719,0.435547,-0.148437,0.271484,0.472961,-0.105408,0.705872,0.516663,up
679452,-7.457031,5.933594,-0.171875,0.435547,-0.148437,0.271484,0.472961,-0.10437,0.706299,0.516296,up
679458,-7.457031,5.972656,-0.210937,0.435547,-0.148437,0.271484,0.473022,-0.10321,0.706787,0.515808,up
679463,-7.457031,5.972656,-0.210937,0.439453,-0.138672,0.222656,0.473083,-0.102112,0.707214,0.51532,up
679468,-7.453125,6.085937,-0.210937,0.439453,-0.138672,0.222656,0.473083,-0.102112,0.707214,0.51532,up
679473,-7.417969,6.203125,-0.136719,0.439453,-0.138672,0.222656,0.473083,-0.102112,0.707214,0.51532,up
679478,-7.417969,6.203125,-0.097656,0.404297,-0.148437,0.185547,0.473083,-0.102112,0.707214,0.51532,up
679484,-7.417969,6.242187,-0.171875,0.382813,-0.150391,0.171875,0.473083,-0.102112,0.707214,0.51532,up
679489,-7.378906,6.277344,-0.136719,0.382813,-0.150391,0.171875,0.473633,-0.097107,0.709229,0.513062,up
679495,-7.378906,6.242187,-0.136719,0.382813,-0.150391,0.171875,0.473755,-0.096191,0.709534,0.512695,up
679500,-7.339844,6.242187,-0.136719,0.314453,-0.15625,0.167969,0.473755,-0.096191,0.709534,0.512695,up
679506,-7.339844,6.242187,-0.097656,0.298828,-0.164062,0.177734,0.474182,-0.093567,0.710327,0.51178,up
679511,-7.261719,6.203125,-0.136719,0.298828,-0.164062,0.177734,0.474304,-0.09259,0.71051,0.511536,up
679516,-7.300781,6.203125,-0.058594,0.246094,-0.162109,0.185547,0.474304,-0.09259,0.71051,0.511536,up
679521,-7.261719,6.203125,-0.097656,0.246094,-0.162109,0.185547,0.474487,-0.090942,0.710815,0.511169,up
679526,-7.261719,6.164062,-0.136719,0.246094,-0.162109,0.185547,0.474609,-0.090088,0.710999,0.510986,up
679531,-7.296875,6.203125,-0.097656,0.246094,-0.162109,0.185547,0.474731,-0.089172,0.711182,0.510864,up
679536,-7.257812,6.203125,-0.058594,0.251953,-0.169922,0.214844,0.474731,-0.089172,0.711182,0.510864,up
679541,-7.257812,6.242187,-0.019531,0.251953,-0.169922,0.214844,0.474854,-0.087402,0.711487,0.510498,up
679546,-7.261719,6.316406,-0.058594,0.251953,-0.169922,0.214844,0.474976,-0.086426,0.71167,0.510315,up
679551,-7.296875,6.355469,-0.019531,0.251953,-0.169922,0.214844,0.474976,-0.086426,0.71167,0.510315,up
679556,-7.257812,6.394531,-0.019531,0.333984,-0.177734,0.25,0.474976,-0.086426,0.71167,0.510315,up
679561,-7.300781,6.433594,-0.019531,0.333984,-0.177734,0.25,0.475159,-0.083252,0.712463,0.509521,up
679566,-7.257812,6.507812,0.019531,0.333984,-0.177734,0.25,0.47522,-0.082153,0.712769,0.509277,up
679571,-7.296875,6.585937,0.054687,0.333984,-0.177734,0.25,0.47522,-0.082153,0.712769,0.509277,up
679576,-7.339844,6.625,0.054687,0.378906,-0.197266,0.302734,0.475342,-0.079651,0.713379,0.508728,up
679581,-7.296875,6.625,0.054687,0.363281,-0.207031,0.34375,0.475342,-0.078369,0.713684,0.508484,up
679586,-7.261719,6.585937,0.054687,0.363281,-0.207031,0.34375,0.475342,-0.076965,0.713989,0.508301,up
679591,-7.21875,6.546875,0.054687,0.3125,-0.212891,0.380859,0.475342,-0.076965,0.713989,0.508301,up
679596,-7.261719,6.546875,0.09375,0.3125,-0.212891,0.380859,0.475281,-0.075623,0.714233,0.508179,up
679601,-7.261719,6.546875,0.09375,0.3125,-0.212891,0.380859,0.475159,-0.073059,0.714661,0.508118,up
679606,-7.222656,6.546875,0.09375,0.298828,-0.208984,0.412109,0.475159,-0.073059,0.714661,0.508118,up
679611,-7.257812,6.585937,0.09375,0.294922,-0.214844,0.431641,0.475037,-0.071594,0.714905,0.508057,up
679617,-7.179687,6.546875,0.09375,0.294922,-0.214844,0.431641,0.474854,-0.068909,0.715271,0.508118,up
679623,-7.222656,6.625,0.054687,0.294922,-0.214844,0.431641,0.474731,-0.067505,0.715454,0.508118,up
679628,-7.183594,6.625,0.09375,0.339844,-0.224609,0.460937,0.474548,-0.065857,0.715698,0.508118,up
679633,-7.152344,6.625,0.054687,0.361328,-0.234375,0.472656,0.474548,-0.065857,0.715698,0.508118,up
679638,-7.113281,6.699219,0.132812,0.361328,-0.234375,0.472656,0.474548,-0.065857,0.715698,0.508118,up
679643,-7.070312,6.664062,0.054687,0.408203,-0.246094,0.501953,0.474548,-0.065857,0.715698,0.508118,up
679650,-7.074219,6.664062,0.019531,0.417969,-0.253906,0.515625,0.474548,-0.065857,0.715698,0.508118,up
679655,-6.992187,6.625,0.09375,0.412109,-0.261719,0.546875,0.474548,-0.065857,0.715698,0.508118,up
679660,-6.953125,6.625,0.09375,0.412109,-0.261719,0.546875,0.473755,-0.055847,0.717407,0.50769,up
679665,-6.957031,6.585937,0.054687,0.402344,-0.269531,0.578125,0.473755,-0.055847,0.717407,0.50769,up
679670,-6.917969,6.507812,0.054687,0.402344,-0.269531,0.578125,0.473389,-0.052246,0.717957,0.507629,up
679676,-6.878906,6.433594,0.054687,0.402344,-0.269531,0.578125,0.472961,-0.048523,0.718445,0.507751,up
679681,-6.914062,6.472656,0.054687,0.402344,-0.269531,0.578125,0.472961,-0.048523,0.718445,0.507751,up
679686,-6.953125,6.433594,0.019531,0.367188,-0.261719,0.605469,0.472473,-0.0448,0.718872,0.507874,up
679691,-7.03125,6.433594,-0.019531,0.367188,-0.261719,0.605469,0.472229,-0.042908,0.719116,0.507935,up
679696,-7.074219,6.507812,0.019531,0.402344,-0.269531,0.605469,0.472229,-0.042908,0.719116,0.507935,up
679701,-7.113281,6.546875,-0.019531,0.402344,-0.269531,0.605469,0.471741,-0.039063,0.719666,0.507996,up
679706,-7.179687,6.546875,-0.058594,0.402344,-0.269531,0.605469,0.471741,-0.039063,0.719666,0.507996,up
679712,-7.300781,6.625,-0.058594,0.474609,-0.291016,0.589844,0.471741,-0.039063,0.719666,0.507996,up
679717,-7.339844,6.664062,-0.136719,0.474609,-0.291016,0.589844,0.47113,-0.032959,0.720581,0.507629,up
679722,-7.453125,6.816406,-0.136719,0.515625,-0.296875,0.564453,0.471008,-0.030945,0.720947,0.507385,up
679727,-7.5625,6.855469,-0.136719,0.515625,-0.296875,0.564453,0.470886,-0.029175,0.721252,0.507202,up
679733,-7.722656,6.96875,-0.171875,0.515625,-0.296875,0.564453,0.470764,-0.026978,0.721619,0.506897,up
679738,-7.761719,7.046875,-0.210937,0.525391,-0.326172,0.517578,0.470764,-0.026978,0.721619,0.506897,up
679744,-7.722656,7.046875,-0.289063,0.515625,-0.345703,0.498047,0.470764,-0.026978,0.721619,0.506897,up
679751,-7.640625,7.046875,-0.289063,0.503906,-0.353516,0.472656,0.470764,-0.026978,0.721619,0.506897,up
679756,-7.566406,7.046875,-0.328125,0.474609,-0.373047,0.427734,0.470764,-0.026978,0.721619,0.506897,up
679761,-7.535156,7.046875,-0.25,0.464844,-0.378906,0.417969,0.471008,-0.017578,0.722839,0.50531,up
679767,-7.300781,7.007812,-0.363281,0.464844,-0.378906,0.417969,0.471313,-0.014038,0.723145,0.5047,up
679772,-7.148437,6.96875,-0.328125,0.435547,-0.365234,0.402344,0.471497,-0.012146,0.723328,0.504333,up
679777,-6.917969,6.929687,-0.402344,0.435547,-0.365234,0.402344,0.47168,-0.010437,0.72345,0.504028,up
679782,-6.839844,6.890625,-0.402344,0.435547,-0.365234,0.402344,0.471802,-0.008911,0.723572,0.503723,up
679787,-6.6875,6.816406,-0.402344,0.435547,-0.365234,0.402344,0.471802,-0.008911,0.723572,0.503723,up
679792,-6.6875,6.816406,-0.402344,0.457031,-0.339844,0.40625,0.471924,-0.007263,0.723755,0.503418,up
679797,-6.265625,6.695312,-0.328125,0.457031,-0.339844,0.40625,0.471985,-0.005493,0.723938,0.503052,up
679802,-6.265625,6.695312,-0.328125,0.517578,-0.246094,0.427734,0.471985,-0.002075,0.724548,0.502319,up
679807,-6.113281,6.628906,-0.363281,0.53125,-0.230469,0.447266,0.471863,-0.000183,0.724915,0.501831,up
679812,-6.113281,6.667969,-0.363281,0.53125,-0.230469,0.447266,0.47168,0.001343,0.725342,0.501404,up
679817,-5.960937,6.589844,-0.289063,0.53125,-0.230469,0.447266,0.471436,0.003113,0.72583,0.500977,up
679822,-5.921875,6.625,-0.289063,0.53125,-0.230469,0.447266,0.47113,0.004761,0.726318,0.500488,up
679827,-5.882812,6.628906,-0.25,0.560547,-0.095703,0.486328,0.47113,0.004761,0.726318,0.500488,up
679832,-5.769531,6.546875,-0.25,0.544922,-0.066406,0.492187,0.470703,0.006592,0.726929,0.5,up
679838,-5.804687,6.550781,-0.289063,0.544922,-0.066406,0.492187,0.469727,0.009705,0.728027,0.499207,up
679843,-5.804687,6.550781,-0.289063,0.517578,-0.001953,0.482422,0.469116,0.011292,0.728699,0.49884,up
679848,-5.730469,6.511719,-0.171875,0.494141,0.037109,0.480469,0.468384,0.012878,0.729431,0.498413,up
679854,-5.769531,6.550781,-0.171875,0.494141,0.037109,0.480469,0.467773,0.014038,0.72998,0.498169,up
679860,-5.882812,6.667969,-0.210937,0.466797,0.101563,0.460937,0.467773,0.014038,0.72998,0.498169,up
679865,-5.921875,6.628906,-0.136719,0.427734,0.119141,0.447266,0.467773,0.014038,0.72998,0.498169,up
679871,-5.921875,6.734375,-0.097656,0.396484,0.158203,0.423828,0.467773,0.014038,0.72998,0.498169,up
679876,-6.035156,6.773437,-0.058594,0.396484,0.158203,0.423828,0.4646,0.018738,0.732605,0.49707,up
679881,-6.035156,6.851562,-0.136719,0.382813,0.169922,0.408203,0.4646,0.018738,0.732605,0.49707,up
679886,-6.113281,6.894531,-0.097656,0.382813,0.169922,0.408203,0.462952,0.020752,0.733887,0.496643,up
679892,-6.152344,6.933594,0.054687,0.382813,0.169922,0.408203,0.461243,0.022705,0.735168,0.496277,up
679897,-6.1875,6.972656,-0.019531,0.308594,0.169922,0.378906,0.460388,0.02356,0.735718,0.496155,up
679902,-6.265625,7.050781,-0.058594,0.308594,0.169922,0.378906,0.460388,0.02356,0.735718,0.496155,up
679907,-6.226562,6.972656,0.019531,0.263672,0.160156,0.355469,0.458984,0.025024,0.736694,0.496033,up
679912,-6.304687,7.046875,0.054687,0.181641,0.150391,0.314453,0.458984,0.025024,0.736694,0.496033,up
679917,-6.34375,7.050781,0.054687,0.181641,0.150391,0.314453,0.457581,0.026306,0.737427,0.496094,up
679922,-6.34375,7.046875,-0.019531,0.109375,0.136719,0.259766,0.45697,0.026733,0.737732,0.496216,up
679927,-6.34375,7.046875,-0.019531,0.109375,0.136719,0.259766,0.456482,0.0271,0.737976,0.496338,up
679932,-6.417969,7.082031,0.054687,0.050781,0.130859,0.207031,0.456482,0.0271,0.737976,0.496338,up
679937,-6.417969,7.046875,-0.019531,0.042969,0.126953,0.197266,0.455872,0.027466,0.738159,0.49646,up
679942,-6.378906,7.078125,0.019531,0.042969,0.126953,0.197266,0.454956,0.027954,0.738525,0.496765,up
679947,-6.417969,7.117187,0.019531,0.042969,0.126953,0.197266,0.454529,0.028137,0.738647,0.496948,up
679952,-6.457031,7.117187,-0.058594,0.042969,0.126953,0.197266,0.454529,0.028137,0.738647,0.496948,up
679957,-6.378906,7.117187,-0.019531,0.025391,0.117188,0.152344,0.453674,0.028442,0.738953,0.497253,up
679962,-6.457031,7.199219,0.019531,0.025391,0.117188,0.152344,0.453674,0.028442,0.738953,0.497253,up
679967,-6.417969,7.199219,-0.058594,0.021484,0.136719,0.125,0.452942,0.028625,0.739258,0.497498,up
679972,-6.417969,7.234375,-0.058594,0.003906,0.123047,0.095703,0.452515,0.028687,0.739441,0.49762,up
679977,-6.417969,7.316406,-0.058594,0.003906,0.123047,0.095703,0.452515,0.028687,0.739441,0.49762,up
679982,-6.417969,7.355469,-0.058594,0.003906,0.123047,0.095703,0.451904,0.028687,0.739685,0.497864,up
679987,-6.378906,7.433594,-0.097656,0.003906,0.123047,0.095703,0.451599,0.028625,0.739746,0.497986,up
679992,-6.378906,7.433594,-0.097656,-0.039063,0.126953,0.082031,0.451599,0.028625,0.739746,0.497986,up
679997,-6.34375,7.5,-0.058594,-0.076172,0.134766,0.087891,0.451233,0.028625,0.739868,0.498169,up
680003,-6.34375,7.503906,-0.097656,-0.076172,0.134766,0.087891,0.4505,0.028442,0.739929,0.498718,up
680008,-6.378906,7.464844,-0.171875,-0.076172,0.134766,0.087891,0.450195,0.028259,0.739929,0.499023,up
680013,-6.265625,7.460937,-0.171875,-0.152344,0.128906,0.105469,0.450195,0.028259,0.739929,0.499023,up
680018,-6.226562,7.433594,-0.097656,-0.152344,0.128906,0.105469,0.449463,0.028015,0.739807,0.499878,up
680023,-6.226562,7.433594,-0.136719,-0.152344,0.128906,0.105469,0.449097,0.027832,0.739746,0.500305,up
680028,-6.1875,7.394531,-0.171875,-0.154297,0.171875,0.111328,0.449097,0.027832,0.739746,0.500305,up
680033,-6.1875,7.390625,-0.210937,-0.154297,0.171875,0.111328,0.448181,0.027466,0.739746,0.50116,up
680038,-6.152344,7.429687,-0.25,-0.154297,0.171875,0.111328,0.447693,0.027283,0.739746,0.501587,up
680044,-6.113281,7.460937,-0.289063,-0.091797,0.224609,0.101563,0.447266,0.0271,0.739807,0.501892,up
680049,-6.113281,7.5,-0.25,-0.060547,0.232422,0.103516,0.447266,0.0271,0.739807,0.501892,up
680054,-6.152344,7.578125,-0.289063,-0.060547,0.232422,0.103516,0.446106,0.026733,0.740173,0.502441,up
680059,-6.152344,7.617187,-0.328125,-0.041016,0.273438,0.097656,0.446106,0.026733,0.740173,0.502441,up
680066,-6.113281,7.65625,-0.328125,-0.025391,0.294922,0.099609,0.446106,0.026733,0.740173,0.502441,up
680071,-6.113281,7.734375,-0.363281,-0.03125,0.302734,0.091797,0.446106,0.026733,0.740173,0.502441,up
680077,-6.113281,7.734375,-0.289063,-0.050781,0.324219,0.085937,0.446106,0.026733,0.740173,0.502441,up
680082,-6.113281,7.699219,-0.289063,-0.050781,0.324219,0.085937,0.442139,0.025208,0.741699,0.503662,up
680087,-6.152344,7.773437,-0.328125,-0.050781,0.324219,0.085937,0.441467,0.02478,0.741943,0.503967,up
680092,-6.226562,7.855469,-0.328125,-0.148437,0.353516,0.0625,0.441467,0.02478,0.741943,0.503967,up
680097,-6.265625,7.851562,-0.363281,-0.148437,0.353516,0.0625,0.440674,0.024231,0.742187,0.504395,up
680102,-6.304687,7.886719,-0.363281,-0.214844,0.367188,0.027344,0.440674,0.024231,0.742187,0.504395,up
680107,-6.34375,7.960937,-0.402344,-0.214844,0.367188,0.027344,0.43866,0.022461,0.742554,0.505676,up
680112,-6.378906,7.964844,-0.441406,-0.244141,0.359375,-0.007813,0.43866,0.022461,0.742554,0.505676,up
680117,-6.417969,8.039063,-0.441406,-0.267578,0.367188,-0.023437,0.437927,0.021729,0.742676,0.506165,up
680122,-6.457031,8.078125,-0.441406,-0.267578,0.367188,-0.023437,0.437317,0.020935,0.742737,0.506653,up
680127,-6.570312,8.265625,-0.519531,-0.267578,0.367188,-0.023437,0.436157,0.019287,0.742737,0.507629,up
680132,-6.609375,8.269531,-0.519531,-0.267578,0.367188,-0.023437,0.436157,0.019287,0.742737,0.507629,up
680137,-6.648437,8.382813,-0.519531,-0.345703,0.347656,-0.105469,0.436157,0.019287,0.742737,0.507629,up
680142,-6.6875,8.464844,-0.519531,-0.345703,0.347656,-0.105469,0.434692,0.016296,0.742615,0.509216,up
680147,-6.6875,8.5,-0.554687,-0.345703,0.347656,-0.105469,0.434692,0.016296,0.742615,0.509216,up
680152,-6.6875,8.539063,-0.554687,-0.345703,0.347656,-0.105469,0.433777,0.013916,0.742187,0.510681,up
680157,-6.648437,8.425781,-0.519531,-0.345703,0.347656,-0.105469,0.433777,0.013916,0.742187,0.510681,up
680162,-6.570312,8.34375,-0.480469,-0.345703,0.347656,-0.105469,0.433411,0.012634,0.741882,0.511475,up
680168,-6.496094,8.265625,-0.519531,-0.697266,0.304688,-0.144531,0.433411,0.012634,0.741882,0.511475,up
680173,-6.417969,8.15625,-0.441406,-0.697266,0.304688,-0.144531,0.432373,0.008484,0.740234,0.514771,up
680178,-6.226562,7.855469,-0.402344,-0.697266,0.304688,-0.144531,0.432007,0.006958,0.739502,0.516174,up
680183,-6.1875,7.699219,-0.402344,-0.697266,0.304688,-0.144531,0.431702,0.005615,0.73877,0.517517,up
680188,-6.113281,7.578125,-0.328125,-0.886719,0.279297,-0.089844,0.431274,0.003967,0.737854,0.519226,up
680193,-6.035156,7.316406,-0.289063,-0.886719,0.279297,-0.089844,0.430908,0.002502,0.736938,0.520813,up
680198,-5.960937,7.199219,-0.289063,-0.886719,0.279297,-0.089844,0.430603,0.001221,0.736145,0.522156,up
680203,-5.921875,7.121094,-0.289063,-0.84375,0.265625,-0.056641,0.430176,-0.000305,0.735229,0.523865,up
680208,-5.921875,7.050781,-0.25,-0.84375,0.265625,-0.056641,0.430176,-0.000305,0.735229,0.523865,up
680214,-5.921875,7.050781,-0.25,-0.740234,0.265625,-0.052734,0.429382,-0.002808,0.733765,0.52655,up
680219,-5.960937,6.972656,-0.25,-0.740234,0.265625,-0.052734,0.429382,-0.002808,0.733765,0.52655,up
680224,-5.960937,6.972656,-0.210937,-0.681641,0.263672,-0.039063,0.428955,-0.004028,0.733093,0.527771,up
680231,-6.035156,6.972656,-0.210937,-0.681641,0.263672,-0.039063,0.428955,-0.004028,0.733093,0.527771,up
680237,-6.074219,6.96875,-0.25,-0.521484,0.257813,-0.013672,0.428955,-0.004028,0.733093,0.527771,up
680242,-6.113281,6.972656,-0.210937,-0.521484,0.257813,-0.013672,0.427185,-0.008118,0.731018,0.532043,up
680247,-6.152344,6.972656,-0.210937,-0.511719,0.25,0.005859,0.42627,-0.009888,0.730164,0.533936,up
680252,-6.1875,6.972656,-0.25,-0.511719,0.25,0.005859,0.42627,-0.009888,0.730164,0.533936,up
680257,-6.265625,6.96875,-0.210937,-0.507812,0.242187,0.011719,0.425842,-0.010803,0.729675,0.534912,up
680262,-6.265625,7.007812,-0.210937,-0.507812,0.242187,0.011719,0.425354,-0.011658,0.729248,0.535889,up
680267,-6.304687,7.050781,-0.210937,-0.507812,0.242187,0.011719,0.424927,-0.012451,0.728821,0.536743,up
680272,-6.378906,7.046875,-0.210937,-0.507812,0.242187,0.011719,0.424438,-0.013306,0.728394,0.53772,up
680278,-6.378906,7.050781,-0.171875,-0.40625,0.214844,0.029297,0.424438,-0.013306,0.728394,0.53772,up
680283,-6.378906,7.078125,-0.210937,-0.40625,0.214844,0.029297,0.423096,-0.015381,0.727295,0.540161,up
680288,-6.417969,7.117187,-0.289063,-0.40625,0.214844,0.029297,0.422729,-0.015869,0.727051,0.540833,up
680294,-6.457031,7.117187,-0.210937,-0.40625,0.214844,0.029297,0.422241,-0.016418,0.726746,0.541504,up
680300,-6.378906,7.15625,-0.25,-0.259766,0.167969,0.068359,0.421875,-0.016846,0.726562,0.542114,up
680305,-6.34375,7.117187,-0.328125,-0.222656,0.154297,0.078125,0.421509,-0.017151,0.726379,0.542603,up
680311,-6.265625,7.121094,-0.328125,-0.189453,0.140625,0.087891,0.421509,-0.017151,0.726379,0.542603,up
680316,-6.226562,7.117187,-0.363281,-0.166016,0.142578,0.099609,0.421509,-0.017151,0.726379,0.542603,up
680322,-6.113281,7.046875,-0.402344,-0.138672,0.132812,0.117188,0.421509,-0.017151,0.726379,0.542603,up
680328,-5.996094,7.011719,-0.363281,-0.109375,0.130859,0.148437,0.421509,-0.017151,0.726379,0.542603,up
680333,-5.960937,7.011719,-0.402344,-0.109375,0.130859,0.148437,0.419067,-0.017944,0.725952,0.545044,up
680338,-5.882812,6.96875,-0.480469,-0.109375,0.130859,0.148437,0.419067,-0.017944,0.725952,0.545044,up
680343,-5.804687,6.972656,-0.480469,-0.109375,0.130859,0.148437,0.41864,-0.017883,0.725952,0.545349,up
680348,-5.769531,7.007812,-0.554687,-0.013672,0.144531,0.205078,0.41864,-0.017883,0.725952,0.545349,up
680353,-5.730469,7.007812,-0.519531,-0.013672,0.144531,0.205078,0.417053,-0.017517,0.726257,0.546143,up
680358,-5.652344,7.046875,-0.59375,-0.013672,0.144531,0.205078,0.417053,-0.017517,0.726257,0.546143,up
680363,-5.613281,7.082031,-0.554687,-0.013672,0.144531,0.205078,0.416016,-0.017029,0.726685,0.546448,up
680368,-5.613281,7.117187,-0.632812,0.099609,0.166016,0.232422,0.416016,-0.017029,0.726685,0.546448,up
680373,-5.613281,7.121094,-0.671875,0.111328,0.169922,0.244141,0.415344,-0.016724,0.72699,0.54657,up
680378,-5.5,7.15625,-0.632812,0.111328,0.169922,0.244141,0.414124,-0.016113,0.7276,0.546692,up
680383,-5.5,7.195312,-0.671875,0.111328,0.169922,0.244141,0.413513,-0.015808,0.727905,0.546692,up
680388,-5.5,7.199219,-0.710937,0.097656,0.193359,0.263672,0.413513,-0.015808,0.727905,0.546692,up
680393,-5.460937,7.199219,-0.785156,0.097656,0.193359,0.263672,0.412842,-0.015442,0.728271,0.546814,up
680398,-5.460937,7.199219,-0.785156,0.058594,0.207031,0.273438,0.411438,-0.014893,0.728821,0.547119,up
680404,-5.421875,7.199219,-0.824219,0.056641,0.212891,0.275391,0.410645,-0.014587,0.729126,0.547302,up
680409,-5.421875,7.238281,-0.902344,0.056641,0.212891,0.275391,0.409973,-0.014343,0.72937,0.547485,up
680414,-5.421875,7.277344,-0.863281,0.056641,0.212891,0.275391,0.40918,-0.014099,0.729675,0.547668,up
680420,-5.382812,7.316406,-0.9375,0.056641,0.212891,0.275391,0.408325,-0.013855,0.72998,0.547913,up
680425,-5.382812,7.316406,-0.9375,0.074219,0.259766,0.304688,0.407471,-0.01355,0.730347,0.548096,up
680431,-5.382812,7.394531,-1.015625,0.105469,0.283203,0.324219,0.407471,-0.01355,0.730347,0.548096,up
680437,-5.382812,7.394531,-1.054688,0.142578,0.302734,0.333984,0.407471,-0.01355,0.730347,0.548096,up
680443,-5.382812,7.355469,-1.09375,0.179687,0.324219,0.345703,0.407471,-0.01355,0.730347,0.548096,up
680448,-5.382812,7.617187,-1.09375,0.246094,0.337891,0.367188,0.407471,-0.01355,0.730347,0.548096,up
680453,-5.421875,7.621094,-1.132813,0.246094,0.337891,0.367188,0.401062,-0.011108,0.733948,0.548035,up
680458,-5.382812,7.65625,-1.167969,0.246094,0.337891,0.367188,0.401062,-0.011108,0.733948,0.548035,up
680463,-5.460937,7.734375,-1.207031,0.486328,0.404297,0.470703,0.401062,-0.011108,0.733948,0.548035,up
680469,-5.5,7.882812,-1.246094,0.486328,0.404297,0.470703,0.397278,-0.008972,0.736877,0.546936,up
680474,-5.5,7.960937,-1.207031,0.486328,0.404297,0.470703,0.39563,-0.007874,0.73822,0.546387,up
680479,-5.578125,8.082031,-1.285156,0.619141,0.4375,0.556641,0.394165,-0.006958,0.73938,0.545837,up
680484,-5.613281,8.117188,-1.324219,0.650391,0.439453,0.59375,0.392578,-0.005859,0.740662,0.545227,up
680489,-5.652344,8.199219,-1.359375,0.650391,0.439453,0.59375,0.391113,-0.004822,0.741821,0.544678,up
680495,-5.730469,8.234375,-1.476563,0.650391,0.439453,0.59375,0.389465,-0.00354,0.743225,0.544006,up
680500,-5.730469,8.195313,-1.515625,0.708984,0.433594,0.650391,0.389465,-0.00354,0.743225,0.544006,up
680506,-5.730469,8.238281,-1.550781,0.708984,0.433594,0.650391,0.386169,-0.000977,0.745911,0.542664,up
680511,-5.691406,8.199219,-1.628906,0.708984,0.433594,0.650391,0.386169,-0.000977,0.745911,0.542664,up
680516,-5.652344,8.195313,-1.667969,0.78125,0.410156,0.669922,0.386169,-0.000977,0.745911,0.542664,up
680522,-5.652344,8.160156,-1.707031,0.804687,0.412109,0.666016,0.386169,-0.000977,0.745911,0.542664,up
680527,-5.691406,8.234375,-1.820313,0.804687,0.412109,0.666016,0.386169,-0.000977,0.745911,0.542664,up
680533,-5.730469,8.269531,-1.820313,0.884766,0.382813,0.623047,0.386169,-0.000977,0.745911,0.542664,up
680538,-5.804687,8.421875,-1.898438,0.884766,0.382813,0.623047,0.376221,0.007813,0.7547,0.537476,up
680543,-5.804687,8.464844,-1.898438,0.884766,0.382813,0.623047,0.37323,0.010742,0.75769,0.535278,up
680548,-5.84375,8.5,-1.898438,0.884766,0.382813,0.623047,0.37323,0.010742,0.75769,0.535278,up
680553,-5.804687,8.539063,-1.972656,0.888672,0.322266,0.544922,0.370483,0.01355,0.76062,0.532959,up
680558,-5.84375,8.648438,-2.089844,0.888672,0.322266,0.544922,0.370483,0.01355,0.76062,0.532959,up
680563,-5.882812,8.691406,-2.089844,0.888672,0.322266,0.544922,0.368164,0.016235,0.763245,0.530701,up
680568,-5.84375,8.726563,-2.125,0.710937,0.201172,0.402344,0.367249,0.017334,0.764343,0.529724,up
680573,-5.804687,8.769531,-2.089844,0.710937,0.201172,0.402344,0.367249,0.017334,0.764343,0.529724,up
680578,-5.730469,8.804688,-2.125,0.632812,0.158203,0.376953,0.367249,0.017334,0.764343,0.529724,up
680583,-5.691406,8.765625,-2.164063,0.632812,0.158203,0.376953,0.364929,0.020508,0.766968,0.527405,up
680588,-5.691406,8.765625,-2.164063,0.632812,0.158203,0.376953,0.364929,0.020508,0.766968,0.527405,up
680593,-5.613281,8.6875,-2.164063,0.320313,0.072266,0.298828,0.364929,0.020508,0.766968,0.527405,up
680598,-5.613281,8.6875,-2.164063,0.228516,0.048828,0.283203,0.363831,0.022034,0.767883,0.526733,up
680603,-5.382812,8.425781,-2.164063,0.228516,0.048828,0.283203,0.363403,0.022644,0.768127,0.526672,up
680608,-5.15625,8.15625,-2.164063,0.044922,0.021484,0.25,0.362671,0.023621,0.76825,0.526978,up
680613,-4.964844,7.925781,-2.203125,-0.072266,0.015625,0.220703,0.362671,0.023621,0.76825,0.526978,up
680618,-4.886719,7.773437,-2.164063,-0.072266,0.015625,0.220703,0.362366,0.023987,0.768188,0.527283,up
680623,-4.808594,7.660156,-2.125,-0.072266,0.015625,0.220703,0.362061,0.024292,0.768005,0.52771,up
680628,-4.695312,7.5,-2.125,-0.142578,0.037109,0.203125,0.36145,0.024719,0.767639,0.528625,up
680633,-4.542969,7.277344,-2.089844,-0.142578,0.037109,0.203125,0.36145,0.024719,0.767639,0.528625,up
680638,-4.582031,7.238281,-2.089844,-0.123047,0.095703,0.181641,0.361084,0.024841,0.767456,0.529114,up
680643,-4.464844,7.160156,-2.089844,-0.123047,0.095703,0.181641,0.360718,0.024963,0.767395,0.529541,up
680648,-4.390625,7.050781,-2.050781,-0.123047,0.095703,0.181641,0.360291,0.025085,0.767273,0.529907,up
680653,-4.351562,6.96875,-2.011719,-0.123047,0.095703,0.181641,0.359802,0.025146,0.767273,0.530273,up
680658,-4.3125,6.933594,-1.972656,-0.007813,0.216797,0.169922,0.359802,0.025146,0.767273,0.530273,up
680663,-4.273437,6.933594,-1.933594,-0.007813,0.216797,0.169922,0.358643,0.025269,0.767456,0.530762,up
680668,-4.3125,6.890625,-1.898438,-0.007813,0.216797,0.169922,0.357971,0.025269,0.767639,0.531006,up
680674,-4.351562,6.890625,-1.859375,0.013672,0.310547,0.150391,0.357361,0.025208,0.767822,0.531128,up
680679,-4.351562,6.894531,-1.820313,0.013672,0.310547,0.150391,0.355713,0.024963,0.768372,0.531433,up
680684,-4.390625,6.933594,-1.78125,-0.005859,0.353516,0.119141,0.354919,0.02478,0.768677,0.531555,up
680690,-4.464844,6.933594,-1.707031,-0.005859,0.353516,0.119141,0.354126,0.024536,0.768921,0.531738,up
680695,-4.503906,6.933594,-1.707031,-0.037109,0.380859,0.087891,0.354126,0.024536,0.768921,0.531738,up
680700,-4.503906,6.933594,-1.628906,-0.044922,0.388672,0.070312,0.354126,0.024536,0.768921,0.531738,up
680706,-4.582031,7.007812,-1.667969,-0.044922,0.388672,0.070312,0.351624,0.023315,0.769714,0.532288,up
680711,-4.617187,7.078125,-1.628906,-0.042969,0.384766,0.027344,0.351624,0.023315,0.769714,0.532288,up
680716,-4.65625,7.117187,-1.589844,-0.044922,0.384766,0.009766,0.351624,0.023315,0.769714,0.532288,up
680722,-4.773437,7.199219,-1.628906,-0.044922,0.384766,0.009766,0.349365,0.02179,0.770508,0.532654,up
680728,-4.886719,7.464844,-1.589844,-0.044922,0.384766,0.009766,0.348083,0.020569,0.771057,0.532776,up
680733,-4.925781,7.539062,-1.589844,-0.044922,0.384766,0.009766,0.348083,0.020569,0.771057,0.532776,up
680738,-5.0,7.65625,-1.589844,-0.023437,0.345703,-0.070312,0.346985,0.019348,0.771606,0.532776,up
680743,-5.15625,7.882812,-1.628906,-0.023437,0.345703,-0.070312,0.346985,0.019348,0.771606,0.532776,up
680748,-5.191406,7.964844,-1.628906,-0.023437,0.345703,-0.070312,0.346497,0.018616,0.771851,0.532776,up
680754,-5.230469,8.039063,-1.707031,-0.048828,0.289063,-0.115234,0.345703,0.017334,0.772217,0.532837,up
680759,-5.269531,8.160156,-1.628906,-0.048828,0.289063,-0.115234,0.345337,0.016663,0.772278,0.532959,up
680764,-5.347656,8.199219,-1.667969,-0.048828,0.289063,-0.115234,0.345093,0.01593,0.772339,0.533081,up
680769,-5.382812,8.265625,-1.707031,-0.177734,0.251953,-0.144531,0.344788,0.015137,0.772339,0.533325,up
680774,-5.5,8.382813,-1.742188,-0.177734,0.251953,-0.144531,0.344788,0.015137,0.772339,0.533325,up
680779,-5.460937,8.425781,-1.742188,-0.177734,0.251953,-0.144531,0.344238,0.01355,0.772217,0.533875,up
680784,-5.539062,8.460938,-1.742188,-0.203125,0.224609,-0.132812,0.344238,0.01355,0.772217,0.533875,up
680789,-5.5,8.503906,-1.707031,-0.203125,0.224609,-0.132812,0.34375,0.012085,0.772034,0.534485,up
680794,-5.5,8.503906,-1.707031,-0.203125,0.224609,-0.132812,0.343567,0.011475,0.771912,0.534729,up
680799,-5.5,8.542969,-1.667969,-0.203125,0.224609,-0.132812,0.343384,0.010925,0.771912,0.534912,up
680804,-5.460937,8.542969,-1.707031,-0.103516,0.171875,-0.076172,0.343384,0.010925,0.771912,0.534912,up
680809,-5.460937,8.5,-1.742188,-0.103516,0.171875,-0.076172,0.34314,0.010376,0.771912,0.535095,up
680815,-5.382812,8.460938,-1.742188,-0.103516,0.171875,-0.076172,0.342712,0.009583,0.771973,0.535278,up
680821,-5.347656,8.421875,-1.78125,0.009766,0.152344,-0.013672,0.342712,0.009583,0.771973,0.535278,up
680826,-5.308594,8.425781,-1.78125,0.041016,0.142578,0.011719,0.342224,0.009155,0.772217,0.535278,up
680831,-5.230469,8.421875,-1.859375,0.068359,0.142578,0.035156,0.342224,0.009155,0.772217,0.535278,up
680836,-5.191406,8.386719,-1.898438,0.097656,0.134766,0.050781,0.342224,0.009155,0.772217,0.535278,up
680841,-5.191406,8.421875,-1.859375,0.123047,0.130859,0.070312,0.342224,0.009155,0.772217,0.535278,up
680847,-5.15625,8.425781,-1.859375,0.146484,0.128906,0.087891,0.342224,0.009155,0.772217,0.535278,up
680853,-5.15625,8.460938,-1.933594,0.146484,0.128906,0.087891,0.342224,0.009155,0.772217,0.535278,up
680858,-5.191406,8.5,-1.972656,0.179687,0.140625,0.107422,0.342224,0.009155,0.772217,0.535278,up
680863,-5.191406,8.578125,-2.011719,0.207031,0.148437,0.109375,0.339294,0.009766,0.774597,0.533691,up
680868,-5.230469,8.621094,-2.050781,0.207031,0.148437,0.109375,0.339294,0.009766,0.774597,0.533691,up
680874,-5.308594,8.6875,-2.050781,0.236328,0.158203,0.113281,0.339294,0.009766,0.774597,0.533691,up
680879,-5.308594,8.769531,-2.050781,0.236328,0.158203,0.113281,0.337891,0.010437,0.775879,0.532593,up
680884,-5.382812,8.769531,-2.050781,0.242187,0.158203,0.117188,0.337891,0.010437,0.775879,0.532593,up
680889,-5.421875,8.808594,-2.089844,0.242187,0.158203,0.117188,0.337036,0.010803,0.776733,0.531921,up
680894,-5.460937,8.886719,-2.089844,0.242187,0.158203,0.117188,0.337036,0.010803,0.776733,0.531921,up
680899,-5.460937,8.886719,-2.089844,0.210937,0.138672,0.101563,0.336243,0.01123,0.777527,0.531311,up
680904,-5.578125,9.0,-2.050781,0.210937,0.138672,0.101563,0.336243,0.01123,0.777527,0.531311,up
680909,-5.652344,9.039063,-2.050781,0.107422,0.095703,0.095703,0.336243,0.01123,0.777527,0.531311,up
680914,-5.691406,9.042969,-2.050781,0.107422,0.095703,0.095703,0.33551,0.011536,0.778076,0.530884,up
680920,-5.769531,9.074219,-2.089844,0.107422,0.095703,0.095703,0.334961,0.011841,0.778381,0.530823,up
680925,-5.730469,9.042969,-2.050781,0.107422,0.095703,0.095703,0.334839,0.011902,0.77832,0.530945,up
680930,-5.804687,9.0,-2.011719,-0.09375,0.011719,0.076172,0.334656,0.011963,0.778259,0.531189,up
680935,-5.804687,8.925781,-2.011719,-0.09375,0.011719,0.076172,0.334595,0.012024,0.778076,0.531494,up
680941,-5.769531,8.804688,-2.011719,-0.09375,0.011719,0.076172,0.334534,0.012024,0.777893,0.53186,up
680946,-5.769531,8.730469,-1.972656,-0.210937,-0.056641,0.058594,0.334595,0.012024,0.777588,0.532288,up
680952,-5.730469,8.726563,-1.972656,-0.240234,-0.078125,0.054687,0.334595,0.012024,0.777588,0.532288,up
680957,-5.730469,8.542969,-1.933594,-0.251953,-0.095703,0.052734,0.334595,0.012024,0.777588,0.532288,up
680962,-5.730469,8.503906,-1.933594,-0.275391,-0.111328,0.052734,0.3349,0.012085,0.776306,0.533875,up
680968,-5.691406,8.464844,-1.898438,-0.28125,-0.125,0.050781,0.3349,0.012085,0.776306,0.533875,up
680974,-5.652344,8.425781,-1.898438,-0.277344,-0.140625,0.044922,0.335571,0.012146,0.774841,0.535583,up
680979,-5.652344,8.265625,-1.820313,-0.277344,-0.140625,0.044922,0.335815,0.012268,0.774292,0.536194,up
680984,-5.613281,8.195313,-1.820313,-0.265625,-0.177734,0.052734,0.335815,0.012268,0.774292,0.536194,up
680989,-5.539062,8.199219,-1.742188,-0.261719,-0.191406,0.066406,0.33606,0.012329,0.773865,0.536743,up
680995,-5.539062,8.042969,-1.707031,-0.261719,-0.191406,0.066406,0.33667,0.012695,0.772766,0.537842,up
681000,-5.460937,8.003906,-1.707031,-0.246094,-0.21875,0.074219,0.337036,0.012878,0.772217,0.538452,up
681006,-5.382812,7.855469,-1.667969,-0.246094,-0.21875,0.074219,0.337341,0.013123,0.771729,0.53894,up
681012,-5.269531,7.699219,-1.589844,-0.230469,-0.234375,0.111328,0.337341,0.013123,0.771729,0.53894,up
681018,-5.191406,7.621094,-1.589844,-0.220703,-0.248047,0.119141,0.337341,0.013123,0.771729,0.53894,up
681023,-5.15625,7.539062,-1.589844,-0.205078,-0.257813,0.125,0.337341,0.013123,0.771729,0.53894,up
681029,-5.039062,7.429687,-1.589844,-0.177734,-0.269531,0.144531,0.337341,0.013123,0.771729,0.53894,up
681034,-5.0,7.394531,-1.550781,-0.177734,-0.269531,0.144531,0.339355,0.015747,0.768799,0.541809,up
681039,-4.925781,7.355469,-1.628906,-0.076172,-0.271484,0.160156,0.339355,0.015747,0.768799,0.541809,up
681044,-4.925781,7.316406,-1.628906,-0.076172,-0.271484,0.160156,0.339722,0.016296,0.768372,0.542114,up
681049,-4.847656,7.351562,-1.589844,-0.025391,-0.287109,0.167969,0.340332,0.017639,0.767822,0.54248,up
681054,-4.847656,7.351562,-1.589844,-0.025391,-0.287109,0.167969,0.340332,0.017639,0.767822,0.54248,up
681059,-4.847656,7.433594,-1.589844,0.09375,-0.300781,0.189453,0.340332,0.017639,0.767822,0.54248,up
681064,-4.847656,7.433594,-1.589844,0.09375,-0.300781,0.189453,0.341003,0.019165,0.767456,0.542603,up
681069,-4.808594,7.429687,-1.628906,0.107422,-0.298828,0.189453,0.341675,0.020935,0.767212,0.54248,up
681074,-4.773437,7.390625,-1.628906,0.107422,-0.298828,0.189453,0.341675,0.020935,0.767212,0.54248,up
681079,-4.734375,7.390625,-1.628906,0.115234,-0.330078,0.193359,0.341675,0.020935,0.767212,0.54248,up
681084,-4.695312,7.3125,-1.628906,0.09375,-0.349609,0.185547,0.342407,0.022705,0.766907,0.542297,up
681090,-4.65625,7.234375,-1.667969,0.080078,-0.34375,0.179687,0.342773,0.023621,0.766724,0.542236,up
681095,-4.617187,7.199219,-1.628906,0.080078,-0.34375,0.179687,0.343689,0.025513,0.766296,0.542236,up
681101,-4.582031,7.121094,-1.667969,0.080078,-0.34375,0.179687,0.344116,0.026245,0.766052,0.542236,up
681106,-4.542969,7.121094,-1.707031,0.080078,-0.34375,0.179687,0.344666,0.027161,0.765808,0.542236,up
681111,-4.542969,7.160156,-1.707031,0.060547,-0.384766,0.136719,0.344666,0.027161,0.765808,0.542236,up
681116,-4.582031,7.15625,-1.742188,0.070312,-0.384766,0.126953,0.344666,0.027161,0.765808,0.542236,up
681122,-4.542969,7.234375,-1.742188,0.070312,-0.384766,0.126953,0.346313,0.029602,0.765015,0.542114,up
681128,-4.542969,7.273437,-1.78125,0.111328,-0.402344,0.089844,0.346313,0.029602,0.765015,0.542114,up
681134,-4.582031,7.273437,-1.78125,0.142578,-0.412109,0.064453,0.346313,0.029602,0.765015,0.542114,up
681139,-4.503906,7.273437,-1.78125,0.142578,-0.412109,0.064453,0.348328,0.032043,0.764404,0.541626,up
681144,-4.425781,7.3125,-1.859375,0.142578,-0.412109,0.064453,0.348999,0.032837,0.764221,0.541382,up
681149,-4.425781,7.3125,-1.859375,0.142578,-0.412109,0.064453,0.349731,0.03363,0.764038,0.541077,up
681155,-4.390625,7.394531,-1.898438,0.166016,-0.433594,0.042969,0.349731,0.03363,0.764038,0.541077,up
681160,-4.351562,7.390625,-1.933594,0.166016,-0.433594,0.042969,0.352173,0.036133,0.76355,0.5401,up
681166,-4.390625,7.503906,-1.933594,0.166016,-0.433594,0.042969,0.352844,0.036804,0.763428,0.539734,up
681171,-4.351562,7.542969,-1.972656,0.193359,-0.425781,0.003906,0.352844,0.036804,0.763428,0.539734,up
681176,-4.351562,7.582031,-2.011719,0.193359,-0.425781,0.003906,0.354431,0.03833,0.763184,0.53894,up
681182,-4.3125,7.695312,-2.089844,0.193359,-0.425781,0.003906,0.354431,0.03833,0.763184,0.53894,up
681188,-4.273437,7.738281,-2.125,0.251953,-0.414062,0.001953,0.356018,0.039795,0.763062,0.538025,up
681194,-4.273437,7.777344,-2.125,0.318359,-0.390625,-0.013672,0.356873,0.04071,0.763062,0.537354,up
681199,-4.234375,7.851562,-2.164063,0.318359,-0.390625,-0.013672,0.357544,0.041382,0.763062,0.536804,up
681204,-4.234375,7.921875,-2.242188,0.318359,-0.390625,-0.013672,0.358398,0.042236,0.763184,0.536011,up
681210,-4.273437,8.0,-2.242188,0.376953,-0.353516,-0.033203,0.358398,0.042236,0.763184,0.536011,up
681216,-4.3125,8.195313,-2.28125,0.376953,-0.353516,-0.033203,0.360413,0.044373,0.763672,0.533813,up
681221,-4.3125,8.269531,-2.320313,0.390625,-0.320313,-0.056641,0.360413,0.044373,0.763672,0.533813,up
681226,-4.3125,8.269531,-2.320313,0.384766,-0.310547,-0.068359,0.361694,0.045715,0.764099,0.532166,up
681231,-4.351562,8.425781,-2.355469,0.384766,-0.310547,-0.068359,0.362366,0.046326,0.764343,0.531311,up
681237,-4.390625,8.5,-2.433594,0.347656,-0.273438,-0.091797,0.362366,0.046326,0.764343,0.531311,up
681242,-4.351562,8.578125,-2.472656,0.318359,-0.255859,-0.111328,0.362366,0.046326,0.764343,0.531311,up
681248,-4.425781,8.652344,-2.433594,0.291016,-0.248047,-0.119141,0.362366,0.046326,0.764343,0.531311,up
681254,-4.425781,8.6875,-2.433594,0.224609,-0.216797,-0.150391,0.362366,0.046326,0.764343,0.531311,up
681259,-4.425781,8.726563,-2.433594,0.224609,-0.216797,-0.150391,0.365417,0.048279,0.765259,0.527771,up
681265,-4.503906,8.804688,-2.433594,0.191406,-0.195312,-0.164062,0.365417,0.048279,0.765259,0.527771,up
681270,-4.503906,8.804688,-2.433594,0.130859,-0.175781,-0.179687,0.367188,0.048523,0.765442,0.526184,up
681276,-4.503906,8.882813,-2.472656,0.105469,-0.154297,-0.197266,0.367737,0.048523,0.765503,0.525757,up
681281,-4.503906,8.882813,-2.472656,0.105469,-0.154297,-0.197266,0.368347,0.048401,0.765503,0.525391,up
681287,-4.503906,8.886719,-2.433594,0.105469,-0.154297,-0.197266,0.368774,0.048279,0.765503,0.525024,up
681292,-4.503906,8.886719,-2.433594,0.054687,-0.107422,-0.199219,0.368774,0.048279,0.765503,0.525024,up
681298,-4.464844,8.921875,-2.433594,0.033203,-0.087891,-0.207031,0.369751,0.047913,0.765503,0.524475,up
681303,-4.503906,8.921875,-2.394531,0.033203,-0.087891,-0.207031,0.369751,0.047913,0.765503,0.524475,up
681308,-4.542969,8.882813,-2.320313,-0.003906,-0.044922,-0.207031,0.369751,0.047913,0.765503,0.524475,up
681313,-4.542969,8.882813,-2.320313,-0.025391,-0.019531,-0.197266,0.369751,0.047913,0.765503,0.524475,up
681319,-4.503906,8.84375,-2.320313,-0.025391,-0.019531,-0.197266,0.371155,0.046509,0.765381,0.523682,up
681325,-4.582031,8.804688,-2.28125,-0.078125,0.029297,-0.191406,0.371582,0.045532,0.765259,0.523621,up
681330,-4.582031,8.804688,-2.242188,-0.113281,0.070312,-0.1875,0.371765,0.044983,0.765198,0.523682,up
681335,-4.695312,8.765625,-2.164063,-0.113281,0.070312,-0.1875,0.371887,0.044373,0.765137,0.523743,up
681340,-4.695312,8.730469,-2.125,-0.113281,0.070312,-0.1875,0.371948,0.043701,0.765015,0.523865,up
681345,-4.734375,8.726563,-2.125,-0.207031,0.136719,-0.197266,0.372009,0.042969,0.764893,0.524109,up
681350,-4.734375,8.6875,-2.050781,-0.207031,0.136719,-0.197266,0.372009,0.042969,0.764893,0.524109,up
681355,-4.808594,8.621094,-1.972656,-0.216797,0.160156,-0.205078,0.372009,0.042969,0.764893,0.524109,up
681360,-4.808594,8.578125,-1.933594,-0.216797,0.160156,-0.205078,0.371948,0.040466,0.764526,0.524902,up
681365,-4.847656,8.582031,-1.898438,-0.263672,0.189453,-0.201172,0.371948,0.040466,0.764526,0.524902,up
681370,-4.886719,8.542969,-1.859375,-0.269531,0.193359,-0.199219,0.371887,0.039673,0.764404,0.525208,up
681376,-4.847656,8.503906,-1.78125,-0.269531,0.193359,-0.199219,0.371704,0.037842,0.764099,0.52594,up
681381,-4.886719,8.421875,-1.78125,-0.279297,0.201172,-0.185547,0.371582,0.036865,0.763916,0.526306,up
681387,-4.847656,8.347656,-1.742188,-0.279297,0.201172,-0.185547,0.371521,0.036133,0.763733,0.526672,up
681393,-4.808594,8.265625,-1.628906,-0.275391,0.201172,-0.164062,0.371521,0.036133,0.763733,0.526672,up
681398,-4.773437,8.195313,-1.667969,-0.255859,0.195312,-0.148437,0.371521,0.036133,0.763733,0.526672,up
681403,-4.773437,8.160156,-1.667969,-0.240234,0.197266,-0.134766,0.371521,0.036133,0.763733,0.526672,up
681408,-4.773437,8.160156,-1.667969,-0.224609,0.203125,-0.130859,0.371521,0.036133,0.763733,0.526672,up
681413,-4.773437,8.082031,-1.589844,-0.224609,0.203125,-0.130859,0.371521,0.036133,0.763733,0.526672,up
681419,-4.773437,8.082031,-1.589844,-0.224609,0.203125,-0.130859,0.370483,0.031555,0.763062,0.528687,up
681425,-4.808594,8.082031,-1.589844,-0.140625,0.230469,-0.121094,0.370483,0.031555,0.763062,0.528687,up
681430,-4.847656,8.121094,-1.550781,-0.140625,0.230469,-0.121094,0.369751,0.029541,0.763123,0.529236,up
681435,-4.847656,8.15625,-1.628906,-0.109375,0.242187,-0.128906,0.369751,0.029541,0.763123,0.529236,up
681440,-4.925781,8.238281,-1.589844,-0.109375,0.242187,-0.128906,0.369446,0.028809,0.763184,0.529358,up
681445,-4.925781,8.269531,-1.550781,-0.123047,0.242187,-0.138672,0.369446,0.028809,0.763184,0.529358,up
681450,-5.039062,8.382813,-1.550781,-0.123047,0.242187,-0.138672,0.368652,0.026794,0.763428,0.529663,up
681455,-5.039062,8.382813,-1.515625,-0.160156,0.234375,-0.15625,0.368652,0.026794,0.763428,0.529663,up
681460,-5.078125,8.382813,-1.515625,-0.179687,0.224609,-0.154297,0.368347,0.02594,0.763489,0.529846,up
681466,-5.117187,8.347656,-1.476563,-0.179687,0.224609,-0.154297,0.367981,0.024475,0.763428,0.530273,up
681472,-5.15625,8.347656,-1.476563,-0.179687,0.224609,-0.154297,0.367798,0.023682,0.763306,0.530579,up
681479,-5.191406,8.34375,-1.4375,-0.273438,0.195312,-0.173828,0.367798,0.023682,0.763306,0.530579,up
681484,-5.191406,8.308594,-1.4375,-0.291016,0.177734,-0.175781,0.367798,0.023682,0.763306,0.530579,up
681490,-5.230469,8.304688,-1.398438,-0.291016,0.177734,-0.175781,0.367798,0.023682,0.763306,0.530579,up
681495,-5.230469,8.308594,-1.4375,-0.308594,0.146484,-0.189453,0.367432,0.01947,0.762268,0.532532,up
681500,-5.347656,8.304688,-1.398438,-0.308594,0.146484,-0.189453,0.367432,0.01947,0.762268,0.532532,up
681505,-5.308594,8.308594,-1.398438,-0.287109,0.101563,-0.189453,0.367432,0.018677,0.761963,0.532959,up
681510,-5.308594,8.308594,-1.398438,-0.277344,0.089844,-0.183594,0.367493,0.017944,0.761719,0.533325,up
681515,-5.308594,8.308594,-1.359375,-0.277344,0.089844,-0.183594,0.367554,0.01709,0.761414,0.533691,up
681521,-5.347656,8.238281,-1.324219,-0.277344,0.089844,-0.183594,0.367737,0.015747,0.760864,0.534363,up
681526,-5.347656,8.238281,-1.324219,-0.255859,0.0625,-0.175781,0.36792,0.015076,0.760559,0.534729,up
681532,-5.382812,8.15625,-1.359375,-0.255859,0.0625,-0.175781,0.367981,0.014465,0.760315,0.535034,up
681538,-5.421875,8.121094,-1.324219,-0.251953,0.050781,-0.160156,0.367981,0.014465,0.760315,0.535034,up
681544,-5.421875,8.195313,-1.359375,-0.238281,0.039063,-0.152344,0.367981,0.014465,0.760315,0.535034,up
681549,-5.460937,8.15625,-1.359375,-0.232422,0.033203,-0.144531,0.367981,0.014465,0.760315,0.535034,up
681555,-5.460937,8.15625,-1.324219,-0.212891,0.029297,-0.138672,0.367981,0.014465,0.760315,0.535034,up
681560,-5.5,8.121094,-1.285156,-0.179687,0.011719,-0.113281,0.368652,0.011719,0.759033,0.53656,up
681565,-5.5,8.082031,-1.285156,-0.179687,0.011719,-0.113281,0.368774,0.011292,0.758789,0.536804,up
681570,-5.5,8.082031,-1.285156,-0.179687,0.011719,-0.113281,0.36908,0.010559,0.758301,0.537231,up
681575,-5.539062,8.042969,-1.285156,-0.179687,0.011719,-0.113281,0.369202,0.010315,0.758179,0.537354,up
681580,-5.5,8.003906,-1.285156,-0.179687,0.011719,-0.113281,0.369202,0.010315,0.758179,0.537354,up
681585,-5.5,8.003906,-1.285156,-0.109375,-0.041016,-0.078125,0.369202,0.010315,0.758179,0.537354,up
681590,-5.5,7.925781,-1.285156,-0.089844,-0.058594,-0.070312,0.369812,0.009827,0.757629,0.53772,up
681595,-5.421875,7.851562,-1.246094,-0.089844,-0.058594,-0.070312,0.369812,0.009827,0.757629,0.53772,up
681600,-5.421875,7.8125,-1.285156,-0.089844,-0.058594,-0.070312,0.370056,0.009766,0.757507,0.537781,up
681606,-5.382812,7.816406,-1.246094,-0.007813,-0.115234,-0.035156,0.370056,0.009766,0.757507,0.537781,up
681611,-5.269531,7.699219,-1.285156,-0.007813,-0.115234,-0.035156,0.370789,0.009888,0.757141,0.537781,up
681617,-5.269531,7.617187,-1.285156,-0.007813,-0.115234,-0.035156,0.371094,0.010071,0.757019,0.53772,up
681622,-5.269531,7.578125,-1.285156,0.039063,-0.138672,-0.021484,0.371338,0.010254,0.756958,0.537659,up
681627,-5.230469,7.578125,-1.324219,0.052734,-0.150391,-0.011719,0.371338,0.010254,0.756958,0.537659,up
681633,-5.191406,7.539062,-1.324219,0.052734,-0.150391,-0.011719,0.371887,0.010681,0.756836,0.537415,up
681639,-5.191406,7.539062,-1.398438,0.087891,-0.164062,-0.009766,0.371887,0.010681,0.756836,0.537415,up
681645,-5.191406,7.539062,-1.359375,0.099609,-0.164062,-0.011719,0.371887,0.010681,0.756836,0.537415,up
681651,-5.15625,7.542969,-1.359375,0.115234,-0.179687,-0.007813,0.371887,0.010681,0.756836,0.537415,up
681656,-5.191406,7.578125,-1.359375,0.115234,-0.179687,-0.007813,0.373596,0.012207,0.756714,0.536377,up
681661,-5.15625,7.578125,-1.4375,0.115234,-0.179687,-0.007813,0.373962,0.012573,0.756653,0.536133,up
681666,-5.15625,7.578125,-1.4375,0.115234,-0.179687,-0.007813,0.374329,0.012817,0.756653,0.53595,up
681671,-5.15625,7.578125,-1.4375,0.070312,-0.212891,-0.048828,0.374817,0.013123,0.756531,0.535706,up
681676,-5.191406,7.582031,-1.4375,0.070312,-0.212891,-0.048828,0.375244,0.013367,0.756409,0.535583,up
681681,-5.15625,7.578125,-1.4375,0.035156,-0.242187,-0.054687,0.375244,0.013367,0.756409,0.535583,up
681686,-5.15625,7.578125,-1.4375,0.013672,-0.246094,-0.072266,0.376221,0.013855,0.756104,0.535339,up
681691,-5.191406,7.542969,-1.476563,-0.007813,-0.251953,-0.068359,0.376221,0.013855,0.756104,0.535339,up
681696,-5.117187,7.539062,-1.476563,-0.007813,-0.251953,-0.068359,0.377441,0.014282,0.755615,0.535156,up
681701,-5.117187,7.539062,-1.4375,-0.007813,-0.251953,-0.068359,0.377991,0.014404,0.755371,0.535156,up
681707,-5.15625,7.578125,-1.476563,-0.007813,-0.251953,-0.068359,0.378662,0.014648,0.755005,0.535095,up
681712,-5.15625,7.542969,-1.515625,-0.021484,-0.287109,-0.091797,0.379395,0.014832,0.7547,0.535034,up
681717,-5.269531,7.660156,-1.550781,-0.021484,-0.287109,-0.091797,0.379944,0.015015,0.754456,0.534973,up
681723,-5.308594,7.773437,-1.589844,-0.021484,-0.287109,-0.091797,0.380676,0.015198,0.75415,0.534851,up
681729,-5.382812,7.816406,-1.628906,0.003906,-0.302734,-0.125,0.380676,0.015198,0.75415,0.534851,up
681734,-5.460937,7.882812,-1.628906,0.023437,-0.310547,-0.128906,0.380676,0.015198,0.75415,0.534851,up
681740,-5.539062,8.042969,-1.667969,0.023437,-0.310547,-0.128906,0.383667,0.015991,0.753113,0.53418,up
681745,-5.613281,8.121094,-1.707031,0.023437,-0.310547,-0.128906,0.383667,0.015991,0.753113,0.53418,up
681750,-5.652344,8.160156,-1.707031,0.041016,-0.332031,-0.144531,0.383667,0.015991,0.753113,0.53418,up
681755,-5.730469,8.238281,-1.742188,0.037109,-0.345703,-0.136719,0.383667,0.015991,0.753113,0.53418,up
681760,-5.804687,8.265625,-1.78125,0.037109,-0.345703,-0.136719,0.386108,0.016663,0.752319,0.533508,up
681766,-5.804687,8.304688,-1.78125,0.025391,-0.363281,-0.130859,0.386108,0.016663,0.752319,0.533508,up
681771,-5.921875,8.34375,-1.820313,0.023437,-0.369141,-0.128906,0.386108,0.016663,0.752319,0.533508,up
681776,-5.960937,8.421875,-1.820313,0.023437,-0.369141,-0.128906,0.389648,0.017822,0.751038,0.532715,up
681781,-5.996094,8.464844,-1.820313,0.025391,-0.394531,-0.117188,0.389648,0.017822,0.751038,0.532715,up
681786,-6.074219,8.503906,-1.859375,0.025391,-0.394531,-0.117188,0.391418,0.018494,0.750366,0.532349,up
681791,-6.074219,8.542969,-1.898438,0.025391,-0.394531,-0.117188,0.392212,0.01886,0.750061,0.532104,up
681796,-6.113281,8.617188,-1.933594,0.025391,-0.394531,-0.117188,0.39325,0.019287,0.749756,0.53186,up
681801,-6.074219,8.621094,-1.859375,0.072266,-0.425781,-0.101563,0.39325,0.019287,0.749756,0.53186,up
681806,-6.074219,8.582031,-1.933594,0.072266,-0.425781,-0.101563,0.39502,0.020142,0.749146,0.531372,up
681811,-6.074219,8.621094,-1.933594,0.072266,-0.425781,-0.101563,0.395874,0.02063,0.74884,0.531128,up
681816,-5.996094,8.582031,-2.011719,0.072266,-0.425781,-0.101563,0.395874,0.02063,0.74884,0.531128,up
681821,-6.035156,8.542969,-1.972656,0.103516,-0.425781,-0.0625,0.395874,0.02063,0.74884,0.531128,up
681826,-5.960937,8.542969,-1.972656,0.103516,-0.425781,-0.0625,0.39856,0.022278,0.747986,0.530273,up
681831,-5.882812,8.464844,-2.011719,0.103516,-0.425781,-0.0625,0.399353,0.022827,0.747742,0.529968,up
681836,-5.804687,8.386719,-2.050781,0.103516,-0.425781,-0.0625,0.399353,0.022827,0.747742,0.529968,up
681841,-5.769531,8.347656,-2.011719,0.142578,-0.369141,-0.005859,0.399353,0.022827,0.747742,0.529968,up
681846,-5.652344,8.265625,-1.972656,0.142578,-0.369141,-0.005859,0.400879,0.024048,0.747314,0.529419,up
681852,-5.652344,8.265625,-2.011719,0.160156,-0.34375,0.007813,0.4021,0.02533,0.747009,0.528809,up
681857,-5.613281,8.234375,-1.933594,0.205078,-0.294922,0.033203,0.40271,0.026062,0.746948,0.528381,up
681862,-5.613281,8.234375,-1.898438,0.205078,-0.294922,0.033203,0.403137,0.026733,0.747009,0.528015,up
681867,-5.578125,8.199219,-1.898438,0.205078,-0.294922,0.033203,0.403503,0.027344,0.747009,0.527649,up
681872,-5.578125,8.199219,-1.898438,0.271484,-0.220703,0.070312,0.403809,0.028137,0.747131,0.527161,up
681877,-5.578125,8.15625,-1.859375,0.289063,-0.203125,0.087891,0.404114,0.02887,0.747314,0.526672,up
681883,-5.460937,8.15625,-1.78125,0.289063,-0.203125,0.087891,0.404297,0.02948,0.747498,0.526245,up
681888,-5.460937,8.117188,-1.742188,0.306641,-0.164062,0.107422,0.40448,0.030273,0.747742,0.525757,up
681894,-5.421875,8.078125,-1.707031,0.302734,-0.142578,0.111328,0.40448,0.030273,0.747742,0.525757,up
681900,-5.347656,8.0,-1.628906,0.285156,-0.126953,0.125,0.40448,0.030273,0.747742,0.525757,up
681905,-5.347656,7.964844,-1.589844,0.275391,-0.117188,0.132812,0.40448,0.030273,0.747742,0.525757,up
681910,-5.269531,7.886719,-1.550781,0.261719,-0.105469,0.146484,0.404663,0.03302,0.748657,0.524048,up
686556,-4.8125,8.164063,-1.859375,-0.072266,0.09375,-0.029297,0.358704,0.067139,0.770081,0.523254,up
686561,-4.8125,8.164063,-1.859375,-0.072266,0.09375,-0.029297,0.358704,0.067139,0.770081,0.523254,up
686566,-4.8125,8.164063,-1.859375,-0.072266,0.09375,-0.029297,0.358704,0.067139,0.770081,0.523254,up
686571,-4.8125,8.164063,-1.859375,-0.072266,0.09375,-0.029297,0.358704,0.067139,0.770081,0.523254,up
686576,-4.8125,8.164063,-1.859375,-0.072266,0.09375,-0.029297,0.358704,0.067139,0.770081,0.523254,up
686581,-4.8125,8.164063,-1.859375,-0.072266,0.09375,-0.029297,0.358704,0.067139,0.770081,0.523254,up
686586,-4.8125,8.164063,-1.859375,-0.072266,0.09375,-0.029297,0.358704,0.067139,0.770081,0.523254,up
686591,-4.8125,8.164063,-1.859375,-0.072266,0.09375,-0.029297,0.358704,0.067139,0.770081,0.523254,up
686596,-4.8125,8.164063,-1.859375,-0.072266,0.09375,-0.029297,0.358704,0.067139,0.770081,0.523254,up
686601,-4.8125,8.164063,-1.859375,-0.072266,0.09375,-0.029297,0.358704,0.067139,0.770081,0.523254,up
686606,-4.8125,8.164063,-1.859375,-0.072266,0.09375,-0.029297,0.358704,0.067139,0.770081,0.523254,up
686611,-4.8125,8.164063,-1.859375,-0.072266,0.09375,-0.029297,0.358704,0.067139,0.770081,0.523254,up
686616,-4.8125,8.164063,-1.859375,-0.072266,0.09375,-0.029297,0.358704,0.067139,0.770081,0.523254,up
686621,-4.8125,8.164063,-1.859375,-0.072266,0.09375,-0.029297,0.358704,0.067139,0.770081,0.523254,up
686626,-4.8125,8.164063,-1.859375,-0.072266,0.09375,-0.029297,0.358704,0.067139,0.770081,0.523254,up
686631,-4.8125,8.164063,-1.859375,-0.072266,0.09375,-0.029297,0.358704,0.067139,0.770081,0.523254,up
686636,-4.8125,8.164063,-1.859375,-0.072266,0.09375,-0.029297,0.358704,0.067139,0.770081,0.523254,up
686641,-4.8125,8.164063,-1.859375,-0.072266,0.09375,-0.029297,0.358704,0.067139,0.770081,0.523254,up
686646,-4.8125,8.164063,-1.859375,-0.072266,0.09375,-0.029297,0.358704,0.067139,0.770081,0.523254,up
686651,-4.8125,8.164063,-1.859375,-0.072266,0.09375,-0.029297,0.358704,0.067139,0.770081,0.523254,up
686656,-4.8125,8.164063,-1.859375,-0.072266,0.09375,-0.029297,0.358704,0.067139,0.770081,0.523254,up
686661,-4.8125,8.164063,-1.859375,-0.072266,0.09375,-0.029297,0.358704,0.067139,0.770081,0.523254,up
686666,-4.8125,8.164063,-1.859375,-0.072266,0.09375,-0.029297,0.358704,0.067139,0.770081,0.523254,up
686671,-4.8125,8.164063,-1.859375,-0.072266,0.09375,-0.029297,0.358704,0.067139,0.770081,0.523254,up
686676,-4.8125,8.164063,-1.859375,-0.072266,0.09375,-0.029297,0.358704,0.067139,0.770081,0.523254,up
686681,-4.8125,8.164063,-1.859375,-0.072266,0.09375,-0.029297,0.358704,0.067139,0.770081,0.523254,up
686686,-4.8125,8.164063,-1.859375,-0.072266,0.09375,-0.029297,0.358704,0.067139,0.770081,0.523254,up
686691,-4.8125,8.164063,-1.859375,-0.072266,0.09375,-0.029297,0.358704,0.067139,0.770081,0.523254,up
686696,-4.8125,8.164063,-1.859375,-0.072266,0.09375,-0.029297,0.358704,0.067139,0.770081,0.523254,up
686701,-4.8125,8.164063,-1.859375,-0.072266,0.09375,-0.029297,0.358704,0.067139,0.770081,0.523254,up
686706,-4.8125,8.164063,-1.859375,-0.072266,0.09375,-0.029297,0.358704,0.067139,0.770081,0.523254,up
686711,-4.8125,8.164063,-1.859375,-0.072266,0.09375,-0.029297,0.358704,0.067139,0.770081,0.523254,up
686716,-4.8125,8.164063,-1.859375,-0.072266,0.09375,-0.029297,0.358704,0.067139,0.770081,0.523254,up
686721,-4.8125,8.164063,-1.859375,-0.072266,0.09375,-0.029297,0.358704,0.067139,0.770081,0.523254,up
686726,-4.8125,8.164063,-1.859375,-0.072266,0.09375,-0.029297,0.358704,0.067139,0.770081,0.523254,up
686731,-4.8125,8.164063,-1.859375,-0.072266,0.09375,-0.029297,0.358704,0.067139,0.770081,0.523254,up
686736,-4.8125,8.164063,-1.859375,-0.072266,0.09375,-0.029297,0.358704,0.067139,0.770081,0.523254,up
686741,-4.8125,8.164063,-1.859375,-0.072266,0.09375,-0.029297,0.358704,0.067139,0.770081,0.523254,up
686746,-4.8125,8.164063,-1.859375,-0.072266,0.09375,-0.029297,0.358704,0.067139,0.770081,0.523254,up
686751,-4.8125,8.164063,-1.859375,-0.072266,0.09375,-0.029297,0.358704,0.067139,0.770081,0.523254,up
686756,-4.8125,8.164063,-1.859375,-0.072266,0.09375,-0.029297,0.358704,0.067139,0.770081,0.523254,up
686761,-4.8125,8.164063,-1.859375,-0.072266,0.09375,-0.029297,0.358704,0.067139,0.770081,0.523254,up
686766,-4.8125,8.164063,-1.859375,-0.072266,0.09375,-0.029297,0.358704,0.067139,0.770081,0.523254,up
686771,-4.8125,8.164063,-1.859375,-0.072266,0.09375,-0.029297,0.358704,0.067139,0.770081,0.523254,up
686776,-4.8125,8.164063,-1.859375,-0.072266,0.09375,-0.029297,0.358704,0.067139,0.770081,0.523254,up
686781,-4.8125,8.164063,-1.859375,-0.072266,0.09375,-0.029297,0.358704,0.067139,0.770081,0.523254,up
686786,-4.8125,8.164063,-1.859375,-0.072266,0.09375,-0.029297,0.358704,0.067139,0.770081,0.523254,up
686791,-4.8125,8.164063,-1.859375,-0.072266,0.09375,-0.029297,0.358704,0.067139,0.770081,0.523254,up
686796,-4.8125,8.164063,-1.859375,-0.072266,0.09375,-0.029297,0.358704,0.067139,0.770081,0.523254,up
686801,-4.8125,8.164063,-1.859375,-0.072266,0.09375,-0.029297,0.358704,0.067139,0.770081,0.523254,up
686806,-4.8125,8.164063,-1.859375,-0.072266,0.09375,-0.029297,0.358704,0.067139,0.770081,0.523254,up
686811,-4.8125,8.164063,-1.859375,-0.072266,0.09375,-0.029297,0.358704,0.067139,0.770081,0.523254,up
686816,-4.8125,8.164063,-1.859375,-0.072266,0.09375,-0.029297,0.358704,0.067139,0.770081,0.523254,up
686821,-4.8125,8.164063,-1.859375,-0.072266,0.09375,-0.029297,0.358704,0.067139,0.770081,0.523254,up
686826,-4.8125,8.164063,-1.859375,-0.072266,0.09375,-0.029297,0.358704,0.067139,0.770081,0.523254,up
686831,-4.8125,8.164063,-1.859375,-0.072266,0.09375,-0.029297,0.358704,0.067139,0.770081,0.523254,up
686836,-4.8125,8.164063,-1.859375,-0.072266,0.09375,-0.029297,0.358704,0.067139,0.770081,0.523254,up
686841,-4.8125,8.164063,-1.859375,-0.072266,0.09375,-0.029297,0.358704,0.067139,0.770081,0.523254,up
686846,-4.8125,8.164063,-1.859375,-0.072266,0.09375,-0.029297,0.358704,0.067139,0.770081,0.523254,up
686851,-4.8125,8.164063,-1.859375,-0.072266,0.09375,-0.029297,0.358704,0.067139,0.770081,0.523254,up
686856,-4.8125,8.164063,-1.859375,-0.072266,0.09375,-0.029297,0.358704,0.067139,0.770081,0.523254,up
686861,-4.8125,8.164063,-1.859375,-0.072266,0.09375,-0.029297,0.358704,0.067139,0.770081,0.523254,up
686866,-4.8125,8.164063,-1.859375,-0.072266,0.09375,-0.029297,0.358704,0.067139,0.770081,0.523254,up
686871,-4.8125,8.164063,-1.859375,-0.072266,0.09375,-0.029297,0.358704,0.067139,0.770081,0.523254,up
686876,-4.8125,8.164063,-1.859375,-0.072266,0.09375,-0.029297,0.358704,0.067139,0.770081,0.523254,up
686881,-4.8125,8.164063,-1.859375,-0.072266,0.09375,-0.029297,0.358704,0.067139,0.770081,0.523254,up
686886,-4.8125,8.164063,-1.859375,-0.072266,0.09375,-0.029297,0.358704,0.067139,0.770081,0.523254,up
686891,-4.8125,8.164063,-1.859375,-0.072266,0.09375,-0.029297,0.358704,0.067139,0.770081,0.523254,up
686896,-4.8125,8.164063,-1.859375,-0.072266,0.09375,-0.029297,0.358704,0.067139,0.770081,0.523254,up
686901,-4.8125,8.164063,-1.859375,-0.072266,0.09375,-0.029297,0.358704,0.067139,0.770081,0.523254,up
686906,-4.8125,8.164063,-1.859375,-0.072266,0.09375,-0.029297,0.358704,0.067139,0.770081,0.523254,up
686911,-4.8125,8.164063,-1.859375,-0.072266,0.09375,-0.029297,0.358704,0.067139,0.770081,0.523254,up
686916,-4.8125,8.164063,-1.859375,-0.072266,0.09375,-0.029297,0.358704,0.067139,0.770081,0.523254,up
686921,-4.8125,8.164063,-1.859375,-0.072266,0.09375,-0.029297,0.358704,0.067139,0.770081,0.523254,up
686926,-4.8125,8.164063,-1.859375,-0.072266,0.09375,-0.029297,0.358704,0.067139,0.770081,0.523254,up
686931,-4.8125,8.164063,-1.859375,-0.072266,0.09375,-0.029297,0.358704,0.067139,0.770081,0.523254,up
686936,-4.8125,8.164063,-1.859375,-0.072266,0.09375,-0.029297,0.358704,0.067139,0.770081,0.523254,up
686941,-4.8125,8.164063,-1.859375,-0.072266,0.09375,-0.029297,0.358704,0.067139,0.770081,0.523254,up
686946,-4.8125,8.164063,-1.859375,-0.072266,0.09375,-0.029297,0.358704,0.067139,0.770081,0.523254,up
686951,-4.8125,8.164063,-1.859375,-0.072266,0.09375,-0.029297,0.358704,0.067139,0.770081,0.523254,up
686956,-4.8125,8.164063,-1.859375,-0.072266,0.09375,-0.029297,0.358704,0.067139,0.770081,0.523254,up
686961,-4.8125,8.164063,-1.859375,-0.072266,0.09375,-0.029297,0.358704,0.067139,0.770081,0.523254,up
686966,-4.8125,8.164063,-1.859375,-0.072266,0.09375,-0.029297,0.358704,0.067139,0.770081,0.523254,up
686971,-4.8125,8.164063,-1.859375,-0.072266,0.09375,-0.029297,0.358704,0.067139,0.770081,0.523254,up
686976,-4.8125,8.164063,-1.859375,-0.072266,0.09375,-0.029297,0.358704,0.067139,0.770081,0.523254,up
686981,-4.8125,8.164063,-1.859375,-0.072266,0.09375,-0.029297,0.358704,0.067139,0.770081,0.523254,up
686986,-4.8125,8.164063,-1.859375,-0.072266,0.09375,-0.029297,0.358704,0.067139,0.770081,0.523254,up
686991,-4.8125,8.164063,-1.859375,-0.072266,0.09375,-0.029297,0.358704,0.067139,0.770081,0.523254,up
686996,-4.8125,8.164063,-1.859375,-0.072266,0.09375,-0.029297,0.358704,0.067139,0.770081,0.523254,up
687001,-4.8125,8.164063,-1.859375,-0.072266,0.09375,-0.029297,0.358704,0.067139,0.770081,0.523254,up
687006,-4.8125,8.164063,-1.859375,-0.072266,0.09375,-0.029297,0.358704,0.067139,0.770081,0.523254,up
687011,-4.8125,8.164063,-1.859375,-0.072266,0.09375,-0.029297,0.358704,0.067139,0.770081,0.523254,up
687016,-4.8125,8.164063,-1.859375,-0.072266,0.09375,-0.029297,0.358704,0.067139,0.770081,0.523254,up
687021,-4.8125,8.164063,-1.859375,-0.072266,0.09375,-0.029297,0.358704,0.067139,0.770081,0.523254,up
687026,-4.8125,8.164063,-1.859375,-0.072266,0.09375,-0.029297,0.358704,0.067139,0.770081,0.523254,up
687031,-4.8125,8.164063,-1.859375,-0.072266,0.09375,-0.029297,0.358704,0.067139,0.770081,0.523254,up
687036,-4.8125,8.164063,-1.859375,-0.072266,0.09375,-0.029297,0.358704,0.067139,0.770081,0.523254,up
687041,-4.8125,8.164063,-1.859375,-0.072266,0.09375,-0.029297,0.358704,0.067139,0.770081,0.523254,up
687046,-4.8125,8.164063,-1.859375,-0.072266,0.09375,-0.029297,0.358704,0.067139,0.770081,0.523254,up
687051,-4.8125,8.164063,-1.859375,-0.072266,0.09375,-0.029297,0.358704,0.067139,0.770081,0.523254,up
687056,-4.8125,8.164063,-1.859375,-0.072266,0.09375,-0.029297,0.358704,0.067139,0.770081,0.523254,up
687061,-4.8125,8.164063,-1.859375,-0.072266,0.09375,-0.029297,0.358704,0.067139,0.770081,0.523254,up
687066,-4.8125,8.164063,-1.859375,-0.072266,0.09375,-0.029297,0.358704,0.067139,0.770081,0.523254,up
687071,-4.8125,8.164063,-1.859375,-0.072266,0.09375,-0.029297,0.358704,0.067139,0.770081,0.523254,up
687076,-4.8125,8.164063,-1.859375,-0.072266,0.09375,-0.029297,0.358704,0.067139,0.770081,0.523254,up
687081,-4.8125,8.164063,-1.859375,-0.072266,0.09375,-0.029297,0.358704,0.067139,0.770081,0.523254,up
687086,-4.8125,8.164063,-1.859375,-0.072266,0.09375,-0.029297,0.358704,0.067139,0.770081,0.523254,up
687091,-4.8125,8.164063,-1.859375,-0.072266,0.09375,-0.029297,0.358704,0.067139,0.770081,0.523254,up
687096,-4.8125,8.164063,-1.859375,-0.072266,0.09375,-0.029297,0.358704,0.067139,0.770081,0.523254,up
687101,-4.8125,8.164063,-1.859375,-0.072266,0.09375,-0.029297,0.358704,0.067139,0.770081,0.523254,up
687106,-4.8125,8.164063,-1.859375,-0.072266,0.09375,-0.029297,0.358704,0.067139,0.770081,0.523254,up
687111,-4.8125,8.164063,-1.859375,-0.072266,0.09375,-0.029297,0.358704,0.067139,0.770081,0.523254,up
687116,-4.8125,8.164063,-1.859375,-0.072266,0.09375,-0.029297,0.358704,0.067139,0.770081,0.523254,up
687121,-4.8125,8.164063,-1.859375,-0.072266,0.09375,-0.029297,0.358704,0.067139,0.770081,0.523254,up
687126,-4.8125,8.164063,-1.859375,-0.072266,0.09375,-0.029297,0.358704,0.067139,0.770081,0.523254,up
687131,-4.8125,8.164063,-1.859375,-0.072266,0.09375,-0.029297,0.358704,0.067139,0.770081,0.523254,up
687136,-4.8125,8.164063,-1.859375,-0.072266,0.09375,-0.029297,0.358704,0.067139,0.770081,0.523254,up
687141,-4.8125,8.164063,-1.859375,-0.072266,0.09375,-0.029297,0.358704,0.067139,0.770081,0.523254,up
687146,-4.8125,8.164063,-1.859375,-0.072266,0.09375,-0.029297,0.358704,0.067139,0.770081,0.523254,up
687151,-4.8125,8.164063,-1.859375,-0.072266,0.09375,-0.029297,0.358704,0.067139,0.770081,0.523254,up
687156,-4.8125,8.164063,-1.859375,-0.072266,0.09375,-0.029297,0.358704,0.067139,0.770081,0.523254,up
687161,-4.8125,8.164063,-1.859375,-0.072266,0.09375,-0.029297,0.358704,0.067139,0.770081,0.523254,up
687166,-4.8125,8.164063,-1.859375,-0.072266,0.09375,-0.029297,0.358704,0.067139,0.770081,0.523254,up
687171,-4.8125,8.164063,-1.859375,-0.072266,0.09375,-0.029297,0.358704,0.067139,0.770081,0.523254,up
687176,-4.8125,8.164063,-1.859375,-0.072266,0.09375,-0.029297,0.358704,0.067139,0.770081,0.523254,up
687181,-4.8125,8.164063,-1.859375,-0.072266,0.09375,-0.029297,0.358704,0.067139,0.770081,0.523254,up
687186,-4.8125,8.164063,-1.859375,-0.072266,0.09375,-0.029297,0.358704,0.067139,0.770081,0.523254,up
687191,-4.8125,8.164063,-1.859375,-0.072266,0.09375,-0.029297,0.358704,0.067139,0.770081,0.523254,up
687196,-4.8125,8.164063,-1.859375,-0.072266,0.09375,-0.029297,0.358704,0.067139,0.770081,0.523254,up
687201,-4.8125,8.164063,-1.859375,-0.072266,0.09375,-0.029297,0.358704,0.067139,0.770081,0.523254,up
687206,-4.8125,8.164063,-1.859375,-0.072266,0.09375,-0.029297,0.358704,0.067139,0.770081,0.523254,up
687211,-4.8125,8.164063,-1.859375,-0.072266,0.09375,-0.029297,0.358704,0.067139,0.770081,0.523254,up
687216,-4.8125,8.164063,-1.859375,-0.072266,0.09375,-0.029297,0.358704,0.067139,0.770081,0.523254,up
687221,-4.8125,8.164063,-1.859375,-0.072266,0.09375,-0.029297,0.358704,0.067139,0.770081,0.523254,up
687226,-4.8125,8.164063,-1.859375,-0.072266,0.09375,-0.029297,0.358704,0.067139,0.770081,0.523254,up
687231,-4.8125,8.164063,-1.859375,-0.072266,0.09375,-0.029297,0.358704,0.067139,0.770081,0.523254,up
687236,-4.8125,8.164063,-1.859375,-0.072266,0.09375,-0.029297,0.358704,0.067139,0.770081,0.523254,up
687241,-4.8125,8.164063,-1.859375,-0.072266,0.09375,-0.029297,0.358704,0.067139,0.770081,0.523254,up
687246,-4.8125,8.164063,-1.859375,-0.072266,0.09375,-0.029297,0.358704,0.067139,0.770081,0.523254,up
687251,-4.8125,8.164063,-1.859375,-0.072266,0.09375,-0.029297,0.358704,0.067139,0.770081,0.523254,up
687256,-4.8125,8.164063,-1.859375,-0.072266,0.09375,-0.029297,0.358704,0.067139,0.770081,0.523254,up
687261,-4.8125,8.164063,-1.859375,-0.072266,0.09375,-0.029297,0.358704,0.067139,0.770081,0.523254,up
687266,-4.8125,8.164063,-1.859375,-0.072266,0.09375,-0.029297,0.358704,0.067139,0.770081,0.523254,up
687271,-4.8125,8.164063,-1.859375,-0.072266,0.09375,-0.029297,0.358704,0.067139,0.770081,0.523254,up
687276,-4.8125,8.164063,-1.859375,-0.072266,0.09375,-0.029297,0.358704,0.067139,0.770081,0.523254,up
687281,-4.8125,8.164063,-1.859375,-0.072266,0.09375,-0.029297,0.358704,0.067139,0.770081,0.523254,up
687286,-4.8125,8.164063,-1.859375,-0.072266,0.09375,-0.029297,0.358704,0.067139,0.770081,0.523254,up
687291,-4.8125,8.164063,-1.859375,-0.072266,0.09375,-0.029297,0.358704,0.067139,0.770081,0.523254,up
687296,-4.8125,8.164063,-1.859375,-0.072266,0.09375,-0.029297,0.358704,0.067139,0.770081,0.523254,up
687301,-4.8125,8.164063,-1.859375,-0.072266,0.09375,-0.029297,0.358704,0.067139,0.770081,0.523254,up
687306,-4.8125,8.164063,-1.859375,-0.072266,0.09375,-0.029297,0.358704,0.067139,0.770081,0.523254,up
687311,-4.8125,8.164063,-1.859375,-0.072266,0.09375,-0.029297,0.358704,0.067139,0.770081,0.523254,up
687316,-4.8125,8.164063,-1.859375,-0.072266,0.09375,-0.029297,0.358704,0.067139,0.770081,0.523254,up
687321,-4.8125,8.164063,-1.859375,-0.072266,0.09375,-0.029297,0.358704,0.067139,0.770081,0.523254,up
687326,-4.8125,8.164063,-1.859375,-0.072266,0.09375,-0.029297,0.358704,0.067139,0.770081,0.523254,up
687331,-4.8125,8.164063,-1.859375,-0.072266,0.09375,-0.029297,0.358704,0.067139,0.770081,0.523254,up
687336,-4.8125,8.164063,-1.859375,-0.072266,0.09375,-0.029297,0.358704,0.067139,0.770081,0.523254,up
687341,-4.8125,8.164063,-1.859375,-0.072266,0.09375,-0.029297,0.358704,0.067139,0.770081,0.523254,up
687346,-4.8125,8.164063,-1.859375,-0.072266,0.09375,-0.029297,0.358704,0.067139,0.770081,0.523254,up
687351,-4.8125,8.164063,-1.859375,-0.072266,0.09375,-0.029297,0.358704,0.067139,0.770081,0.523254,up
687356,-4.8125,8.164063,-1.859375,-0.072266,0.09375,-0.029297,0.358704,0.067139,0.770081,0.523254,up
687361,-4.8125,8.164063,-1.859375,-0.072266,0.09375,-0.029297,0.358704,0.067139,0.770081,0.523254,up
687366,-4.8125,8.164063,-1.859375,-0.072266,0.09375,-0.029297,0.358704,0.067139,0.770081,0.523254,up
687371,-4.8125,8.164063,-1.859375,-0.072266,0.09375,-0.029297,0.358704,0.067139,0.770081,0.523254,up
687376,-4.8125,8.164063,-1.859375,-0.072266,0.09375,-0.029297,0.358704,0.067139,0.770081,0.523254,up
687381,-4.8125,8.164063,-1.859375,-0.072266,0.09375,-0.029297,0.358704,0.067139,0.770081,0.523254,up
687386,-4.8125,8.164063,-1.859375,-0.072266,0.09375,-0.029297,0.358704,0.067139,0.770081,0.523254,up
687391,-4.8125,8.164063,-1.859375,-0.072266,0.09375,-0.029297,0.358704,0.067139,0.770081,0.523254,up
687396,-4.8125,8.164063,-1.859375,-0.072266,0.09375,-0.029297,0.358704,0.067139,0.770081,0.523254,up
687401,-4.8125,8.164063,-1.859375,-0.072266,0.09375,-0.029297,0.358704,0.067139,0.770081,0.523254,up
687406,-4.8125,8.164063,-1.859375,-0.072266,0.09375,-0.029297,0.358704,0.067139,0.770081,0.523254,up
687411,-4.8125,8.164063,-1.859375,-0.072266,0.09375,-0.029297,0.358704,0.067139,0.770081,0.523254,up
687416,-4.8125,8.164063,-1.859375,-0.072266,0.09375,-0.029297,0.358704,0.067139,0.770081,0.523254,up
687421,-4.8125,8.164063,-1.859375,-0.072266,0.09375,-0.029297,0.358704,0.067139,0.770081,0.523254,up
687426,-4.8125,8.164063,-1.859375,-0.072266,0.09375,-0.029297,0.358704,0.067139,0.770081,0.523254,up
687431,-4.8125,8.164063,-1.859375,-0.072266,0.09375,-0.029297,0.358704,0.067139,0.770081,0.523254,up
687436,-4.8125,8.164063,-1.859375,-0.072266,0.09375,-0.029297,0.358704,0.067139,0.770081,0.523254,up
687441,-4.8125,8.164063,-1.859375,-0.072266,0.09375,-0.029297,0.358704,0.067139,0.770081,0.523254,up
687446,-4.8125,8.164063,-1.859375,-0.072266,0.09375,-0.029297,0.358704,0.067139,0.770081,0.523254,up
687451,-4.8125,8.164063,-1.859375,-0.072266,0.09375,-0.029297,0.358704,0.067139,0.770081,0.523254,up
687456,-4.8125,8.164063,-1.859375,-0.072266,0.09375,-0.029297,0.358704,0.067139,0.770081,0.523254,up
687461,-4.8125,8.164063,-1.859375,-0.072266,0.09375,-0.029297,0.358704,0.067139,0.770081,0.523254,up
687466,-4.8125,8.164063,-1.859375,-0.072266,0.09375,-0.029297,0.358704,0.067139,0.770081,0.523254,up
687471,-4.8125,8.164063,-1.859375,-0.072266,0.09375,-0.029297,0.358704,0.067139,0.770081,0.523254,up
687476,-4.8125,8.164063,-1.859375,-0.072266,0.09375,-0.029297,0.358704,0.067139,0.770081,0.523254,up
687481,-4.8125,8.164063,-1.859375,-0.072266,0.09375,-0.029297,0.358704,0.067139,0.770081,0.523254,up
687486,-4.8125,8.164063,-1.859375,-0.072266,0.09375,-0.029297,0.358704,0.067139,0.770081,0.523254,up
687491,-4.8125,8.164063,-1.859375,-0.072266,0.09375,-0.029297,0.358704,0.067139,0.770081,0.523254,up
687496,-4.8125,8.164063,-1.859375,-0.072266,0.09375,-0.029297,0.358704,0.067139,0.770081,0.523254,up
687501,-4.8125,8.164063,-1.859375,-0.072266,0.09375,-0.029297,0.358704,0.067139,0.770081,0.523254,up
687506,-4.8125,8.164063,-1.859375,-0.072266,0.09375,-0.029297,0.358704,0.067139,0.770081,0.523254,up
687511,-4.8125,8.164063,-1.859375,-0.072266,0.09375,-0.029297,0.358704,0.067139,0.770081,0.523254,up
687516,-4.8125,8.164063,-1.859375,-0.072266,0.09375,-0.029297,0.358704,0.067139,0.770081,0.523254,up
687521,-4.8125,8.164063,-1.859375,-0.072266,0.09375,-0.029297,0.358704,0.067139,0.770081,0.523254,up
687526,-4.8125,8.164063,-1.859375,-0.072266,0.09375,-0.029297,0.358704,0.067139,0.770081,0.523254,up
687531,-4.8125,8.164063,-1.859375,-0.072266,0.09375,-0.029297,0.358704,0.067139,0.770081,0.523254,up
687536,-4.8125,8.164063,-1.859375,-0.072266,0.09375,-0.029297,0.358704,0.067139,0.770081,0.523254,up
687541,-4.8125,8.164063,-1.859375,-0.072266,0.09375,-0.029297,0.358704,0.067139,0.770081,0.523254,up
687546,-4.8125,8.164063,-1.859375,-0.072266,0.09375,-0.029297,0.358704,0.067139,0.770081,0.523254,up
687551,-4.8125,8.164063,-1.859375,-0.072266,0.09375,-0.029297,0.358704,0.067139,0.770081,0.523254,up
687556,-4.8125,8.164063,-1.859375,-0.072266,0.09375,-0.029297,0.358704,0.067139,0.770081,0.523254,up
687561,-4.8125,8.164063,-1.859375,-0.072266,0.09375,-0.029297,0.358704,0.067139,0.770081,0.523254,up
687566,-4.8125,8.164063,-1.859375,-0.072266,0.09375,-0.029297,0.358704,0.067139,0.770081,0.523254,up
687571,-4.8125,8.164063,-1.859375,-0.072266,0.09375,-0.029297,0.358704,0.067139,0.770081,0.523254,up
687576,-4.8125,8.164063,-1.859375,-0.072266,0.09375,-0.029297,0.358704,0.067139,0.770081,0.523254,up
687581,-4.8125,8.164063,-1.859375,-0.072266,0.09375,-0.029297,0.358704,0.067139,0.770081,0.523254,up
687586,-4.8125,8.164063,-1.859375,-0.072266,0.09375,-0.029297,0.358704,0.067139,0.770081,0.523254,up
687591,-4.8125,8.164063,-1.859375,-0.072266,0.09375,-0.029297,0.358704,0.067139,0.770081,0.523254,up
687596,-4.8125,8.164063,-1.859375,-0.072266,0.09375,-0.029297,0.358704,0.067139,0.770081,0.523254,up
687601,-4.8125,8.164063,-1.859375,-0.072266,0.09375,-0.029297,0.358704,0.067139,0.770081,0.523254,up
687606,-4.8125,8.164063,-1.859375,-0.072266,0.09375,-0.029297,0.358704,0.067139,0.770081,0.523254,up
687611,-4.8125,8.164063,-1.859375,-0.072266,0.09375,-0.029297,0.358704,0.067139,0.770081,0.523254,up
687616,-4.8125,8.164063,-1.859375,-0.072266,0.09375,-0.029297,0.358704,0.067139,0.770081,0.523254,up
687621,-4.8125,8.164063,-1.859375,-0.072266,0.09375,-0.029297,0.358704,0.067139,0.770081,0.523254,up
687626,-4.8125,8.164063,-1.859375,-0.072266,0.09375,-0.029297,0.358704,0.067139,0.770081,0.523254,up
687631,-4.8125,8.164063,-1.859375,-0.072266,0.09375,-0.029297,0.358704,0.067139,0.770081,0.523254,up
687636,-4.8125,8.164063,-1.859375,-0.072266,0.09375,-0.029297,0.358704,0.067139,0.770081,0.523254,up
687641,-4.8125,8.164063,-1.859375,-0.072266,0.09375,-0.029297,0.358704,0.067139,0.770081,0.523254,up
687646,-4.8125,8.164063,-1.859375,-0.072266,0.09375,-0.029297,0.358704,0.067139,0.770081,0.523254,up
687651,-4.8125,8.164063,-1.859375,-0.072266,0.09375,-0.029297,0.358704,0.067139,0.770081,0.523254,up
687656,-4.8125,8.164063,-1.859375,-0.072266,0.09375,-0.029297,0.358704,0.067139,0.770081,0.523254,up
687661,-4.8125,8.164063,-1.859375,-0.072266,0.09375,-0.029297,0.358704,0.067139,0.770081,0.523254,up
687666,-4.8125,8.164063,-1.859375,-0.072266,0.09375,-0.029297,0.358704,0.067139,0.770081,0.523254,up
687671,-4.8125,8.164063,-1.859375,-0.072266,0.09375,-0.029297,0.358704,0.067139,0.770081,0.523254,up
687676,-4.8125,8.164063,-1.859375,-0.072266,0.09375,-0.029297,0.358704,0.067139,0.770081,0.523254,up
687681,-4.8125,8.164063,-1.859375,-0.072266,0.09375,-0.029297,0.358704,0.067139,0.770081,0.523254,up
687686,-4.8125,8.164063,-1.859375,-0.072266,0.09375,-0.029297,0.358704,0.067139,0.770081,0.523254,up
687691,-4.8125,8.164063,-1.859375,-0.072266,0.09375,-0.029297,0.358704,0.067139,0.770081,0.523254,up
687696,-4.8125,8.164063,-1.859375,-0.072266,0.09375,-0.029297,0.358704,0.067139,0.770081,0.523254,up
687701,-4.8125,8.164063,-1.859375,-0.072266,0.09375,-0.029297,0.358704,0.067139,0.770081,0.523254,up
687706,-4.8125,8.164063,-1.859375,-0.072266,0.09375,-0.029297,0.358704,0.067139,0.770081,0.523254,up
687711,-4.8125,8.164063,-1.859375,-0.072266,0.09375,-0.029297,0.358704,0.067139,0.770081,0.523254,up
687716,-4.8125,8.164063,-1.859375,-0.072266,0.09375,-0.029297,0.358704,0.067139,0.770081,0.523254,up
687721,-4.8125,8.164063,-1.859375,-0.072266,0.09375,-0.029297,0.358704,0.067139,0.770081,0.523254,up
687726,-4.8125,8.164063,-1.859375,-0.072266,0.09375,-0.029297,0.358704,0.067139,0.770081,0.523254,up
687731,-4.8125,8.164063,-1.859375,-0.072266,0.09375,-0.029297,0.358704,0.067139,0.770081,0.523254,up
687736,-4.8125,8.164063,-1.859375,-0.072266,0.09375,-0.029297,0.358704,0.067139,0.770081,0.523254,up
687741,-4.8125,8.164063,-1.859375,-0.072266,0.09375,-0.029297,0.358704,0.067139,0.770081,0.523254,up
687746,-4.8125,8.164063,-1.859375,-0.072266,0.09375,-0.029297,0.358704,0.067139,0.770081,0.523254,up
687751,-4.8125,8.164063,-1.859375,-0.072266,0.09375,-0.029297,0.358704,0.067139,0.770081,0.523254,up
687756,-4.8125,8.164063,-1.859375,-0.072266,0.09375,-0.029297,0.358704,0.067139,0.770081,0.523254,up
