timestamp,ax,ay,az,gx,gy,gz,qw,qx,qy,qz,label
107288,-8.394531,4.597656,1.671875,-0.103516,0.064453,0.066406,0.306213,-0.414124,0.513428,0.68634,up
107293,-8.429688,4.636719,1.632813,-0.130859,0.072266,0.064453,0.306213,-0.414124,0.513428,0.68634,up
107299,-8.394531,4.636719,1.671875,-0.130859,0.072266,0.064453,0.305237,-0.414551,0.513306,0.686646,up
107305,-8.433594,4.597656,1.671875,-0.177734,0.083984,0.076172,0.305237,-0.414551,0.513306,0.686646,up
107311,-8.429688,4.636719,1.75,-0.179687,0.072266,0.09375,0.305237,-0.414551,0.513306,0.686646,up
107316,-8.507813,4.523437,1.785156,-0.179687,0.072266,0.09375,0.303406,-0.415222,0.512756,0.687439,up
107321,-8.539063,4.445312,1.785156,-0.179687,0.072266,0.09375,0.302979,-0.415283,0.512695,0.687683,up
107326,-8.539063,4.367187,1.824219,-0.121094,0.007813,0.146484,0.302979,-0.415283,0.512695,0.687683,up
107331,-8.511719,4.140625,1.824219,-0.121094,0.007813,0.146484,0.302185,-0.415161,0.512634,0.688171,up
107336,-8.542969,4.140625,1.863281,-0.011719,-0.037109,0.117188,0.302185,-0.415161,0.512634,0.688171,up
107341,-8.507813,4.101562,1.824219,-0.011719,-0.037109,0.117188,0.30188,-0.414978,0.512695,0.688354,up
107346,-8.511719,4.292969,1.75,0.048828,-0.044922,0.101563,0.30188,-0.414978,0.512695,0.688354,up
107351,-8.511719,4.292969,1.75,0.048828,-0.044922,0.101563,0.301819,-0.414307,0.513306,0.688293,up
107356,-8.433594,4.597656,1.671875,0.048828,-0.044922,0.101563,0.301819,-0.414307,0.513306,0.688293,up
107361,-8.46875,4.675781,1.59375,0.195312,-0.019531,0.037109,0.301819,-0.414307,0.513306,0.688293,up
107367,-8.433594,4.789062,1.59375,0.195312,-0.019531,0.037109,0.302246,-0.413757,0.514404,0.687622,up
107373,-8.429688,4.714844,1.632813,0.195312,-0.019531,0.037109,0.302307,-0.413635,0.514709,0.687439,up
107379,-8.429688,4.636719,1.558594,0.195312,-0.019531,0.037109,0.302368,-0.413635,0.514893,0.687317,up
107385,-8.394531,4.484375,1.632813,-0.037109,0.03125,0.001953,0.302368,-0.413635,0.514893,0.687317,up
107391,-8.433594,4.445312,1.671875,-0.125,0.023437,-0.005859,0.302002,-0.414001,0.514587,0.6875,up
107396,-8.429688,4.367187,1.671875,-0.125,0.023437,-0.005859,0.302002,-0.414001,0.514587,0.6875,up
107401,-8.429688,4.40625,1.671875,-0.287109,0.007813,-0.007813,0.302002,-0.414001,0.514587,0.6875,up
107406,-8.355469,4.367187,1.671875,-0.287109,0.007813,-0.007813,0.301453,-0.41449,0.513733,0.688049,up
107411,-8.351563,4.367187,1.710938,-0.28125,-0.005859,0.017578,0.301086,-0.414734,0.513245,0.688416,up
107416,-8.390625,4.332031,1.710938,-0.28125,-0.005859,0.017578,0.300781,-0.414978,0.512756,0.688721,up
107422,-8.316406,4.332031,1.632813,-0.28125,-0.005859,0.017578,0.300232,-0.415222,0.512024,0.689392,up
107428,-8.316406,4.214844,1.59375,-0.28125,-0.005859,0.017578,0.299988,-0.415283,0.51178,0.689636,up
107434,-8.3125,4.140625,1.59375,-0.070312,-0.035156,0.048828,0.299988,-0.415283,0.51178,0.689636,up
107439,-8.273438,4.0625,1.519531,0.009766,-0.052734,0.048828,0.299988,-0.415283,0.51178,0.689636,up
107446,-8.234375,4.0625,1.519531,0.091797,-0.058594,0.041016,0.299988,-0.415283,0.51178,0.689636,up
107451,-8.199219,4.101562,1.519531,0.191406,-0.074219,0.009766,0.299988,-0.415283,0.51178,0.689636,up
107456,-8.15625,4.175781,1.480469,0.191406,-0.074219,0.009766,0.30011,-0.41449,0.512207,0.689758,up
107461,-8.125,4.367187,1.367188,0.222656,-0.056641,-0.005859,0.30072,-0.414001,0.512878,0.68927,up
107466,-8.125,4.523437,1.328125,0.222656,-0.056641,-0.005859,0.30072,-0.414001,0.512878,0.68927,up
107471,-8.128906,4.597656,1.25,0.148437,-0.003906,-0.03125,0.30072,-0.414001,0.512878,0.68927,up
107476,-8.125,4.675781,1.210938,0.148437,-0.003906,-0.03125,0.30127,-0.413757,0.513428,0.688782,up
107481,-8.089844,4.636719,1.25,0.148437,-0.003906,-0.03125,0.301453,-0.413696,0.513611,0.688599,up
107487,-8.128906,4.597656,1.25,0.148437,-0.003906,-0.03125,0.301636,-0.41394,0.513733,0.688293,up
107492,-8.160156,4.484375,1.289063,0.148437,-0.003906,-0.03125,0.301575,-0.414185,0.513611,0.688293,up
107497,-8.15625,4.445312,1.328125,-0.126953,0.068359,-0.060547,0.301514,-0.414429,0.513428,0.688293,up
107502,-8.199219,4.445312,1.367188,-0.126953,0.068359,-0.060547,0.301331,-0.414734,0.513184,0.688354,up
107507,-8.195313,4.40625,1.367188,-0.169922,0.0625,-0.054687,0.301208,-0.4151,0.512878,0.688416,up
107513,-8.277344,4.445312,1.441406,-0.169922,0.0625,-0.054687,0.301025,-0.415344,0.512634,0.688538,up
107518,-8.273438,4.445312,1.402344,-0.134766,0.042969,-0.033203,0.301025,-0.415344,0.512634,0.688538,up
107524,-8.277344,4.40625,1.402344,-0.103516,0.037109,-0.009766,0.301025,-0.415344,0.512634,0.688538,up
107529,-8.3125,4.367187,1.402344,-0.066406,0.029297,0.001953,0.301025,-0.415344,0.512634,0.688538,up
107535,-8.3125,4.40625,1.367188,-0.015625,0.029297,0.015625,0.301025,-0.415344,0.512634,0.688538,up
107540,-8.316406,4.332031,1.367188,0.025391,0.017578,0.025391,0.301025,-0.415344,0.512634,0.688538,up
107546,-8.316406,4.332031,1.402344,0.066406,0.013672,0.027344,0.301025,-0.415344,0.512634,0.688538,up
107551,-8.3125,4.367187,1.367188,0.066406,0.013672,0.027344,0.300476,-0.415894,0.512695,0.688416,up
107556,-8.394531,4.40625,1.328125,0.066406,0.013672,0.027344,0.300476,-0.415894,0.512695,0.688416,up
107561,-8.394531,4.484375,1.367188,0.136719,0.023437,0.025391,0.300476,-0.415894,0.512695,0.688416,up
107566,-8.472656,4.597656,1.328125,0.132812,0.029297,0.013672,0.300476,-0.415894,0.512695,0.688416,up
107571,-8.46875,4.675781,1.328125,0.132812,0.029297,0.013672,0.300659,-0.41571,0.513489,0.687805,up
107576,-8.511719,4.714844,1.328125,0.085937,0.050781,0.009766,0.300659,-0.41571,0.513489,0.687805,up
107582,-8.542969,4.675781,1.367188,0.052734,0.054687,0.013672,0.300659,-0.41571,0.513489,0.687805,up
107587,-8.578125,4.5625,1.367188,0.052734,0.054687,0.013672,0.300476,-0.415894,0.51416,0.687256,up
107593,-8.621094,4.523437,1.367188,-0.041016,0.052734,0.0,0.300415,-0.416016,0.51416,0.687256,up
107598,-8.582031,4.484375,1.367188,-0.070312,0.039063,-0.005859,0.300293,-0.416138,0.51416,0.687256,up
107604,-8.539063,4.484375,1.441406,-0.070312,0.039063,-0.005859,0.300171,-0.416321,0.514038,0.687256,up
107611,-8.511719,4.523437,1.441406,-0.09375,0.041016,-0.021484,0.300171,-0.416321,0.514038,0.687256,up
107616,-8.46875,4.523437,1.402344,-0.085937,0.029297,-0.021484,0.300171,-0.416321,0.514038,0.687256,up
107622,-8.429688,4.5625,1.367188,-0.083984,0.015625,-0.017578,0.300171,-0.416321,0.514038,0.687256,up
107627,-8.394531,4.523437,1.402344,-0.083984,0.015625,-0.017578,0.299683,-0.416992,0.513367,0.687561,up
107632,-8.394531,4.523437,1.367188,-0.044922,0.0,0.009766,0.299622,-0.417053,0.513306,0.687622,up
107637,-8.351563,4.484375,1.367188,-0.041016,-0.003906,0.027344,0.299622,-0.417053,0.513306,0.687622,up
107642,-8.316406,4.445312,1.328125,-0.041016,-0.003906,0.027344,0.299438,-0.417053,0.513245,0.687744,up
107647,-8.277344,4.40625,1.328125,-0.013672,-0.003906,0.052734,0.299438,-0.417053,0.513245,0.687744,up
107652,-8.277344,4.40625,1.328125,-0.013672,-0.001953,0.064453,0.299316,-0.416992,0.513245,0.687805,up
107657,-8.195313,4.40625,1.328125,-0.013672,-0.001953,0.064453,0.299072,-0.41687,0.513367,0.687927,up
107662,-8.195313,4.40625,1.289063,-0.013672,-0.001953,0.064453,0.298889,-0.416748,0.513489,0.687988,up
107667,-8.199219,4.445312,1.289063,0.001953,0.025391,0.119141,0.298889,-0.416748,0.513489,0.687988,up
107672,-8.199219,4.445312,1.289063,0.001953,0.025391,0.119141,0.298645,-0.416626,0.513672,0.688049,up
107677,-8.15625,4.445312,1.210938,0.001953,0.025391,0.119141,0.298157,-0.416443,0.513977,0.68811,up
107682,-8.160156,4.40625,1.210938,0.001953,0.025391,0.119141,0.298157,-0.416443,0.513977,0.68811,up
107687,-8.125,4.484375,1.25,0.023437,0.052734,0.160156,0.297485,-0.416199,0.514526,0.688171,up
107692,-8.125,4.484375,1.210938,0.044922,0.085937,0.173828,0.297485,-0.416199,0.514526,0.688171,up
107698,-8.125,4.484375,1.210938,0.048828,0.097656,0.189453,0.296753,-0.415955,0.515137,0.68811,up
107703,-8.125,4.523437,1.175781,0.064453,0.105469,0.195312,0.296265,-0.415833,0.515564,0.688049,up
107709,-8.089844,4.5625,1.175781,0.064453,0.105469,0.195312,0.295898,-0.41571,0.51593,0.688049,up
107714,-8.085938,4.636719,1.097656,0.064453,0.105469,0.195312,0.295471,-0.415588,0.516418,0.687927,up
107719,-8.050781,4.636719,1.136719,0.070312,0.132812,0.234375,0.295471,-0.415588,0.516418,0.687927,up
107725,-8.089844,4.675781,1.136719,0.066406,0.144531,0.248047,0.295471,-0.415588,0.516418,0.687927,up
107731,-8.128906,4.675781,1.097656,0.052734,0.15625,0.291016,0.295471,-0.415588,0.516418,0.687927,up
107736,-8.160156,4.753906,1.136719,0.052734,0.15625,0.291016,0.293274,-0.4151,0.518372,0.687744,up
107742,-8.128906,4.828125,1.097656,0.023437,0.169922,0.324219,0.293274,-0.4151,0.518372,0.687744,up
107748,-8.15625,4.828125,1.097656,0.023437,0.169922,0.324219,0.291016,-0.414734,0.519897,0.687744,up
107753,-8.15625,4.867187,1.097656,0.023437,0.169922,0.324219,0.2901,-0.414551,0.520508,0.687805,up
107758,-8.15625,4.90625,1.097656,-0.009766,0.183594,0.382813,0.289307,-0.414368,0.520996,0.687866,up
107763,-8.195313,4.945312,1.136719,-0.009766,0.183594,0.382813,0.288391,-0.414185,0.521484,0.687988,up
107768,-8.15625,5.058594,1.097656,-0.009766,0.183594,0.382813,0.288391,-0.414185,0.521484,0.687988,up
107773,-8.15625,5.097656,1.058594,-0.005859,0.203125,0.466797,0.288391,-0.414185,0.521484,0.687988,up
107778,-8.125,5.097656,1.097656,-0.007813,0.199219,0.513672,0.288391,-0.414185,0.521484,0.687988,up
107784,-8.160156,5.097656,1.097656,-0.007813,0.199219,0.513672,0.283997,-0.413147,0.523987,0.688599,up
107789,-8.128906,5.171875,1.058594,-0.007813,0.199219,0.513672,0.282593,-0.41272,0.52478,0.688782,up
107794,-8.089844,5.097656,1.058594,0.001953,0.21875,0.632812,0.281311,-0.412292,0.525513,0.688965,up
107800,-8.046875,5.136719,1.058594,0.005859,0.222656,0.681641,0.279846,-0.411804,0.526428,0.689209,up
107806,-8.050781,5.136719,0.945312,0.005859,0.222656,0.681641,0.279846,-0.411804,0.526428,0.689209,up
107812,-8.050781,5.097656,0.945312,0.029297,0.275391,0.783203,0.279846,-0.411804,0.526428,0.689209,up
107817,-8.050781,5.097656,0.980469,0.029297,0.275391,0.783203,0.273438,-0.409607,0.530334,0.690063,up
107822,-8.085938,5.097656,0.980469,0.029297,0.275391,0.783203,0.271606,-0.408997,0.531433,0.690308,up
107827,-8.046875,5.058594,0.945312,0.029297,0.275391,0.783203,0.271606,-0.408997,0.531433,0.690308,up
107832,-8.089844,5.136719,0.90625,0.041016,0.337891,0.871094,0.271606,-0.408997,0.531433,0.690308,up
107837,-8.085938,5.097656,0.945312,0.068359,0.341797,0.863281,0.267883,-0.407776,0.533752,0.690735,up
107843,-8.089844,5.171875,0.90625,0.072266,0.341797,0.873047,0.265991,-0.407166,0.534973,0.690857,up
107848,-8.128906,5.210937,0.945312,0.072266,0.341797,0.873047,0.261963,-0.405823,0.537598,0.691162,up
107854,-8.089844,5.328125,0.980469,0.072266,0.341797,0.873047,0.260315,-0.405212,0.538757,0.691223,up
107859,-8.050781,5.441406,0.980469,0.072266,0.341797,0.873047,0.258484,-0.40448,0.540039,0.691284,up
107864,-8.15625,5.441406,1.019531,0.072266,0.341797,0.873047,0.258484,-0.40448,0.540039,0.691284,up
107869,-8.15625,5.441406,1.019531,0.158203,0.318359,0.861328,0.254883,-0.403015,0.542725,0.691406,up
107875,-8.007813,5.519531,1.058594,0.158203,0.318359,0.861328,0.253174,-0.402283,0.544067,0.691406,up
107881,-8.007813,5.519531,1.019531,0.166016,0.277344,0.853516,0.253174,-0.402283,0.544067,0.691406,up
107887,-8.011719,5.480469,1.019531,0.140625,0.263672,0.833984,0.253174,-0.402283,0.544067,0.691406,up
107892,-7.96875,5.441406,1.058594,0.140625,0.263672,0.833984,0.248108,-0.399963,0.548035,0.691467,up
107897,-7.894531,5.480469,1.019531,0.140625,0.263672,0.833984,0.24646,-0.39917,0.549194,0.691589,up
107902,-7.894531,5.441406,1.058594,0.039063,0.236328,0.791016,0.244812,-0.398438,0.550293,0.691711,up
107908,-7.777344,5.402344,0.980469,0.003906,0.230469,0.765625,0.242981,-0.397644,0.551453,0.691895,up
107914,-7.816406,5.363281,1.019531,0.003906,0.230469,0.765625,0.239807,-0.396362,0.553223,0.692322,up
107919,-7.777344,5.441406,1.019531,-0.039063,0.201172,0.720703,0.238159,-0.395691,0.554016,0.692627,up
107924,-7.742187,5.480469,1.019531,-0.054687,0.191406,0.707031,0.238159,-0.395691,0.554016,0.692627,up
107930,-7.703125,5.554687,1.019531,-0.054687,0.191406,0.707031,0.238159,-0.395691,0.554016,0.692627,up
107936,-7.703125,5.519531,0.980469,-0.054687,0.191406,0.707031,0.233582,-0.393921,0.556091,0.693542,up
107942,-7.667969,5.519531,1.019531,-0.054687,0.162109,0.632812,0.233582,-0.393921,0.556091,0.693542,up
107948,-7.667969,5.519531,1.058594,-0.054687,0.162109,0.632812,0.229431,-0.392212,0.557922,0.694458,up
107954,-7.589844,5.441406,1.136719,-0.054687,0.162109,0.632812,0.227966,-0.391541,0.558594,0.694702,up
107959,-7.585937,5.402344,1.136719,-0.037109,0.126953,0.599609,0.226807,-0.390991,0.559143,0.694946,up
107965,-7.585937,5.402344,1.097656,-0.046875,0.125,0.574219,0.226807,-0.390991,0.559143,0.694946,up
107971,-7.585937,5.363281,1.136719,-0.058594,0.109375,0.558594,0.226807,-0.390991,0.559143,0.694946,up
107976,-7.507812,5.328125,1.136719,-0.068359,0.101563,0.525391,0.226807,-0.390991,0.559143,0.694946,up
107981,-7.507812,5.328125,1.097656,-0.068359,0.095703,0.498047,0.226807,-0.390991,0.559143,0.694946,up
107987,-7.507812,5.328125,1.097656,-0.041016,0.105469,0.457031,0.226807,-0.390991,0.559143,0.694946,up
107993,-7.511719,5.328125,1.058594,0.0,0.095703,0.384766,0.226807,-0.390991,0.559143,0.694946,up
107998,-7.511719,5.289062,1.019531,0.0,0.095703,0.384766,0.218506,-0.387146,0.562927,0.696777,up
108004,-7.390625,5.363281,1.019531,0.0,0.095703,0.384766,0.217834,-0.38678,0.563354,0.696838,up
108009,-7.394531,5.441406,1.019531,0.083984,0.074219,0.275391,0.217285,-0.386475,0.563782,0.696838,up
108014,-7.390625,5.480469,0.980469,0.117188,0.070312,0.236328,0.216797,-0.386169,0.56427,0.696777,up
108020,-7.320312,5.519531,1.019531,0.117188,0.070312,0.236328,0.216431,-0.385925,0.564758,0.696655,up
108026,-7.242187,5.554687,1.019531,0.146484,0.068359,0.171875,0.216431,-0.385925,0.564758,0.696655,up
108031,-7.324219,5.59375,0.980469,0.166016,0.076172,0.148437,0.216431,-0.385925,0.564758,0.696655,up
108036,-7.324219,5.632812,0.945312,0.183594,0.082031,0.123047,0.216431,-0.385925,0.564758,0.696655,up
108041,-7.320312,5.671875,0.945312,0.183594,0.082031,0.123047,0.216431,-0.385925,0.564758,0.696655,up
108047,-7.324219,5.710937,0.945312,0.175781,0.072266,0.083984,0.216431,-0.385925,0.564758,0.696655,up
108052,-7.351562,5.75,0.980469,0.158203,0.072266,0.066406,0.215332,-0.384949,0.567871,0.695007,up
108057,-7.355469,5.75,1.019531,0.158203,0.072266,0.066406,0.215332,-0.384949,0.567871,0.695007,up
108062,-7.433594,5.824219,1.019531,0.158203,0.072266,0.066406,0.215332,-0.384949,0.567871,0.695007,up
108068,-7.433594,5.824219,1.019531,0.072266,0.076172,0.021484,0.215088,-0.38501,0.568542,0.694458,up
108073,-7.433594,5.785156,0.980469,0.072266,0.076172,0.021484,0.215027,-0.385132,0.568604,0.694336,up
108078,-7.472656,5.824219,0.980469,0.001953,0.052734,-0.019531,0.214966,-0.385193,0.568665,0.694275,up
108083,-7.46875,5.785156,0.980469,0.003906,0.035156,-0.033203,0.214966,-0.385193,0.568665,0.694275,up
108088,-7.433594,5.863281,0.980469,-0.013672,0.029297,-0.041016,0.214966,-0.385315,0.568665,0.694214,up
108093,-7.390625,5.863281,1.019531,-0.013672,0.029297,-0.041016,0.215027,-0.385559,0.568542,0.694153,up
108098,-7.390625,5.863281,0.90625,-0.025391,0.017578,-0.052734,0.215027,-0.385559,0.568542,0.694153,up
108103,-7.355469,5.902344,0.90625,-0.025391,0.017578,-0.052734,0.215027,-0.385681,0.568481,0.694153,up
108108,-7.390625,5.902344,0.90625,0.025391,-0.015625,-0.042969,0.215027,-0.385681,0.568481,0.694153,up
108114,-7.320312,5.902344,0.90625,0.025391,-0.015625,-0.042969,0.215271,-0.385803,0.568359,0.694092,up
108119,-7.320312,5.902344,0.90625,0.074219,-0.056641,-0.03125,0.215515,-0.385742,0.56842,0.694031,up
108125,-7.351562,5.941406,0.90625,0.074219,-0.056641,-0.03125,0.215698,-0.38562,0.568481,0.69397,up
108130,-7.394531,5.902344,0.945312,0.074219,-0.056641,-0.03125,0.215942,-0.385498,0.568604,0.693909,up
108136,-7.355469,5.902344,0.867187,0.099609,-0.070312,-0.027344,0.215942,-0.385498,0.568604,0.693909,up
108141,-7.429687,5.863281,0.828125,0.097656,-0.080078,-0.019531,0.215942,-0.385498,0.568604,0.693909,up
108147,-7.355469,5.863281,0.867187,0.103516,-0.089844,-0.019531,0.216919,-0.384827,0.569031,0.693604,up
108152,-7.320312,5.902344,0.828125,0.103516,-0.089844,-0.019531,0.216919,-0.384827,0.569031,0.693604,up
108157,-7.351562,5.902344,0.753906,0.105469,-0.103516,-0.041016,0.216919,-0.384827,0.569031,0.693604,up
108162,-7.324219,5.863281,0.753906,0.105469,-0.103516,-0.041016,0.217468,-0.38446,0.569214,0.693481,up
108168,-7.320312,5.941406,0.753906,0.105469,-0.103516,-0.041016,0.21814,-0.384094,0.569397,0.693298,up
108173,-7.285156,5.976562,0.789062,0.105469,-0.103516,-0.041016,0.21814,-0.384094,0.569397,0.693298,up
108178,-7.285156,5.941406,0.753906,0.142578,-0.109375,-0.052734,0.21814,-0.384094,0.569397,0.693298,up
108183,-7.324219,5.902344,0.753906,0.142578,-0.109375,-0.052734,0.219238,-0.383484,0.569763,0.692993,up
108188,-7.285156,5.902344,0.789062,0.142578,-0.109375,-0.052734,0.219666,-0.383301,0.569885,0.69281,up
108193,-7.320312,5.902344,0.828125,0.142578,-0.109375,-0.052734,0.219666,-0.383301,0.569885,0.69281,up
108198,-7.355469,5.863281,0.828125,0.148437,-0.095703,-0.109375,0.219666,-0.383301,0.569885,0.69281,up
108203,-7.355469,5.863281,0.828125,0.148437,-0.095703,-0.109375,0.221008,-0.382935,0.57019,0.692383,up
108208,-7.351562,5.824219,0.828125,0.134766,-0.082031,-0.146484,0.221008,-0.382935,0.57019,0.692383,up
108213,-7.355469,5.710937,0.867187,0.134766,-0.087891,-0.177734,0.221497,-0.382935,0.570251,0.6922,up
108218,-7.429687,5.632812,0.828125,0.134766,-0.087891,-0.177734,0.222595,-0.382935,0.570251,0.691833,up
108223,-7.46875,5.480469,0.828125,0.134766,-0.087891,-0.177734,0.223328,-0.382874,0.57019,0.69165,up
108228,-7.546875,5.289062,1.058594,0.134766,-0.087891,-0.177734,0.223328,-0.382874,0.57019,0.69165,up
108233,-7.546875,5.289062,1.210938,0.177734,-0.283203,-0.318359,0.225586,-0.382629,0.569885,0.691345,up
108238,-7.625,5.25,1.480469,0.177734,-0.283203,-0.318359,0.225586,-0.382629,0.569885,0.691345,up
108243,-7.742187,5.210937,1.480469,0.296875,-0.419922,-0.623047,0.225586,-0.382629,0.569885,0.691345,up
108248,-7.851562,5.289062,1.480469,0.296875,-0.419922,-0.623047,0.229126,-0.382446,0.569275,0.690735,up
108254,-8.007813,5.519531,1.402344,0.296875,-0.419922,-0.623047,0.233765,-0.382385,0.568481,0.68988,up
108260,-8.089844,5.75,1.480469,0.296875,-0.419922,-0.623047,0.236511,-0.382324,0.567932,0.689514,up
108265,-8.15625,6.132812,1.441406,0.380859,-0.904297,-1.09375,0.240234,-0.38208,0.567017,0.689087,up
108270,-8.125,6.476562,1.367188,0.380859,-0.904297,-1.09375,0.244141,-0.381775,0.565857,0.688782,up
108276,-8.199219,7.050781,1.210938,0.380859,-0.904297,-1.09375,0.247437,-0.381592,0.564697,0.68866,up
108282,-8.195313,7.089844,1.25,0.027344,-1.261719,-1.373047,0.247437,-0.381592,0.564697,0.68866,up
108288,-8.15625,7.050781,1.289063,-0.591797,-1.408203,-1.486328,0.247437,-0.381592,0.564697,0.68866,up
108293,-7.894531,6.9375,1.097656,-0.591797,-1.408203,-1.486328,0.263611,-0.381104,0.55365,0.691895,up
108298,-7.8125,6.898437,1.058594,-0.591797,-1.408203,-1.486328,0.267151,-0.38147,0.549194,0.693909,up
108303,-7.742187,6.707031,1.097656,-0.591797,-1.408203,-1.486328,0.267151,-0.38147,0.549194,0.693909,up
108308,-7.707031,6.359375,1.136719,-2.216797,-1.386719,-1.550781,0.267151,-0.38147,0.549194,0.693909,up
108313,-7.507812,5.519531,1.136719,-2.216797,-1.386719,-1.550781,0.27301,-0.383179,0.537842,0.699585,up
108318,-7.46875,5.171875,1.175781,-2.216797,-1.386719,-1.550781,0.275391,-0.384521,0.530884,0.703186,up
108323,-7.46875,5.171875,1.175781,-2.671875,-1.269531,-1.542969,0.277222,-0.385925,0.524475,0.706482,up
108328,-7.472656,4.828125,1.289063,-2.732422,-1.232422,-1.511719,0.277222,-0.385925,0.524475,0.706482,up
108333,-7.472656,4.828125,1.289063,-2.708984,-1.154297,-1.484375,0.277222,-0.385925,0.524475,0.706482,up
108338,-7.390625,4.023437,1.59375,-2.708984,-1.154297,-1.484375,0.283386,-0.392578,0.496582,0.720398,up
108343,-7.433594,3.757813,1.632813,-2.708984,-1.154297,-1.484375,0.28479,-0.393982,0.490784,0.723083,up
108348,-7.550781,3.335938,1.976563,-2.708984,-1.154297,-1.484375,0.28479,-0.393982,0.490784,0.723083,up
108353,-7.585937,3.257813,2.132813,-1.146484,-0.765625,-1.125,0.286499,-0.395325,0.485107,0.725464,up
108358,-7.664062,3.257813,2.167969,-1.146484,-0.765625,-1.125,0.288208,-0.39624,0.480896,0.727112,up
108363,-7.742187,3.375,2.207031,-1.146484,-0.765625,-1.125,0.290161,-0.396851,0.477661,0.728088,up
108369,-7.8125,3.527344,2.207031,-1.146484,-0.765625,-1.125,0.294861,-0.397217,0.474365,0.728149,up
108374,-7.851562,3.757813,2.207031,0.714844,-0.423828,-0.853516,0.297607,-0.397034,0.47406,0.727356,up
108380,-7.933594,4.0625,2.167969,0.714844,-0.423828,-0.853516,0.300232,-0.396667,0.474548,0.726196,up
108385,-8.007813,4.175781,2.167969,0.714844,-0.423828,-0.853516,0.30304,-0.396118,0.475647,0.724609,up
108391,-8.15625,4.597656,2.167969,0.714844,-0.423828,-0.853516,0.30304,-0.396118,0.475647,0.724609,up
108396,-8.234375,4.828125,2.054688,1.541016,-0.162109,-0.611328,0.308838,-0.394714,0.479126,0.720581,up
108401,-8.429688,5.210937,2.054688,1.541016,-0.162109,-0.611328,0.311523,-0.393921,0.481201,0.718445,up
108406,-8.539063,5.519531,2.015625,1.458984,-0.087891,-0.539062,0.311523,-0.393921,0.481201,0.718445,up
108411,-8.621094,5.710937,2.09375,1.316406,-0.068359,-0.527344,0.311523,-0.393921,0.481201,0.718445,up
108417,-8.738281,5.785156,2.132813,1.113281,-0.056641,-0.509766,0.311523,-0.393921,0.481201,0.718445,up
108423,-8.855469,5.824219,2.09375,1.113281,-0.056641,-0.509766,0.322388,-0.391907,0.488708,0.709717,up
108428,-8.851563,5.710937,2.167969,1.113281,-0.056641,-0.509766,0.322388,-0.391907,0.488708,0.709717,up
108433,-8.890625,5.671875,2.207031,0.285156,-0.044922,-0.541016,0.325073,-0.392517,0.488647,0.708191,up
108438,-8.894531,5.441406,2.324219,0.285156,-0.044922,-0.541016,0.325073,-0.392517,0.488647,0.708191,up
108444,-8.855469,5.289062,2.398438,-0.369141,-0.130859,-0.621094,0.325073,-0.392517,0.488647,0.708191,up
108449,-8.851563,5.171875,2.398438,-0.369141,-0.130859,-0.621094,0.328003,-0.394836,0.485046,0.708008,up
108455,-8.773438,4.980469,2.363281,-0.369141,-0.130859,-0.621094,0.328796,-0.395874,0.483093,0.708374,up
108460,-8.816406,4.867187,2.398438,-0.369141,-0.130859,-0.621094,0.329468,-0.39679,0.481262,0.708801,up
108465,-8.816406,4.867187,2.398438,-0.847656,-0.238281,-0.677734,0.330139,-0.397888,0.478882,0.709473,up
108470,-8.699219,4.753906,2.476563,-0.847656,-0.238281,-0.677734,0.330139,-0.397888,0.478882,0.709473,up
108475,-8.539063,4.445312,2.4375,-0.888672,-0.294922,-0.632812,0.33136,-0.399902,0.47406,0.710999,up
108480,-8.542969,4.40625,2.476563,-0.888672,-0.294922,-0.632812,0.331909,-0.400879,0.471558,0.711853,up
108485,-8.429688,4.253906,2.476563,-0.888672,-0.294922,-0.632812,0.332458,-0.401672,0.469238,0.712708,up
108491,-8.351563,4.023437,2.4375,-0.888672,-0.294922,-0.632812,0.332458,-0.401672,0.469238,0.712708,up
108496,-8.3125,3.910156,2.398438,-0.734375,-0.287109,-0.453125,0.332458,-0.401672,0.469238,0.712708,up
108502,-8.238281,3.832031,2.324219,-0.646484,-0.261719,-0.412109,0.332458,-0.401672,0.469238,0.712708,up
108507,-8.160156,3.71875,2.324219,-0.548828,-0.246094,-0.355469,0.332458,-0.401672,0.469238,0.712708,up
108513,-8.089844,3.488281,2.363281,-0.548828,-0.246094,-0.355469,0.332458,-0.401672,0.469238,0.712708,up
108518,-8.089844,3.410156,2.363281,-0.369141,-0.150391,-0.296875,0.332458,-0.401672,0.469238,0.712708,up
108524,-8.089844,3.296875,2.324219,-0.279297,-0.097656,-0.279297,0.33551,-0.40564,0.456787,0.717102,up
108529,-8.050781,3.179688,2.363281,-0.279297,-0.097656,-0.279297,0.335815,-0.406006,0.456238,0.717102,up
108534,-8.046875,3.105469,2.324219,-0.015625,0.056641,-0.257813,0.336243,-0.406433,0.455872,0.716919,up
108539,-8.089844,3.027344,2.363281,-0.015625,0.056641,-0.257813,0.33667,-0.406799,0.45575,0.716614,up
108544,-8.125,3.027344,2.398438,-0.015625,0.056641,-0.257813,0.337219,-0.407227,0.45575,0.716064,up
108549,-8.125,3.144531,2.398438,0.292969,0.136719,-0.318359,0.337219,-0.407227,0.45575,0.716064,up
108554,-8.160156,3.296875,2.476563,0.292969,0.136719,-0.318359,0.338623,-0.407959,0.45636,0.7146,up
108559,-8.199219,3.410156,2.4375,0.414062,0.173828,-0.337891,0.338623,-0.407959,0.45636,0.7146,up
108564,-8.390625,3.679688,2.515625,0.414062,0.173828,-0.337891,0.340149,-0.408569,0.457336,0.712891,up
108569,-8.472656,3.832031,2.589844,0.414062,0.173828,-0.337891,0.341125,-0.408875,0.458008,0.711853,up
108574,-8.507813,3.949219,2.628906,0.421875,0.101563,-0.308594,0.341125,-0.408875,0.458008,0.711853,up
108579,-8.582031,4.140625,2.667969,0.421875,0.101563,-0.308594,0.342773,-0.40918,0.458984,0.710205,up
108585,-8.699219,4.332031,2.667969,0.421875,0.101563,-0.308594,0.343567,-0.409241,0.459351,0.709534,up
108590,-8.699219,4.292969,2.667969,0.193359,-0.068359,-0.232422,0.343567,-0.409241,0.459351,0.709534,up
108595,-8.699219,4.292969,2.667969,0.064453,-0.119141,-0.197266,0.343567,-0.409241,0.459351,0.709534,up
108601,-8.617188,4.253906,2.589844,0.064453,-0.119141,-0.197266,0.345459,-0.409119,0.459167,0.708862,up
108607,-8.542969,4.140625,2.628906,-0.230469,-0.195312,-0.130859,0.345459,-0.409119,0.459167,0.708862,up
108613,-8.46875,4.0625,2.554688,-0.371094,-0.232422,-0.101563,0.345459,-0.409119,0.459167,0.708862,up
108618,-8.429688,3.71875,2.476563,-0.486328,-0.251953,-0.087891,0.345459,-0.409119,0.459167,0.708862,up
108624,-8.394531,3.566406,2.476563,-0.658203,-0.269531,-0.09375,0.345459,-0.409119,0.459167,0.708862,up
108629,-8.355469,3.335938,2.4375,-0.658203,-0.269531,-0.09375,0.345398,-0.409546,0.452271,0.713013,up
108634,-8.273438,3.027344,2.4375,-0.658203,-0.269531,-0.09375,0.345398,-0.409546,0.452271,0.713013,up
108639,-8.277344,2.835938,2.398438,-0.658203,-0.269531,-0.09375,0.345093,-0.410217,0.449097,0.714783,up
108644,-8.277344,2.644531,2.398438,-0.605469,-0.210937,-0.271484,0.345093,-0.410217,0.449097,0.714783,up
108649,-8.238281,2.53125,2.398438,-0.5,-0.195312,-0.337891,0.345154,-0.410706,0.447327,0.715637,up
108655,-8.160156,2.300781,2.554688,-0.5,-0.195312,-0.337891,0.345703,-0.41156,0.44458,0.716553,up
108661,-8.128906,2.414063,2.589844,-0.5,-0.195312,-0.337891,0.346313,-0.412048,0.443481,0.716675,up
108666,-8.128906,2.453125,2.628906,-0.144531,-0.101563,-0.556641,0.347168,-0.412598,0.442444,0.716553,up
108672,-8.15625,2.835938,2.628906,-0.048828,-0.087891,-0.611328,0.347168,-0.412598,0.442444,0.716553,up
108677,-8.234375,3.027344,2.628906,0.015625,-0.076172,-0.646484,0.347168,-0.412598,0.442444,0.716553,up
108683,-8.277344,3.179688,2.667969,0.074219,-0.097656,-0.660156,0.347168,-0.412598,0.442444,0.716553,up
108688,-8.433594,3.449219,2.707031,0.097656,-0.121094,-0.648437,0.347168,-0.412598,0.442444,0.716553,up
108693,-8.617188,3.527344,2.707031,0.097656,-0.121094,-0.648437,0.353455,-0.414978,0.438904,0.714294,up
108698,-8.773438,3.527344,2.707031,0.097656,-0.121094,-0.648437,0.354858,-0.415222,0.438232,0.713867,up
108704,-8.855469,3.449219,2.78125,0.009766,-0.271484,-0.583984,0.357544,-0.415527,0.436523,0.713379,up
108709,-8.960938,3.105469,3.050781,0.009766,-0.271484,-0.583984,0.358948,-0.415588,0.435303,0.71344,up
108714,-9.039063,2.875,3.089844,-0.285156,-0.519531,-0.683594,0.358948,-0.415588,0.435303,0.71344,up
108719,-9.078125,2.605469,3.164063,-0.285156,-0.519531,-0.683594,0.360474,-0.415588,0.433655,0.713623,up
108724,-9.082031,2.492188,3.164063,-0.488281,-0.6875,-0.865234,0.360474,-0.415588,0.433655,0.713623,up
108729,-8.964844,2.492188,3.28125,-0.488281,-0.6875,-0.865234,0.363708,-0.415833,0.429565,0.714355,up
108734,-8.933594,2.570313,3.320313,-0.572266,-0.841797,-1.058594,0.365723,-0.415955,0.42688,0.714844,up
108739,-8.8125,2.644531,3.28125,-0.572266,-0.841797,-1.058594,0.367798,-0.416077,0.424133,0.715393,up
108745,-8.777344,2.796875,3.089844,-0.572266,-0.841797,-1.058594,0.372314,-0.416382,0.418091,0.716431,up
108751,-8.773438,2.988281,3.089844,-0.572266,-0.841797,-1.058594,0.374512,-0.416443,0.4151,0.716919,up
108757,-8.777344,3.105469,3.089844,-0.628906,-0.974609,-1.179688,0.374512,-0.416443,0.4151,0.716919,up
108762,-8.773438,3.027344,3.011719,-0.59375,-0.976562,-1.164063,0.374512,-0.416443,0.4151,0.716919,up
108768,-9.042969,2.761719,3.089844,-0.59375,-0.976562,-1.164063,0.374512,-0.416443,0.4151,0.716919,up
108774,-9.003906,2.683594,3.394531,-0.589844,-1.1875,-1.091797,0.374512,-0.416443,0.4151,0.716919,up
108779,-9.042969,2.644531,3.625,-0.589844,-1.1875,-1.091797,0.387024,-0.415833,0.398743,0.71991,up
108784,-9.042969,2.644531,3.625,-0.595703,-1.208984,-1.074219,0.389526,-0.415283,0.395447,0.720703,up
108789,-9.199219,2.722656,3.664063,-0.595703,-1.208984,-1.074219,0.39209,-0.414734,0.391907,0.721558,up
108794,-9.199219,2.722656,3.664063,-0.732422,-1.238281,-1.066406,0.39447,-0.414246,0.388367,0.722473,up
108799,-9.121094,2.683594,3.777344,-0.878906,-1.210938,-1.039063,0.39447,-0.414246,0.388367,0.722473,up
108804,-9.234375,2.414063,3.816406,-0.878906,-1.210938,-1.039063,0.399048,-0.413452,0.380798,0.724487,up
108809,-9.195313,2.378906,3.816406,-0.818359,-1.183594,-1.025391,0.401306,-0.413086,0.376526,0.725647,up
108814,-9.15625,2.300781,3.855469,-0.818359,-1.183594,-1.025391,0.403381,-0.41272,0.372742,0.726624,up
108819,-9.15625,2.070313,3.96875,-0.818359,-1.183594,-1.025391,0.405518,-0.412354,0.368958,0.7276,up
108824,-9.277344,1.992188,4.160156,-0.818359,-1.183594,-1.025391,0.407654,-0.411926,0.365173,0.728577,up
108830,-9.5,2.109375,4.316406,-0.673828,-1.177734,-1.046875,0.41217,-0.410889,0.358215,0.730103,up
108835,-9.617188,2.339844,4.507812,-0.673828,-1.177734,-1.046875,0.414734,-0.410156,0.354919,0.730652,up
108840,-9.695313,2.453125,4.621094,-0.673828,-1.177734,-1.046875,0.414734,-0.410156,0.354919,0.730652,up
108846,-9.699219,2.683594,4.699219,-0.296875,-1.326172,-1.300781,0.420776,-0.408386,0.348267,0.731323,up
108851,-9.886719,3.144531,4.8125,-0.296875,-1.326172,-1.300781,0.423828,-0.40741,0.345215,0.731628,up
108857,-9.847656,3.257813,4.8125,-0.296875,-1.326172,-1.300781,0.427368,-0.406189,0.341492,0.731934,up
108862,-9.699219,3.335938,4.929687,-0.535156,-1.632813,-1.439453,0.427368,-0.406189,0.341492,0.731934,up
108868,-9.386719,3.257813,5.042969,-0.705078,-1.679688,-1.439453,0.427368,-0.406189,0.341492,0.731934,up
108873,-9.3125,2.914063,5.082031,-0.705078,-1.679688,-1.439453,0.427368,-0.406189,0.341492,0.731934,up
108879,-9.121094,2.761719,5.15625,-1.212891,-1.710938,-1.359375,0.427368,-0.406189,0.341492,0.731934,up
108884,-8.773438,2.605469,5.3125,-1.603516,-1.654297,-1.294922,0.444458,-0.401367,0.311218,0.737915,up
108889,-8.621094,1.957031,5.234375,-1.603516,-1.654297,-1.294922,0.444458,-0.401367,0.311218,0.737915,up
108894,-8.542969,1.765625,5.082031,-1.603516,-1.654297,-1.294922,0.446289,-0.403137,0.297607,0.741455,up
108899,-8.582031,1.535156,4.929687,-1.603516,-1.654297,-1.294922,0.446289,-0.403137,0.297607,0.741455,up
108904,-8.582031,1.535156,4.929687,-2.519531,-0.859375,-0.923828,0.446289,-0.404663,0.291504,0.742981,up
108909,-8.660156,1.265625,4.8125,-2.519531,-0.859375,-0.923828,0.445923,-0.406738,0.284912,0.74469,up
108914,-9.382813,1.304688,5.234375,-2.519531,-0.859375,-0.923828,0.445312,-0.408997,0.278931,0.746033,up
108919,-9.769531,1.6875,5.386719,-1.904297,0.039063,-0.730469,0.44458,-0.411499,0.273315,0.747192,up
108924,-10.921875,2.148438,5.464844,-1.904297,0.039063,-0.730469,0.44397,-0.414062,0.268677,0.747864,up
108930,-11.492188,2.414063,5.464844,-1.548828,0.298828,-0.722656,0.442993,-0.419739,0.261658,0.747742,up
108935,-12.074219,2.644531,5.503906,-0.875,0.679687,-0.664062,0.44281,-0.422424,0.259644,0.747009,up
108940,-12.605469,2.914063,5.769531,-0.875,0.679687,-0.664062,0.442688,-0.424805,0.258484,0.746155,up
108945,-13.179688,2.953125,6.117187,-0.484375,0.908203,-0.443359,0.442505,-0.427307,0.257813,0.745056,up
108950,-14.410156,3.144531,6.765625,-0.318359,1.070313,-0.269531,0.442078,-0.430054,0.257813,0.743774,up
108955,-15.363281,3.375,7.113281,-0.318359,1.070313,-0.269531,0.441223,-0.432556,0.258423,0.742554,up
108960,-16.128906,3.832031,7.378906,-0.134766,1.365234,0.333984,0.440002,-0.434814,0.259583,0.741577,up
108966,-18.65625,4.675781,8.222656,-0.134766,1.365234,0.333984,0.437866,-0.437317,0.261536,0.740662,up
108971,-19.582031,5.210937,8.527344,-0.060547,2.056641,1.322266,0.437866,-0.437317,0.261536,0.740662,up
108976,-20.914062,6.167969,8.335938,0.179687,2.601563,2.007813,0.437866,-0.437317,0.261536,0.740662,up
108981,-22.101562,7.050781,7.992187,0.179687,2.601563,2.007813,0.42395,-0.446655,0.275391,0.73822,up
108987,-24.59375,9.234375,7.304687,0.179687,2.601563,2.007813,0.416077,-0.450256,0.283997,0.737183,up
108992,-26.320312,10.382813,6.921875,1.410156,4.746094,4.880859,0.416077,-0.450256,0.283997,0.737183,up
108997,-29.925781,12.335938,5.578125,2.042969,5.558594,6.013672,0.416077,-0.450256,0.283997,0.737183,up
109002,-29.925781,12.335938,5.578125,2.798828,6.382812,7.1875,0.380188,-0.460876,0.32782,0.731812,up
109008,-31.566406,13.945313,4.046875,3.572266,7.152344,8.404297,0.363464,-0.463684,0.349487,0.728516,up
109013,-31.566406,13.945313,4.046875,4.308594,7.699219,9.648438,0.345154,-0.465515,0.373413,0.724365,up
109019,-33.828125,19.078125,-0.589844,4.308594,7.699219,9.648438,0.324707,-0.465698,0.400146,0.719421,up
109024,-32.988281,21.148437,-2.808594,4.308594,7.699219,9.648438,0.301514,-0.463562,0.430298,0.71344,up
109030,-32.066406,22.027344,-3.730469,6.527344,7.775391,13.421875,0.248779,-0.450195,0.497437,0.698547,up
109036,-27.046875,20.726562,-7.0625,6.527344,7.775391,13.421875,0.223267,-0.44043,0.528076,0.690857,up
109041,-27.046875,20.726562,-7.0625,6.527344,7.775391,13.421875,0.223267,-0.44043,0.528076,0.690857,up
109046,-25.28125,19.539062,-9.054688,6.855469,7.53125,16.527344,0.161072,-0.413513,0.592957,0.671875,up
109051,-25.28125,19.539062,-9.054688,5.732422,7.615234,18.0,0.161072,-0.413513,0.592957,0.671875,up
109056,-20.769531,15.058594,-11.621094,5.732422,7.615234,18.0,0.08905,-0.378906,0.65271,0.649963,up
109062,-17.777344,10.84375,-10.011719,5.732422,7.615234,18.0,0.050537,-0.358948,0.67981,0.637573,up
109067,-18.847656,8.925781,-8.863281,4.363281,8.244141,18.703125,0.050537,-0.358948,0.67981,0.637573,up
109072,-22.222656,6.015625,-7.367187,4.363281,8.244141,18.703125,0.028687,0.319519,-0.724976,-0.609497,up
109078,-22.644531,5.171875,-7.292969,3.488281,9.964844,18.302734,0.028687,0.319519,-0.724976,-0.609497,up
109083,-22.445312,4.753906,-6.601562,3.345703,9.859375,17.732422,0.028687,0.319519,-0.724976,-0.609497,up
109088,-21.375,3.179688,-4.6875,3.554688,8.632813,17.082031,0.028687,0.319519,-0.724976,-0.609497,up
109093,-18.15625,-10.457031,2.167969,3.554688,8.632813,17.082031,0.028687,0.319519,-0.724976,-0.609497,up
109099,-13.601563,-12.714844,6.039062,3.554688,8.632813,17.082031,0.224304,0.222534,-0.795959,-0.516357,up
109105,-5.328125,-5.167969,17.375,4.3125,5.269531,12.785156,0.224304,0.222534,-0.795959,-0.516357,up
109110,-6.167969,-3.714844,22.046875,4.3125,5.269531,12.785156,0.29126,0.181458,-0.822083,-0.454346,up
109115,-8.507813,-2.792969,19.367187,4.3125,5.269531,12.785156,0.29126,0.181458,-0.822083,-0.454346,up
109120,-10.84375,-2.144531,15.003906,6.195312,8.039063,5.910156,0.29126,0.181458,-0.822083,-0.454346,up
109126,-10.84375,-2.144531,15.003906,5.457031,6.894531,4.660156,0.3479,0.178894,-0.833618,-0.389954,up
109131,-10.996094,-7.316406,9.140625,5.457031,6.894531,4.660156,0.36261,0.180359,-0.835388,-0.371643,up
109137,-9.886719,-9.113281,13.273438,3.646484,1.837891,2.386719,0.369324,0.180786,-0.837402,-0.360046,up
109143,-5.289062,-8.386719,23.433594,3.128906,0.925781,1.410156,0.369324,0.180786,-0.837402,-0.360046,up
109149,-5.289062,-7.085937,18.261719,2.878906,2.298828,0.320313,0.369324,0.180786,-0.837402,-0.360046,up
109155,-7.394531,-6.433594,11.171875,-1.107422,2.6875,-0.236328,0.369324,0.180786,-0.837402,-0.360046,up
109160,-6.746094,-6.777344,9.640625,-1.107422,2.6875,-0.236328,0.386597,0.191162,-0.837708,-0.335022,up
109166,-5.210937,-4.976562,10.792969,-3.462891,0.621094,0.279297,0.386597,0.191162,-0.837708,-0.335022,up
109171,-4.214844,-3.523438,10.59375,-3.462891,0.621094,0.279297,0.398743,0.184021,-0.826599,-0.351929,up
109176,-3.375,-2.488281,9.144531,-3.462891,0.621094,0.279297,0.402344,0.177734,-0.821899,-0.361938,up
109181,-2.683594,-1.914063,8.683594,-3.462891,0.621094,0.279297,0.405579,0.170898,-0.817139,-0.372253,up
109186,-1.765625,-1.453125,8.335938,-7.404297,-0.021484,0.972656,0.40979,0.160889,-0.810242,-0.386902,up
109192,-0.15625,-0.535156,6.726562,-7.404297,-0.021484,0.972656,0.413757,0.151489,-0.803223,-0.40094,up
109197,1.070313,0.230469,2.554688,-5.833984,0.542969,0.478516,0.413757,0.151489,-0.803223,-0.40094,up
109208,1.953125,2.191406,-0.167969,-2.154297,0.302734,0.001953,0.420227,0.139587,-0.791809,-0.420654,up
109213,2.640625,2.957031,-0.128906,-0.667969,-0.125,-0.207031,0.420227,0.139587,-0.791809,-0.420654,up
109219,3.40625,3.488281,0.253906,-0.667969,-0.125,-0.207031,0.422058,0.13562,-0.786499,-0.429993,up
109225,3.789063,3.867188,-0.207031,1.867188,-0.041016,-0.681641,0.422058,0.13562,-0.786499,-0.429993,up
109230,4.132812,4.832031,-2.042969,1.867188,-0.041016,-0.681641,0.41925,0.139893,-0.789062,-0.426636,up
109235,4.132812,4.832031,-2.042969,1.867188,-0.041016,-0.681641,0.415588,0.147034,-0.793396,-0.4198,up
109240,4.59375,5.554687,-2.964844,1.867188,-0.041016,-0.681641,0.415588,0.147034,-0.793396,-0.4198,up
109245,4.9375,5.632812,-2.65625,1.859375,-0.8125,-0.722656,0.415588,0.147034,-0.793396,-0.4198,up
109250,5.167969,5.941406,-2.082031,1.146484,-1.056641,-0.5625,0.415588,0.147034,-0.793396,-0.4198,up
109255,5.589844,6.515625,-1.660156,1.146484,-1.056641,-0.5625,0.406311,0.153687,-0.800598,-0.412659,up
109260,5.589844,6.746094,-1.890625,0.261719,-0.681641,-0.429687,0.403198,0.154785,-0.802551,-0.41156,up
109265,5.515625,6.902344,-2.3125,-0.226562,-0.498047,-0.390625,0.401062,0.155396,-0.80365,-0.411316,up
109270,5.515625,7.429687,-3.730469,-0.226562,-0.498047,-0.390625,0.399292,0.15564,-0.804138,-0.411987,up
109276,5.515625,7.8125,-4.035156,-0.226562,-0.498047,-0.390625,0.396912,0.154785,-0.80365,-0.415527,up
109281,5.820312,8.007813,-4.152344,-1.392578,-0.671875,-0.314453,0.395752,0.153625,-0.802917,-0.418518,up
109287,6.164062,8.925781,-4.226562,-1.392578,-0.671875,-0.314453,0.394653,0.152161,-0.801941,-0.421875,up
109292,6.242187,9.277344,-4.765625,-1.392578,-0.671875,-0.314453,0.393738,0.150635,-0.80072,-0.425659,up
109298,6.011719,9.617188,-5.03125,-1.712891,-0.416016,-0.34375,0.393738,0.150635,-0.80072,-0.425659,up
109303,5.898437,9.886719,-5.492187,-1.496094,-0.332031,-0.388672,0.393738,0.150635,-0.80072,-0.425659,up
109308,5.820312,10.0,-6.027344,-1.496094,-0.332031,-0.388672,0.391724,0.147156,-0.79657,-0.436401,up
109313,5.820312,9.84375,-5.914062,-0.753906,-0.476562,-0.521484,0.391724,0.147156,-0.79657,-0.436401,up
109318,5.898437,9.695313,-5.453125,-0.400391,-0.615234,-0.544922,0.391724,0.147156,-0.79657,-0.436401,up
109323,6.011719,9.503906,-4.917969,-0.078125,-0.652344,-0.539062,0.391724,0.147156,-0.79657,-0.436401,up
109329,5.859375,9.234375,-4.226562,0.152344,-0.554687,-0.515625,0.391724,0.147156,-0.79657,-0.436401,up
109334,5.742187,9.039063,-4.113281,0.152344,-0.554687,-0.515625,0.38385,0.147949,-0.796631,-0.44281,up
109339,5.550781,8.925781,-4.035156,0.402344,-0.302734,-0.423828,0.38385,0.147949,-0.796631,-0.44281,up
109345,5.324219,8.617188,-3.5,0.431641,-0.265625,-0.365234,0.380188,0.150513,-0.798462,-0.441833,up
109350,5.207031,8.472656,-3.191406,0.431641,-0.265625,-0.365234,0.380188,0.150513,-0.798462,-0.441833,up
109355,5.167969,8.3125,-2.925781,0.355469,-0.173828,-0.140625,0.380188,0.150513,-0.798462,-0.441833,up
109360,5.054687,8.089844,-2.617188,0.355469,-0.173828,-0.140625,0.378479,0.151733,-0.799622,-0.440796,up
109365,4.9375,8.046875,-2.3125,0.355469,-0.173828,-0.140625,0.377869,0.1521,-0.80011,-0.440308,up
109370,4.902344,8.011719,-2.195313,0.355469,-0.173828,-0.140625,0.377502,0.152344,-0.800537,-0.439758,up
109376,4.863281,7.96875,-2.082031,0.171875,-0.101563,0.085937,0.377075,0.1521,-0.801208,-0.438965,up
109381,4.824219,7.929687,-2.042969,0.095703,-0.095703,0.216797,0.377014,0.151794,-0.801514,-0.43866,up
109386,4.710937,7.8125,-2.082031,0.105469,-0.105469,0.271484,0.377014,0.151245,-0.801819,-0.438232,up
109391,4.632812,7.738281,-2.195313,0.105469,-0.105469,0.271484,0.377014,0.150635,-0.802185,-0.437744,up
109396,4.710937,7.667969,-2.234375,0.105469,-0.105469,0.271484,0.376953,0.150085,-0.802612,-0.437256,up
109402,4.710937,7.707031,-2.234375,0.105469,-0.105469,0.271484,0.37677,0.149475,-0.803101,-0.436646,up
109407,4.710937,7.738281,-2.351563,0.283203,-0.210937,0.298828,0.376587,0.148865,-0.803772,-0.435852,up
109412,4.710937,7.734375,-2.65625,0.283203,-0.210937,0.298828,0.376282,0.148376,-0.804443,-0.434998,up
109418,4.824219,7.816406,-2.847656,0.283203,-0.210937,0.298828,0.375977,0.14801,-0.805054,-0.434326,up
109423,4.863281,7.707031,-2.925781,0.304688,-0.240234,0.183594,0.375977,0.14801,-0.805054,-0.434326,up
109428,4.902344,7.734375,-2.925781,0.242187,-0.238281,0.142578,0.375977,0.14801,-0.805054,-0.434326,up
109434,4.976562,7.707031,-3.0,0.242187,-0.238281,0.142578,0.374634,0.146973,-0.806885,-0.432434,up
109439,4.976562,7.550781,-2.964844,0.242187,-0.238281,0.142578,0.374634,0.146973,-0.806885,-0.432434,up
109445,5.054687,7.472656,-2.886719,0.242187,-0.238281,0.142578,0.373779,0.146545,-0.807495,-0.432129,up
109451,5.054687,7.429687,-2.886719,-0.185547,-0.197266,-0.105469,0.373779,0.146545,-0.807495,-0.432129,up
109456,5.054687,7.46875,-3.0,-0.185547,-0.197266,-0.105469,0.372253,0.146057,-0.807617,-0.433472,up
109461,5.09375,7.511719,-3.0,-0.185547,-0.197266,-0.105469,0.371826,0.145996,-0.807373,-0.434204,up
109466,5.054687,7.625,-3.039063,-0.414062,-0.142578,-0.234375,0.371826,0.145996,-0.807373,-0.434204,up
109472,5.015625,7.625,-3.039063,-0.414062,-0.142578,-0.234375,0.370911,0.145874,-0.806641,-0.436401,up
109477,5.054687,7.625,-3.117188,-0.443359,-0.113281,-0.279297,0.370544,0.145935,-0.806213,-0.437561,up
109482,5.054687,7.625,-3.117188,-0.410156,-0.113281,-0.285156,0.370056,0.145996,-0.805725,-0.438782,up
109489,5.015625,7.777344,-3.117188,-0.410156,-0.113281,-0.285156,0.369629,0.146118,-0.805298,-0.43988,up
109494,4.976562,7.890625,-3.15625,-0.339844,-0.103516,-0.292969,0.369629,0.146118,-0.805298,-0.43988,up
109499,4.976562,8.007813,-3.15625,-0.285156,-0.119141,-0.275391,0.369629,0.146118,-0.805298,-0.43988,up
109504,4.976562,8.046875,-3.191406,-0.240234,-0.121094,-0.240234,0.369629,0.146118,-0.805298,-0.43988,up
109511,4.976562,8.128906,-3.230469,-0.240234,-0.121094,-0.240234,0.36731,0.146973,-0.804016,-0.44397,up
109516,4.9375,8.15625,-3.230469,-0.089844,-0.101563,-0.125,0.36731,0.146973,-0.804016,-0.44397,up
109521,4.9375,8.160156,-3.269531,-0.089844,-0.101563,-0.125,0.366577,0.147156,-0.803955,-0.44458,up
109526,4.9375,8.085938,-3.308594,-0.089844,-0.101563,-0.125,0.366211,0.147217,-0.804016,-0.444702,up
109531,4.9375,8.125,-3.308594,0.076172,-0.060547,-0.005859,0.366211,0.147217,-0.804016,-0.444702,up
109536,4.9375,8.160156,-3.269531,0.076172,-0.060547,-0.005859,0.365845,0.147339,-0.80426,-0.444519,up
109541,4.902344,8.199219,-3.347656,0.121094,0.015625,0.041016,0.365845,0.147339,-0.80426,-0.444519,up
109546,4.863281,8.277344,-3.460938,0.123047,0.050781,0.046875,0.365784,0.1474,-0.804443,-0.444275,up
109551,4.863281,8.277344,-3.460938,0.123047,0.050781,0.046875,0.365845,0.147583,-0.804626,-0.443726,up
109556,4.824219,8.273438,-3.460938,0.123047,0.050781,0.046875,0.365845,0.147583,-0.804626,-0.443726,up
109561,4.863281,8.199219,-3.347656,0.099609,0.083984,0.044922,0.365845,0.147583,-0.804626,-0.443726,up
109566,4.863281,8.15625,-3.347656,0.087891,0.095703,0.023437,0.366272,0.148071,-0.80481,-0.442993,up
109571,4.785156,8.160156,-3.269531,0.056641,0.119141,-0.011719,0.366272,0.148071,-0.80481,-0.442993,up
109576,4.785156,8.050781,-3.117188,0.056641,0.119141,-0.011719,0.366455,0.148315,-0.804749,-0.44281,up
109581,4.785156,7.96875,-2.964844,0.056641,0.119141,-0.011719,0.366638,0.148743,-0.804687,-0.442688,up
109586,4.746094,7.933594,-2.847656,-0.035156,0.074219,-0.046875,0.366638,0.148743,-0.804687,-0.442688,up
109591,4.710937,7.894531,-2.886719,-0.080078,0.080078,-0.064453,0.366699,0.148926,-0.804565,-0.442749,up
109597,4.671875,7.894531,-2.925781,-0.080078,0.080078,-0.064453,0.366821,0.149231,-0.80426,-0.443115,up
109602,4.671875,7.890625,-2.886719,-0.080078,0.080078,-0.064453,0.366821,0.149353,-0.804016,-0.443481,up
109607,4.671875,7.890625,-2.886719,-0.179687,0.023437,-0.080078,0.366821,0.149414,-0.803833,-0.443848,up
109612,4.710937,7.855469,-2.925781,-0.179687,0.023437,-0.080078,0.366821,0.149475,-0.803528,-0.444336,up
