timestamp,ax,ay,az,gx,gy,gz,qw,qx,qy,qz,label
458587,-9.128906,3.308594,1.933594,0.380859,0.294922,0.410156,0.478271,-0.321411,0.548645,0.605774,up
458592,-9.050781,3.230469,1.894531,0.380859,0.294922,0.410156,0.476135,-0.31958,0.552551,0.604858,up
458597,-9.125,3.191406,1.894531,0.289063,0.289063,0.392578,0.475403,-0.319092,0.55365,0.604675,up
458603,-9.015625,3.191406,1.894531,0.275391,0.28125,0.380859,0.475403,-0.319092,0.55365,0.604675,up
458608,-9.046875,3.230469,1.855469,0.269531,0.279297,0.363281,0.475403,-0.319092,0.55365,0.604675,up
458613,-9.050781,3.269531,1.816406,0.294922,0.287109,0.353516,0.475403,-0.319092,0.55365,0.604675,up
458619,-9.085938,3.308594,1.855469,0.324219,0.267578,0.341797,0.475403,-0.319092,0.55365,0.604675,up
458625,-9.085938,3.078125,1.816406,0.349609,0.251953,0.332031,0.475403,-0.319092,0.55365,0.604675,up
458630,-9.046875,3.039063,1.894531,0.349609,0.251953,0.332031,0.470825,-0.315796,0.56134,0.602966,up
458635,-9.019531,3.039063,1.894531,0.349609,0.251953,0.332031,0.470825,-0.315796,0.56134,0.602966,up
458640,-8.976563,3.039063,1.894531,0.414062,0.189453,0.244141,0.470215,-0.314758,0.563354,0.602051,up
458645,-8.898438,3.230469,1.894531,0.414062,0.189453,0.244141,0.470032,-0.314209,0.564392,0.601501,up
458650,-8.898438,3.34375,1.855469,0.494141,0.164062,0.128906,0.470032,-0.314209,0.564392,0.601501,up
458655,-8.898438,3.5,1.855469,0.494141,0.164062,0.128906,0.46991,-0.31366,0.565552,0.60083,up
458660,-8.863281,3.613281,1.777344,0.507812,0.152344,0.115234,0.46991,-0.312622,0.567566,0.599426,up
458665,-8.859375,3.765625,1.742188,0.507812,0.152344,0.115234,0.46991,-0.312073,0.568604,0.598694,up
458670,-8.859375,3.804688,1.742188,0.443359,0.136719,0.097656,0.46991,-0.312073,0.568604,0.598694,up
458676,-8.859375,3.765625,1.777344,0.443359,0.136719,0.097656,0.46991,-0.311157,0.570435,0.597534,up
458681,-8.824219,3.726563,1.855469,0.443359,0.136719,0.097656,0.469849,-0.31073,0.571167,0.597046,up
458687,-8.820313,3.691406,1.816406,0.443359,0.136719,0.097656,0.469788,-0.310364,0.571838,0.596619,up
458694,-8.707031,3.574219,1.816406,0.228516,0.078125,0.089844,0.469788,-0.310364,0.571838,0.596619,up
458699,-8.667969,3.613281,1.777344,0.140625,0.052734,0.078125,0.469788,-0.310364,0.571838,0.596619,up
458704,-8.664063,3.574219,1.777344,0.140625,0.052734,0.078125,0.469604,-0.30957,0.573242,0.595886,up
458710,-8.667969,3.613281,1.742188,0.105469,0.025391,0.078125,0.469604,-0.30957,0.573242,0.595886,up
458715,-8.703125,3.691406,1.703125,0.083984,0.019531,0.080078,0.46936,-0.309143,0.573914,0.595642,up
458720,-8.664063,3.765625,1.625,0.083984,0.019531,0.080078,0.469177,-0.308716,0.574402,0.59552,up
458725,-8.636719,3.765625,1.625,0.083984,0.019531,0.080078,0.469177,-0.308716,0.574402,0.59552,up
458730,-8.632813,3.726563,1.664063,0.074219,0.013672,0.076172,0.468933,-0.30835,0.574829,0.595459,up
458735,-8.597656,3.691406,1.550781,0.074219,0.013672,0.076172,0.468933,-0.30835,0.574829,0.595459,up
458741,-8.597656,3.691406,1.550781,0.056641,0.019531,0.089844,0.468933,-0.30835,0.574829,0.595459,up
458746,-8.59375,3.691406,1.511719,0.056641,0.019531,0.089844,0.468567,-0.307739,0.5755,0.595459,up
458751,-8.632813,3.652344,1.585938,0.056641,0.019531,0.089844,0.468384,-0.307556,0.575684,0.595459,up
458756,-8.667969,3.613281,1.585938,0.056641,0.019531,0.089844,0.468262,-0.307434,0.575806,0.59552,up
458761,-8.597656,3.652344,1.472656,-0.001953,0.03125,0.082031,0.468018,-0.307373,0.575989,0.595581,up
458767,-8.558594,3.535156,1.550781,-0.001953,0.03125,0.082031,0.467834,-0.307312,0.576111,0.595642,up
458773,-8.515625,3.535156,1.472656,-0.001953,0.03125,0.082031,0.467651,-0.307312,0.576172,0.595764,up
458779,-8.519531,3.574219,1.472656,-0.039063,0.068359,0.048828,0.467651,-0.307312,0.576172,0.595764,up
458784,-8.515625,3.574219,1.433594,-0.023437,0.080078,0.041016,0.467651,-0.307312,0.576172,0.595764,up
458790,-8.519531,3.691406,1.472656,-0.005859,0.087891,0.029297,0.466797,-0.307556,0.57666,0.595825,up
458795,-8.519531,3.726563,1.394531,-0.005859,0.087891,0.029297,0.466797,-0.307556,0.57666,0.595825,up
458800,-8.558594,3.726563,1.394531,0.042969,0.117188,0.03125,0.466797,-0.307556,0.57666,0.595825,up
458805,-8.707031,3.535156,1.359375,0.042969,0.117188,0.03125,0.46637,-0.307678,0.577087,0.595642,up
458810,-8.707031,3.535156,1.359375,0.0625,0.087891,0.013672,0.466187,-0.307739,0.577393,0.59552,up
458815,-8.742188,3.460938,1.472656,0.0625,0.087891,0.013672,0.466003,-0.307739,0.577576,0.595398,up
458821,-8.78125,3.5,1.511719,0.083984,0.083984,-0.007813,0.465881,-0.307861,0.578125,0.594971,up
458826,-8.863281,3.574219,1.472656,0.083984,0.083984,-0.007813,0.465942,-0.307983,0.578308,0.594666,up
458832,-8.902344,3.765625,1.472656,0.083984,0.083984,-0.007813,0.466003,-0.308044,0.578491,0.59436,up
458837,-8.902344,3.765625,1.472656,0.132812,0.068359,-0.132812,0.466187,-0.308167,0.578735,0.593994,up
458842,-8.902344,3.917969,1.433594,0.132812,0.068359,-0.132812,0.46637,-0.30835,0.578918,0.593567,up
458848,-8.9375,3.957031,1.433594,0.132812,0.068359,-0.132812,0.466553,-0.308472,0.579041,0.59314,up
458853,-8.9375,3.957031,1.433594,0.117188,0.041016,-0.144531,0.466797,-0.308594,0.579224,0.592773,up
458859,-8.898438,3.917969,1.511719,0.095703,0.027344,-0.146484,0.466797,-0.308594,0.579224,0.592773,up
458865,-8.980469,3.917969,1.472656,0.095703,0.027344,-0.146484,0.466797,-0.308594,0.579224,0.592773,up
458871,-8.941406,3.84375,1.472656,0.033203,-0.007813,-0.146484,0.466797,-0.308594,0.579224,0.592773,up
458876,-8.902344,3.882813,1.550781,0.033203,-0.007813,-0.146484,0.467957,-0.309326,0.579285,0.59137,up
458881,-8.898438,3.882813,1.472656,0.033203,-0.007813,-0.146484,0.468262,-0.309509,0.579224,0.591187,up
458886,-8.863281,3.882813,1.550781,0.033203,-0.007813,-0.146484,0.468506,-0.309692,0.579102,0.590942,up
458891,-8.898438,3.917969,1.511719,-0.011719,-0.011719,-0.125,0.468628,-0.309875,0.579041,0.59082,up
458897,-8.898438,3.957031,1.472656,-0.013672,-0.015625,-0.113281,0.468811,-0.309998,0.578918,0.590698,up
458902,-8.902344,3.996094,1.433594,-0.013672,-0.015625,-0.113281,0.468994,-0.31012,0.578796,0.590637,up
458908,-8.902344,3.996094,1.394531,0.003906,-0.001953,-0.095703,0.468994,-0.31012,0.578796,0.590637,up
458913,-8.902344,3.996094,1.433594,0.015625,-0.005859,-0.080078,0.469238,-0.310364,0.578735,0.590393,up
458918,-8.863281,3.996094,1.433594,0.015625,-0.005859,-0.080078,0.46936,-0.310425,0.578674,0.590271,up
458923,-8.9375,3.996094,1.433594,0.037109,0.007813,-0.046875,0.46936,-0.310425,0.578674,0.590271,up
458929,-8.859375,3.957031,1.472656,0.029297,0.009766,-0.041016,0.46936,-0.310425,0.578674,0.590271,up
458934,-8.9375,3.996094,1.433594,0.029297,0.009766,-0.041016,0.469543,-0.310547,0.578857,0.589966,up
458940,-8.976563,3.882813,1.394531,0.029297,0.009766,-0.041016,0.469543,-0.310486,0.579041,0.589722,up
458945,-8.980469,3.804688,1.433594,0.029297,0.009766,-0.041016,0.469543,-0.310486,0.579041,0.589722,up
458950,-8.898438,3.765625,1.433594,0.064453,0.017578,0.011719,0.469543,-0.310364,0.579346,0.589539,up
458955,-8.902344,3.691406,1.472656,0.064453,0.017578,0.011719,0.469543,-0.310364,0.579346,0.589539,up
458960,-8.859375,3.691406,1.433594,0.064453,0.017578,0.011719,0.469543,-0.310242,0.579468,0.589417,up
458966,-8.820313,3.691406,1.472656,0.103516,0.021484,-0.007813,0.469666,-0.31012,0.579895,0.58905,up
458971,-8.785156,3.726563,1.433594,0.103516,0.021484,-0.007813,0.469788,-0.309998,0.580139,0.588806,up
458976,-8.78125,3.804688,1.394531,0.103516,0.021484,-0.007813,0.46991,-0.309814,0.580444,0.58844,up
458981,-8.863281,3.917969,1.394531,0.242187,0.033203,-0.021484,0.46991,-0.309814,0.580444,0.58844,up
458986,-8.785156,3.917969,1.394531,0.242187,0.033203,-0.021484,0.470032,-0.309631,0.580872,0.588074,up
458992,-8.785156,3.996094,1.394531,0.242187,0.033203,-0.021484,0.470398,-0.309204,0.581604,0.58728,up
458997,-8.785156,3.996094,1.394531,0.248047,0.025391,-0.013672,0.470581,-0.30896,0.582031,0.586853,up
459002,-8.820313,3.996094,1.394531,0.232422,0.021484,-0.017578,0.470764,-0.308655,0.582397,0.586426,up
459007,-8.785156,3.957031,1.359375,0.232422,0.021484,-0.017578,0.470947,-0.308472,0.582764,0.58606,up
459013,-8.863281,3.996094,1.359375,0.232422,0.021484,-0.017578,0.471069,-0.308289,0.583008,0.585815,up
459019,-8.863281,4.035156,1.359375,0.144531,0.009766,-0.013672,0.471191,-0.308105,0.583252,0.58551,up
459025,-8.863281,4.035156,1.359375,0.064453,-0.001953,-0.007813,0.471191,-0.308105,0.583252,0.58551,up
459030,-8.820313,4.035156,1.394531,0.064453,-0.001953,-0.007813,0.471313,-0.307922,0.583618,0.585205,up
459035,-8.820313,4.035156,1.359375,0.033203,-0.007813,-0.007813,0.471313,-0.307922,0.583618,0.585205,up
459041,-8.78125,4.035156,1.320313,0.003906,-0.011719,-0.005859,0.471375,-0.3078,0.583679,0.585083,up
459046,-8.820313,4.035156,1.28125,0.003906,-0.011719,-0.005859,0.471375,-0.3078,0.583679,0.585144,up
459051,-8.78125,4.074219,1.242188,-0.029297,-0.021484,0.007813,0.471375,-0.3078,0.583679,0.585144,up
459056,-8.785156,4.035156,1.242188,-0.029297,-0.021484,0.007813,0.471313,-0.3078,0.583618,0.585266,up
459061,-8.742188,4.074219,1.242188,-0.029297,-0.021484,0.007813,0.471252,-0.3078,0.583557,0.585327,up
459066,-8.746094,4.074219,1.167969,-0.029297,-0.021484,0.007813,0.471191,-0.307739,0.583557,0.585388,up
459071,-8.746094,4.035156,1.203125,-0.011719,0.0,0.033203,0.471191,-0.307739,0.583557,0.585388,up
459076,-8.703125,4.074219,1.203125,-0.011719,0.0,0.033203,0.471069,-0.307678,0.583618,0.58551,up
459081,-8.78125,4.074219,1.203125,-0.011719,0.0,0.033203,0.470947,-0.307556,0.583679,0.585571,up
459086,-8.746094,4.035156,1.203125,0.011719,0.011719,0.070312,0.470947,-0.307556,0.583679,0.585571,up
459091,-8.78125,4.074219,1.203125,0.011719,0.011719,0.070312,0.470825,-0.307434,0.58374,0.585693,up
459096,-8.78125,4.074219,1.28125,0.005859,0.007813,0.080078,0.470581,-0.307251,0.583923,0.585815,up
459102,-8.742188,4.074219,1.242188,0.009766,0.023437,0.095703,0.470398,-0.307129,0.584045,0.585876,up
459107,-8.78125,4.109375,1.242188,0.005859,0.027344,0.103516,0.470215,-0.307007,0.584229,0.585999,up
459112,-8.742188,4.148437,1.242188,0.005859,0.027344,0.103516,0.469971,-0.306824,0.584351,0.58606,up
459118,-8.746094,4.226562,1.203125,0.005859,0.027344,0.103516,0.469788,-0.306702,0.584534,0.586182,up
459123,-8.703125,4.265625,1.28125,0.015625,0.03125,0.154297,0.469543,-0.306458,0.584717,0.586304,up
459130,-8.664063,4.265625,1.242188,0.005859,0.041016,0.164062,0.469543,-0.306458,0.584717,0.586304,up
459135,-8.742188,4.300781,1.203125,0.005859,0.041016,0.164062,0.468933,-0.306091,0.585083,0.586548,up
459140,-8.742188,4.300781,1.203125,0.005859,0.041016,0.164062,0.468567,-0.305908,0.585266,0.586731,up
459145,-8.746094,4.339844,1.203125,-0.013672,0.050781,0.214844,0.468567,-0.305908,0.585266,0.586731,up
459150,-8.746094,4.378906,1.203125,-0.013672,0.050781,0.214844,0.467712,-0.30542,0.585754,0.587219,up
459155,-8.78125,4.339844,1.167969,-0.013672,0.050781,0.214844,0.467285,-0.305176,0.585937,0.587524,up
459161,-8.742188,4.339844,1.167969,-0.056641,0.046875,0.265625,0.467285,-0.305176,0.585937,0.587524,up
459166,-8.742188,4.417969,1.128906,-0.056641,0.046875,0.265625,0.466309,-0.304749,0.586304,0.588196,up
459171,-8.703125,4.457031,1.167969,-0.064453,0.046875,0.283203,0.466309,-0.304749,0.586304,0.588196,up
459176,-8.746094,4.496094,1.203125,-0.089844,0.044922,0.318359,0.46521,-0.304199,0.58667,0.588989,up
459181,-8.742188,4.53125,1.203125,-0.089844,0.044922,0.318359,0.463989,-0.303589,0.586975,0.589905,up
459186,-8.703125,4.53125,1.203125,-0.089844,0.044922,0.318359,0.463989,-0.303589,0.586975,0.589905,up
459191,-8.707031,4.53125,1.167969,-0.089844,0.044922,0.318359,0.462646,-0.302917,0.587402,0.590942,up
459196,-8.703125,4.570312,1.167969,-0.125,0.046875,0.40625,0.462646,-0.302917,0.587402,0.590942,up
459201,-8.703125,4.609375,1.203125,-0.125,0.046875,0.40625,0.461792,-0.302551,0.587585,0.591553,up
459206,-8.667969,4.570312,1.203125,-0.136719,0.050781,0.427734,0.461792,-0.302551,0.587585,0.591553,up
459211,-8.636719,4.609375,1.203125,-0.136719,0.050781,0.427734,0.460205,-0.301697,0.587952,0.592834,up
459216,-8.664063,4.609375,1.242188,-0.136719,0.050781,0.427734,0.45929,-0.301208,0.588196,0.593628,up
459221,-8.636719,4.609375,1.203125,-0.140625,0.035156,0.511719,0.457458,-0.30011,0.588623,0.595093,up
459226,-8.664063,4.609375,1.242188,-0.140625,0.035156,0.511719,0.456543,-0.2995,0.588867,0.595886,up
459231,-8.636719,4.53125,1.28125,-0.140625,0.035156,0.511719,0.456543,-0.2995,0.588867,0.595886,up
459236,-8.636719,4.53125,1.242188,-0.140625,0.029297,0.597656,0.456543,-0.2995,0.588867,0.595886,up
459241,-8.558594,4.457031,1.242188,-0.119141,0.017578,0.619141,0.456543,-0.2995,0.588867,0.595886,up
459246,-8.515625,4.53125,1.242188,-0.119141,0.017578,0.619141,0.453369,-0.297363,0.589783,0.598511,up
459251,-8.515625,4.570312,1.320313,-0.072266,0.003906,0.681641,0.452209,-0.296448,0.590149,0.599426,up
459256,-8.519531,4.570312,1.28125,-0.072266,0.003906,0.681641,0.451111,-0.295532,0.590576,0.600342,up
459261,-8.519531,4.570312,1.28125,-0.023437,-0.013672,0.720703,0.450012,-0.294617,0.591003,0.601196,up
459266,-8.597656,4.914062,1.359375,0.039063,-0.068359,0.748047,0.448975,-0.293701,0.591431,0.60199,up
459271,-8.59375,5.03125,1.472656,0.039063,-0.068359,0.748047,0.447815,-0.292358,0.59198,0.602905,up
459276,-8.554688,5.144531,1.664063,0.039063,-0.068359,0.748047,0.446899,-0.291016,0.592529,0.60376,up
459281,-8.664063,5.453125,1.777344,0.158203,-0.191406,0.869141,0.445984,-0.289429,0.59314,0.604553,up
459286,-8.664063,5.453125,1.777344,0.189453,-0.261719,0.947266,0.445068,-0.287598,0.593811,0.605469,up
459291,-8.703125,5.527344,1.894531,0.189453,-0.261719,0.947266,0.444153,-0.285461,0.594482,0.606445,up
459296,-8.707031,5.527344,1.855469,0.25,-0.419922,1.162109,0.443176,-0.282898,0.595215,0.607666,up
459301,-8.785156,5.453125,1.816406,0.267578,-0.494141,1.277344,0.441101,-0.2771,0.596741,0.610352,up
459306,-8.824219,5.375,1.703125,0.267578,-0.494141,1.277344,0.441101,-0.2771,0.596741,0.610352,up
459311,-8.863281,5.296875,1.664063,0.199219,-0.587891,1.511719,0.438477,-0.270325,0.598145,0.613892,up
459316,-8.742188,5.183594,1.585938,0.199219,-0.587891,1.511719,0.438477,-0.270325,0.598145,0.613892,up
459322,-8.667969,5.070312,1.625,0.099609,-0.724609,1.710938,0.438477,-0.270325,0.598145,0.613892,up
459327,-8.597656,5.03125,1.664063,0.099609,-0.724609,1.710938,0.433899,-0.258789,0.599854,0.620422,up
459332,-8.402344,4.878906,1.664063,0.099609,-0.724609,1.710938,0.432373,-0.254822,0.600342,0.622681,up
459337,-8.363281,4.878906,1.585938,0.099609,-0.724609,1.710938,0.43103,-0.251282,0.600769,0.624634,up
459343,-8.214844,4.914062,1.585938,0.099609,-0.724609,1.710938,0.429565,-0.247437,0.601318,0.626587,up
459349,-8.097656,4.953125,1.550781,0.320313,-0.712891,1.654297,0.429565,-0.247437,0.601318,0.626587,up
459354,-8.019531,5.296875,1.703125,0.320313,-0.712891,1.654297,0.42688,-0.23938,0.602905,0.630066,up
459359,-7.902344,5.335937,1.742188,0.615234,-0.740234,1.642578,0.42688,-0.23938,0.602905,0.630066,up
459364,-7.941406,5.566406,1.777344,0.761719,-0.744141,1.654297,0.42688,-0.23938,0.602905,0.630066,up
459370,-7.792969,5.605469,1.777344,0.867187,-0.730469,1.679688,0.42688,-0.23938,0.602905,0.630066,up
459375,-7.828125,5.683594,1.703125,0.96875,-0.710937,1.724609,0.42688,-0.23938,0.602905,0.630066,up
459380,-7.789062,5.683594,1.625,1.011719,-0.695312,1.785156,0.42688,-0.23938,0.602905,0.630066,up
459386,-7.671875,5.605469,1.664063,1.021484,-0.689453,1.849609,0.42688,-0.23938,0.602905,0.630066,up
459392,-7.558594,5.527344,1.664063,1.015625,-0.693359,1.910156,0.416992,-0.201233,0.615845,0.637451,up
459397,-7.367187,5.488281,1.664063,0.974609,-0.697266,1.970703,0.416992,-0.201233,0.615845,0.637451,up
459402,-7.367187,5.488281,1.664063,0.974609,-0.697266,1.970703,0.415405,-0.195923,0.617737,0.638306,up
459407,-7.09375,5.183594,1.625,0.939453,-0.671875,1.976563,0.413879,-0.191223,0.619385,0.63916,up
459412,-7.09375,5.183594,1.625,0.890625,-0.619141,1.957031,0.412109,-0.186035,0.621155,0.640076,up
459417,-7.023437,5.03125,1.550781,0.890625,-0.619141,1.957031,0.408569,-0.176392,0.624512,0.641846,up
459422,-6.90625,4.953125,1.550781,0.890625,-0.619141,1.957031,0.406921,-0.171814,0.626099,0.642517,up
459427,-6.640625,4.800781,1.550781,0.976562,-0.476562,1.648438,0.406921,-0.171814,0.626099,0.642517,up
459432,-6.449219,4.839844,1.511719,0.976562,-0.476562,1.648438,0.403809,-0.162659,0.629883,0.64325,up
459437,-6.367187,4.914062,1.433594,1.167969,-0.404297,1.414063,0.403809,-0.162659,0.629883,0.64325,up
459442,-6.332031,5.105469,1.359375,1.167969,-0.404297,1.414063,0.402527,-0.158569,0.631775,0.643127,up
459448,-6.261719,5.453125,1.394531,1.167969,-0.404297,1.414063,0.400635,-0.151001,0.635986,0.642029,up
459453,-6.261719,5.453125,1.394531,1.521484,-0.337891,1.072266,0.399841,-0.146667,0.638794,0.640808,up
459458,-6.292969,5.796875,1.28125,1.521484,-0.337891,1.072266,0.399292,-0.143372,0.641052,0.639587,up
459464,-6.371094,6.101562,1.320313,1.521484,-0.337891,1.072266,0.398865,-0.139587,0.643677,0.638,up
459470,-6.367187,6.257812,1.242188,1.626953,-0.298828,0.845703,0.398865,-0.139587,0.643677,0.638,up
459475,-6.40625,6.332031,1.242188,1.591797,-0.292969,0.792969,0.398865,-0.139587,0.643677,0.638,up
459480,-6.484375,6.644531,1.242188,1.591797,-0.292969,0.792969,0.39801,-0.129395,0.651245,0.633057,up
459485,-6.5625,6.75,1.242188,1.376953,-0.322266,0.673828,0.39801,-0.129395,0.651245,0.633057,up
459490,-6.5625,6.90625,1.203125,1.242188,-0.337891,0.595703,0.39801,-0.129395,0.651245,0.633057,up
459496,-6.601562,6.949219,1.242188,1.242188,-0.337891,0.595703,0.397827,-0.120789,0.657043,0.628845,up
459502,-6.601562,6.949219,1.242188,1.242188,-0.337891,0.595703,0.398132,-0.116394,0.65918,0.627197,up
459507,-6.601562,6.90625,1.203125,1.242188,-0.337891,0.595703,0.398132,-0.116394,0.65918,0.627197,up
459512,-6.523437,6.871094,1.203125,0.427734,-0.435547,0.308594,0.398865,-0.113037,0.659912,0.626648,up
459517,-6.523437,6.75,1.167969,0.427734,-0.435547,0.308594,0.398865,-0.113037,0.659912,0.626648,up
459522,-6.484375,6.714844,1.203125,0.029297,-0.519531,0.083984,0.398865,-0.113037,0.659912,0.626648,up
459528,-6.484375,6.675781,1.128906,0.029297,-0.519531,0.083984,0.400879,-0.10968,0.658936,0.626953,up
459533,-6.484375,6.605469,1.167969,0.029297,-0.519531,0.083984,0.401855,-0.108887,0.658264,0.627197,up
459539,-6.449219,6.566406,1.128906,0.029297,-0.519531,0.083984,0.402832,-0.108337,0.657593,0.627319,up
459544,-6.449219,6.566406,1.128906,-0.105469,-0.595703,-0.257813,0.404175,-0.107849,0.656738,0.627441,up
459549,-6.410156,6.527344,1.167969,-0.105469,-0.595703,-0.257813,0.404175,-0.107849,0.656738,0.627441,up
459554,-6.371094,6.371094,1.089844,-0.101563,-0.597656,-0.347656,0.404175,-0.107849,0.656738,0.627441,up
459560,-6.257812,6.332031,1.089844,-0.076172,-0.605469,-0.419922,0.408875,-0.107117,0.654236,0.627197,up
459565,-6.21875,6.328125,1.050781,-0.001953,-0.599609,-0.572266,0.408875,-0.107117,0.654236,0.627197,up
459570,-6.292969,6.40625,1.050781,-0.001953,-0.599609,-0.572266,0.412537,-0.107117,0.65271,0.626343,up
459575,-6.332031,6.523437,1.050781,-0.001953,-0.599609,-0.572266,0.414612,-0.107239,0.651917,0.625793,up
459580,-6.371094,6.675781,1.050781,0.041016,-0.558594,-0.734375,0.414612,-0.107239,0.651917,0.625793,up
459586,-6.410156,6.828125,1.050781,0.041016,-0.558594,-0.734375,0.418762,-0.107849,0.650452,0.624451,up
459592,-6.484375,7.023437,1.089844,0.041016,-0.558594,-0.734375,0.422852,-0.108765,0.648987,0.623047,up
459597,-6.5625,7.214844,1.167969,0.041016,-0.558594,-0.734375,0.422852,-0.108765,0.648987,0.623047,up
459602,-6.601562,7.25,1.203125,-0.113281,-0.484375,-0.759766,0.426697,-0.109924,0.647217,0.62207,up
459607,-6.675781,7.40625,1.128906,-0.113281,-0.484375,-0.759766,0.428467,-0.110596,0.646179,0.621765,up
459612,-6.714844,7.519531,1.242188,-0.261719,-0.480469,-0.607422,0.428467,-0.110596,0.646179,0.621765,up
459617,-6.675781,7.554687,1.28125,-0.261719,-0.480469,-0.607422,0.431702,-0.111633,0.644043,0.621582,up
459622,-6.714844,7.714844,1.128906,-0.261719,-0.480469,-0.607422,0.431702,-0.111633,0.644043,0.621582,up
459627,-6.714844,7.714844,1.089844,-0.414062,-0.457031,-0.484375,0.434631,-0.112732,0.641296,0.622131,up
459632,-6.753906,7.714844,1.089844,-0.414062,-0.457031,-0.484375,0.434631,-0.112732,0.641296,0.622131,up
459637,-6.714844,7.597656,1.128906,-0.791016,-0.501953,-0.373047,0.434631,-0.112732,0.641296,0.622131,up
459643,-6.714844,7.25,1.203125,-0.791016,-0.501953,-0.373047,0.438049,-0.114563,0.63623,0.624634,up
459649,-6.5625,6.871094,1.167969,-0.791016,-0.501953,-0.373047,0.439148,-0.115601,0.63385,0.626099,up
459655,-6.5625,6.710937,1.203125,-1.107422,-0.425781,-0.361328,0.439148,-0.115601,0.63385,0.626099,up
459660,-6.5625,6.601562,1.167969,-1.121094,-0.380859,-0.367188,0.440918,-0.117676,0.629517,0.628845,up
459666,-6.566406,6.332031,1.242188,-1.121094,-0.380859,-0.367188,0.440918,-0.117676,0.629517,0.628845,up
459671,-6.601562,6.21875,1.320313,-1.054688,-0.318359,-0.388672,0.440918,-0.117676,0.629517,0.628845,up
459677,-6.601562,5.988281,1.511719,-0.972656,-0.294922,-0.390625,0.440918,-0.117676,0.629517,0.628845,up
459682,-6.605469,5.910156,1.585938,-0.869141,-0.267578,-0.386719,0.444885,-0.123779,0.619324,0.634949,up
459687,-6.714844,5.949219,1.625,-0.869141,-0.267578,-0.386719,0.444885,-0.123779,0.619324,0.634949,up
459692,-6.789062,6.027344,1.703125,-0.529297,-0.185547,-0.384766,0.446289,-0.125488,0.617126,0.635803,up
459697,-6.90625,6.179687,1.855469,-0.529297,-0.185547,-0.384766,0.446289,-0.125488,0.617126,0.635803,up
459703,-7.027344,6.257812,1.855469,0.041016,-0.134766,-0.357422,0.446289,-0.125488,0.617126,0.635803,up
459708,-7.097656,6.371094,1.855469,0.041016,-0.134766,-0.357422,0.448669,-0.126587,0.616028,0.634949,up
459713,-7.214844,6.5625,1.972656,0.041016,-0.134766,-0.357422,0.449524,-0.126587,0.61615,0.634216,up
459718,-7.253906,6.714844,1.972656,0.041016,-0.134766,-0.357422,0.450256,-0.126465,0.616333,0.633545,up
459723,-7.253906,6.832031,1.972656,0.425781,-0.173828,-0.292969,0.451233,-0.126221,0.61676,0.632507,up
459728,-7.292969,6.984375,2.007813,0.445312,-0.189453,-0.261719,0.452087,-0.125854,0.617126,0.631592,up
459733,-7.289062,7.023437,1.972656,0.445312,-0.189453,-0.261719,0.452881,-0.125427,0.617493,0.630737,up
459739,-7.292969,7.097656,2.046875,0.445312,-0.189453,-0.261719,0.453674,-0.125,0.617859,0.629883,up
459745,-7.253906,7.136719,2.046875,0.445312,-0.189453,-0.261719,0.454346,-0.124573,0.618103,0.629272,up
459750,-7.25,7.136719,2.007813,0.230469,-0.195312,-0.177734,0.454346,-0.124573,0.618103,0.629272,up
459756,-7.25,7.097656,1.894531,0.166016,-0.203125,-0.179687,0.454346,-0.124573,0.618103,0.629272,up
459761,-7.210937,7.0625,1.933594,0.091797,-0.21875,-0.177734,0.454346,-0.124573,0.618103,0.629272,up
459766,-7.171875,7.097656,1.816406,0.037109,-0.226562,-0.210937,0.454346,-0.124573,0.618103,0.629272,up
459772,-7.175781,7.0625,1.894531,-0.009766,-0.228516,-0.232422,0.457703,-0.123596,0.617676,0.627441,up
459777,-7.09375,7.0625,1.777344,-0.009766,-0.228516,-0.232422,0.458374,-0.123657,0.61731,0.627319,up
459783,-7.0625,7.0625,1.816406,-0.074219,-0.210937,-0.271484,0.4599,-0.123962,0.616394,0.627014,up
459788,-7.023437,6.945312,1.742188,-0.074219,-0.210937,-0.271484,0.460571,-0.124207,0.615967,0.626953,up
459793,-7.0625,6.832031,1.816406,-0.119141,-0.140625,-0.302734,0.460571,-0.124207,0.615967,0.626953,up
459798,-7.097656,6.832031,1.816406,-0.140625,-0.113281,-0.326172,0.461304,-0.124573,0.615479,0.626831,up
459803,-7.097656,6.832031,1.816406,-0.160156,-0.09375,-0.353516,0.462463,-0.125488,0.614624,0.626587,up
459809,-7.292969,6.675781,2.007813,-0.160156,-0.09375,-0.353516,0.463135,-0.12616,0.614136,0.626404,up
459814,-7.371094,6.675781,2.125,-0.214844,-0.083984,-0.455078,0.463135,-0.12616,0.614136,0.626404,up
459819,-7.410156,6.714844,2.199219,-0.240234,-0.087891,-0.519531,0.463135,-0.12616,0.614136,0.626404,up
459824,-7.445312,6.675781,2.277344,-0.240234,-0.087891,-0.519531,0.463135,-0.12616,0.614136,0.626404,up
459829,-7.554687,6.714844,2.429688,-0.240234,-0.087891,-0.519531,0.463135,-0.12616,0.614136,0.626404,up
459835,-7.558594,6.753906,2.46875,-0.369141,-0.183594,-0.708984,0.463135,-0.12616,0.614136,0.626404,up
459840,-7.554687,6.753906,2.429688,-0.427734,-0.236328,-0.763672,0.463135,-0.12616,0.614136,0.626404,up
459845,-7.476562,6.714844,2.46875,-0.470703,-0.267578,-0.816406,0.463135,-0.12616,0.614136,0.626404,up
459851,-7.449219,6.675781,2.390625,-0.535156,-0.304688,-0.859375,0.463135,-0.12616,0.614136,0.626404,up
459856,-7.410156,6.714844,2.429688,-0.634766,-0.316406,-0.90625,0.463135,-0.12616,0.614136,0.626404,up
459862,-7.445312,6.753906,2.390625,-0.738281,-0.337891,-0.929687,0.463135,-0.12616,0.614136,0.626404,up
459867,-7.410156,6.714844,2.429688,-0.832031,-0.351563,-0.9375,0.477295,-0.140015,0.601501,0.625122,up
459872,-7.410156,6.714844,2.429688,-0.919922,-0.341797,-0.947266,0.479004,-0.141968,0.599365,0.625427,up
459877,-7.449219,6.675781,2.390625,-0.919922,-0.341797,-0.947266,0.480591,-0.143921,0.597168,0.625854,up
459883,-7.480469,6.640625,2.46875,-0.919922,-0.341797,-0.947266,0.483582,-0.148071,0.592468,0.627075,up
459888,-7.558594,6.601562,2.507813,-1.109375,-0.253906,-0.808594,0.483582,-0.148071,0.592468,0.627075,up
459893,-7.636719,6.21875,2.546875,-1.115234,-0.21875,-0.787109,0.484985,-0.150391,0.589966,0.627808,up
459899,-7.636719,6.21875,2.546875,-1.066406,-0.208984,-0.792969,0.487183,-0.15448,0.58551,0.629272,up
459904,-7.75,5.910156,2.582031,-1.029297,-0.232422,-0.816406,0.488464,-0.156799,0.583069,0.629944,up
459909,-7.828125,5.683594,2.851563,-1.029297,-0.232422,-0.816406,0.489807,-0.158936,0.580811,0.630493,up
459915,-7.976562,5.335937,3.003906,-1.029297,-0.232422,-0.816406,0.491028,-0.160828,0.578857,0.630798,up
459921,-8.015625,5.183594,3.121094,-0.869141,-0.267578,-1.085938,0.491028,-0.160828,0.578857,0.630798,up
459927,-8.136719,5.183594,3.3125,-0.804687,-0.335938,-1.222656,0.491028,-0.160828,0.578857,0.630798,up
459933,-8.171875,5.453125,3.464844,-0.753906,-0.408203,-1.388672,0.497192,-0.167786,0.572021,0.630432,up
459938,-8.285156,5.875,3.578125,-0.734375,-0.570312,-1.724609,0.499512,-0.169861,0.569946,0.629944,up
459943,-8.398438,6.371094,3.695313,-0.734375,-0.570312,-1.724609,0.505798,-0.174683,0.564758,0.628296,up
459948,-8.558594,6.945312,4.039062,-0.734375,-0.570312,-1.724609,0.505798,-0.174683,0.564758,0.628296,up
459953,-8.667969,7.214844,4.15625,-0.734375,-0.570312,-1.724609,0.513428,-0.179504,0.557983,0.62677,up
459958,-8.859375,7.367187,4.308594,-0.734375,-0.570312,-1.724609,0.517822,-0.181702,0.553467,0.626465,up
459963,-8.902344,7.519531,4.421875,-1.609375,-1.720703,-1.720703,0.517822,-0.181702,0.553467,0.626465,up
459969,-8.632813,7.636719,4.382812,-1.609375,-1.720703,-1.720703,0.526245,-0.185242,0.54248,0.628052,up
459974,-8.253906,7.023437,4.652344,-1.609375,-1.720703,-1.720703,0.529968,-0.186951,0.535583,0.63031,up
459979,-8.253906,7.023437,4.652344,-3.369141,-2.271484,-1.068359,0.533447,-0.189087,0.527039,0.633972,up
459984,-8.253906,7.023437,4.652344,-3.369141,-2.271484,-1.068359,0.533447,-0.189087,0.527039,0.633972,up
459989,-8.363281,6.179687,5.148437,-3.929688,-2.355469,-0.894531,0.533447,-0.189087,0.527039,0.633972,up
459994,-8.398438,4.839844,5.34375,-4.427734,-2.494141,-0.816406,0.538696,-0.194336,0.507568,0.643799,up
460000,-8.136719,4.109375,4.765625,-5.179687,-2.662109,-0.958984,0.541016,-0.197571,0.495911,0.649841,up
460006,-8.015625,3.269531,4.15625,-5.408203,-2.777344,-1.123047,0.541016,-0.197571,0.495911,0.649841,up
460011,-8.015625,3.269531,4.15625,-5.484375,-2.886719,-1.292969,0.547974,-0.20929,0.457153,0.668518,up
460016,-7.671875,2.65625,3.464844,-5.376953,-2.957031,-1.447266,0.547974,-0.20929,0.457153,0.668518,up
460022,-7.027344,1.699219,3.121094,-5.068359,-3.037109,-1.574219,0.547974,-0.20929,0.457153,0.668518,up
460028,-6.527344,1.46875,3.425781,-4.615234,-3.09375,-1.658203,0.56073,-0.222839,0.403381,0.687927,up
460033,-6.179687,1.351563,3.886719,-4.615234,-3.09375,-1.658203,0.56073,-0.222839,0.403381,0.687927,up
460038,-5.796875,1.277344,4.347656,-3.052734,-2.691406,-1.609375,0.56073,-0.222839,0.403381,0.687927,up
460043,-5.527344,1.238281,4.5,-3.052734,-2.691406,-1.609375,0.568115,-0.226074,0.381165,0.69342,up
460049,-5.101562,0.777344,4.15625,-2.708984,-2.414063,-1.550781,0.571716,-0.227234,0.371399,0.695374,up
460054,-5.101562,0.777344,4.15625,-2.128906,-1.970703,-1.324219,0.577881,-0.229126,0.355225,0.698059,up
460059,-4.496094,0.355469,4.460937,-2.128906,-1.970703,-1.324219,0.580627,-0.229858,0.348267,0.699097,up
460065,-4.878906,0.089844,5.1875,-2.128906,-1.970703,-1.324219,0.582947,-0.230469,0.342407,0.699829,up
460070,-5.144531,-0.292969,5.113281,-1.279297,-1.095703,-1.050781,0.582947,-0.230469,0.342407,0.699829,up
460075,-5.296875,-0.292969,5.074219,-1.050781,-0.847656,-1.111328,0.582947,-0.230469,0.342407,0.699829,up
460080,-5.378906,0.089844,5.035156,-1.050781,-0.847656,-1.111328,0.589233,-0.233154,0.329834,0.699768,up
460085,-5.71875,0.816406,5.148437,-1.050781,-0.847656,-1.111328,0.589233,-0.233154,0.329834,0.699768,up
460091,-5.90625,1.199219,5.226562,-0.789062,-0.357422,-1.441406,0.589233,-0.233154,0.329834,0.699768,up
460096,-6.0625,2.042969,5.34375,-0.757812,-0.216797,-1.53125,0.589233,-0.233154,0.329834,0.699768,up
460102,-6.140625,2.386719,5.304687,-0.771484,-0.099609,-1.599609,0.589233,-0.233154,0.329834,0.699768,up
460108,-6.332031,2.578125,5.304687,-1.021484,0.119141,-1.691406,0.589233,-0.233154,0.329834,0.699768,up
460113,-6.566406,2.539063,5.570312,-1.021484,0.119141,-1.691406,0.603149,-0.245178,0.313721,0.691162,up
460119,-6.832031,2.464844,5.839844,-1.021484,0.119141,-1.691406,0.607239,-0.252136,0.307922,0.687622,up
460124,-7.136719,2.234375,5.953125,-1.619141,0.224609,-1.732422,0.609253,-0.256592,0.30426,0.685852,up
460130,-7.292969,1.890625,6.835937,-1.619141,0.224609,-1.732422,0.610901,-0.260803,0.300476,0.684448,up
460135,-7.636719,1.316406,7.371094,-1.619141,0.224609,-1.732422,0.612366,-0.264954,0.296509,0.683289,up
460140,-7.636719,1.316406,7.371094,-2.21875,0.025391,-1.583984,0.61377,-0.269592,0.291809,0.682251,up
460145,-7.636719,1.316406,7.371094,-2.3125,-0.070312,-1.472656,0.614746,-0.273926,0.287109,0.68158,up
460150,-8.25,0.320313,7.71875,-2.3125,-0.070312,-1.472656,0.615723,-0.278381,0.281799,0.681152,up
460155,-8.28125,-0.410156,7.871094,-2.294922,-0.419922,-1.357422,0.616638,-0.282349,0.276428,0.680908,up
460160,-8.285156,-0.5625,7.984375,-2.294922,-0.419922,-1.357422,0.617737,-0.285706,0.270996,0.680664,up
460167,-8.253906,-0.523437,8.0625,-2.294922,-0.419922,-1.357422,0.617737,-0.285706,0.270996,0.680664,up
460172,-8.136719,-0.292969,7.832031,-1.498047,-0.990234,-1.425781,0.617737,-0.285706,0.270996,0.680664,up
460178,-7.902344,-0.027344,7.5625,-1.195313,-1.128906,-1.480469,0.617737,-0.285706,0.270996,0.680664,up
460183,-7.75,0.28125,7.21875,-0.589844,-1.441406,-1.595703,0.617737,-0.285706,0.270996,0.680664,up
460189,-7.289062,0.738281,6.988281,-0.589844,-1.441406,-1.595703,0.632019,-0.291199,0.241455,0.676392,up
460194,-6.90625,0.777344,6.914062,-0.539062,-1.597656,-1.664063,0.63562,-0.290283,0.23645,0.675171,up
460200,-6.566406,0.703125,6.53125,-0.539062,-1.597656,-1.664063,0.638672,-0.289551,0.232239,0.674072,up
460205,-6.410156,0.546875,6.335937,-0.539062,-1.597656,-1.664063,0.642029,-0.289001,0.227295,0.672791,up
460210,-5.988281,-0.292969,6.496094,-0.539062,-1.597656,-1.664063,0.64502,-0.288879,0.222107,0.671692,up
460215,-6.140625,-0.675781,6.566406,-1.289063,-1.349609,-1.710938,0.64502,-0.288879,0.222107,0.671692,up
460220,-6.140625,-0.675781,6.566406,-1.583984,-1.246094,-1.748047,0.65033,-0.290344,0.21106,0.669556,up
460225,-6.371094,-1.636719,7.222656,-1.583984,-1.246094,-1.748047,0.65033,-0.290344,0.21106,0.669556,up
460230,-6.371094,-1.636719,7.222656,-1.886719,-1.109375,-1.837891,0.654907,-0.294678,0.198425,0.666992,up
460236,-5.988281,-2.402344,6.914062,-1.886719,-1.109375,-1.837891,0.657166,-0.297791,0.191895,0.665283,up
460241,-5.644531,-1.980469,6.679687,-2.380859,-0.710937,-2.328125,0.657166,-0.297791,0.191895,0.665283,up
460247,-4.953125,-1.023438,6.257812,-2.435547,-0.517578,-2.431641,0.657166,-0.297791,0.191895,0.665283,up
460252,-4.953125,-0.601562,5.957031,-2.435547,-0.517578,-2.431641,0.664307,-0.309814,0.171753,0.658203,up
460257,-4.953125,-0.292969,5.917969,-2.259766,-0.109375,-2.394531,0.664307,-0.309814,0.171753,0.658203,up
460263,-5.296875,-0.601562,6.335937,-2.259766,-0.109375,-2.394531,0.67041,-0.323547,0.155151,0.649414,up
460268,-5.488281,-1.058594,6.644531,-2.259766,-0.109375,-2.394531,0.67041,-0.323547,0.155151,0.649414,up
460273,-5.796875,-1.445313,6.945312,-1.828125,0.291016,-1.908203,0.673401,-0.332214,0.146851,0.64386,up
460278,-6.292969,-2.210938,7.445312,-1.828125,0.291016,-1.908203,0.673401,-0.332214,0.146851,0.64386,up
460284,-6.371094,-2.402344,7.683594,-1.681641,0.330078,-1.601563,0.673401,-0.332214,0.146851,0.64386,up
460289,-6.101562,-2.4375,7.753906,-1.681641,0.330078,-1.601563,0.676819,-0.344299,0.13623,0.63623,up
460294,-6.5625,-2.246094,7.792969,-1.681641,0.330078,-1.601563,0.676819,-0.344299,0.13623,0.63623,up
460299,-6.601562,-2.09375,7.988281,-1.681641,0.330078,-1.601563,0.677795,-0.347961,0.133362,0.63385,up
460304,-6.601562,-2.09375,7.988281,-1.326172,0.486328,-1.263672,0.678467,-0.351135,0.131042,0.631775,up
460309,-6.753906,-2.054688,8.214844,-1.25,0.578125,-1.119141,0.678467,-0.351135,0.131042,0.631775,up
460314,-6.90625,-1.214844,8.328125,-1.134766,0.693359,-0.945312,0.679382,-0.357849,0.127197,0.627808,up
460319,-6.945312,-0.601562,8.214844,-1.007813,0.960937,-0.515625,0.679382,-0.357849,0.127197,0.627808,up
460324,-6.945312,-0.027344,8.101563,-1.007813,0.960937,-0.515625,0.678589,-0.368286,0.125244,0.623108,up
460329,-7.941406,-0.832031,8.214844,-1.007813,0.960937,-0.515625,0.678589,-0.368286,0.125244,0.623108,up
460334,-8.441406,-1.597656,8.328125,-1.007813,0.960937,-0.515625,0.676147,-0.375183,0.126831,0.621277,up
460339,-8.902344,-2.515625,8.445313,-0.791016,1.548828,0.394531,0.676147,-0.375183,0.126831,0.621277,up
460344,-9.167969,-3.089844,8.710938,-0.695312,1.603516,0.455078,0.674255,-0.379211,0.12854,0.620544,up
460349,-9.164063,-2.976563,8.941406,-0.695312,1.603516,0.455078,0.670532,-0.386108,0.132629,0.619446,up
460354,-9.128906,-2.4375,8.90625,-0.695312,1.603516,0.455078,0.668457,-0.389954,0.135498,0.618652,up
460359,-9.164063,-1.941406,8.710938,-0.695312,1.603516,0.455078,0.668457,-0.389954,0.135498,0.618652,up
460364,-9.285156,-1.558594,8.484375,-0.400391,2.054688,0.568359,0.664795,-0.396606,0.141663,0.617004,up
460369,-9.546875,-1.136719,7.984375,-0.400391,2.054688,0.568359,0.662415,-0.400452,0.145996,0.616089,up
460374,-9.703125,-1.214844,7.945312,-0.210937,2.550781,1.09375,0.659546,-0.404541,0.151123,0.615234,up
460379,-9.890625,-1.25,7.871094,-0.210937,2.550781,1.09375,0.656738,-0.408142,0.155945,0.614685,up
460384,-10.394531,-2.171875,8.175781,-0.210937,2.550781,1.09375,0.652771,-0.412537,0.162476,0.614258,up
460389,-10.546875,-2.515625,8.101563,-0.210937,2.550781,1.09375,0.649109,-0.41626,0.168579,0.613953,up
460394,-10.851563,-2.976563,8.0625,0.082031,3.388672,2.007813,0.649109,-0.41626,0.168579,0.613953,up
460399,-11.039063,-3.320313,7.910156,0.082031,3.388672,2.007813,0.640259,-0.4245,0.183838,0.61322,up
460404,-11.617188,-3.28125,7.140625,0.082031,3.388672,2.007813,0.640259,-0.4245,0.183838,0.61322,up
460409,-11.617188,-3.28125,7.140625,0.082031,3.388672,2.007813,0.640259,-0.4245,0.183838,0.61322,up
460414,-11.925781,-3.050781,6.796875,0.710937,3.890625,2.382813,0.640259,-0.4245,0.183838,0.61322,up
460419,-12.648438,-2.054688,6.757812,0.945312,3.945313,2.527344,0.620789,-0.438782,0.223328,0.610168,up
460424,-13.308594,-0.945312,6.796875,0.945312,3.945313,2.527344,0.620789,-0.438782,0.223328,0.610168,up
460429,-13.726563,-0.449219,6.835937,1.767578,4.289062,3.130859,0.61499,-0.441589,0.23645,0.609009,up
460434,-14.1875,0.011719,6.875,1.767578,4.289062,3.130859,0.604431,-0.44519,0.261047,0.606934,up
460439,-14.722656,0.394531,6.796875,2.238281,4.505859,3.587891,0.604431,-0.44519,0.261047,0.606934,up
460444,-15.828125,0.929687,6.53125,2.238281,4.505859,3.587891,0.592712,-0.447083,0.28833,0.604675,up
460449,-16.253906,1.238281,6.453125,2.238281,4.505859,3.587891,0.592712,-0.447083,0.28833,0.604675,up
460454,-16.671875,1.660156,6.453125,2.589844,4.400391,4.019531,0.579468,-0.446716,0.31842,0.602722,up
460459,-17.402344,2.425781,6.375,2.589844,4.400391,4.019531,0.579468,-0.446716,0.31842,0.602722,up
460464,-17.402344,2.425781,6.375,2.658203,4.115234,4.447266,0.57251,-0.445618,0.333191,0.602173,up
460470,-17.710937,2.847656,6.261719,2.658203,4.115234,4.447266,0.565186,-0.444153,0.347778,0.601929,up
460475,-18.242187,3.613281,5.917969,2.335938,3.826172,4.90625,0.548462,-0.440247,0.376465,0.602966,up
460480,-18.96875,4.6875,5.496094,2.335938,3.826172,4.90625,0.539246,-0.438049,0.389893,0.60437,up
460485,-20.433594,5.261719,4.957031,2.335938,3.826172,4.90625,0.529175,-0.435791,0.402954,0.606384,up
460490,-21.195312,5.261719,4.5,1.056641,3.421875,5.890625,0.529175,-0.435791,0.402954,0.606384,up
460495,-21.882812,5.183594,4.15625,1.056641,3.421875,5.890625,0.506348,-0.431091,0.427917,0.612122,up
460500,-22.425781,5.144531,4.078125,1.056641,3.421875,5.890625,0.506348,-0.431091,0.427917,0.612122,up
460505,-22.535156,5.03125,3.960938,0.484375,3.009766,6.242187,0.481384,-0.425293,0.4505,0.619995,up
460510,-22.535156,5.03125,3.960938,0.484375,3.009766,6.242187,0.481384,-0.425293,0.4505,0.619995,up
460516,-22.6875,4.914062,4.0,0.306641,2.392578,6.580078,0.45575,-0.417542,0.471252,0.629211,up
460521,-23.574219,4.761719,3.273438,0.306641,2.392578,6.580078,0.442993,-0.412964,0.481201,0.633728,up
460526,-23.308594,4.722656,3.003906,0.605469,1.996094,6.691406,0.442993,-0.412964,0.481201,0.633728,up
460531,-22.042969,4.839844,2.929688,0.605469,1.996094,6.691406,0.442993,-0.412964,0.481201,0.633728,up
460537,-21.3125,5.03125,2.738281,1.107422,1.365234,6.800781,0.442993,-0.412964,0.481201,0.633728,up
460542,-20.578125,5.222656,2.507813,1.335938,1.236328,6.898437,0.442993,-0.412964,0.481201,0.633728,up
460547,-19.890625,5.296875,2.085938,1.533203,1.210938,7.033203,0.442993,-0.412964,0.481201,0.633728,up
460552,-18.941406,6.640625,0.976562,1.533203,1.210938,7.033203,0.442993,-0.412964,0.481201,0.633728,up
460557,-18.519531,6.871094,0.589844,1.865234,1.248047,7.630859,0.442993,-0.412964,0.481201,0.633728,up
460563,-18.519531,6.871094,0.589844,1.921875,1.292969,8.013672,0.345032,-0.348145,0.564026,0.664551,up
460568,-17.328125,6.753906,-0.019531,1.896484,1.390625,8.388672,0.331238,-0.337158,0.575256,0.667542,up
460573,-17.328125,6.753906,-0.019531,1.798828,1.568359,8.814453,0.316406,-0.325745,0.586609,0.670593,up
460579,-15.523438,7.214844,-0.863281,1.798828,1.568359,8.814453,0.316406,-0.325745,0.586609,0.670593,up
460584,-14.601563,7.136719,-1.054688,1.726563,2.054688,9.763672,0.316406,-0.325745,0.586609,0.670593,up
460589,-14.296875,6.753906,-1.207031,1.726563,2.054688,9.763672,0.242554,-0.275024,0.633972,0.680908,up
460594,-13.953125,6.257812,-1.324219,1.726563,2.054688,9.763672,0.242554,-0.275024,0.633972,0.680908,up
460599,-13.265625,5.605469,-1.285156,1.865234,3.072266,11.134766,0.242554,-0.275024,0.633972,0.680908,up
460604,-13.265625,5.605469,-1.285156,1.865234,3.072266,11.134766,0.198425,-0.247437,0.657898,0.683044,up
460609,-12.078125,4.914062,-1.207031,1.865234,3.072266,11.134766,0.198425,-0.247437,0.657898,0.683044,up
460614,-11.617188,5.070312,-0.980469,1.902344,3.226563,11.529297,0.198425,-0.247437,0.657898,0.683044,up
460619,-10.816406,5.335937,-0.519531,2.060547,3.478516,11.742188,0.198425,-0.247437,0.657898,0.683044,up
460625,-10.390625,5.296875,-0.941406,2.060547,3.478516,11.742188,0.076111,-0.172974,0.710815,0.677551,up
460630,-10.3125,5.605469,-1.4375,1.917969,3.888672,12.037109,0.048096,-0.156677,0.720276,0.674072,up
460635,-10.429688,6.027344,-1.9375,1.789063,3.947266,12.199219,0.02063,-0.140747,0.728455,0.670166,up
460640,-10.816406,5.566406,-2.625,1.789063,3.947266,12.199219,0.02063,-0.140747,0.728455,0.670166,up
460645,-10.816406,5.566406,-2.625,1.628906,4.046875,12.373047,0.004395,0.126221,-0.734863,-0.666321,up
460650,-10.777344,4.953125,-2.933594,1.628906,4.046875,12.373047,0.031921,0.110291,-0.740906,-0.661743,up
460656,-10.816406,3.535156,-2.664063,1.199219,4.341797,12.701172,0.089478,0.077271,-0.749573,-0.651245,up
460661,-10.007813,3.269531,-0.789062,1.199219,4.341797,12.701172,0.117737,0.060547,-0.752258,-0.645386,up
460668,-9.742188,2.578125,0.246094,1.076172,3.998047,12.824219,0.117737,0.060547,-0.752258,-0.645386,up
460673,-9.128906,1.277344,1.320313,1.257813,3.736328,12.710938,0.117737,0.060547,-0.752258,-0.645386,up
460679,-8.476563,-1.75,2.96875,1.257813,3.736328,12.710938,0.202148,0.007019,-0.756592,-0.621765,up
460684,-8.476563,-1.75,2.96875,1.46875,3.875,12.230469,0.202148,0.007019,-0.756592,-0.621765,up
460690,-7.632812,-2.824219,3.160156,1.46875,3.875,12.230469,0.227112,-0.009033,-0.756775,-0.612915,up
460695,-6.183594,-3.820313,3.195313,1.789063,4.125,11.609375,0.277832,-0.039612,-0.755127,-0.592529,up
460700,-6.027344,-3.167969,3.464844,2.253906,4.050781,11.287109,0.303162,-0.054077,-0.753723,-0.580566,up
460705,-5.910156,-2.59375,3.886719,2.253906,4.050781,11.287109,0.352234,-0.080811,-0.75177,-0.551575,up
460710,-5.601562,-2.9375,5.148437,2.253906,4.050781,11.287109,0.373474,-0.091553,-0.751221,-0.536499,up
460715,-5.261719,-2.859375,5.800781,2.253906,4.050781,11.287109,0.391418,-0.099915,-0.750854,-0.522522,up
460720,-4.953125,-2.515625,6.535156,4.488281,3.554688,8.740234,0.41272,-0.108765,-0.750427,-0.504578,up
460725,-4.953125,-2.515625,6.535156,4.765625,3.507813,8.025391,0.429504,-0.114685,-0.750183,-0.489502,up
460730,-4.300781,-1.902344,7.753906,4.978516,3.40625,7.238281,0.429504,-0.114685,-0.750183,-0.489502,up
460735,-3.34375,-2.09375,8.792969,4.978516,3.40625,7.238281,0.463562,-0.123047,-0.750122,-0.455322,up
460740,-2.730469,-2.4375,9.210938,4.978516,3.40625,7.238281,0.463562,-0.123047,-0.750122,-0.455322,up
460745,-2.730469,-2.4375,9.210938,5.130859,2.925781,5.546875,0.476318,-0.124695,-0.750427,-0.440918,up
460750,-1.46875,-2.554688,9.253906,4.917969,2.681641,4.689453,0.476318,-0.124695,-0.750427,-0.440918,up
460755,-1.46875,-2.554688,9.253906,4.339844,2.341797,3.917969,0.499451,-0.124878,-0.751343,-0.412842,up
460760,-1.46875,-2.554688,9.253906,4.339844,2.341797,3.917969,0.514587,-0.124756,-0.751709,-0.39325,up
460765,0.449219,-1.980469,8.59375,4.339844,2.341797,3.917969,0.514587,-0.124756,-0.751709,-0.39325,up
460770,0.984375,-1.789063,7.90625,4.339844,2.341797,3.917969,0.522339,-0.128052,-0.750793,-0.383423,up
460776,1.40625,-1.710938,6.984375,-1.328125,-0.246094,1.095703,0.523254,-0.131409,-0.749756,-0.383057,up
460781,1.828125,-1.789063,6.222656,-2.341797,-0.703125,0.734375,0.522583,-0.136047,-0.748352,-0.385193,up
460786,3.167969,-1.980469,5.230469,-2.341797,-0.703125,0.734375,0.520691,-0.14093,-0.746826,-0.388855,up
460791,3.78125,-2.054688,4.769531,-2.341797,-0.703125,0.734375,0.517151,-0.147766,-0.744568,-0.395325,up
460797,4.851562,-2.054688,3.808594,-4.589844,-1.447266,-0.113281,0.513,-0.154541,-0.742187,-0.402649,up
460802,5.234375,-2.054688,3.160156,-5.060547,-1.521484,-0.339844,0.508484,-0.161133,-0.739502,-0.410583,up
460809,5.695312,-2.019531,2.007813,-5.060547,-1.521484,-0.339844,0.508484,-0.161133,-0.739502,-0.410583,up
460815,6.0,-1.828125,1.167969,-4.908203,-1.429688,-0.851562,0.508484,-0.161133,-0.739502,-0.410583,up
460820,6.5,-1.023438,-0.519531,-4.908203,-1.429688,-0.851562,0.49115,-0.182129,-0.72937,-0.439941,up
460825,6.5,-1.023438,-0.519531,-4.261719,-1.423828,-0.988281,0.485474,-0.187561,-0.726562,-0.448669,up
460831,6.84375,-0.675781,-1.207031,-4.261719,-1.423828,-0.988281,0.479736,-0.191895,-0.724487,-0.456238,up
460837,7.765625,0.433594,-1.820313,-2.765625,-1.626953,-1.148438,0.468506,-0.19812,-0.722961,-0.467468,up
460842,7.765625,0.433594,-1.820313,-2.765625,-1.626953,-1.148438,0.468506,-0.19812,-0.722961,-0.467468,up
460847,8.917969,2.539063,-2.664063,-0.652344,-1.427734,-1.142578,0.468506,-0.19812,-0.722961,-0.467468,up
460852,8.984375,3.078125,-3.164063,-0.054687,-1.277344,-1.138672,0.468506,-0.19812,-0.722961,-0.467468,up
460857,8.988281,3.574219,-3.507813,0.416016,-1.238281,-1.105469,0.468506,-0.19812,-0.722961,-0.467468,up
460863,9.375,4.339844,-3.773438,0.416016,-1.238281,-1.105469,0.447632,-0.198669,-0.731323,-0.474731,up
460868,9.488281,4.648437,-3.851563,0.976562,-1.267578,-0.992187,0.447632,-0.198669,-0.731323,-0.474731,up
460874,9.789063,5.183594,-4.234375,0.976562,-1.267578,-0.992187,0.441467,-0.195801,-0.737366,-0.47229,up
460880,9.871094,5.414062,-4.386719,0.927734,-1.101563,-0.822266,0.441467,-0.195801,-0.737366,-0.47229,up
460885,10.171875,5.605469,-4.578125,0.582031,-0.933594,-0.617187,0.441467,-0.195801,-0.737366,-0.47229,up
460890,9.949219,5.757812,-4.425781,0.339844,-0.804687,-0.523437,0.433899,-0.192383,-0.744995,-0.468689,up
460896,9.949219,5.757812,-4.425781,0.095703,-0.664062,-0.433594,0.429932,-0.191467,-0.748047,-0.467834,up
460901,10.066406,5.796875,-4.503906,-0.097656,-0.556641,-0.380859,0.428101,-0.191345,-0.749023,-0.468018,up
460907,10.175781,5.605469,-4.121094,-0.097656,-0.556641,-0.380859,0.426697,-0.191467,-0.749512,-0.468506,up
460913,10.023438,5.566406,-3.660156,-0.357422,-0.328125,-0.257813,0.426697,-0.191467,-0.749512,-0.468506,up
460918,9.605469,5.605469,-3.582031,-0.265625,-0.144531,-0.203125,0.426697,-0.191467,-0.749512,-0.468506,up
460923,9.375,5.527344,-3.582031,-0.066406,-0.023437,-0.226562,0.426697,-0.191467,-0.749512,-0.468506,up
460928,9.261719,5.566406,-3.507813,0.09375,-0.019531,-0.234375,0.426697,-0.191467,-0.749512,-0.468506,up
460933,9.066406,5.453125,-2.855469,0.09375,-0.019531,-0.234375,0.426697,-0.191467,-0.749512,-0.468506,up
460939,8.953125,5.488281,-2.585938,0.09375,-0.019531,-0.234375,0.422852,-0.189697,-0.750977,-0.470337,up
460945,8.875,5.644531,-2.550781,0.765625,-0.052734,-0.332031,0.422424,-0.18689,-0.753235,-0.468201,up
460950,8.640625,5.949219,-2.242188,0.765625,-0.052734,-0.332031,0.42218,-0.185242,-0.754761,-0.466736,up
460955,8.570313,5.988281,-1.9375,1.070313,-0.1875,-0.386719,0.42218,-0.185242,-0.754761,-0.466736,up
460960,8.496094,5.988281,-1.785156,1.070313,-0.1875,-0.386719,0.421448,-0.181885,-0.757996,-0.46344,up
460965,8.335938,5.796875,-1.707031,1.070313,-0.1875,-0.386719,0.421448,-0.181885,-0.757996,-0.46344,up
460970,8.261719,5.71875,-1.707031,0.728516,-0.242187,-0.439453,0.421448,-0.181885,-0.757996,-0.46344,up
460975,8.152344,5.644531,-1.707031,0.728516,-0.242187,-0.439453,0.420288,-0.17865,-0.761108,-0.460632,up
460980,8.074219,5.605469,-1.746094,0.728516,-0.242187,-0.439453,0.419495,-0.177368,-0.762329,-0.459839,up
460985,7.996094,5.605469,-1.820313,0.253906,-0.375,-0.488281,0.418396,-0.176453,-0.763306,-0.459473,up
460990,7.992187,5.71875,-1.976563,-0.025391,-0.396484,-0.498047,0.417236,-0.175842,-0.764038,-0.459656,up
460995,7.992187,5.71875,-1.976563,-0.275391,-0.357422,-0.478516,0.417236,-0.175842,-0.764038,-0.459656,up
461001,7.917969,5.988281,-2.394531,-0.275391,-0.357422,-0.478516,0.415833,-0.175415,-0.764465,-0.460266,up
461006,7.917969,5.988281,-2.394531,-0.640625,-0.298828,-0.402344,0.413086,-0.175415,-0.764465,-0.462769,up
461011,7.878906,5.488281,-2.359375,-0.640625,-0.298828,-0.402344,0.410522,-0.176086,-0.763672,-0.466125,up
461017,7.878906,5.105469,-2.320313,-0.640625,-0.298828,-0.402344,0.409302,-0.176514,-0.763184,-0.467896,up
461022,7.730469,5.070312,-2.359375,-0.640625,-0.298828,-0.402344,0.408508,-0.176697,-0.762756,-0.469116,up
461028,7.6875,5.183594,-2.394531,-0.316406,-0.083984,-0.226562,0.408508,-0.176697,-0.762756,-0.469116,up
461034,7.648437,5.261719,-2.359375,-0.097656,-0.060547,-0.203125,0.408508,-0.176697,-0.762756,-0.469116,up
461039,7.613281,5.375,-2.359375,0.136719,-0.052734,-0.171875,0.408508,-0.176697,-0.762756,-0.469116,up
461044,7.570312,5.527344,-2.203125,0.136719,-0.052734,-0.171875,0.408508,-0.176697,-0.762756,-0.469116,up
461050,7.574219,5.488281,-2.167969,0.681641,0.013672,-0.101563,0.408508,-0.176697,-0.762756,-0.469116,up
461055,7.570312,5.488281,-2.050781,0.681641,0.013672,-0.101563,0.406738,-0.174133,-0.764465,-0.468811,up
461060,7.648437,5.527344,-2.011719,0.681641,0.013672,-0.101563,0.406982,-0.173096,-0.765442,-0.467468,up
461065,7.574219,5.644531,-2.011719,0.835937,-0.041016,-0.115234,0.407166,-0.172119,-0.766357,-0.466125,up
461070,7.53125,5.71875,-1.9375,0.835937,-0.041016,-0.115234,0.407288,-0.171021,-0.767517,-0.464539,up
461076,7.53125,5.835937,-1.820313,0.835937,-0.041016,-0.115234,0.407288,-0.169128,-0.769531,-0.461914,up
461082,7.574219,5.835937,-1.785156,0.835937,-0.041016,-0.115234,0.407043,-0.168518,-0.770325,-0.460937,up
461087,7.535156,5.757812,-1.859375,0.269531,-0.166016,-0.115234,0.406738,-0.16803,-0.771057,-0.460266,up
461094,7.53125,5.683594,-1.9375,0.056641,-0.162109,-0.105469,0.406738,-0.16803,-0.771057,-0.460266,up
461099,7.574219,5.375,-2.011719,0.056641,-0.162109,-0.105469,0.406738,-0.16803,-0.771057,-0.460266,up
461104,7.609375,5.335937,-2.011719,-0.248047,-0.226562,-0.136719,0.406738,-0.16803,-0.771057,-0.460266,up
461110,7.53125,5.296875,-2.050781,-0.308594,-0.234375,-0.152344,0.406738,-0.16803,-0.771057,-0.460266,up
461115,7.492187,5.261719,-2.050781,-0.308594,-0.234375,-0.152344,0.403564,-0.168457,-0.771606,-0.461853,up
461120,7.496094,5.261719,-2.089844,-0.308594,-0.234375,-0.152344,0.402649,-0.168701,-0.771606,-0.462646,up
461125,7.496094,5.296875,-2.089844,-0.292969,-0.273438,-0.203125,0.400879,-0.169067,-0.771667,-0.463928,up
461130,7.417969,5.296875,-2.167969,-0.292969,-0.273438,-0.203125,0.400879,-0.169067,-0.771667,-0.463928,up
461135,7.457031,5.335937,-2.203125,-0.292969,-0.273438,-0.203125,0.400085,-0.169128,-0.771851,-0.464355,up
461140,7.453125,5.261719,-2.242188,0.023437,-0.253906,-0.162109,0.400085,-0.169128,-0.771851,-0.464355,up
461146,7.492187,5.261719,-2.242188,0.273438,-0.242187,-0.130859,0.400085,-0.169128,-0.771851,-0.464355,up
461151,7.613281,5.261719,-2.320313,0.273438,-0.242187,-0.130859,0.397522,-0.168457,-0.773865,-0.46344,up
461156,7.648437,5.296875,-2.28125,0.394531,-0.240234,-0.117188,0.397522,-0.168457,-0.773865,-0.46344,up
461161,7.648437,5.335937,-2.320313,0.394531,-0.240234,-0.117188,0.396667,-0.167786,-0.775269,-0.461975,up
461166,7.652344,5.414062,-2.394531,0.394531,-0.240234,-0.117188,0.396301,-0.16748,-0.77594,-0.461304,up
461171,7.613281,5.644531,-2.585938,0.394531,-0.240234,-0.117188,0.395935,-0.167114,-0.776672,-0.46051,up
461176,7.652344,5.71875,-2.703125,0.330078,-0.173828,-0.052734,0.395935,-0.167114,-0.776672,-0.46051,up
461181,7.613281,5.835937,-2.777344,0.330078,-0.173828,-0.052734,0.395386,-0.166626,-0.777832,-0.459229,up
461187,7.726562,5.835937,-2.894531,0.330078,-0.173828,-0.052734,0.395142,-0.166443,-0.77832,-0.458679,up
