timestamp,ax,ay,az,gx,gy,gz,qw,qx,qy,qz,label
244044,-8.363281,4.128906,2.027344,-0.048828,-0.152344,-0.019531,0.327393,-0.38739,0.503113,0.699707,up
244049,-8.359375,4.164062,1.988281,-0.0625,-0.162109,-0.025391,0.327576,-0.387207,0.50293,0.69989,up
244055,-8.359375,4.164062,1.988281,-0.074219,-0.154297,-0.039063,0.327942,-0.386841,0.502441,0.700256,up
244060,-8.242188,4.011719,1.949219,-0.091797,-0.160156,-0.056641,0.328186,-0.386719,0.502075,0.7005,up
244065,-8.203125,4.089844,1.949219,-0.091797,-0.160156,-0.056641,0.328369,-0.386597,0.50177,0.700684,up
244070,-8.207031,4.089844,1.871094,-0.091797,-0.160156,-0.056641,0.328552,-0.386536,0.501465,0.700867,up
244075,-8.246094,4.089844,1.910156,-0.091797,-0.160156,-0.056641,0.328552,-0.386536,0.501465,0.700867,up
244080,-8.246094,4.089844,1.910156,-0.082031,-0.101563,-0.054687,0.328857,-0.386414,0.500854,0.701233,up
244085,-8.285156,4.089844,1.835938,-0.066406,-0.082031,-0.050781,0.328979,-0.386353,0.500549,0.701355,up
244091,-8.320313,3.972656,1.910156,-0.066406,-0.082031,-0.050781,0.329102,-0.386353,0.500366,0.701416,up
244096,-8.320313,4.011719,1.910156,-0.011719,-0.037109,-0.056641,0.329224,-0.386414,0.500244,0.701477,up
244101,-8.359375,4.089844,1.949219,0.023437,-0.013672,-0.064453,0.329407,-0.386414,0.500183,0.701416,up
244106,-8.4375,4.089844,1.910156,0.023437,-0.013672,-0.064453,0.32959,-0.386536,0.500244,0.701294,up
244111,-8.441406,4.203125,1.988281,0.023437,-0.013672,-0.064453,0.32959,-0.386536,0.500244,0.701294,up
244117,-8.46875,4.203125,1.988281,0.115234,0.03125,-0.052734,0.32959,-0.386536,0.500244,0.701294,up
244122,-8.441406,4.242187,1.988281,0.128906,0.039063,-0.03125,0.32959,-0.386536,0.500244,0.701294,up
244127,-8.511719,4.203125,2.066406,0.128906,0.039063,-0.03125,0.32959,-0.386536,0.500244,0.701294,up
244133,-8.546875,4.089844,2.101563,0.128906,0.039063,-0.03125,0.3302,-0.386658,0.501221,0.700195,up
244139,-8.550781,4.050781,2.101563,0.136719,0.025391,0.029297,0.3302,-0.386658,0.501221,0.700195,up
244144,-8.550781,4.089844,2.140625,0.136719,0.025391,0.029297,0.330261,-0.386536,0.50177,0.699829,up
244149,-8.585938,4.128906,2.179688,0.144531,-0.001953,0.027344,0.330322,-0.386475,0.502075,0.699585,up
244154,-8.628906,4.203125,2.140625,0.144531,-0.001953,0.027344,0.330383,-0.386292,0.50238,0.699402,up
244159,-8.585938,4.242187,2.101563,0.154297,-0.023437,0.035156,0.330505,-0.386169,0.502686,0.699219,up
244165,-8.585938,4.242187,2.101563,0.154297,-0.023437,0.029297,0.33075,-0.385925,0.503296,0.698853,up
244170,-8.546875,4.320312,2.101563,0.146484,-0.033203,0.035156,0.330872,-0.385681,0.503601,0.698669,up
244175,-8.585938,4.28125,2.027344,0.136719,-0.035156,0.023437,0.330994,-0.385559,0.503906,0.698486,up
244181,-8.585938,4.242187,2.027344,0.136719,-0.035156,0.023437,0.331116,-0.385376,0.504089,0.698364,up
244186,-8.585938,4.203125,2.027344,0.103516,-0.056641,0.007813,0.331116,-0.385376,0.504089,0.698364,up
244191,-8.46875,4.242187,1.988281,0.066406,-0.050781,-0.009766,0.331116,-0.385376,0.504089,0.698364,up
244197,-8.4375,4.203125,1.949219,0.025391,-0.052734,-0.019531,0.331116,-0.385376,0.504089,0.698364,up
244203,-8.441406,4.164062,1.910156,-0.003906,-0.052734,-0.03125,0.331116,-0.385376,0.504089,0.698364,up
244209,-8.398438,4.128906,1.949219,-0.060547,-0.037109,-0.044922,0.331116,-0.385376,0.504089,0.698364,up
244214,-8.441406,4.089844,1.949219,-0.060547,-0.037109,-0.044922,0.331848,-0.385071,0.504272,0.69812,up
244219,-8.402344,4.089844,1.988281,-0.060547,-0.037109,-0.044922,0.331909,-0.385132,0.504089,0.69812,up
244224,-8.363281,4.089844,1.988281,-0.068359,-0.015625,-0.029297,0.331909,-0.385193,0.503967,0.698181,up
244229,-8.359375,4.128906,1.949219,-0.068359,-0.015625,-0.029297,0.33197,-0.385315,0.503784,0.698242,up
244235,-8.363281,4.128906,1.910156,-0.068359,-0.015625,-0.029297,0.331909,-0.385559,0.503601,0.698242,up
244240,-8.359375,4.128906,1.949219,0.015625,0.027344,0.0,0.331909,-0.38562,0.503662,0.698181,up
244246,-8.28125,4.164062,1.871094,0.015625,0.027344,0.0,0.331848,-0.385681,0.503784,0.698059,up
244253,-8.320313,4.164062,1.949219,0.103516,0.046875,0.03125,0.331848,-0.385681,0.503784,0.698059,up
244258,-8.285156,4.203125,1.949219,0.103516,0.046875,0.03125,0.331848,-0.385681,0.503784,0.698059,up
244263,-8.28125,4.203125,1.910156,0.166016,0.076172,0.052734,0.331848,-0.385681,0.503784,0.698059,up
244268,-8.246094,4.203125,1.949219,0.169922,0.091797,0.0625,0.331848,-0.385681,0.503784,0.698059,up
244273,-8.28125,4.242187,1.910156,0.183594,0.099609,0.076172,0.331848,-0.385681,0.503784,0.698059,up
244278,-8.28125,4.28125,1.910156,0.183594,0.099609,0.076172,0.331543,-0.385559,0.506165,0.696594,up
244284,-8.324219,4.242187,1.871094,0.142578,0.130859,0.095703,0.331543,-0.385559,0.506165,0.696594,up
244289,-8.4375,4.242187,1.949219,0.134766,0.128906,0.101563,0.331238,-0.385559,0.50708,0.696045,up
244294,-8.402344,4.203125,1.949219,0.134766,0.128906,0.101563,0.331055,-0.385559,0.507568,0.695801,up
244299,-8.472656,4.203125,1.949219,0.115234,0.125,0.09375,0.331055,-0.385559,0.507568,0.695801,up
244305,-8.441406,4.28125,1.910156,0.103516,0.117188,0.070312,0.331055,-0.385559,0.507568,0.695801,up
244310,-8.402344,4.355469,1.910156,0.103516,0.117188,0.070312,0.330322,-0.385742,0.509155,0.694885,up
244316,-8.441406,4.433594,1.871094,0.103516,0.117188,0.070312,0.3302,-0.385803,0.509399,0.694702,up
244321,-8.441406,4.433594,1.871094,0.107422,0.107422,0.025391,0.330139,-0.385925,0.509766,0.694458,up
244327,-8.398438,4.585937,1.871094,0.107422,0.107422,0.025391,0.330078,-0.385986,0.510071,0.694214,up
244332,-8.398438,4.585937,1.835938,0.085937,0.097656,0.021484,0.330078,-0.385986,0.510071,0.694214,up
244337,-8.398438,4.585937,1.835938,0.058594,0.089844,0.025391,0.330078,-0.385986,0.510071,0.694214,up
244342,-8.402344,4.546875,1.835938,0.035156,0.089844,0.035156,0.330078,-0.385986,0.510071,0.694214,up
244347,-8.359375,4.585937,1.871094,0.035156,0.089844,0.035156,0.330078,-0.385986,0.510071,0.694214,up
244353,-8.363281,4.511719,1.910156,0.035156,0.089844,0.035156,0.329407,-0.386536,0.511047,0.693481,up
244358,-8.363281,4.511719,1.910156,-0.035156,0.074219,0.085937,0.329407,-0.386536,0.511047,0.693481,up
244364,-8.320313,4.546875,1.871094,-0.035156,0.074219,0.085937,0.328491,-0.386719,0.511353,0.693604,up
244369,-8.324219,4.625,1.835938,-0.035156,0.074219,0.085937,0.328491,-0.386719,0.511353,0.693604,up
244374,-8.28125,4.625,1.910156,-0.101563,0.089844,0.183594,0.328491,-0.386719,0.511353,0.693604,up
244379,-8.28125,4.625,1.835938,-0.101563,0.089844,0.183594,0.327576,-0.386841,0.511475,0.693848,up
244385,-8.320313,4.664062,1.796875,-0.101563,0.089844,0.183594,0.326294,-0.386841,0.51178,0.694275,up
244390,-8.28125,4.625,1.71875,-0.074219,0.123047,0.283203,0.326294,-0.386841,0.51178,0.694275,up
244395,-8.320313,4.625,1.796875,-0.074219,0.123047,0.283203,0.325562,-0.38678,0.512024,0.694458,up
244400,-8.28125,4.585937,1.757813,-0.074219,0.123047,0.283203,0.324097,-0.386597,0.512573,0.694824,up
244406,-8.320313,4.546875,1.757813,-0.037109,0.167969,0.351563,0.323181,-0.386475,0.513,0.695007,up
244411,-8.324219,4.472656,1.796875,-0.037109,0.167969,0.351563,0.322327,-0.386353,0.513489,0.695129,up
244416,-8.363281,4.546875,1.71875,-0.037109,0.167969,0.351563,0.321533,-0.38623,0.513916,0.695251,up
244421,-8.363281,4.546875,1.71875,-0.037109,0.167969,0.351563,0.321533,-0.38623,0.513916,0.695251,up
244427,-8.324219,4.625,1.644531,0.013672,0.185547,0.371094,0.319763,-0.385986,0.514954,0.695374,up
244432,-8.324219,4.664062,1.71875,0.013672,0.185547,0.371094,0.318909,-0.385864,0.515564,0.695435,up
244437,-8.324219,4.703125,1.644531,0.013672,0.185547,0.371094,0.317993,-0.385742,0.516174,0.695435,up
244443,-8.324219,4.777344,1.644531,0.039063,0.240234,0.367188,0.317993,-0.385742,0.516174,0.695435,up
244448,-8.363281,4.855469,1.644531,0.044922,0.230469,0.371094,0.317993,-0.385742,0.516174,0.695435,up
244454,-8.363281,4.933594,1.679688,0.044922,0.230469,0.371094,0.317993,-0.385742,0.516174,0.695435,up
244459,-8.4375,5.007812,1.679688,0.058594,0.234375,0.375,0.317993,-0.385742,0.516174,0.695435,up
244464,-8.398438,5.007812,1.71875,0.03125,0.226562,0.386719,0.317993,-0.385742,0.516174,0.695435,up
244469,-8.402344,5.085937,1.679688,0.03125,0.226562,0.386719,0.312561,-0.385132,0.52002,0.695374,up
244474,-8.398438,5.125,1.757813,0.03125,0.226562,0.386719,0.311584,-0.38501,0.52063,0.695435,up
244479,-8.398438,5.160156,1.71875,0.03125,0.226562,0.386719,0.310547,-0.384888,0.52124,0.695496,up
244485,-8.398438,5.160156,1.757813,-0.035156,0.205078,0.417969,0.308533,-0.384583,0.522217,0.695801,up
244490,-8.402344,5.199219,1.757813,-0.035156,0.205078,0.417969,0.307434,-0.38446,0.522705,0.696045,up
244495,-8.398438,5.160156,1.757813,-0.121094,0.201172,0.460937,0.307434,-0.38446,0.522705,0.696045,up
244500,-8.4375,5.199219,1.71875,-0.121094,0.201172,0.460937,0.305054,-0.384155,0.523499,0.696655,up
244505,-8.507813,5.160156,1.757813,-0.121094,0.201172,0.460937,0.303711,-0.384033,0.523926,0.697021,up
244510,-8.550781,5.046875,1.796875,-0.171875,0.191406,0.490234,0.303711,-0.384033,0.523926,0.697021,up
244515,-8.550781,5.007812,1.835938,-0.181641,0.185547,0.492187,0.302368,-0.38385,0.524292,0.697388,up
244520,-8.550781,4.894531,1.871094,-0.181641,0.185547,0.492187,0.299927,-0.383545,0.524902,0.698181,up
244525,-8.550781,4.894531,1.835938,-0.181641,0.185547,0.492187,0.298828,-0.383362,0.525146,0.698547,up
244530,-8.546875,4.816406,1.910156,-0.115234,0.134766,0.443359,0.298828,-0.383362,0.525146,0.698547,up
244535,-8.507813,4.777344,1.910156,-0.115234,0.134766,0.443359,0.297607,-0.383118,0.525513,0.698914,up
244540,-8.441406,4.855469,1.949219,-0.048828,0.117188,0.400391,0.297607,-0.383118,0.525513,0.698914,up
244545,-8.402344,4.816406,1.871094,-0.048828,0.117188,0.400391,0.294861,-0.382385,0.526611,0.699646,up
244550,-8.363281,4.816406,1.910156,0.039063,0.099609,0.355469,0.294861,-0.382385,0.526611,0.699646,up
244555,-8.359375,4.894531,1.835938,0.076172,0.103516,0.328125,0.294006,-0.382019,0.527161,0.699829,up
244560,-8.324219,4.96875,1.835938,0.076172,0.103516,0.328125,0.292786,-0.38147,0.528137,0.69989,up
244565,-8.28125,4.96875,1.757813,0.076172,0.103516,0.328125,0.292236,-0.381165,0.528687,0.699829,up
244570,-8.28125,5.085937,1.757813,0.076172,0.103516,0.328125,0.292236,-0.381165,0.528687,0.699829,up
244575,-8.28125,5.085937,1.71875,0.111328,0.083984,0.269531,0.29126,-0.380615,0.529785,0.699768,up
244580,-8.203125,5.160156,1.757813,0.111328,0.083984,0.269531,0.290833,-0.380371,0.530212,0.699768,up
244585,-8.167969,5.125,1.796875,0.111328,0.083984,0.269531,0.290833,-0.380371,0.530212,0.699768,up
244590,-8.125,5.160156,1.71875,0.041016,0.080078,0.21875,0.289917,-0.380005,0.530884,0.699768,up
244595,-8.128906,5.125,1.679688,-0.066406,0.074219,0.195312,0.289917,-0.380005,0.530884,0.699768,up
244600,-8.089844,5.125,1.679688,-0.066406,0.074219,0.195312,0.289368,-0.379944,0.531067,0.69989,up
244605,-8.089844,5.046875,1.71875,-0.164062,0.076172,0.167969,0.288879,-0.379883,0.531128,0.700073,up
244610,-8.089844,5.046875,1.644531,-0.164062,0.076172,0.167969,0.28833,-0.379883,0.531128,0.700317,up
244615,-8.046875,5.007812,1.605469,-0.164062,0.076172,0.167969,0.287231,-0.380066,0.530884,0.700867,up
244620,-8.019531,5.007812,1.605469,-0.164062,0.076172,0.167969,0.287231,-0.380066,0.530884,0.700867,up
244625,-8.019531,4.933594,1.566406,-0.28125,0.095703,0.121094,0.287231,-0.380066,0.530884,0.700867,up
244630,-8.019531,4.933594,1.605469,-0.28125,0.095703,0.121094,0.286011,-0.380432,0.530273,0.701599,up
244635,-8.046875,4.933594,1.566406,-0.28125,0.095703,0.121094,0.28479,-0.38092,0.529663,0.702271,up
244640,-8.019531,4.855469,1.527344,-0.28125,0.095703,0.121094,0.28479,-0.38092,0.529663,0.702271,up
244645,-8.050781,4.855469,1.605469,-0.199219,0.113281,0.091797,0.28479,-0.38092,0.529663,0.702271,up
244650,-8.019531,4.777344,1.605469,-0.199219,0.113281,0.091797,0.283752,-0.381348,0.529236,0.70282,up
244655,-8.015625,4.816406,1.605469,-0.199219,0.113281,0.091797,0.283264,-0.381592,0.529114,0.703003,up
244660,-8.046875,4.738281,1.566406,-0.123047,0.115234,0.082031,0.283264,-0.381592,0.529114,0.703003,up
244665,-8.019531,4.738281,1.605469,-0.082031,0.117188,0.070312,0.282104,-0.382141,0.529053,0.703186,up
244670,-8.015625,4.816406,1.605469,-0.082031,0.117188,0.070312,0.28186,-0.382263,0.529114,0.703186,up
244675,-8.046875,4.894531,1.566406,-0.082031,0.117188,0.070312,0.28186,-0.382263,0.529114,0.703186,up
244680,-8.164063,4.96875,1.527344,0.029297,0.107422,0.042969,0.28186,-0.382263,0.529114,0.703186,up
244685,-8.207031,5.007812,1.605469,0.072266,0.087891,0.023437,0.28186,-0.382263,0.529114,0.703186,up
244690,-8.246094,5.160156,1.566406,0.072266,0.087891,0.023437,0.281311,-0.38269,0.529846,0.702637,up
244695,-8.203125,5.199219,1.605469,0.072266,0.087891,0.023437,0.281311,-0.38269,0.529846,0.702637,up
244700,-8.207031,5.199219,1.527344,0.044922,0.052734,0.003906,0.281311,-0.38269,0.529846,0.702637,up
244705,-8.167969,5.199219,1.488281,0.044922,0.052734,0.003906,0.281189,-0.382813,0.530151,0.702332,up
244710,-8.167969,5.199219,1.527344,0.044922,0.052734,0.003906,0.281189,-0.382874,0.530273,0.702271,up
244715,-8.089844,5.199219,1.488281,-0.035156,0.048828,0.0,0.281189,-0.382874,0.530273,0.702271,up
244720,-8.125,5.160156,1.414063,-0.035156,0.048828,0.0,0.281067,-0.383057,0.530334,0.702148,up
244725,-8.125,5.160156,1.414063,-0.082031,0.037109,0.001953,0.280945,-0.383179,0.530273,0.702148,up
244730,-8.050781,5.125,1.453125,-0.107422,0.041016,0.005859,0.280823,-0.383301,0.530212,0.702209,up
244735,-8.015625,5.085937,1.414063,-0.107422,0.041016,0.005859,0.280701,-0.383423,0.53009,0.702271,up
244740,-8.050781,5.085937,1.414063,-0.125,0.050781,0.005859,0.280518,-0.383606,0.529907,0.702393,up
244745,-8.019531,5.046875,1.335938,-0.125,0.050781,0.005859,0.280334,-0.383789,0.529785,0.702515,up
244750,-7.9375,5.007812,1.335938,-0.125,0.050781,0.005859,0.280151,-0.383972,0.529602,0.702576,up
244755,-7.902344,4.96875,1.335938,-0.113281,0.076172,0.001953,0.279724,-0.384399,0.529297,0.702759,up
244760,-7.902344,4.96875,1.335938,-0.089844,0.107422,0.009766,0.279724,-0.384399,0.529297,0.702759,up
244766,-7.898437,4.96875,1.296875,-0.078125,0.123047,0.013672,0.27948,-0.384644,0.529236,0.702759,up
244771,-7.859375,4.933594,1.296875,-0.078125,0.123047,0.013672,0.278931,-0.385193,0.529175,0.702698,up
244776,-7.824219,4.96875,1.261719,-0.078125,0.123047,0.013672,0.278625,-0.385437,0.529236,0.702637,up
244781,-7.824219,4.96875,1.296875,-0.078125,0.123047,0.013672,0.278381,-0.385681,0.529297,0.702515,up
244786,-7.824219,4.933594,1.261719,-0.017578,0.185547,0.041016,0.278015,-0.385986,0.52948,0.702393,up
244791,-7.859375,4.894531,1.296875,-0.007813,0.203125,0.052734,0.277649,-0.386292,0.529602,0.702271,up
244796,-7.859375,4.894531,1.296875,-0.007813,0.203125,0.052734,0.277344,-0.386597,0.529785,0.702087,up
244802,-7.898437,4.894531,1.296875,-0.007813,0.203125,0.052734,0.276917,-0.386902,0.530029,0.701965,up
244807,-7.9375,4.933594,1.335938,0.007813,0.21875,0.070312,0.276489,-0.387268,0.530212,0.701721,up
244812,-7.976562,4.933594,1.414063,0.007813,0.21875,0.070312,0.276123,-0.387512,0.530457,0.701599,up
244818,-8.050781,4.933594,1.488281,0.007813,0.21875,0.070312,0.275696,-0.387756,0.530701,0.701416,up
244823,-8.050781,4.96875,1.453125,0.027344,0.210937,0.078125,0.275696,-0.387756,0.530701,0.701416,up
244828,-8.050781,4.96875,1.453125,0.033203,0.193359,0.095703,0.275696,-0.387756,0.530701,0.701416,up
244833,-8.050781,4.933594,1.527344,0.033203,0.193359,0.095703,0.274597,-0.388428,0.531555,0.700867,up
244839,-8.015625,4.96875,1.488281,0.072266,0.148437,0.101563,0.274597,-0.388428,0.531555,0.700867,up
244844,-7.976562,4.96875,1.453125,0.080078,0.142578,0.101563,0.274597,-0.388428,0.531555,0.700867,up
244850,-8.015625,4.933594,1.453125,0.076172,0.125,0.105469,0.274597,-0.388428,0.531555,0.700867,up
244855,-7.902344,4.933594,1.453125,0.076172,0.125,0.105469,0.273376,-0.388733,0.532837,0.700195,up
244861,-7.902344,4.894531,1.414063,0.076172,0.097656,0.097656,0.273376,-0.388733,0.532837,0.700195,up
244866,-7.863281,4.894531,1.453125,0.072266,0.091797,0.101563,0.273376,-0.388733,0.532837,0.700195,up
244872,-7.902344,4.96875,1.414063,0.072266,0.091797,0.101563,0.272522,-0.388672,0.533997,0.699646,up
244877,-7.902344,4.96875,1.335938,0.037109,0.101563,0.066406,0.272278,-0.388733,0.53418,0.699585,up
244882,-7.9375,5.007812,1.375,0.017578,0.113281,0.042969,0.272034,-0.388855,0.534363,0.699463,up
244888,-7.898437,5.046875,1.488281,0.017578,0.113281,0.042969,0.271851,-0.388977,0.534485,0.699341,up
244894,-7.9375,5.007812,1.453125,-0.025391,0.121094,0.013672,0.271851,-0.388977,0.534485,0.699341,up
244900,-7.9375,4.96875,1.527344,-0.082031,0.128906,-0.003906,0.271851,-0.388977,0.534485,0.699341,up
244905,-7.976562,4.96875,1.527344,-0.082031,0.128906,-0.003906,0.271179,-0.389709,0.534546,0.699158,up
244910,-7.898437,4.933594,1.605469,-0.082031,0.128906,-0.003906,0.270935,-0.390015,0.534424,0.699158,up
244916,-7.898437,4.933594,1.679688,-0.162109,0.121094,-0.03125,0.270935,-0.390015,0.534424,0.699158,up
244921,-7.9375,4.933594,1.71875,-0.162109,0.121094,-0.03125,0.270203,-0.391052,0.533813,0.699341,up
244926,-7.9375,4.894531,1.757813,-0.162109,0.121094,-0.03125,0.269897,-0.391418,0.533508,0.699463,up
244931,-7.898437,4.855469,1.71875,-0.162109,0.121094,-0.03125,0.269897,-0.391418,0.533508,0.699463,up
244936,-7.859375,4.855469,1.71875,-0.210937,0.087891,-0.037109,0.269348,-0.392151,0.532837,0.699829,up
244941,-7.859375,4.855469,1.757813,-0.224609,0.076172,-0.027344,0.269104,-0.392456,0.532471,0.700073,up
244947,-7.824219,4.777344,1.796875,-0.224609,0.076172,-0.027344,0.26886,-0.392761,0.532104,0.700256,up
244952,-7.898437,4.777344,1.796875,-0.207031,0.068359,-0.03125,0.268616,-0.393066,0.531738,0.700439,up
244958,-7.898437,4.816406,1.871094,-0.189453,0.052734,-0.03125,0.268372,-0.393372,0.531372,0.700623,up
244963,-7.9375,4.777344,1.757813,-0.189453,0.052734,-0.03125,0.268188,-0.393616,0.531067,0.700745,up
244969,-8.019531,4.816406,1.835938,-0.144531,0.048828,-0.056641,0.268188,-0.393616,0.531067,0.700745,up
244975,-8.085938,4.894531,1.871094,-0.130859,0.023437,-0.085937,0.268188,-0.393616,0.531067,0.700745,up
244980,-8.085938,4.933594,1.835938,-0.109375,0.013672,-0.115234,0.268066,-0.394409,0.530151,0.70105,up
244985,-8.085938,4.96875,1.871094,-0.109375,0.013672,-0.115234,0.268188,-0.394653,0.529846,0.701111,up
244990,-8.046875,5.007812,1.796875,-0.099609,-0.027344,-0.175781,0.268188,-0.394653,0.529846,0.701111,up
244995,-8.019531,5.007812,1.796875,-0.099609,-0.027344,-0.175781,0.268677,-0.395142,0.529114,0.701172,up
245000,-8.019531,5.046875,1.835938,-0.099609,-0.027344,-0.175781,0.269043,-0.395386,0.528748,0.701233,up
245005,-8.015625,5.007812,1.757813,-0.144531,-0.074219,-0.25,0.269043,-0.395386,0.528748,0.701233,up
245010,-8.089844,4.96875,1.796875,-0.195312,-0.078125,-0.292969,0.269043,-0.395386,0.528748,0.701233,up
245016,-8.128906,4.894531,1.796875,-0.271484,-0.101563,-0.367188,0.270264,-0.396423,0.526794,0.701599,up
245021,-8.089844,4.816406,1.835938,-0.271484,-0.101563,-0.367188,0.271301,-0.3974,0.525024,0.702026,up
245026,-8.125,4.738281,1.835938,-0.271484,-0.101563,-0.367188,0.271851,-0.397949,0.523987,0.702271,up
245031,-8.164063,4.625,1.871094,-0.271484,-0.101563,-0.367188,0.272583,-0.39856,0.522827,0.702515,up
245036,-8.207031,4.472656,1.871094,-0.271484,-0.101563,-0.367188,0.272583,-0.39856,0.522827,0.702515,up
245041,-8.128906,4.472656,1.910156,-0.361328,-0.15625,-0.515625,0.272583,-0.39856,0.522827,0.702515,up
245046,-8.050781,4.394531,1.910156,-0.349609,-0.177734,-0.552734,0.275024,-0.400452,0.518982,0.703308,up
245051,-8.089844,4.394531,1.949219,-0.349609,-0.177734,-0.552734,0.276001,-0.401062,0.5177,0.703491,up
245056,-8.128906,4.433594,1.949219,-0.349609,-0.177734,-0.552734,0.276001,-0.401062,0.5177,0.703491,up
245061,-8.203125,4.472656,1.949219,-0.189453,-0.267578,-0.736328,0.276001,-0.401062,0.5177,0.703491,up
245066,-8.246094,4.546875,1.988281,-0.189453,-0.267578,-0.736328,0.278564,-0.402344,0.515137,0.703674,up
245071,-8.246094,4.546875,1.988281,-0.189453,-0.267578,-0.736328,0.281799,-0.403503,0.512573,0.703613,up
245076,-8.441406,4.738281,2.101563,-0.189453,-0.267578,-0.736328,0.281799,-0.403503,0.512573,0.703613,up
245081,-8.546875,4.855469,2.101563,-0.152344,-0.388672,-0.890625,0.281799,-0.403503,0.512573,0.703613,up
245086,-8.628906,4.933594,2.066406,-0.152344,-0.388672,-0.890625,0.2854,-0.404724,0.509888,0.70343,up
245091,-8.628906,4.96875,2.066406,-0.152344,-0.388672,-0.890625,0.287476,-0.405273,0.50824,0.70343,up
245096,-8.707031,5.085937,2.066406,-0.332031,-0.556641,-0.949219,0.287476,-0.405273,0.50824,0.70343,up
245101,-8.625,5.125,2.101563,-0.332031,-0.556641,-0.949219,0.291626,-0.406311,0.504639,0.703735,up
245107,-8.625,5.125,2.101563,-0.515625,-0.628906,-0.953125,0.29541,-0.407166,0.500549,0.70459,up
245112,-8.550781,5.007812,2.101563,-0.609375,-0.652344,-0.955078,0.297546,-0.407715,0.497864,0.705261,up
245118,-8.507813,4.777344,2.101563,-0.609375,-0.652344,-0.955078,0.299438,-0.408203,0.495117,0.706116,up
245123,-8.550781,4.664062,2.101563,-0.609375,-0.652344,-0.955078,0.299438,-0.408203,0.495117,0.706116,up
245128,-8.550781,4.546875,2.140625,-0.773437,-0.720703,-0.921875,0.299438,-0.408203,0.495117,0.706116,up
245133,-8.507813,4.394531,2.101563,-0.84375,-0.734375,-0.933594,0.304382,-0.409546,0.486633,0.709106,up
245140,-8.472656,4.128906,2.101563,-0.84375,-0.734375,-0.933594,0.304382,-0.409546,0.486633,0.709106,up
245145,-8.398438,3.9375,2.140625,-0.84375,-0.734375,-0.933594,0.304382,-0.409546,0.486633,0.709106,up
245151,-8.402344,3.820313,2.21875,-0.820312,-0.761719,-0.994141,0.304382,-0.409546,0.486633,0.709106,up
245156,-8.402344,3.78125,2.140625,-0.820312,-0.761719,-0.994141,0.311279,-0.411377,0.47406,0.713562,up
245161,-8.402344,3.78125,2.140625,-0.65625,-0.730469,-1.019531,0.313293,-0.411865,0.470825,0.714539,up
245166,-8.398438,3.9375,2.179688,-0.65625,-0.730469,-1.019531,0.315063,-0.412231,0.468201,0.715271,up
245172,-8.398438,3.972656,2.179688,-0.572266,-0.716797,-1.027344,0.319397,-0.413025,0.462585,0.716492,up
245177,-8.507813,4.164062,2.21875,-0.572266,-0.716797,-1.027344,0.321472,-0.413391,0.460144,0.716919,up
245183,-8.550781,4.28125,2.257813,-0.572266,-0.716797,-1.027344,0.323425,-0.413757,0.457886,0.717285,up
245188,-8.625,4.28125,2.332031,-0.445312,-0.589844,-0.957031,0.325378,-0.414185,0.455627,0.717651,up
245193,-8.785156,4.320312,2.332031,-0.445312,-0.589844,-0.957031,0.327393,-0.414612,0.453125,0.718079,up
245198,-8.742188,4.28125,2.410156,-0.445312,-0.589844,-0.957031,0.327393,-0.414612,0.453125,0.718079,up
245203,-8.742188,4.28125,2.410156,-0.591797,-0.494141,-0.837891,0.330505,-0.415527,0.448669,0.718872,up
245208,-8.78125,4.203125,2.5625,-0.591797,-0.494141,-0.837891,0.331848,-0.416077,0.44635,0.719421,up
245213,-8.785156,4.011719,2.5625,-0.591797,-0.494141,-0.837891,0.331848,-0.416077,0.44635,0.719421,up
245218,-8.78125,3.898438,2.5625,-0.734375,-0.470703,-0.662109,0.331848,-0.416077,0.44635,0.719421,up
245223,-8.851563,3.707031,2.640625,-0.759766,-0.462891,-0.619141,0.331848,-0.416077,0.44635,0.719421,up
245228,-8.894531,3.589844,2.640625,-0.769531,-0.474609,-0.580078,0.331848,-0.416077,0.44635,0.719421,up
245233,-8.972656,3.550781,2.675781,-0.769531,-0.474609,-0.580078,0.336609,-0.418396,0.434265,0.723206,up
245239,-9.050781,3.515625,2.714844,-0.769531,-0.474609,-0.580078,0.336609,-0.418396,0.434265,0.723206,up
245245,-9.050781,3.515625,2.792969,-0.650391,-0.513672,-0.603516,0.338379,-0.419006,0.429626,0.724792,up
245251,-9.046875,3.476563,2.792969,-0.576172,-0.568359,-0.699219,0.339539,-0.419312,0.427063,0.725586,up
245256,-9.089844,3.589844,2.792969,-0.576172,-0.568359,-0.699219,0.340637,-0.419495,0.425049,0.726196,up
245261,-9.011719,3.707031,2.792969,-0.533203,-0.601562,-0.787109,0.342041,-0.419678,0.422668,0.726807,up
245266,-8.933594,3.742188,2.792969,-0.533203,-0.601562,-0.787109,0.343384,-0.4198,0.420532,0.727295,up
245272,-8.820313,3.859375,2.675781,-0.533203,-0.601562,-0.787109,0.346558,-0.420227,0.415527,0.728455,up
245277,-8.746094,3.820313,2.714844,-0.685547,-0.601562,-0.792969,0.346558,-0.420227,0.415527,0.728455,up
245282,-8.707031,3.707031,2.832031,-0.685547,-0.601562,-0.792969,0.349182,-0.420898,0.4104,0.729736,up
245287,-8.546875,3.476563,2.832031,-0.685547,-0.601562,-0.792969,0.349182,-0.420898,0.4104,0.729736,up
245292,-8.441406,3.398438,2.753906,-0.914062,-0.556641,-0.732422,0.350159,-0.421326,0.407654,0.73053,up
245297,-8.441406,3.398438,2.753906,-0.914062,-0.556641,-0.732422,0.350159,-0.421326,0.407654,0.73053,up
245303,-8.441406,3.398438,2.753906,-1.201172,-0.410156,-0.597656,0.351868,-0.423523,0.398376,0.733582,up
245309,-8.324219,2.671875,2.945313,-1.201172,-0.410156,-0.597656,0.352051,-0.424438,0.395203,0.73468,up
245315,-8.28125,2.632813,2.90625,-1.212891,-0.328125,-0.509766,0.352051,-0.424438,0.395203,0.73468,up
245320,-8.320313,2.519531,2.945313,-1.150391,-0.3125,-0.470703,0.352051,-0.424438,0.395203,0.73468,up
245325,-8.363281,2.441406,3.023438,-1.039063,-0.291016,-0.431641,0.352051,-0.424438,0.395203,0.73468,up
245331,-8.441406,2.441406,3.0625,-0.90625,-0.251953,-0.417969,0.352051,-0.424438,0.395203,0.73468,up
245336,-8.507813,2.328125,3.023438,-0.783203,-0.212891,-0.414062,0.352356,-0.42926,0.379517,0.73999,up
245341,-8.625,2.480469,3.136719,-0.783203,-0.212891,-0.414062,0.352356,-0.42926,0.379517,0.73999,up
245347,-8.628906,2.328125,3.214844,-0.478516,-0.195312,-0.519531,0.352356,-0.42926,0.379517,0.73999,up
245352,-8.664063,2.363281,3.289063,-0.478516,-0.195312,-0.519531,0.354004,-0.430969,0.374268,0.740845,up
245357,-8.855469,2.519531,3.253906,-0.478516,-0.195312,-0.519531,0.354004,-0.430969,0.374268,0.740845,up
245362,-8.890625,2.59375,3.214844,-0.478516,-0.195312,-0.519531,0.35553,-0.432129,0.370972,0.741089,up
245367,-8.855469,2.59375,3.253906,-0.576172,-0.242187,-0.697266,0.35553,-0.432129,0.370972,0.741089,up
245372,-8.894531,2.632813,3.367188,-0.683594,-0.242187,-0.71875,0.356506,-0.432922,0.368835,0.741272,up
245377,-8.890625,2.671875,3.40625,-0.683594,-0.242187,-0.71875,0.358093,-0.434448,0.364441,0.741699,up
245382,-8.933594,2.632813,3.40625,-0.683594,-0.242187,-0.71875,0.358093,-0.434448,0.364441,0.741699,up
245387,-8.929688,2.480469,3.40625,-1.064453,-0.226562,-0.728516,0.358093,-0.434448,0.364441,0.741699,up
245393,-8.824219,2.328125,3.558594,-1.064453,-0.226562,-0.728516,0.359558,-0.437927,0.355835,0.743164,up
245399,-8.78125,2.171875,3.636719,-1.064453,-0.226562,-0.728516,0.359802,-0.439026,0.352905,0.743835,up
245405,-8.746094,2.171875,3.558594,-1.248047,-0.261719,-0.679687,0.359924,-0.44043,0.349121,0.74469,up
245410,-8.703125,2.210938,3.367188,-1.253906,-0.232422,-0.667969,0.359924,-0.44043,0.349121,0.74469,up
245415,-8.820313,1.789063,3.480469,-1.253906,-0.232422,-0.667969,0.359924,-0.44043,0.349121,0.74469,up
245420,-8.78125,1.714844,3.597656,-1.253906,-0.232422,-0.667969,0.360168,-0.444031,0.339661,0.746826,up
245425,-8.824219,1.597656,3.636719,-1.160156,-0.267578,-0.685547,0.360168,-0.444031,0.339661,0.746826,up
245430,-8.742188,1.445313,3.636719,-1.160156,-0.267578,-0.685547,0.360596,-0.446289,0.333374,0.748108,up
245435,-8.703125,1.292969,3.636719,-1.160156,-0.267578,-0.685547,0.360596,-0.446289,0.333374,0.748108,up
245440,-8.667969,1.332031,3.558594,-1.160156,-0.267578,-0.685547,0.361816,-0.448364,0.327148,0.749023,up
245445,-8.746094,1.332031,3.558594,-0.894531,-0.332031,-0.927734,0.361816,-0.448364,0.327148,0.749023,up
245450,-8.746094,0.949219,3.480469,-0.894531,-0.332031,-0.927734,0.36377,-0.450256,0.321167,0.749512,up
245456,-8.855469,0.679687,3.671875,-0.894531,-0.332031,-0.927734,0.365051,-0.451294,0.317871,0.749695,up
245462,-8.96875,0.566406,3.75,-1.025391,-0.421875,-1.287109,0.365051,-0.451294,0.317871,0.749695,up
245467,-8.96875,0.566406,3.75,-1.025391,-0.421875,-1.287109,0.36792,-0.45343,0.310791,0.75,up
245472,-9.207031,0.027344,4.019531,-1.025391,-0.421875,-1.287109,0.36792,-0.45343,0.310791,0.75,up
245477,-9.472656,-0.203125,4.210937,-1.125,-0.546875,-1.578125,0.36792,-0.45343,0.310791,0.75,up
245482,-9.550781,0.335938,4.324219,-1.076172,-0.611328,-1.732422,0.376465,-0.458069,0.293518,0.749878,up
245487,-9.738281,0.679687,4.363281,-1.076172,-0.611328,-1.732422,0.379456,-0.459167,0.288635,0.749573,up
245492,-9.699219,1.140625,4.515625,-1.076172,-0.611328,-1.732422,0.379456,-0.459167,0.288635,0.749573,up
245497,-9.851563,1.484375,4.476562,-0.986328,-0.878906,-2.175781,0.379456,-0.459167,0.288635,0.749573,up
245502,-9.855469,1.90625,4.441406,-0.986328,-0.878906,-2.175781,0.389832,-0.461853,0.272888,0.748474,up
245507,-9.773438,2.097656,4.402344,-0.986328,-0.878906,-2.175781,0.393311,-0.462524,0.267517,0.748169,up
245512,-9.851563,1.980469,4.554687,-0.986328,-0.878906,-2.175781,0.393311,-0.462524,0.267517,0.748169,up
245517,-10.007813,1.945313,4.554687,-1.15625,-1.064453,-2.078125,0.399719,-0.463562,0.256287,0.748108,up
245522,-10.234375,1.636719,4.976562,-1.15625,-1.064453,-2.078125,0.399719,-0.463562,0.256287,0.748108,up
245527,-10.351563,0.949219,5.167969,-1.681641,-1.113281,-1.855469,0.399719,-0.463562,0.256287,0.748108,up
245532,-10.582031,0.335938,5.359375,-1.681641,-1.113281,-1.855469,0.405029,-0.464722,0.243286,0.74884,up
245538,-10.8125,-0.277344,5.664062,-1.681641,-1.113281,-1.855469,0.408813,-0.466553,0.229736,0.749939,up
245544,-10.847656,-0.355469,5.855469,-1.681641,-1.113281,-1.855469,0.410095,-0.46759,0.223206,0.750549,up
245549,-10.847656,-0.355469,5.855469,-2.105469,-0.957031,-1.712891,0.411316,-0.468872,0.216187,0.75116,up
245554,-10.773438,-0.238281,5.820312,-2.105469,-0.957031,-1.712891,0.411316,-0.468872,0.216187,0.75116,up
245559,-11.003906,0.410156,5.894531,-2.046875,-0.921875,-1.660156,0.411316,-0.468872,0.216187,0.75116,up
245565,-11.199219,0.179687,5.894531,-1.921875,-0.830078,-1.583984,0.414856,-0.472595,0.196716,0.752258,up
245570,-11.304688,0.335938,5.933594,-1.511719,-0.623047,-1.353516,0.414856,-0.472595,0.196716,0.752258,up
245576,-11.5,0.566406,6.277344,-1.511719,-0.623047,-1.353516,0.416992,-0.47467,0.186462,0.75238,up
245582,-11.621094,0.566406,6.429687,-0.992187,-0.488281,-1.035156,0.416992,-0.47467,0.186462,0.75238,up
245587,-11.84375,0.527344,6.546875,-0.476562,-0.322266,-0.587891,0.416992,-0.47467,0.186462,0.75238,up
245592,-12.226563,0.179687,6.585937,-0.476562,-0.322266,-0.587891,0.4198,-0.476013,0.17688,0.752258,up
245597,-12.226563,0.179687,6.585937,-0.476562,-0.322266,-0.587891,0.420471,-0.476257,0.174683,0.752258,up
245602,-12.875,-0.203125,6.277344,-0.476562,-0.322266,-0.587891,0.420471,-0.476257,0.174683,0.752258,up
245607,-13.261719,-0.238281,6.355469,0.267578,0.521484,0.814453,0.420471,-0.476257,0.174683,0.752258,up
245612,-14.445313,-0.699219,6.699219,0.267578,0.521484,0.814453,0.419067,-0.476685,0.176331,0.75238,up
245617,-15.140625,-0.621094,6.890625,1.039063,1.425781,1.896484,0.417236,-0.477051,0.179199,0.752441,up
245622,-15.871094,-0.125,6.96875,1.039063,1.425781,1.896484,0.41449,-0.477722,0.184143,0.75238,up
245627,-17.402344,1.980469,5.972656,1.039063,1.425781,1.896484,0.411377,-0.478516,0.190552,0.751953,up
245632,-18.203125,3.515625,5.242187,1.039063,1.425781,1.896484,0.401306,-0.481873,0.21344,0.749146,up
245637,-18.890625,5.160156,4.667969,1.039063,1.425781,1.896484,0.401306,-0.481873,0.21344,0.749146,up
245642,-19.195312,7.0,4.132812,5.074219,6.337891,6.582031,0.401306,-0.481873,0.21344,0.749146,up
245647,-19.195312,7.0,4.132812,5.074219,6.337891,6.582031,0.385071,-0.486816,0.251282,0.742676,up
245652,-20.421875,10.410156,1.949219,5.074219,6.337891,6.582031,0.385071,-0.486816,0.251282,0.742676,up
245657,-21.34375,12.785156,0.226562,6.128906,7.751953,7.818359,0.385071,-0.486816,0.251282,0.742676,up
245663,-23.257812,20.179687,-3.757813,8.125,10.208984,10.636719,0.324219,-0.497314,0.381165,0.70874,up
245668,-24.140625,24.777344,-5.941406,9.367188,11.808594,13.697266,0.301636,-0.497192,0.421753,0.695618,up
245673,-26.671875,32.785156,-9.695313,9.470703,12.414063,15.179688,0.272461,-0.494995,0.468689,0.679016,up
245679,-31.0,36.992187,-12.148438,9.470703,12.414063,15.179688,0.24115,-0.490417,0.513,0.661926,up
245684,-33.566406,37.992187,-13.066406,8.527344,12.458984,17.880859,0.211182,-0.483948,0.550415,0.646729,up
245690,-37.46875,35.234375,-15.019531,8.527344,12.458984,17.880859,0.172913,-0.473022,0.592041,0.62915,up
245695,-39.003906,29.714844,-15.863281,5.591797,11.888672,19.978516,0.172913,-0.473022,0.592041,0.62915,up
245700,-39.84375,22.667969,-15.671875,3.273438,11.869141,20.679687,0.172913,-0.473022,0.592041,0.62915,up
245705,-36.285156,12.476563,-12.644531,3.273438,11.869141,20.679687,0.038879,-0.424438,0.690247,0.584717,up
245711,-34.445312,10.066406,-10.117188,0.259766,10.123047,21.373047,0.038879,-0.424438,0.690247,0.584717,up
245716,-32.570312,9.070313,-7.589844,-0.033203,9.078125,21.306641,0.038879,-0.424438,0.690247,0.584717,up
245721,-30.082031,6.578125,-4.371094,-0.033203,9.078125,21.306641,0.105042,0.348755,-0.752502,-0.548767,up
245727,-21.34375,-6.140625,0.992187,-0.033203,9.078125,21.306641,0.181641,0.295593,-0.779724,-0.52124,up
245732,-15.523438,-9.128906,2.449219,-0.033203,9.078125,21.306641,0.181641,0.295593,-0.779724,-0.52124,up
245737,-9.890625,-5.21875,5.320312,1.695313,6.525391,17.355469,0.181641,0.295593,-0.779724,-0.52124,up
245742,-10.078125,-3.609375,8.386719,1.695313,6.525391,17.355469,0.249634,0.245789,-0.800293,-0.486572,up
245747,-9.203125,-4.300781,9.839844,1.695313,6.525391,17.355469,0.283142,0.223083,-0.809082,-0.464172,up
245753,-8.320313,-4.605469,9.839844,4.828125,7.587891,13.820313,0.339355,0.190613,-0.822083,-0.415527,up
245758,-12.570313,-3.457031,9.496094,4.828125,7.587891,13.820313,0.361511,0.180115,-0.826843,-0.391357,up
245763,-15.636719,-4.492187,11.679688,4.828125,7.587891,13.820313,0.380249,0.172852,-0.831421,-0.366333,up
245768,-16.476562,-4.414062,14.054688,8.0625,4.214844,6.072266,0.380249,0.172852,-0.831421,-0.366333,up
245773,-14.21875,-4.453125,17.726562,8.0625,4.214844,6.072266,0.395203,0.169128,-0.836975,-0.338623,up
245779,-12.382813,-4.300781,18.886719,8.0625,4.214844,6.072266,0.407593,0.174133,-0.846802,-0.294067,up
245784,-11.269531,-4.183594,18.265625,7.771484,2.263672,0.384766,0.409851,0.18158,-0.850647,-0.274597,up
245789,-9.96875,-4.570312,16.007812,5.634766,2.074219,-0.830078,0.409851,0.18158,-0.850647,-0.274597,up
245794,-9.316406,-5.066406,12.632813,5.634766,2.074219,-0.830078,0.412415,0.198364,-0.85321,-0.250305,up
245800,-8.015625,-5.679687,9.691406,5.634766,2.074219,-0.830078,0.413269,0.203064,-0.851624,-0.250366,up
245805,-6.558594,-6.0625,9.613281,-4.009766,-0.257813,-1.755859,0.413269,0.203064,-0.851624,-0.250366,up
245811,-4.414062,-4.875,6.773437,-5.453125,-0.599609,-1.646484,0.413269,0.203064,-0.851624,-0.250366,up
245816,-3.074219,-3.992188,5.820312,-6.644531,-0.861328,-1.505859,0.413269,0.203064,-0.851624,-0.250366,up
245822,-2.039063,-3.535156,5.167969,-8.230469,-1.171875,-1.167969,0.413269,0.203064,-0.851624,-0.250366,up
245828,-1.15625,-3.152344,4.667969,-9.861328,-1.361328,-0.814453,0.417236,0.174133,-0.822144,-0.345886,up
245833,0.488281,-1.3125,4.019531,-9.861328,-1.361328,-0.814453,0.418701,0.161194,-0.812927,-0.371338,up
245838,1.449219,-0.621094,3.859375,-10.132813,-1.158203,-0.458984,0.418701,0.161194,-0.812927,-0.371338,up
245843,2.175781,-0.394531,3.027344,-10.132813,-1.158203,-0.458984,0.420654,0.140869,-0.796143,-0.411621,up
245848,2.898438,-0.238281,1.222656,-10.132813,-1.158203,-0.458984,0.420898,0.135498,-0.790222,-0.424316,up
245853,2.75,2.019531,-3.105469,-1.673828,-0.521484,-0.919922,0.420044,0.13324,-0.786865,-0.432007,up
245858,2.636719,3.863281,-3.527344,0.486328,-0.851562,-1.115234,0.420044,0.13324,-0.786865,-0.432007,up
245863,3.019531,4.707031,-2.878906,0.486328,-0.851562,-1.115234,0.414551,0.136414,-0.78833,-0.433655,up
245868,3.632813,4.929687,-2.226563,0.486328,-0.851562,-1.115234,0.410767,0.140686,-0.791382,-0.430359,up
245873,4.359375,5.816406,-2.265625,4.056641,-0.220703,-1.351563,0.406921,0.147034,-0.795471,-0.424316,up
245878,4.472656,6.199219,-3.070313,4.710937,0.017578,-1.408203,0.406921,0.147034,-0.795471,-0.424316,up
245883,4.628906,6.730469,-4.257812,4.710937,0.017578,-1.408203,0.400513,0.161316,-0.803711,-0.409363,up
245888,4.742187,7.53125,-5.558594,4.710937,0.017578,-1.408203,0.397034,0.168579,-0.807861,-0.401672,up
245893,5.238281,8.609375,-7.015625,4.710937,0.017578,-1.408203,0.397034,0.168579,-0.807861,-0.401672,up
245898,5.585937,8.722656,-6.785156,3.447266,-0.632812,-1.328125,0.388794,0.179626,-0.814758,-0.390808,up
245903,6.199219,9.566406,-5.253906,1.320313,-1.162109,-1.197266,0.388794,0.179626,-0.814758,-0.390808,up
245909,6.582031,10.640625,-4.140625,1.320313,-1.162109,-1.197266,0.38092,0.184875,-0.818298,-0.388733,up
245914,6.390625,10.566406,-4.792969,-0.9375,-0.453125,-1.027344,0.38092,0.184875,-0.818298,-0.388733,up
245920,6.007812,10.484375,-5.558594,-1.929688,-0.097656,-0.912109,0.38092,0.184875,-0.818298,-0.388733,up
245925,5.929687,10.289063,-5.980469,-1.929688,-0.097656,-0.912109,0.377747,0.185913,-0.813904,-0.400391,up
245930,6.199219,10.027344,-5.75,-3.402344,-0.222656,-0.675781,0.377747,0.185913,-0.813904,-0.400391,up
245936,6.121094,9.90625,-5.289062,-3.666016,-0.355469,-0.611328,0.377747,0.185913,-0.813904,-0.400391,up
245941,6.042969,9.640625,-4.867187,-3.666016,-0.355469,-0.611328,0.378723,0.179504,-0.803284,-0.423218,up
245947,5.890625,9.640625,-4.753906,-2.953125,-0.25,-0.544922,0.378723,0.179504,-0.803284,-0.423218,up
245953,5.585937,9.417969,-4.675781,-2.210938,-0.117188,-0.529297,0.37915,0.174927,-0.794678,-0.440552,up
245958,5.125,9.074219,-4.601562,-2.210938,-0.117188,-0.529297,0.378967,0.174988,-0.793457,-0.442871,up
245963,4.855469,9.140625,-4.371094,-2.210938,-0.117188,-0.529297,0.378479,0.175781,-0.793152,-0.443604,up
245968,4.855469,9.144531,-4.140625,-2.210938,-0.117188,-0.529297,0.378479,0.175781,-0.793152,-0.443604,up
245973,4.820312,9.179688,-3.644531,0.867187,-0.09375,-0.441406,0.378479,0.175781,-0.793152,-0.443604,up
245979,4.820312,9.101563,-3.605469,0.867187,-0.09375,-0.441406,0.374878,0.181396,-0.796631,-0.438171,up
245984,4.628906,8.992188,-3.261719,0.867187,-0.09375,-0.441406,0.373474,0.183655,-0.798523,-0.434875,up
245989,4.550781,8.875,-3.144531,2.083984,-0.066406,-0.226562,0.373474,0.183655,-0.798523,-0.434875,up
245994,4.511719,8.835938,-3.105469,2.083984,-0.066406,-0.226562,0.370728,0.188293,-0.802856,-0.427185,up
245999,4.242187,8.652344,-3.070313,2.083984,-0.066406,-0.226562,0.370728,0.188293,-0.802856,-0.427185,up
246004,4.242187,8.652344,-3.070313,1.076172,0.058594,-0.068359,0.369141,0.19165,-0.805908,-0.421326,up
246009,4.089844,8.722656,-2.992188,1.076172,0.058594,-0.068359,0.368713,0.192688,-0.806763,-0.419556,up
246015,4.242187,8.800781,-2.53125,1.076172,0.058594,-0.068359,0.368469,0.192993,-0.807068,-0.419067,up
246021,4.128906,8.796875,-2.53125,-0.384766,-0.029297,0.0,0.368469,0.192993,-0.807068,-0.419067,up
246027,3.9375,8.226563,-2.683594,-0.705078,0.023437,0.017578,0.368469,0.192993,-0.807068,-0.419067,up
246033,3.898438,7.882812,-2.648438,-1.044922,-0.044922,0.015625,0.368469,0.192993,-0.807068,-0.419067,up
246038,3.859375,7.613281,-2.53125,-1.044922,-0.044922,0.015625,0.369568,0.190674,-0.804443,-0.424133,up
246043,3.859375,7.304687,-2.417969,-0.949219,-0.154297,-0.058594,0.369568,0.190674,-0.804443,-0.424133,up
246049,3.824219,7.148437,-2.378906,-0.949219,-0.154297,-0.058594,0.369934,0.187805,-0.801636,-0.43042,up
246055,3.785156,7.226562,-2.417969,-0.949219,-0.154297,-0.058594,0.369629,0.187195,-0.801025,-0.432129,up
246060,3.785156,7.269531,-2.417969,-0.367188,-0.300781,-0.232422,0.36908,0.186951,-0.800659,-0.433289,up
246065,3.785156,7.34375,-2.457031,-0.1875,-0.341797,-0.257813,0.36908,0.186951,-0.800659,-0.433289,up
246071,3.785156,7.34375,-2.570313,-0.1875,-0.341797,-0.257813,0.36731,0.18689,-0.800598,-0.434937,up
246076,3.785156,7.421875,-2.648438,0.082031,-0.365234,-0.285156,0.36731,0.18689,-0.800598,-0.434937,up
246082,3.859375,7.53125,-2.839844,0.164062,-0.355469,-0.257813,0.36731,0.18689,-0.800598,-0.434937,up
246088,4.015625,7.726562,-3.144531,0.164062,-0.355469,-0.257813,0.364014,0.187683,-0.801575,-0.435608,up
246093,4.089844,7.917969,-3.261719,0.013672,-0.298828,-0.128906,0.364014,0.187683,-0.801575,-0.435608,up
246098,4.167969,8.113281,-3.453125,-0.121094,-0.222656,-0.060547,0.362122,0.187927,-0.802185,-0.435913,up
246104,4.320312,8.269531,-3.71875,-0.121094,-0.222656,-0.060547,0.361023,0.187561,-0.802307,-0.436768,up
246109,4.398437,8.335938,-3.71875,-0.298828,-0.107422,0.035156,0.36084,0.187195,-0.802185,-0.437378,up
246115,4.472656,8.265625,-3.796875,-0.298828,-0.107422,0.035156,0.36084,0.186707,-0.80188,-0.438049,up
246120,4.433594,8.1875,-3.796875,-0.298828,-0.107422,0.035156,0.360962,0.186279,-0.801636,-0.43866,up
246125,4.472656,8.1875,-3.835938,-0.298828,-0.107422,0.035156,0.361023,0.185913,-0.801331,-0.439209,up
246132,4.472656,8.457031,-3.71875,-0.298828,-0.107422,0.035156,0.361023,0.185913,-0.801331,-0.439209,up
246138,4.359375,8.570313,-3.566406,-0.048828,-0.033203,0.015625,0.361023,0.185913,-0.801331,-0.439209,up
246143,4.359375,8.53125,-3.527344,-0.048828,-0.033203,0.015625,0.360962,0.185486,-0.801086,-0.439941,up
246149,4.359375,8.53125,-3.453125,0.169922,-0.111328,-0.152344,0.360962,0.185486,-0.801086,-0.439941,up
246154,4.28125,8.378906,-3.261719,0.169922,-0.111328,-0.152344,0.359619,0.186401,-0.801636,-0.439636,up
246159,4.167969,8.269531,-3.183594,0.169922,-0.111328,-0.152344,0.359009,0.18689,-0.80188,-0.439514,up
246164,4.128906,8.191406,-3.105469,0.171875,-0.199219,-0.304688,0.358154,0.1875,-0.802124,-0.439514,up
246169,4.089844,8.191406,-3.070313,0.070312,-0.222656,-0.335938,0.358154,0.1875,-0.802124,-0.439514,up
246174,4.050781,8.265625,-3.144531,0.070312,-0.222656,-0.335938,0.356384,0.188538,-0.802368,-0.440063,up
246179,4.050781,8.230469,-3.183594,0.070312,-0.222656,-0.335938,0.355652,0.188904,-0.802246,-0.440796,up
246184,4.050781,8.1875,-3.261719,-0.367188,-0.203125,-0.318359,0.354919,0.189087,-0.80188,-0.441833,up
246189,4.128906,8.1875,-3.375,-0.367188,-0.203125,-0.318359,0.354309,0.189148,-0.801453,-0.443176,up
246194,4.128906,8.269531,-3.453125,-0.367188,-0.203125,-0.318359,0.353882,0.189087,-0.800964,-0.444397,up
246200,4.128906,8.230469,-3.566406,-0.367188,-0.203125,-0.318359,0.353516,0.188843,-0.800293,-0.445923,up
246205,4.089844,8.230469,-3.566406,-0.552734,-0.125,-0.146484,0.353333,0.188599,-0.799805,-0.447144,up
246210,4.089844,8.296875,-3.644531,-0.482422,-0.09375,-0.087891,0.353149,0.188293,-0.799194,-0.448425,up
246216,3.976563,8.335938,-3.605469,-0.482422,-0.09375,-0.087891,0.353088,0.187988,-0.798767,-0.449402,up
246222,3.976563,8.339844,-3.527344,-0.222656,-0.083984,0.013672,0.353088,0.187988,-0.798767,-0.449402,up
246227,3.9375,8.417969,-3.527344,-0.046875,-0.072266,0.058594,0.353088,0.187988,-0.798767,-0.449402,up
246232,3.824219,8.375,-3.527344,-0.046875,-0.072266,0.058594,0.353088,0.187988,-0.798767,-0.449402,up
246238,3.785156,8.417969,-3.488281,0.283203,-0.037109,0.130859,0.353088,0.187988,-0.798767,-0.449402,up
246243,3.707031,8.378906,-3.375,0.460937,-0.042969,0.136719,0.353088,0.187988,-0.798767,-0.449402,up
246248,3.667969,8.375,-3.296875,0.460937,-0.042969,0.136719,0.352417,0.187317,-0.799927,-0.448181,up
246253,3.667969,8.375,-3.222656,0.460937,-0.042969,0.136719,0.352234,0.1875,-0.800598,-0.447021,up
246259,3.632813,8.296875,-3.144531,0.390625,-0.035156,0.105469,0.352234,0.1875,-0.800598,-0.447021,up
246264,3.632813,8.269531,-3.144531,0.390625,-0.035156,0.105469,0.351685,0.187866,-0.802185,-0.444519,up
246269,3.632813,8.300781,-3.070313,0.390625,-0.035156,0.105469,0.351563,0.187866,-0.80249,-0.444031,up
246274,3.59375,8.1875,-2.992188,0.029297,-0.064453,0.046875,0.351563,0.187866,-0.80249,-0.444031,up
246279,3.667969,8.113281,-2.992188,-0.105469,-0.068359,0.029297,0.351379,0.187805,-0.802673,-0.443848,up
246284,3.667969,8.035156,-2.953125,-0.105469,-0.068359,0.029297,0.351196,0.187439,-0.802551,-0.444275,up
246289,3.667969,7.953125,-2.953125,-0.105469,-0.068359,0.029297,0.351135,0.187134,-0.802368,-0.444824,up
246294,3.667969,7.886719,-2.992188,-0.349609,-0.109375,-0.023437,0.351135,0.187134,-0.802368,-0.444824,up
246299,3.746094,7.957031,-3.070313,-0.369141,-0.128906,-0.044922,0.351013,0.186768,-0.802063,-0.445618,up
246305,3.746094,7.957031,-3.070313,-0.373047,-0.15625,-0.048828,0.350708,0.186096,-0.801453,-0.447266,up
246310,3.785156,7.996094,-3.105469,-0.339844,-0.15625,-0.056641,0.350464,0.185669,-0.801147,-0.448181,up
246315,3.824219,8.070313,-3.296875,-0.339844,-0.15625,-0.056641,0.35022,0.185364,-0.800903,-0.448975,up
246321,3.859375,8.191406,-3.453125,-0.339844,-0.15625,-0.056641,0.349915,0.18512,-0.80072,-0.449524,up
246326,3.898438,8.265625,-3.488281,-0.123047,-0.185547,-0.023437,0.349915,0.18512,-0.80072,-0.449524,up
246331,3.898438,8.296875,-3.566406,-0.052734,-0.185547,-0.009766,0.349915,0.18512,-0.80072,-0.449524,up
246336,3.9375,8.417969,-3.644531,-0.001953,-0.175781,0.013672,0.349915,0.18512,-0.80072,-0.449524,up
246341,3.898438,8.375,-3.71875,0.033203,-0.138672,0.029297,0.349915,0.18512,-0.80072,-0.449524,up
246347,3.898438,8.414063,-3.757813,0.048828,-0.103516,0.050781,0.349915,0.18512,-0.80072,-0.449524,up
246353,3.898438,8.417969,-3.679688,0.052734,-0.078125,0.076172,0.349915,0.18512,-0.80072,-0.449524,up
246358,3.859375,8.496094,-3.679688,0.052734,-0.078125,0.076172,0.348022,0.183716,-0.801453,-0.450317,up
246363,3.785156,8.453125,-3.566406,0.052734,-0.078125,0.076172,0.3479,0.183594,-0.801636,-0.450195,up
246369,3.859375,8.453125,-3.488281,0.050781,-0.044922,0.056641,0.347778,0.18335,-0.80188,-0.449951,up
246374,3.785156,8.417969,-3.375,0.050781,-0.044922,0.056641,0.347717,0.183228,-0.801941,-0.449951,up
246379,3.785156,8.296875,-3.335938,0.050781,-0.044922,0.056641,0.347717,0.183228,-0.801941,-0.449951,up
246384,3.746094,8.226563,-3.335938,-0.042969,-0.029297,0.029297,0.347717,0.183228,-0.801941,-0.449951,up
246389,3.785156,8.109375,-3.296875,-0.078125,-0.029297,0.011719,0.347595,0.182861,-0.801819,-0.450317,up
246394,3.824219,8.03125,-3.144531,-0.078125,-0.029297,0.011719,0.347595,0.182861,-0.801819,-0.450317,up
246399,3.859375,7.992187,-3.070313,-0.105469,-0.060547,-0.017578,0.347534,0.182739,-0.801758,-0.450623,up
246404,3.859375,8.03125,-3.144531,-0.105469,-0.060547,-0.017578,0.347412,0.182617,-0.801636,-0.450928,up
246410,3.898438,8.070313,-3.222656,-0.105469,-0.060547,-0.017578,0.347107,0.182495,-0.801453,-0.451538,up
246416,3.9375,7.992187,-3.183594,-0.105469,-0.060547,-0.017578,0.346924,0.182373,-0.801392,-0.451843,up
246423,3.976563,7.996094,-3.222656,-0.111328,-0.111328,-0.013672,0.346924,0.182373,-0.801392,-0.451843,up
246428,4.015625,8.03125,-3.375,-0.099609,-0.105469,-0.017578,0.346924,0.182373,-0.801392,-0.451843,up
246433,4.050781,8.03125,-3.414063,-0.089844,-0.103516,-0.025391,0.346924,0.182373,-0.801392,-0.451843,up
246438,4.089844,8.113281,-3.453125,-0.089844,-0.103516,-0.025391,0.345947,0.181824,-0.801208,-0.453064,up
246444,4.089844,8.152344,-3.527344,-0.091797,-0.083984,-0.037109,0.345947,0.181824,-0.801208,-0.453064,up
246450,4.089844,8.152344,-3.527344,-0.091797,-0.083984,-0.037109,0.345276,0.18158,-0.801086,-0.453979,up
246455,4.128906,8.152344,-3.527344,-0.105469,-0.046875,-0.0625,0.345154,0.18158,-0.800964,-0.454285,up
246461,4.128906,8.113281,-3.527344,-0.105469,-0.046875,-0.0625,0.344971,0.18158,-0.800842,-0.454651,up
246466,4.128906,8.113281,-3.453125,-0.105469,-0.046875,-0.0625,0.344788,0.181641,-0.800659,-0.455017,up
