timestamp,ax,ay,az,gx,gy,gz,qw,qx,qy,qz,label
31657,-7.285156,6.714844,1.28125,0.119141,0.085937,0.033203,0.546448,-0.011963,0.664368,0.509827,up
31662,-7.246094,6.753906,1.28125,0.125,0.037109,0.003906,0.546265,-0.011658,0.664795,0.509399,up
31667,-7.242187,6.714844,1.320313,0.125,0.037109,0.003906,0.546265,-0.011597,0.664856,0.509277,up
31672,-7.203125,6.675781,1.28125,0.125,0.037109,0.003906,0.546326,-0.011597,0.664917,0.509216,up
31677,-7.207031,6.714844,1.242188,0.125,0.037109,0.003906,0.546326,-0.011597,0.664917,0.509216,up
31682,-7.207031,6.714844,1.242188,-0.007813,-0.011719,-0.039063,0.546448,-0.011719,0.664917,0.509094,up
31687,-7.164062,6.714844,1.207031,-0.007813,-0.011719,-0.039063,0.546509,-0.011841,0.664795,0.509155,up
31692,-7.164062,6.675781,1.28125,-0.007813,-0.011719,-0.039063,0.54657,-0.012024,0.664612,0.509338,up
31697,-7.125,6.636719,1.320313,-0.007813,-0.011719,-0.039063,0.54657,-0.012024,0.664612,0.509338,up
31702,-7.164062,6.597656,1.320313,-0.164062,-0.001953,-0.029297,0.54657,-0.012024,0.664612,0.509338,up
31708,-7.128906,6.5625,1.398438,-0.164062,-0.001953,-0.029297,0.546631,-0.012817,0.664001,0.51001,up
31713,-7.125,6.523437,1.359375,-0.142578,0.042969,-0.005859,0.54657,-0.013062,0.663879,0.510254,up
31719,-7.167969,6.445312,1.398438,-0.142578,0.042969,-0.005859,0.546509,-0.013306,0.663818,0.510437,up
31724,-7.207031,6.523437,1.320313,-0.142578,0.042969,-0.005859,0.546387,-0.013428,0.663757,0.510559,up
31730,-7.203125,6.523437,1.359375,-0.007813,0.066406,0.019531,0.546387,-0.013428,0.663757,0.510559,up
31735,-7.203125,6.523437,1.359375,0.041016,0.054687,0.025391,0.546387,-0.013428,0.663757,0.510559,up
31740,-7.246094,6.5625,1.398438,0.070312,0.056641,0.029297,0.546387,-0.013428,0.663757,0.510559,up
31746,-7.242187,6.597656,1.320313,0.095703,0.0625,0.03125,0.546387,-0.013428,0.663757,0.510559,up
31751,-7.242187,6.636719,1.320313,0.099609,0.072266,0.019531,0.546387,-0.013428,0.663757,0.510559,up
31757,-7.242187,6.675781,1.359375,0.105469,0.068359,0.023437,0.546387,-0.013428,0.663757,0.510559,up
31762,-7.242187,6.675781,1.359375,0.078125,0.058594,0.001953,0.54541,-0.013184,0.664978,0.510071,up
31767,-7.246094,6.675781,1.320313,0.078125,0.058594,0.001953,0.545288,-0.013123,0.665222,0.509888,up
31772,-7.242187,6.714844,1.320313,0.078125,0.058594,0.001953,0.545227,-0.013062,0.665344,0.509766,up
31777,-7.285156,6.714844,1.398438,-0.037109,0.017578,-0.027344,0.545227,-0.013062,0.665344,0.509766,up
31782,-7.242187,6.675781,1.398438,-0.037109,0.017578,-0.027344,0.545166,-0.013184,0.665405,0.509766,up
31787,-7.242187,6.675781,1.398438,-0.101563,-0.001953,-0.035156,0.545166,-0.013367,0.665344,0.509827,up
31792,-7.285156,6.597656,1.359375,-0.101563,-0.001953,-0.035156,0.545227,-0.013489,0.665283,0.509888,up
31798,-7.246094,6.597656,1.398438,-0.101563,-0.001953,-0.035156,0.545288,-0.013916,0.664978,0.510193,up
31803,-7.246094,6.597656,1.433594,-0.144531,-0.013672,-0.023437,0.545349,-0.014099,0.664734,0.510376,up
31808,-7.246094,6.597656,1.398438,-0.130859,-0.023437,-0.015625,0.54541,-0.014343,0.664551,0.510559,up
31813,-7.203125,6.523437,1.398438,-0.130859,-0.023437,-0.015625,0.545471,-0.014465,0.664368,0.510742,up
31818,-7.164062,6.484375,1.359375,-0.130859,-0.023437,-0.015625,0.545471,-0.014648,0.664185,0.510986,up
31824,-7.09375,6.40625,1.320313,-0.130859,-0.023437,-0.015625,0.545471,-0.014709,0.664062,0.511108,up
31831,-7.128906,6.371094,1.28125,-0.017578,0.001953,0.017578,0.545471,-0.014709,0.664062,0.511108,up
31837,-7.09375,6.332031,1.28125,-0.017578,0.001953,0.017578,0.54541,-0.014709,0.664062,0.51123,up
31843,-7.09375,6.332031,1.28125,0.068359,0.03125,0.029297,0.545227,-0.014465,0.664307,0.511047,up
31848,-7.015625,6.332031,1.320313,0.068359,0.03125,0.029297,0.545166,-0.014282,0.66449,0.510925,up
31853,-6.980469,6.332031,1.320313,0.068359,0.03125,0.029297,0.545044,-0.01416,0.664673,0.510803,up
31858,-7.054687,6.40625,1.242188,0.134766,0.056641,0.060547,0.545044,-0.01416,0.664673,0.510803,up
31863,-7.054687,6.445312,1.167969,0.134766,0.056641,0.060547,0.544678,-0.013672,0.665222,0.510498,up
31869,-7.125,6.597656,1.207031,0.134766,0.056641,0.060547,0.544556,-0.013428,0.665405,0.510376,up
31874,-7.125,6.597656,1.207031,0.150391,0.03125,0.050781,0.544434,-0.013184,0.66571,0.510132,up
31879,-7.203125,6.714844,1.128906,0.150391,0.03125,0.050781,0.544373,-0.012939,0.665894,0.51001,up
31884,-7.203125,6.753906,1.128906,0.150391,0.03125,0.050781,0.544312,-0.012695,0.666077,0.509827,up
31889,-7.207031,6.828125,1.167969,0.150391,0.03125,0.050781,0.544312,-0.012695,0.666077,0.509827,up
31894,-7.203125,6.753906,1.089844,0.050781,-0.021484,0.003906,0.544312,-0.012695,0.666077,0.509827,up
31901,-7.242187,6.753906,1.128906,0.013672,-0.03125,-0.003906,0.544312,-0.012695,0.666077,0.509827,up
31907,-7.167969,6.675781,1.089844,0.013672,-0.03125,-0.003906,0.544312,-0.012695,0.666077,0.509827,up
31912,-7.128906,6.675781,1.089844,-0.078125,-0.025391,-0.015625,0.544312,-0.012695,0.666077,0.509827,up
31917,-7.125,6.636719,1.128906,-0.107422,-0.027344,-0.017578,0.544556,-0.012695,0.665771,0.509949,up
31922,-7.097656,6.5625,1.167969,-0.107422,-0.027344,-0.017578,0.544556,-0.012695,0.665771,0.509949,up
31927,-7.097656,6.445312,1.207031,-0.107422,-0.027344,-0.017578,0.544617,-0.012878,0.665527,0.510132,up
31932,-7.054687,6.445312,1.167969,-0.162109,0.003906,-0.001953,0.544617,-0.012878,0.665527,0.510132,up
31938,-7.054687,6.371094,1.167969,-0.138672,0.007813,0.0,0.544617,-0.012878,0.665527,0.510132,up
31943,-7.015625,6.371094,1.207031,-0.138672,0.007813,0.0,0.544495,-0.013611,0.664917,0.511047,up
31948,-7.015625,6.332031,1.207031,-0.138672,0.007813,0.0,0.544495,-0.013611,0.664917,0.511047,up
31953,-7.015625,6.371094,1.207031,0.035156,0.039063,0.025391,0.544495,-0.013611,0.664917,0.511047,up
31958,-7.015625,6.371094,1.207031,0.072266,0.048828,0.025391,0.54425,-0.013611,0.6651,0.511108,up
31963,-7.054687,6.40625,1.242188,0.072266,0.048828,0.025391,0.544128,-0.01355,0.665283,0.510986,up
31968,-7.09375,6.445312,1.242188,0.125,0.056641,0.025391,0.544128,-0.01355,0.665283,0.510986,up
31973,-7.125,6.523437,1.242188,0.125,0.056641,0.025391,0.543884,-0.013306,0.665771,0.510681,up
31979,-7.203125,6.636719,1.167969,0.125,0.056641,0.025391,0.543823,-0.013123,0.665955,0.510437,up
31984,-7.242187,6.714844,1.167969,0.097656,0.039063,0.009766,0.543762,-0.013,0.666199,0.510254,up
31989,-7.242187,6.753906,1.167969,0.068359,0.035156,0.0,0.543762,-0.013,0.666199,0.510254,up
31995,-7.324219,6.753906,1.207031,0.068359,0.035156,0.0,0.543579,-0.012939,0.666443,0.510071,up
32001,-7.28125,6.753906,1.167969,0.068359,0.035156,0.0,0.543579,-0.012939,0.666443,0.510071,up
32006,-7.28125,6.675781,1.242188,-0.041016,0.035156,-0.013672,0.543579,-0.012939,0.666443,0.510071,up
32012,-7.242187,6.675781,1.242188,-0.041016,0.035156,-0.013672,0.543457,-0.013184,0.666504,0.510193,up
32017,-7.246094,6.597656,1.28125,-0.041016,0.035156,-0.013672,0.543335,-0.013489,0.666382,0.510376,up
32022,-7.242187,6.5625,1.320313,-0.041016,0.035156,-0.013672,0.543335,-0.013489,0.666382,0.510376,up
32028,-7.167969,6.523437,1.320313,-0.072266,0.044922,0.001953,0.543213,-0.013855,0.666321,0.510681,up
32033,-7.164062,6.484375,1.28125,-0.072266,0.044922,0.001953,0.543091,-0.013977,0.66626,0.510803,up
32038,-7.167969,6.484375,1.320313,-0.072266,0.044922,0.001953,0.542969,-0.014038,0.666321,0.510864,up
32043,-7.203125,6.484375,1.359375,0.013672,0.074219,0.033203,0.542969,-0.014038,0.666321,0.510864,up
32048,-7.164062,6.445312,1.320313,0.050781,0.083984,0.041016,0.542847,-0.014099,0.666382,0.510925,up
32053,-7.242187,6.484375,1.28125,0.050781,0.083984,0.041016,0.54248,-0.014038,0.666748,0.510864,up
32058,-7.207031,6.523437,1.320313,0.050781,0.083984,0.041016,0.542236,-0.013916,0.666931,0.510803,up
32063,-7.28125,6.597656,1.320313,0.123047,0.091797,0.064453,0.542236,-0.013916,0.666931,0.510803,up
32069,-7.28125,6.675781,1.28125,0.123047,0.091797,0.064453,0.541809,-0.013611,0.667542,0.510559,up
32074,-7.28125,6.675781,1.28125,0.126953,0.09375,0.066406,0.541565,-0.013489,0.667786,0.510437,up
32079,-7.324219,6.714844,1.320313,0.123047,0.083984,0.058594,0.54126,-0.013245,0.668152,0.510315,up
32085,-7.320312,6.789062,1.320313,0.123047,0.083984,0.058594,0.541138,-0.013123,0.668335,0.510254,up
32090,-7.359375,6.753906,1.320313,0.0625,0.0625,0.044922,0.541138,-0.013123,0.668335,0.510254,up
32095,-7.402344,6.714844,1.28125,0.033203,0.052734,0.041016,0.540771,-0.012939,0.668701,0.510132,up
32101,-7.363281,6.675781,1.320313,0.0,0.039063,0.033203,0.540771,-0.012939,0.668701,0.510132,up
32107,-7.320312,6.636719,1.359375,0.0,0.039063,0.033203,0.540771,-0.012939,0.668701,0.510132,up
32112,-7.28125,6.636719,1.320313,-0.037109,0.017578,0.027344,0.540771,-0.012939,0.668701,0.510132,up
32118,-7.285156,6.5625,1.359375,-0.072266,0.007813,0.015625,0.540405,-0.013062,0.66864,0.51062,up
32123,-7.242187,6.484375,1.359375,-0.072266,0.007813,0.015625,0.540405,-0.013184,0.668457,0.510803,up
32128,-7.246094,6.445312,1.398438,-0.072266,0.007813,0.015625,0.540405,-0.013184,0.668457,0.510803,up
32133,-7.242187,6.40625,1.398438,-0.091797,-0.03125,0.009766,0.540405,-0.013184,0.668457,0.510803,up
32138,-7.207031,6.40625,1.320313,-0.091797,-0.03125,0.009766,0.540405,-0.013367,0.668152,0.51123,up
32143,-7.203125,6.40625,1.28125,-0.041016,-0.023437,0.0,0.540466,-0.013428,0.667969,0.511353,up
32148,-7.203125,6.40625,1.359375,-0.041016,-0.023437,0.0,0.540527,-0.013489,0.667847,0.511475,up
32153,-7.164062,6.40625,1.359375,-0.041016,-0.023437,0.0,0.540588,-0.013489,0.667786,0.511536,up
32158,-7.167969,6.40625,1.320313,0.015625,-0.011719,-0.017578,0.540588,-0.013489,0.667786,0.511536,up
32163,-7.167969,6.40625,1.320313,0.015625,-0.011719,-0.017578,0.540649,-0.013428,0.667725,0.511536,up
32168,-7.164062,6.445312,1.320313,0.029297,0.003906,-0.013672,0.54071,-0.013428,0.667725,0.511475,up
32173,-7.167969,6.40625,1.320313,0.029297,0.003906,-0.013672,0.54071,-0.013428,0.667725,0.511414,up
32178,-7.164062,6.40625,1.359375,0.029297,0.003906,-0.013672,0.540771,-0.013367,0.667786,0.511292,up
32183,-7.164062,6.40625,1.359375,0.029297,0.003906,-0.013672,0.540771,-0.013367,0.667786,0.511292,up
32188,-7.164062,6.40625,1.359375,-0.003906,-0.009766,-0.017578,0.540771,-0.013367,0.667786,0.511292,up
32193,-7.164062,6.40625,1.359375,-0.003906,-0.009766,-0.017578,0.540894,-0.013428,0.667725,0.51123,up
32198,-7.167969,6.445312,1.398438,-0.003906,-0.009766,-0.017578,0.540894,-0.013428,0.667725,0.51123,up
32203,-7.203125,6.40625,1.398438,-0.003906,-0.009766,-0.017578,0.541016,-0.013489,0.667542,0.511292,up
32208,-7.207031,6.445312,1.359375,-0.003906,-0.009766,-0.017578,0.541016,-0.013489,0.667542,0.511292,up
32214,-7.203125,6.40625,1.359375,-0.003906,-0.009766,-0.017578,0.541138,-0.013489,0.66748,0.511353,up
32219,-7.246094,6.445312,1.359375,-0.025391,-0.068359,-0.015625,0.541382,-0.013489,0.667236,0.511414,up
32224,-7.246094,6.445312,1.359375,-0.025391,-0.068359,-0.015625,0.541504,-0.013489,0.667114,0.511414,up
32229,-7.207031,6.40625,1.320313,-0.025391,-0.068359,-0.015625,0.541626,-0.013428,0.666992,0.511414,up
32234,-7.242187,6.445312,1.320313,-0.025391,-0.068359,-0.015625,0.541748,-0.013428,0.66687,0.511414,up
32239,-7.242187,6.445312,1.320313,-0.007813,-0.072266,-0.021484,0.541931,-0.013367,0.666748,0.511414,up
32245,-7.242187,6.40625,1.359375,-0.007813,-0.072266,-0.021484,0.542053,-0.013306,0.666687,0.511414,up
32250,-7.242187,6.445312,1.320313,-0.007813,-0.072266,-0.021484,0.542175,-0.013245,0.666565,0.511414,up
32255,-7.242187,6.445312,1.320313,-0.001953,-0.064453,-0.015625,0.542358,-0.013184,0.666443,0.511414,up
32260,-7.246094,6.445312,1.28125,-0.001953,-0.064453,-0.015625,0.542419,-0.013062,0.666382,0.511414,up
32265,-7.246094,6.445312,1.28125,-0.001953,-0.064453,-0.015625,0.542419,-0.013062,0.666382,0.511414,up
32270,-7.203125,6.40625,1.242188,0.013672,-0.056641,0.005859,0.542419,-0.013062,0.666382,0.511414,up
32275,-7.203125,6.40625,1.242188,0.027344,-0.048828,0.013672,0.542419,-0.013062,0.666382,0.511414,up
32280,-7.164062,6.40625,1.242188,0.033203,-0.037109,0.015625,0.542419,-0.013062,0.666382,0.511414,up
32286,-7.164062,6.371094,1.207031,0.033203,-0.037109,0.015625,0.542419,-0.013062,0.666382,0.511414,up
32291,-7.128906,6.371094,1.242188,0.060547,-0.021484,0.037109,0.542419,-0.013062,0.666382,0.511414,up
32297,-7.128906,6.332031,1.28125,0.076172,-0.027344,0.033203,0.542419,-0.013062,0.666382,0.511414,up
32302,-7.125,6.332031,1.207031,0.076172,-0.027344,0.033203,0.542847,-0.011963,0.666321,0.511108,up
32308,-7.097656,6.332031,1.207031,0.076172,-0.027344,0.033203,0.542786,-0.011536,0.666504,0.510925,up
32313,-7.128906,6.292969,1.28125,0.076172,-0.027344,0.033203,0.542786,-0.011536,0.666504,0.510925,up
32318,-7.125,6.371094,1.207031,0.107422,-0.007813,0.027344,0.542786,-0.011536,0.666504,0.510925,up
32323,-7.125,6.292969,1.207031,0.107422,-0.007813,0.027344,0.542725,-0.011108,0.666748,0.510681,up
32328,-7.125,6.292969,1.167969,0.107422,-0.007813,0.027344,0.542725,-0.010925,0.66687,0.510559,up
32334,-7.164062,6.292969,1.207031,0.097656,0.0,0.025391,0.542725,-0.010925,0.66687,0.510559,up
32339,-7.125,6.332031,1.167969,0.097656,0.0,0.025391,0.542664,-0.010437,0.667236,0.510132,up
32344,-7.125,6.371094,1.128906,0.095703,0.015625,0.023437,0.542603,-0.010254,0.667358,0.51001,up
32349,-7.097656,6.371094,1.167969,0.09375,0.017578,0.025391,0.542603,-0.010254,0.667358,0.51001,up
32354,-7.097656,6.332031,1.089844,0.09375,0.017578,0.025391,0.54248,-0.009949,0.667603,0.509766,up
32360,-7.097656,6.445312,1.128906,0.09375,0.017578,0.025391,0.542419,-0.009827,0.667786,0.509644,up
32365,-7.125,6.445312,1.089844,0.095703,0.044922,0.03125,0.542419,-0.009827,0.667786,0.509644,up
32370,-7.125,6.445312,1.089844,0.091797,0.0625,0.021484,0.542419,-0.009827,0.667786,0.509644,up
32376,-7.203125,6.523437,1.015625,0.091797,0.0625,0.021484,0.542053,-0.009521,0.668335,0.509338,up
32382,-7.246094,6.484375,1.089844,0.117188,0.095703,0.019531,0.542053,-0.009521,0.668335,0.509338,up
32387,-7.246094,6.523437,1.089844,0.130859,0.103516,0.03125,0.542053,-0.009521,0.668335,0.509338,up
32393,-7.242187,6.523437,1.015625,0.136719,0.115234,0.027344,0.542053,-0.009521,0.668335,0.509338,up
32399,-7.285156,6.523437,0.976562,0.173828,0.128906,0.044922,0.542053,-0.009521,0.668335,0.509338,up
32404,-7.242187,6.5625,0.976562,0.173828,0.128906,0.044922,0.54071,-0.00885,0.670349,0.508118,up
32409,-7.164062,6.5625,0.9375,0.173828,0.128906,0.044922,0.54071,-0.00885,0.670349,0.508118,up
32414,-7.164062,6.5625,0.976562,0.173828,0.128906,0.044922,0.540222,-0.008362,0.671204,0.507507,up
32419,-7.164062,6.597656,0.9375,0.279297,0.117188,0.056641,0.540222,-0.008362,0.671204,0.507507,up
32424,-7.167969,6.675781,0.9375,0.279297,0.117188,0.056641,0.539673,-0.00769,0.672241,0.506714,up
32429,-7.167969,6.675781,0.9375,0.279297,0.117188,0.056641,0.539429,-0.007385,0.672729,0.506348,up
32434,-7.164062,6.753906,0.9375,0.310547,0.130859,0.056641,0.539185,-0.007019,0.673279,0.505859,up
32440,-7.242187,6.867187,0.859375,0.310547,0.130859,0.056641,0.538879,-0.006714,0.673828,0.505432,up
32445,-7.246094,6.945312,0.859375,0.302734,0.119141,0.046875,0.538879,-0.006714,0.673828,0.505432,up
32451,-7.28125,6.984375,0.859375,0.302734,0.119141,0.046875,0.538391,-0.006042,0.674866,0.504578,up
32456,-7.242187,6.90625,0.859375,0.234375,0.083984,0.019531,0.538208,-0.005798,0.675293,0.504211,up
32461,-7.246094,6.945312,0.898437,0.181641,0.0625,0.013672,0.538208,-0.005798,0.675293,0.504211,up
32466,-7.246094,6.945312,0.898437,0.181641,0.0625,0.013672,0.538025,-0.005432,0.675964,0.503601,up
32472,-7.246094,6.90625,0.976562,0.076172,0.029297,-0.019531,0.538025,-0.005432,0.675964,0.503601,up
32477,-7.207031,6.90625,0.976562,0.025391,0.001953,-0.037109,0.538025,-0.005432,0.675964,0.503601,up
32483,-7.207031,6.828125,0.9375,-0.029297,-0.015625,-0.044922,0.538025,-0.005432,0.675964,0.503601,up
32488,-7.203125,6.753906,0.976562,-0.029297,-0.015625,-0.044922,0.538147,-0.005554,0.676086,0.503296,up
32494,-7.203125,6.714844,0.9375,-0.101563,-0.027344,-0.050781,0.538147,-0.005554,0.676086,0.503296,up
32499,-7.097656,6.636719,0.976562,-0.128906,-0.037109,-0.056641,0.538147,-0.005554,0.676086,0.503296,up
32505,-7.058594,6.5625,1.015625,-0.128906,-0.037109,-0.056641,0.538635,-0.006348,0.675232,0.503845,up
32510,-7.097656,6.5625,0.976562,-0.123047,-0.03125,-0.044922,0.538635,-0.006348,0.675232,0.503845,up
32515,-7.058594,6.523437,0.9375,-0.101563,-0.021484,-0.041016,0.538635,-0.006348,0.675232,0.503845,up
32520,-7.019531,6.5625,1.015625,-0.101563,-0.021484,-0.041016,0.53894,-0.006897,0.674744,0.504211,up
32525,-7.09375,6.597656,1.015625,-0.101563,-0.021484,-0.041016,0.53894,-0.006897,0.674744,0.504211,up
32530,-7.09375,6.597656,1.015625,-0.005859,0.021484,-0.017578,0.53894,-0.006897,0.674744,0.504211,up
32536,-7.128906,6.597656,1.015625,-0.005859,0.021484,-0.017578,0.53894,-0.007202,0.674683,0.504272,up
32541,-7.09375,6.597656,1.015625,-0.005859,0.021484,-0.017578,0.53894,-0.007202,0.674744,0.504211,up
32547,-7.125,6.636719,0.976562,0.056641,0.033203,-0.009766,0.53894,-0.007202,0.674744,0.504211,up
32552,-7.09375,6.636719,1.015625,0.066406,0.035156,0.003906,0.53894,-0.007202,0.674744,0.504211,up
32557,-7.097656,6.675781,1.050781,0.054687,0.048828,0.0,0.53894,-0.007202,0.674744,0.504211,up
32562,-7.128906,6.636719,1.050781,0.041016,0.050781,0.005859,0.53894,-0.007202,0.674744,0.504211,up
32567,-7.128906,6.636719,1.015625,0.023437,0.050781,0.001953,0.53894,-0.007202,0.674744,0.504211,up
32572,-7.128906,6.636719,1.050781,0.0,0.0625,0.005859,0.53894,-0.007202,0.674744,0.504211,up
32577,-7.128906,6.597656,1.015625,0.0,0.0625,0.005859,0.53894,-0.007202,0.674744,0.504211,up
32582,-7.207031,6.5625,1.050781,0.0,0.0625,0.005859,0.538269,-0.007263,0.675537,0.503845,up
32587,-7.207031,6.636719,1.050781,-0.025391,0.060547,0.001953,0.538269,-0.007263,0.675537,0.503845,up
32593,-7.203125,6.597656,1.089844,-0.025391,0.060547,0.001953,0.538086,-0.007507,0.675598,0.503967,up
32599,-7.207031,6.597656,1.050781,-0.025391,0.060547,0.001953,0.537964,-0.00769,0.675659,0.504028,up
32604,-7.164062,6.523437,1.050781,-0.025391,0.060547,0.001953,0.537964,-0.00769,0.675659,0.504028,up
32609,-7.164062,6.5625,1.089844,-0.011719,0.033203,-0.023437,0.537964,-0.00769,0.675659,0.504028,up
32614,-7.167969,6.5625,1.050781,-0.011719,0.033203,-0.023437,0.537903,-0.007996,0.67572,0.504028,up
32619,-7.128906,6.597656,1.050781,-0.011719,0.033203,-0.023437,0.537903,-0.008118,0.67572,0.503967,up
32624,-7.167969,6.636719,1.050781,-0.011719,0.033203,-0.023437,0.537903,-0.008118,0.67572,0.503967,up
32629,-7.167969,6.636719,1.015625,-0.007813,0.023437,-0.046875,0.537903,-0.008118,0.67572,0.503967,up
32634,-7.164062,6.675781,1.050781,-0.03125,0.027344,-0.046875,0.537964,-0.008301,0.67572,0.503906,up
32639,-7.207031,6.636719,1.050781,-0.03125,0.027344,-0.046875,0.538025,-0.008606,0.67572,0.503906,up
32644,-7.203125,6.636719,1.089844,-0.03125,0.027344,-0.046875,0.538025,-0.008606,0.67572,0.503906,up
32649,-7.207031,6.636719,1.050781,-0.03125,0.027344,-0.046875,0.538025,-0.008972,0.675659,0.503906,up
32654,-7.207031,6.636719,1.050781,-0.03125,0.027344,-0.046875,0.538025,-0.008972,0.675659,0.503906,up
32659,-7.207031,6.636719,1.015625,-0.058594,0.041016,-0.039063,0.538025,-0.008972,0.675659,0.503906,up
32664,-7.203125,6.714844,0.976562,-0.058594,0.041016,-0.039063,0.538025,-0.009277,0.675598,0.504028,up
32669,-7.203125,6.714844,0.976562,-0.042969,0.068359,-0.019531,0.538025,-0.009521,0.675537,0.504089,up
32674,-7.164062,6.714844,0.9375,-0.042969,0.068359,-0.019531,0.537903,-0.009705,0.675598,0.50415,up
32679,-7.164062,6.714844,0.9375,-0.033203,0.09375,0.007813,0.537842,-0.009888,0.675598,0.504211,up
32685,-7.164062,6.714844,0.9375,-0.035156,0.115234,0.021484,0.537476,-0.010132,0.67572,0.504333,up
32690,-7.125,6.753906,0.976562,-0.021484,0.132812,0.035156,0.537231,-0.010315,0.675903,0.504456,up
32696,-7.128906,6.789062,0.9375,-0.021484,0.132812,0.035156,0.536987,-0.010437,0.676025,0.504517,up
32701,-7.058594,6.753906,0.898437,-0.021484,0.132812,0.035156,0.536621,-0.010559,0.676208,0.504639,up
32708,-7.054687,6.789062,0.824219,-0.023437,0.208984,0.070312,0.536621,-0.010559,0.676208,0.504639,up
32713,-7.058594,6.753906,0.824219,-0.021484,0.238281,0.076172,0.536621,-0.010559,0.676208,0.504639,up
32719,-7.058594,6.636719,0.859375,-0.017578,0.240234,0.091797,0.536621,-0.010559,0.676208,0.504639,up
32724,-7.019531,6.597656,0.859375,-0.017578,0.244141,0.095703,0.534729,-0.01123,0.677307,0.505188,up
32729,-7.058594,6.636719,0.824219,-0.017578,0.244141,0.095703,0.53418,-0.011414,0.677612,0.505371,up
32734,-7.019531,6.675781,0.785156,-0.017578,0.244141,0.095703,0.53363,-0.011597,0.677917,0.505493,up
32739,-7.058594,6.675781,0.785156,-0.042969,0.263672,0.085937,0.53363,-0.011597,0.677917,0.505493,up
32744,-7.054687,6.714844,0.746094,-0.042969,0.263672,0.085937,0.532593,-0.011963,0.678467,0.505798,up
32749,-7.015625,6.714844,0.667969,-0.042969,0.263672,0.085937,0.531982,-0.012268,0.678772,0.506042,up
32754,-7.054687,6.714844,0.707031,-0.101563,0.271484,0.070312,0.531982,-0.012268,0.678772,0.506042,up
32759,-6.9375,6.675781,0.785156,-0.101563,0.271484,0.070312,0.530884,-0.012939,0.679321,0.50647,up
32764,-6.898437,6.636719,0.785156,-0.101563,0.271484,0.070312,0.530396,-0.013306,0.679504,0.506775,up
32769,-6.9375,6.675781,0.746094,-0.154297,0.285156,0.076172,0.529175,-0.01416,0.679871,0.507507,up
32774,-7.015625,6.5625,0.785156,-0.154297,0.285156,0.076172,0.529175,-0.01416,0.679871,0.507507,up
32779,-7.097656,6.636719,0.667969,-0.205078,0.300781,0.078125,0.528015,-0.015198,0.680115,0.508362,up
32784,-7.125,6.5625,0.746094,-0.205078,0.300781,0.078125,0.528015,-0.015198,0.680115,0.508362,up
32789,-7.097656,6.484375,0.859375,-0.259766,0.259766,0.09375,0.526855,-0.016235,0.680115,0.509521,up
32794,-7.015625,6.484375,0.859375,-0.259766,0.259766,0.09375,0.526855,-0.016235,0.680115,0.509521,up
32799,-7.015625,6.523437,0.859375,-0.257813,0.214844,0.126953,0.526245,-0.016724,0.680115,0.510132,up
32804,-7.128906,6.523437,0.9375,-0.257813,0.214844,0.126953,0.525757,-0.01709,0.680054,0.510681,up
32810,-7.09375,6.523437,0.9375,-0.238281,0.208984,0.136719,0.525757,-0.01709,0.680054,0.510681,up
32815,-7.128906,6.597656,0.824219,-0.173828,0.224609,0.154297,0.524658,-0.017761,0.679993,0.511841,up
32820,-7.167969,6.597656,0.824219,-0.173828,0.224609,0.154297,0.52356,-0.018311,0.680115,0.512878,up
32825,-7.242187,6.753906,0.785156,-0.173828,0.224609,0.154297,0.52356,-0.018311,0.680115,0.512878,up
32830,-7.203125,6.789062,0.824219,-0.173828,0.224609,0.154297,0.522339,-0.018616,0.68042,0.513672,up
32835,-7.246094,6.828125,0.785156,-0.070312,0.251953,0.173828,0.521667,-0.018738,0.680664,0.514038,up
32841,-7.167969,6.867187,0.785156,-0.070312,0.251953,0.173828,0.521057,-0.01886,0.680908,0.514343,up
32846,-7.207031,6.867187,0.785156,-0.070312,0.251953,0.173828,0.520386,-0.018982,0.681152,0.514648,up
32853,-7.164062,6.828125,0.859375,-0.070312,0.251953,0.173828,0.520386,-0.018982,0.681152,0.514648,up
32858,-7.125,6.789062,0.824219,-0.083984,0.279297,0.183594,0.520386,-0.018982,0.681152,0.514648,up
32863,-7.09375,6.714844,0.824219,-0.095703,0.273438,0.179687,0.520386,-0.018982,0.681152,0.514648,up
32869,-7.054687,6.714844,0.746094,-0.132812,0.265625,0.1875,0.520386,-0.018982,0.681152,0.514648,up
32875,-7.097656,6.714844,0.746094,-0.154297,0.257813,0.1875,0.520386,-0.018982,0.681152,0.514648,up
32880,-7.09375,6.675781,0.707031,-0.173828,0.25,0.201172,0.520386,-0.018982,0.681152,0.514648,up
32886,-7.054687,6.714844,0.746094,-0.173828,0.25,0.201172,0.514893,-0.020386,0.682495,0.518372,up
32891,-7.058594,6.675781,0.746094,-0.234375,0.226562,0.224609,0.514893,-0.020386,0.682495,0.518372,up
32896,-7.015625,6.636719,0.746094,-0.265625,0.232422,0.236328,0.514893,-0.020386,0.682495,0.518372,up
32902,-7.015625,6.636719,0.707031,-0.265625,0.232422,0.236328,0.514893,-0.020386,0.682495,0.518372,up
32908,-7.015625,6.636719,0.746094,-0.269531,0.251953,0.246094,0.514893,-0.020386,0.682495,0.518372,up
32913,-6.980469,6.636719,0.707031,-0.265625,0.259766,0.248047,0.514893,-0.020386,0.682495,0.518372,up
32919,-6.980469,6.636719,0.707031,-0.238281,0.259766,0.263672,0.510437,-0.02179,0.682434,0.522766,up
32924,-6.980469,6.597656,0.632812,-0.238281,0.259766,0.263672,0.510437,-0.02179,0.682434,0.522766,up
32929,-7.015625,6.597656,0.667969,-0.210937,0.271484,0.259766,0.508789,-0.022156,0.682556,0.52417,up
32935,-6.976562,6.484375,0.667969,-0.166016,0.279297,0.255859,0.507202,-0.0224,0.6828,0.525391,up
32941,-6.976562,6.523437,0.785156,-0.166016,0.279297,0.255859,0.506348,-0.022522,0.682983,0.52594,up
32946,-6.980469,6.40625,0.824219,-0.105469,0.292969,0.246094,0.506348,-0.022522,0.682983,0.52594,up
32951,-7.019531,6.445312,0.859375,-0.089844,0.304688,0.242187,0.506348,-0.022522,0.682983,0.52594,up
32956,-6.980469,6.40625,0.859375,-0.089844,0.304688,0.242187,0.503845,-0.022766,0.683777,0.527283,up
32962,-7.015625,6.40625,0.898437,-0.089844,0.304688,0.242187,0.502991,-0.022827,0.684082,0.52771,up
32969,-6.941406,6.445312,0.9375,-0.023437,0.333984,0.212891,0.502991,-0.022827,0.684082,0.52771,up
32974,-7.015625,6.445312,0.9375,-0.005859,0.351563,0.205078,0.502991,-0.022827,0.684082,0.52771,up
32979,-7.015625,6.40625,1.015625,0.005859,0.341797,0.195312,0.502991,-0.022827,0.684082,0.52771,up
32984,-6.980469,6.445312,0.976562,0.021484,0.335938,0.189453,0.502991,-0.022827,0.684082,0.52771,up
32989,-6.9375,6.40625,0.976562,0.021484,0.335938,0.189453,0.498718,-0.023376,0.686279,0.528931,up
32994,-6.9375,6.40625,0.976562,0.021484,0.335938,0.189453,0.497925,-0.023499,0.686707,0.529114,up
33000,-6.980469,6.445312,0.976562,0.052734,0.294922,0.154297,0.497925,-0.023499,0.686707,0.529114,up
33005,-6.941406,6.445312,0.976562,0.052734,0.294922,0.154297,0.49646,-0.023621,0.687622,0.529297,up
33010,-6.980469,6.484375,1.015625,0.066406,0.271484,0.134766,0.49646,-0.023621,0.687622,0.529297,up
33015,-6.9375,6.523437,0.976562,0.083984,0.224609,0.123047,0.495178,-0.023743,0.688416,0.529419,up
33020,-6.980469,6.5625,0.9375,0.083984,0.224609,0.123047,0.49408,-0.023682,0.689209,0.529419,up
33025,-6.980469,6.597656,0.976562,0.083984,0.224609,0.123047,0.49408,-0.023682,0.689209,0.529419,up
33030,-6.941406,6.5625,0.976562,0.083984,0.224609,0.123047,0.493286,-0.02356,0.689819,0.529358,up
33035,-6.976562,6.597656,1.015625,0.076172,0.128906,0.0625,0.493286,-0.02356,0.689819,0.529358,up
33040,-6.980469,6.5625,0.976562,0.076172,0.128906,0.0625,0.492981,-0.02356,0.690125,0.529297,up
33045,-6.941406,6.5625,0.9375,0.068359,0.103516,0.048828,0.492981,-0.02356,0.690125,0.529297,up
33050,-6.941406,6.5625,0.976562,0.068359,0.103516,0.048828,0.492493,-0.023499,0.690552,0.529175,up
33055,-6.980469,6.5625,0.9375,0.068359,0.103516,0.048828,0.492371,-0.023499,0.690735,0.529114,up
33060,-6.941406,6.5625,0.9375,0.029297,0.048828,-0.009766,0.492249,-0.02356,0.690918,0.528992,up
33065,-6.980469,6.597656,0.976562,0.029297,0.048828,-0.009766,0.492249,-0.023621,0.690918,0.528931,up
33070,-6.976562,6.5625,1.015625,0.029297,0.048828,-0.009766,0.492249,-0.023621,0.690918,0.528931,up
33075,-6.980469,6.597656,0.976562,0.029297,0.001953,-0.054687,0.492249,-0.023621,0.690918,0.528931,up
33080,-6.980469,6.597656,0.976562,0.03125,-0.011719,-0.078125,0.492249,-0.023621,0.690918,0.528931,up
33086,-6.980469,6.5625,0.9375,0.03125,-0.011719,-0.078125,0.492676,-0.023926,0.690979,0.528381,up
33091,-6.980469,6.5625,0.9375,0.046875,-0.027344,-0.101563,0.492859,-0.023987,0.690979,0.528198,up
33096,-6.941406,6.597656,0.9375,0.058594,-0.044922,-0.111328,0.493103,-0.024048,0.69104,0.528015,up
33101,-6.941406,6.597656,0.9375,0.058594,-0.044922,-0.111328,0.493286,-0.024109,0.69104,0.527771,up
33106,-6.941406,6.636719,0.976562,0.058594,-0.044922,-0.111328,0.493591,-0.024109,0.69104,0.527466,up
33111,-6.859375,6.636719,0.976562,0.113281,-0.056641,-0.117188,0.493835,-0.024109,0.691101,0.527161,up
33117,-6.898437,6.597656,0.9375,0.113281,-0.056641,-0.117188,0.49408,-0.024109,0.691162,0.526855,up
33122,-6.898437,6.636719,0.9375,0.113281,-0.056641,-0.117188,0.494385,-0.024048,0.691223,0.526489,up
33127,-6.898437,6.636719,0.976562,0.160156,-0.074219,-0.123047,0.494385,-0.024048,0.691223,0.526489,up
33132,-6.898437,6.597656,0.976562,0.169922,-0.080078,-0.117188,0.494385,-0.024048,0.691223,0.526489,up
33138,-6.898437,6.636719,0.976562,0.169922,-0.080078,-0.117188,0.4953,-0.023743,0.691528,0.525208,up
33143,-6.902344,6.675781,0.976562,0.191406,-0.099609,-0.126953,0.4953,-0.023743,0.691528,0.525208,up
33148,-6.898437,6.714844,0.976562,0.195312,-0.105469,-0.132812,0.4953,-0.023743,0.691528,0.525208,up
33153,-6.941406,6.714844,0.9375,0.191406,-0.111328,-0.148437,0.4953,-0.023743,0.691528,0.525208,up
33158,-6.859375,6.789062,0.824219,0.191406,-0.111328,-0.148437,0.496826,-0.023193,0.691956,0.523254,up
33163,-6.859375,6.789062,0.859375,0.179687,-0.134766,-0.160156,0.496826,-0.023193,0.691956,0.523254,up
33168,-6.898437,6.789062,0.824219,0.160156,-0.138672,-0.164062,0.496826,-0.023193,0.691956,0.523254,up
33174,-6.863281,6.828125,0.785156,0.160156,-0.138672,-0.164062,0.49823,-0.022888,0.692017,0.521851,up
33179,-6.824219,6.832031,0.785156,0.160156,-0.138672,-0.164062,0.49823,-0.022888,0.692017,0.521851,up
33184,-6.785156,6.828125,0.785156,0.101563,-0.154297,-0.177734,0.49823,-0.022888,0.692017,0.521851,up
33189,-6.863281,6.90625,0.746094,0.101563,-0.154297,-0.177734,0.499817,-0.022827,0.691833,0.52063,up
33194,-6.863281,6.90625,0.707031,0.101563,-0.154297,-0.177734,0.500305,-0.022827,0.691711,0.520325,up
33200,-6.902344,6.90625,0.632812,0.001953,-0.123047,-0.189453,0.500305,-0.022827,0.691711,0.520325,up
33205,-6.976562,6.867187,0.667969,0.001953,-0.123047,-0.189453,0.501221,-0.023071,0.691406,0.519836,up
33210,-6.976562,6.867187,0.667969,0.001953,-0.123047,-0.189453,0.502136,-0.023437,0.69104,0.519409,up
33215,-6.976562,6.867187,0.667969,0.001953,-0.123047,-0.189453,0.502136,-0.023437,0.69104,0.519409,up
33220,-6.9375,6.789062,0.707031,-0.037109,-0.080078,-0.199219,0.502136,-0.023437,0.69104,0.519409,up
33225,-6.980469,6.753906,0.746094,-0.037109,-0.0625,-0.195312,0.502136,-0.023437,0.69104,0.519409,up
33230,-6.980469,6.714844,0.632812,-0.037109,-0.0625,-0.195312,0.503296,-0.024353,0.690552,0.51886,up
33235,-6.902344,6.789062,0.667969,-0.037109,-0.0625,-0.195312,0.503662,-0.024658,0.690491,0.518616,up
33241,-7.019531,6.789062,0.667969,0.023437,-0.007813,-0.177734,0.50415,-0.025146,0.69043,0.518127,up
33246,-6.976562,6.828125,0.632812,0.023437,-0.007813,-0.177734,0.504395,-0.025391,0.690491,0.517883,up
33251,-7.019531,6.867187,0.59375,0.060547,0.011719,-0.162109,0.504395,-0.025391,0.690491,0.517883,up
33256,-6.941406,6.828125,0.554687,0.082031,0.015625,-0.154297,0.504639,-0.025635,0.690552,0.517578,up
33261,-6.941406,6.828125,0.554687,0.123047,0.023437,-0.134766,0.504944,-0.026001,0.690735,0.516907,up
33266,-7.019531,6.945312,0.441406,0.123047,0.023437,-0.134766,0.505127,-0.026062,0.690979,0.516479,up
33271,-7.015625,7.015625,0.476562,0.123047,0.023437,-0.134766,0.505249,-0.026123,0.691162,0.516113,up
33276,-7.054687,7.058594,0.441406,0.123047,0.023437,-0.134766,0.505249,-0.026123,0.691162,0.516113,up
33281,-7.167969,7.210937,0.402344,0.173828,0.056641,-0.089844,0.505249,-0.026123,0.691162,0.516113,up
33287,-7.207031,7.214844,0.441406,0.173828,0.056641,-0.089844,0.505371,-0.026245,0.691895,0.514954,up
33292,-7.207031,7.210937,0.402344,0.087891,0.09375,-0.078125,0.505371,-0.026245,0.691895,0.514954,up
33297,-7.246094,7.175781,0.363281,0.056641,0.105469,-0.074219,0.505371,-0.026245,0.691895,0.514954,up
33302,-7.167969,7.171875,0.324219,0.056641,0.105469,-0.074219,0.505188,-0.026733,0.692505,0.514282,up
33308,-7.246094,7.210937,0.363281,0.056641,0.105469,-0.074219,0.505127,-0.026978,0.692688,0.51416,up
33314,-7.207031,7.175781,0.363281,0.005859,0.126953,-0.078125,0.505127,-0.026978,0.692688,0.51416,up
33319,-7.242187,7.097656,0.285156,0.013672,0.126953,-0.074219,0.505127,-0.026978,0.692688,0.51416,up
33324,-7.203125,7.136719,0.285156,0.03125,0.126953,-0.072266,0.505127,-0.026978,0.692688,0.51416,up
33329,-7.203125,7.175781,0.324219,0.042969,0.128906,-0.068359,0.505127,-0.026978,0.692688,0.51416,up
33334,-7.203125,7.175781,0.324219,0.042969,0.115234,-0.0625,0.505127,-0.026978,0.692688,0.51416,up
33339,-7.207031,7.175781,0.285156,0.042969,0.115234,-0.0625,0.505127,-0.026978,0.692688,0.51416,up
33344,-7.203125,7.136719,0.285156,0.042969,0.115234,-0.0625,0.504333,-0.028625,0.693909,0.513123,up
33349,-7.242187,7.175781,0.324219,0.072266,0.101563,-0.044922,0.504333,-0.028625,0.693909,0.513123,up
33354,-7.285156,7.210937,0.285156,0.072266,0.101563,-0.044922,0.50415,-0.02887,0.694336,0.512756,up
33360,-7.363281,7.210937,0.246094,0.072266,0.101563,-0.044922,0.504028,-0.028931,0.694702,0.512329,up
33365,-7.402344,7.289062,0.210937,0.072266,0.101563,-0.044922,0.504028,-0.028931,0.694702,0.512329,up
33370,-7.4375,7.328125,0.210937,0.089844,0.050781,-0.025391,0.504028,-0.028931,0.694702,0.512329,up
33375,-7.480469,7.367187,0.171875,0.089844,0.050781,-0.025391,0.503906,-0.02887,0.695068,0.511963,up
33380,-7.476562,7.328125,0.210937,0.089844,0.050781,-0.025391,0.503906,-0.028809,0.695251,0.511719,up
33386,-7.476562,7.328125,0.246094,0.095703,0.005859,-0.039063,0.504028,-0.028748,0.695435,0.511353,up
33391,-7.480469,7.367187,0.171875,0.095703,0.005859,-0.039063,0.50415,-0.028687,0.695557,0.511169,up
33396,-7.519531,7.367187,0.132812,0.095703,0.005859,-0.039063,0.504272,-0.028625,0.695557,0.510986,up
33401,-7.480469,7.328125,0.171875,0.095703,0.005859,-0.039063,0.504272,-0.028625,0.695557,0.510986,up
33406,-7.441406,7.328125,0.171875,0.046875,-0.058594,-0.064453,0.504639,-0.028625,0.695496,0.510681,up
33411,-7.402344,7.328125,0.132812,0.046875,-0.058594,-0.064453,0.504883,-0.028564,0.695435,0.510559,up
33416,-7.398437,7.289062,0.171875,0.046875,-0.058594,-0.064453,0.505127,-0.028625,0.695312,0.510437,up
33421,-7.359375,7.289062,0.171875,0.046875,-0.058594,-0.064453,0.505127,-0.028625,0.695312,0.510437,up
33426,-7.320312,7.25,0.132812,-0.009766,-0.099609,-0.072266,0.505127,-0.028625,0.695312,0.510437,up
33431,-7.320312,7.25,0.132812,-0.009766,-0.099609,-0.072266,0.50592,-0.028625,0.694885,0.510254,up
33436,-7.28125,7.25,0.171875,-0.023437,-0.099609,-0.056641,0.50592,-0.028625,0.694885,0.510254,up
33441,-7.285156,7.210937,0.132812,-0.023437,-0.101563,-0.048828,0.506165,-0.028625,0.694702,0.510254,up
33447,-7.285156,7.210937,0.132812,-0.03125,-0.103516,-0.03125,0.506653,-0.028564,0.694336,0.510254,up
33452,-7.28125,7.097656,0.09375,-0.03125,-0.103516,-0.03125,0.506897,-0.028564,0.694153,0.510254,up
33458,-7.285156,7.058594,0.09375,-0.005859,-0.103516,-0.021484,0.50708,-0.028442,0.694031,0.510254,up
33464,-7.207031,6.984375,0.09375,-0.005859,-0.103516,-0.021484,0.507324,-0.028381,0.693848,0.510254,up
33469,-7.207031,6.984375,0.09375,0.015625,-0.095703,0.001953,0.507324,-0.028381,0.693848,0.510254,up
33474,-7.207031,6.984375,0.09375,0.015625,-0.087891,0.003906,0.507324,-0.028381,0.693848,0.510254,up
33479,-7.203125,6.984375,0.054687,0.029297,-0.083984,0.009766,0.507324,-0.028381,0.693848,0.510254,up
33485,-7.203125,6.945312,0.09375,0.035156,-0.066406,0.029297,0.507324,-0.028381,0.693848,0.510254,up
33490,-7.164062,6.945312,0.132812,0.035156,-0.066406,0.029297,0.508057,-0.027649,0.69342,0.510193,up
33496,-7.164062,6.90625,0.171875,0.027344,-0.048828,0.033203,0.508057,-0.027649,0.69342,0.510193,up
33501,-7.164062,6.828125,0.171875,0.027344,-0.048828,0.033203,0.50824,-0.0271,0.693237,0.510254,up
33506,-7.164062,6.789062,0.171875,0.027344,-0.048828,0.033203,0.50824,-0.0271,0.693237,0.510254,up
33511,-7.164062,6.714844,0.246094,-0.005859,-0.03125,0.046875,0.50824,-0.0271,0.693237,0.510254,up
33516,-7.125,6.636719,0.246094,-0.005859,-0.03125,0.046875,0.50824,-0.026733,0.693054,0.510498,up
33521,-7.097656,6.636719,0.246094,-0.005859,-0.03125,0.046875,0.50824,-0.026611,0.692993,0.51062,up
33526,-7.058594,6.523437,0.363281,-0.005859,-0.03125,0.046875,0.50824,-0.026611,0.692993,0.51062,up
33531,-7.019531,6.40625,0.402344,-0.029297,-0.007813,0.048828,0.508179,-0.026489,0.692871,0.510864,up
33536,-7.019531,6.371094,0.441406,-0.029297,-0.007813,0.048828,0.508179,-0.026489,0.692871,0.510864,up
33541,-6.980469,6.332031,0.363281,-0.001953,-0.005859,0.039063,0.508179,-0.026489,0.692871,0.510864,up
33546,-7.019531,6.332031,0.441406,-0.001953,-0.005859,0.039063,0.508057,-0.026367,0.69281,0.511047,up
33552,-6.941406,6.292969,0.476562,-0.001953,-0.005859,0.039063,0.508057,-0.026184,0.69281,0.511108,up
33558,-6.976562,6.371094,0.441406,-0.001953,-0.005859,0.039063,0.508118,-0.026062,0.69281,0.511108,up
33563,-6.976562,6.332031,0.441406,0.066406,-0.044922,0.001953,0.508179,-0.025879,0.69281,0.510986,up
33570,-7.015625,6.371094,0.476562,0.083984,-0.0625,-0.011719,0.508179,-0.025879,0.69281,0.510986,up
33575,-6.980469,6.40625,0.515625,0.083984,-0.0625,-0.011719,0.508423,-0.025574,0.69281,0.510742,up
33580,-7.054687,6.40625,0.554687,0.074219,-0.080078,-0.035156,0.508423,-0.025574,0.69281,0.510742,up
33586,-7.058594,6.445312,0.515625,0.054687,-0.087891,-0.042969,0.509033,-0.025208,0.692688,0.510315,up
33591,-7.054687,6.523437,0.515625,0.054687,-0.087891,-0.042969,0.509338,-0.025208,0.692566,0.510193,up
33596,-7.097656,6.484375,0.554687,0.054687,-0.087891,-0.042969,0.509644,-0.025146,0.692444,0.510132,up
33601,-7.125,6.523437,0.515625,0.054687,-0.087891,-0.042969,0.509644,-0.025146,0.692444,0.510132,up
33606,-7.125,6.523437,0.554687,-0.039063,-0.117188,-0.091797,0.509644,-0.025146,0.692444,0.510132,up
33611,-7.125,6.523437,0.515625,-0.039063,-0.117188,-0.091797,0.510742,-0.025391,0.69165,0.51001,up
33616,-7.125,6.523437,0.515625,-0.091797,-0.152344,-0.117188,0.510742,-0.025391,0.69165,0.51001,up
33621,-7.097656,6.484375,0.554687,-0.091797,-0.158203,-0.130859,0.511108,-0.025513,0.691345,0.510071,up
33626,-7.097656,6.484375,0.554687,-0.091797,-0.158203,-0.130859,0.511536,-0.025635,0.690979,0.510071,up
33631,-7.097656,6.484375,0.554687,-0.087891,-0.175781,-0.148437,0.511963,-0.025757,0.690674,0.510071,up
33636,-7.058594,6.445312,0.554687,-0.087891,-0.175781,-0.148437,0.512512,-0.02594,0.690308,0.510071,up
33641,-7.09375,6.484375,0.59375,-0.087891,-0.175781,-0.148437,0.512939,-0.026062,0.689941,0.510071,up
33647,-7.09375,6.484375,0.59375,-0.076172,-0.179687,-0.15625,0.514038,-0.026367,0.689209,0.509949,up
33652,-7.125,6.445312,0.59375,-0.052734,-0.1875,-0.164062,0.514038,-0.026367,0.689209,0.509949,up
33657,-7.128906,6.484375,0.59375,-0.052734,-0.1875,-0.164062,0.515076,-0.02655,0.688599,0.509766,up
33663,-7.164062,6.445312,0.632812,-0.052734,-0.1875,-0.164062,0.515564,-0.026611,0.688293,0.509644,up
33668,-7.128906,6.40625,0.59375,-0.052734,-0.1875,-0.164062,0.516113,-0.026672,0.687988,0.50946,up
33673,-7.164062,6.371094,0.632812,0.015625,-0.177734,-0.169922,0.516663,-0.026733,0.687805,0.509216,up
33678,-7.164062,6.371094,0.632812,0.039063,-0.179687,-0.171875,0.517151,-0.026794,0.687561,0.509033,up
33684,-7.167969,6.523437,0.632812,0.039063,-0.179687,-0.171875,0.5177,-0.026794,0.687378,0.508728,up
33690,-7.359375,6.445312,0.746094,0.080078,-0.191406,-0.181641,0.5177,-0.026794,0.687378,0.508728,up
33695,-7.054687,6.292969,0.746094,0.080078,-0.191406,-0.181641,0.518799,-0.026672,0.687073,0.507996,up
33701,-7.398437,6.789062,0.554687,0.115234,-0.193359,-0.193359,0.519958,-0.02655,0.686829,0.507202,up
33706,-7.324219,6.597656,0.59375,0.115234,-0.193359,-0.193359,0.519958,-0.02655,0.686829,0.507202,up
33711,-7.398437,6.636719,0.632812,0.164062,-0.222656,-0.183594,0.519958,-0.02655,0.686829,0.507202,up
33716,-7.398437,6.753906,0.707031,0.164062,-0.222656,-0.183594,0.521179,-0.026306,0.686584,0.506226,up
33721,-7.324219,6.753906,0.707031,0.164062,-0.222656,-0.183594,0.521851,-0.026123,0.686462,0.505737,up
33726,-7.324219,6.753906,0.667969,0.164062,-0.222656,-0.183594,0.522583,-0.025879,0.686279,0.505249,up
33732,-7.320312,6.789062,0.667969,0.101563,-0.263672,-0.154297,0.523865,-0.025513,0.685852,0.504517,up
33737,-7.285156,6.675781,0.667969,0.101563,-0.263672,-0.154297,0.524414,-0.02533,0.685608,0.504272,up
33742,-7.324219,6.636719,0.707031,0.048828,-0.269531,-0.140625,0.524414,-0.02533,0.685608,0.504272,up
33747,-7.324219,6.636719,0.746094,0.048828,-0.269531,-0.140625,0.525757,-0.024963,0.684937,0.503723,up
33752,-7.28125,6.597656,0.667969,0.048828,-0.269531,-0.140625,0.525757,-0.024963,0.684937,0.503723,up
33757,-7.242187,6.5625,0.667969,0.005859,-0.275391,-0.134766,0.526428,-0.02478,0.684631,0.50354,up
33762,-7.242187,6.445312,0.707031,0.005859,-0.275391,-0.134766,0.52771,-0.024536,0.683899,0.503235,up
33767,-7.203125,6.445312,0.707031,0.005859,-0.275391,-0.134766,0.52771,-0.024536,0.683899,0.503235,up
33772,-7.207031,6.40625,0.707031,0.005859,-0.275391,-0.134766,0.528931,-0.024353,0.683105,0.503052,up
33778,-7.207031,6.40625,0.746094,-0.03125,-0.25,-0.140625,0.529602,-0.024353,0.682617,0.50293,up
33783,-7.242187,6.445312,0.707031,-0.03125,-0.25,-0.140625,0.530151,-0.024292,0.682312,0.502869,up
33788,-7.246094,6.40625,0.707031,0.003906,-0.238281,-0.146484,0.530151,-0.024292,0.682312,0.502869,up
33794,-7.242187,6.445312,0.707031,0.003906,-0.238281,-0.146484,0.531311,-0.02417,0.681641,0.502502,up
33799,-7.285156,6.484375,0.746094,0.023437,-0.238281,-0.148437,0.531921,-0.024109,0.681335,0.502258,up
33805,-7.324219,6.445312,0.785156,0.042969,-0.226562,-0.146484,0.531921,-0.024109,0.681335,0.502258,up
33811,-7.246094,6.484375,0.707031,0.042969,-0.226562,-0.146484,0.533081,-0.023926,0.680786,0.50177,up
33816,-7.285156,6.484375,0.707031,0.0625,-0.208984,-0.140625,0.533081,-0.023926,0.680786,0.50177,up
33822,-7.28125,6.445312,0.785156,0.064453,-0.201172,-0.140625,0.534668,-0.023621,0.680115,0.500977,up
33827,-7.28125,6.445312,0.746094,0.064453,-0.201172,-0.140625,0.535217,-0.023499,0.679932,0.500671,up
33832,-7.320312,6.445312,0.824219,0.070312,-0.199219,-0.121094,0.535767,-0.023315,0.679749,0.500366,up
33837,-7.246094,6.40625,0.746094,0.070312,-0.199219,-0.121094,0.536194,-0.023193,0.679565,0.500183,up
33842,-7.207031,6.40625,0.785156,0.072266,-0.1875,-0.105469,0.536194,-0.023193,0.679565,0.500183,up
33848,-7.203125,6.371094,0.785156,0.072266,-0.1875,-0.105469,0.537109,-0.022888,0.679199,0.499634,up
33854,-7.242187,6.371094,0.785156,0.082031,-0.175781,-0.091797,0.537537,-0.022705,0.679077,0.49939,up
33859,-7.207031,6.371094,0.824219,0.099609,-0.179687,-0.083984,0.537537,-0.022705,0.679077,0.49939,up
33864,-7.28125,6.40625,0.898437,0.099609,-0.179687,-0.083984,0.538391,-0.022278,0.678772,0.498901,up
33870,-7.28125,6.40625,0.898437,0.119141,-0.166016,-0.078125,0.538391,-0.022278,0.678772,0.498901,up
33875,-7.246094,6.445312,0.859375,0.126953,-0.158203,-0.080078,0.538391,-0.022278,0.678772,0.498901,up
33880,-7.324219,6.484375,0.824219,0.128906,-0.152344,-0.082031,0.538391,-0.022278,0.678772,0.498901,up
33885,-7.320312,6.445312,0.824219,0.128906,-0.138672,-0.083984,0.538391,-0.022278,0.678772,0.498901,up
33890,-7.324219,6.523437,0.859375,0.125,-0.142578,-0.089844,0.538391,-0.022278,0.678772,0.498901,up
33895,-7.320312,6.523437,0.9375,0.132812,-0.146484,-0.091797,0.538391,-0.022278,0.678772,0.498901,up
33900,-7.359375,6.597656,0.976562,0.132812,-0.146484,-0.091797,0.538391,-0.022278,0.678772,0.498901,up
33905,-7.402344,6.675781,0.9375,0.132812,-0.146484,-0.091797,0.541443,-0.02063,0.678223,0.496399,up
33910,-7.402344,6.675781,0.9375,0.083984,-0.179687,-0.140625,0.541443,-0.02063,0.678223,0.496399,up
33916,-7.359375,6.714844,0.9375,0.083984,-0.179687,-0.140625,0.54248,-0.020447,0.677917,0.495728,up
33922,-7.398437,6.753906,0.9375,0.083984,-0.179687,-0.140625,0.54364,-0.020447,0.677307,0.4953,up
33927,-7.402344,6.714844,0.859375,-0.076172,-0.277344,-0.210937,0.54364,-0.020447,0.677307,0.4953,up
33932,-7.398437,6.675781,0.898437,-0.076172,-0.277344,-0.210937,0.544373,-0.020508,0.676819,0.495117,up
33937,-7.359375,6.597656,0.9375,-0.076172,-0.277344,-0.210937,0.545166,-0.020691,0.67627,0.494995,up
33942,-7.359375,6.636719,0.9375,-0.162109,-0.328125,-0.246094,0.546814,-0.021118,0.674988,0.494934,up
33947,-7.320312,6.5625,1.015625,-0.255859,-0.353516,-0.267578,0.546814,-0.021118,0.674988,0.494934,up
33952,-7.28125,6.5625,0.9375,-0.316406,-0.349609,-0.279297,0.547791,-0.021484,0.674133,0.494995,up
33957,-7.246094,6.523437,0.9375,-0.316406,-0.349609,-0.279297,0.548645,-0.021851,0.67334,0.495117,up
33962,-7.242187,6.445312,0.9375,-0.416016,-0.34375,-0.283203,0.549622,-0.0224,0.672302,0.495361,up
33967,-7.207031,6.371094,1.015625,-0.416016,-0.34375,-0.283203,0.550537,-0.02301,0.671326,0.495667,up
33973,-7.207031,6.332031,1.015625,-0.416016,-0.34375,-0.283203,0.552185,-0.024292,0.669373,0.496399,up
33978,-7.207031,6.214844,1.015625,-0.458984,-0.289063,-0.283203,0.553101,-0.025146,0.668274,0.496826,up
33984,-7.242187,6.140625,1.015625,-0.458984,-0.289063,-0.283203,0.553833,-0.025818,0.667358,0.497192,up
33989,-7.242187,6.023437,1.050781,-0.458984,-0.289063,-0.283203,0.554626,-0.02655,0.666443,0.497498,up
33995,-7.242187,5.949219,1.050781,-0.394531,-0.21875,-0.267578,0.554626,-0.02655,0.666443,0.497498,up
34000,-7.246094,5.910156,1.050781,-0.339844,-0.197266,-0.259766,0.554626,-0.02655,0.666443,0.497498,up
34005,-7.164062,5.832031,1.089844,-0.271484,-0.193359,-0.246094,0.554626,-0.02655,0.666443,0.497498,up
34012,-7.203125,5.832031,1.128906,-0.207031,-0.179687,-0.244141,0.554626,-0.02655,0.666443,0.497498,up
34017,-7.203125,5.832031,1.167969,-0.148437,-0.169922,-0.246094,0.554626,-0.02655,0.666443,0.497498,up
34022,-7.242187,5.910156,1.167969,-0.076172,-0.169922,-0.251953,0.55896,-0.03009,0.662292,0.497925,up
34027,-7.242187,6.0625,1.207031,-0.076172,-0.169922,-0.251953,0.55896,-0.03009,0.662292,0.497925,up
34032,-7.28125,6.179687,1.242188,0.130859,-0.216797,-0.298828,0.559692,-0.030273,0.662048,0.497498,up
34037,-7.320312,6.292969,1.242188,0.130859,-0.216797,-0.298828,0.560425,-0.030334,0.661865,0.496948,up
34042,-7.359375,6.597656,1.128906,0.130859,-0.216797,-0.298828,0.561157,-0.030334,0.661682,0.496338,up
34047,-7.398437,6.597656,1.128906,0.130859,-0.216797,-0.298828,0.562073,-0.030334,0.661499,0.495544,up
34052,-7.441406,6.636719,1.128906,0.140625,-0.255859,-0.388672,0.562073,-0.030334,0.661499,0.495544,up
34057,-7.476562,6.675781,1.089844,0.140625,-0.255859,-0.388672,0.563904,-0.030396,0.661133,0.493896,up
34062,-7.480469,6.597656,1.128906,0.140625,-0.255859,-0.388672,0.564819,-0.03064,0.660889,0.493225,up
34067,-7.515625,6.5625,1.128906,-0.085937,-0.28125,-0.455078,0.565674,-0.030884,0.660583,0.492615,up
34072,-7.519531,6.484375,1.089844,-0.085937,-0.28125,-0.455078,0.566772,-0.031372,0.660095,0.492004,up
34077,-7.550781,6.445312,1.089844,-0.326172,-0.287109,-0.513672,0.567749,-0.032043,0.659485,0.491638,up
34082,-7.550781,6.445312,1.089844,-0.445312,-0.294922,-0.541016,0.568787,-0.032837,0.658691,0.491394,up
34087,-7.742187,6.292969,1.128906,-0.572266,-0.304688,-0.576172,0.569885,-0.033875,0.657776,0.491333,up
34092,-7.664062,6.253906,1.320313,-0.572266,-0.304688,-0.576172,0.571106,-0.035217,0.656616,0.491394,up
34097,-7.707031,6.484375,1.207031,-0.572266,-0.304688,-0.576172,0.573303,-0.038269,0.654114,0.491943,up
34102,-7.785156,6.292969,0.898437,-0.572266,-0.304688,-0.576172,0.573303,-0.038269,0.654114,0.491943,up
34107,-7.863281,6.140625,0.976562,-0.572266,-0.304688,-0.576172,0.574463,-0.040588,0.652588,0.492432,up
34113,-7.902344,6.023437,1.167969,-0.912109,-0.193359,-0.716797,0.576599,-0.044922,0.649719,0.493347,up
34118,-7.933594,6.0625,1.472656,-0.912109,-0.193359,-0.716797,0.576599,-0.044922,0.649719,0.493347,up
34123,-7.933594,6.0625,1.472656,-0.894531,-0.251953,-0.8125,0.577759,-0.046997,0.648254,0.493652,up
34128,-8.011719,6.140625,1.550781,-0.894531,-0.251953,-0.8125,0.579163,-0.049316,0.646667,0.493896,up
34133,-8.164063,6.445312,1.78125,-0.861328,-0.347656,-0.962891,0.580688,-0.051636,0.64502,0.494019,up
34138,-8.164063,6.484375,1.855469,-0.873047,-0.419922,-1.025391,0.582458,-0.054077,0.643188,0.494019,up
34144,-8.285156,6.445312,1.855469,-0.873047,-0.419922,-1.025391,0.586304,-0.059082,0.639282,0.494019,up
34149,-8.285156,6.40625,1.78125,-1.087891,-0.455078,-1.142578,0.586304,-0.059082,0.639282,0.494019,up
34155,-8.355469,6.214844,1.589844,-1.087891,-0.455078,-1.142578,0.590271,-0.064819,0.634888,0.494263,up
34160,-8.3125,6.214844,1.664063,-1.310547,-0.416016,-1.148438,0.592163,-0.067932,0.632507,0.494629,up
34165,-8.355469,6.179687,1.703125,-1.423828,-0.396484,-1.144531,0.592163,-0.067932,0.632507,0.494629,up
34170,-8.390625,5.757812,1.972656,-1.525391,-0.375,-1.128906,0.592163,-0.067932,0.632507,0.494629,up
34175,-8.390625,5.488281,1.972656,-1.621094,-0.335938,-1.140625,0.592163,-0.067932,0.632507,0.494629,up
34180,-8.46875,5.375,1.933594,-1.708984,-0.269531,-1.166016,0.592163,-0.067932,0.632507,0.494629,up
34185,-8.511719,5.410156,2.011719,-1.777344,-0.224609,-1.201172,0.592163,-0.067932,0.632507,0.494629,up
34190,-8.855469,5.640625,2.277344,-1.777344,-0.224609,-1.201172,0.592163,-0.067932,0.632507,0.494629,up
34195,-9.007813,5.796875,2.429688,-1.886719,-0.291016,-1.367188,0.592163,-0.067932,0.632507,0.494629,up
34201,-9.050781,5.871094,2.507813,-1.943359,-0.328125,-1.501953,0.592163,-0.067932,0.632507,0.494629,up
34206,-9.007813,6.179687,2.429688,-1.943359,-0.328125,-1.501953,0.607483,-0.105347,0.606323,0.502197,up
34211,-9.121094,6.101562,2.394531,-2.160156,-0.333984,-1.794922,0.607483,-0.105347,0.606323,0.502197,up
34216,-9.121094,5.988281,2.507813,-2.279297,-0.369141,-1.935547,0.607483,-0.105347,0.606323,0.502197,up
34222,-9.121094,5.988281,2.507813,-2.425781,-0.439453,-2.066406,0.614197,-0.122437,0.594788,0.504028,up
34227,-9.050781,5.71875,2.621094,-2.425781,-0.439453,-2.066406,0.614197,-0.122437,0.594788,0.504028,up
34232,-9.046875,5.566406,2.660156,-2.568359,-0.460937,-2.1875,0.619263,-0.135498,0.585571,0.505188,up
34237,-9.050781,5.410156,2.738281,-3.109375,-0.398438,-2.314453,0.619263,-0.135498,0.585571,0.505188,up
34242,-9.542969,4.453125,3.351563,-3.109375,-0.398438,-2.314453,0.624146,-0.150269,0.575256,0.506897,up
34247,-9.621094,4.300781,3.542969,-3.109375,-0.398438,-2.314453,0.626526,-0.158203,0.569519,0.507996,up
34252,-9.8125,4.261719,3.65625,-3.109375,-0.398438,-2.314453,0.628845,-0.166687,0.563354,0.509338,up
34258,-10.195313,4.261719,3.734375,-3.361328,-0.316406,-2.224609,0.628845,-0.166687,0.563354,0.509338,up
34263,-10.699219,4.800781,4.078125,-3.361328,-0.316406,-2.224609,0.634216,-0.189819,0.546448,0.513,up
34268,-10.921875,4.914062,4.230469,-3.361328,-0.316406,-2.224609,0.634216,-0.189819,0.546448,0.513,up
34273,-11.152344,5.027344,4.308594,-3.220703,-0.289063,-2.195313,0.637512,-0.206055,0.534546,0.515137,up
34278,-11.570313,5.296875,4.230469,-3.171875,-0.025391,-2.142578,0.638733,-0.213501,0.529419,0.51593,up
34283,-12.074219,5.566406,4.078125,-3.171875,-0.025391,-2.142578,0.639648,-0.220947,0.524414,0.516724,up
34288,-12.917969,5.601562,4.039062,-3.128906,0.101563,-1.972656,0.639648,-0.220947,0.524414,0.516724,up
34293,-13.339844,5.375,4.117187,-3.189453,0.279297,-1.818359,0.640503,-0.229492,0.518799,0.517639,up
34298,-15.09375,5.183594,4.460937,-3.189453,0.279297,-1.818359,0.640747,-0.244385,0.509644,0.519592,up
34303,-15.09375,5.183594,4.460937,-3.189453,0.279297,-1.818359,0.640747,-0.244385,0.509644,0.519592,up
34308,-15.859375,5.183594,4.804687,-3.107422,0.539062,-1.345703,0.640747,-0.244385,0.509644,0.519592,up
34313,-15.859375,5.183594,4.804687,-2.765625,0.734375,-0.529297,0.637146,-0.265442,0.498474,0.524475,up
34318,-20.652344,5.144531,7.296875,-2.765625,0.734375,-0.529297,0.637146,-0.265442,0.498474,0.524475,up
34323,-22.03125,5.257812,7.910156,-1.957031,1.107422,0.869141,0.637146,-0.265442,0.498474,0.524475,up
34328,-23.261719,4.492187,8.714844,-1.957031,1.107422,0.869141,0.626465,-0.277893,0.495972,0.533203,up
34333,-24.144531,3.535156,9.402344,-1.957031,1.107422,0.869141,0.620911,-0.278198,0.499023,0.536743,up
34338,-26.019531,4.03125,9.328125,-1.957031,1.107422,0.869141,0.612305,-0.275452,0.506348,0.541138,up
34343,-26.207031,4.570312,8.597656,-1.957031,1.107422,0.869141,0.612305,-0.275452,0.506348,0.541138,up
34348,-25.820312,5.296875,7.296875,2.736328,3.332031,6.642578,0.589844,-0.259583,0.531921,0.549316,up
34353,-24.25,10.046875,2.621094,2.736328,3.332031,6.642578,0.574036,-0.244995,0.551575,0.553345,up
34358,-22.984375,12.230469,0.054687,2.736328,3.332031,6.642578,0.574036,-0.244995,0.551575,0.553345,up
34363,-21.347656,14.222656,-2.433594,8.613281,5.849609,14.289063,0.574036,-0.244995,0.551575,0.553345,up
34368,-18.238281,18.929687,-6.953125,8.613281,5.849609,14.289063,0.531555,-0.202698,0.601562,0.560791,up
34374,-18.238281,18.929687,-6.953125,9.683594,6.837891,17.234375,0.47522,-0.1474,0.657532,0.565796,up
34379,-17.015625,22.875,-9.136719,9.287109,7.269531,18.546875,0.439026,-0.114624,0.686523,0.568176,up
34384,-16.632812,23.71875,-8.523438,9.287109,7.269531,18.546875,0.404114,-0.085144,0.709839,0.570557,up
34390,-17.742187,18.929687,-9.175781,9.287109,7.269531,18.546875,0.361206,-0.051086,0.733826,0.573059,up
34395,-18.089844,17.863281,-10.515625,8.560547,8.699219,21.162109,0.361206,-0.051086,0.733826,0.573059,up
34400,-19.121094,17.515625,-11.550781,8.658203,8.757813,21.019531,0.361206,-0.051086,0.733826,0.573059,up
34406,-19.042969,11.195313,-7.605469,8.527344,8.369141,20.248047,0.361206,-0.051086,0.733826,0.573059,up
34412,-17.320312,4.953125,-4.769531,7.917969,7.71875,19.005859,0.361206,-0.051086,0.733826,0.573059,up
34417,-14.675781,-4.738281,-1.207031,6.589844,7.722656,17.195312,0.361206,-0.051086,0.733826,0.573059,up
34423,-10.238281,-9.679688,10.167969,4.746094,7.921875,15.005859,0.361206,-0.051086,0.733826,0.573059,up
34428,-10.082031,-5.964844,15.535156,4.746094,7.921875,15.005859,0.02655,0.172058,0.819153,0.546509,up
34433,-9.238281,-5.46875,19.175781,4.746094,7.921875,15.005859,0.02655,0.172058,0.819153,0.546509,up
34438,-7.324219,-7.460937,20.167969,0.554687,5.171875,6.138672,0.02655,0.172058,0.819153,0.546509,up
34443,-8.585938,-7.191406,11.011719,0.554687,5.171875,6.138672,0.034363,-0.19751,-0.814209,-0.544861,up
34448,-10.234375,-7.230469,10.242188,-4.466797,2.683594,3.347656,0.034363,-0.19751,-0.814209,-0.544861,up
34453,-10.042969,-7.878906,11.625,-5.769531,1.074219,2.126953,0.046448,-0.201111,-0.806885,-0.553528,up
34458,-9.3125,-9.296875,13.617188,-5.769531,1.074219,2.126953,0.051453,-0.204651,-0.798096,-0.564392,up
34463,-6.136719,-11.097656,12.316406,-5.769531,1.074219,2.126953,0.051941,-0.207275,-0.789917,-0.574768,up
34468,-5.941406,-11.136719,11.167969,-2.044922,-1.875,-0.839844,0.049377,-0.209045,-0.782959,-0.583801,up
34473,-4.296875,-11.40625,10.972656,-2.044922,-1.875,-0.839844,0.0448,-0.210266,-0.77948,-0.588379,up
34478,-1.921875,-11.371094,10.972656,-2.044922,-1.875,-0.839844,0.030945,-0.212585,-0.77655,-0.592285,up
34483,-1.230469,-10.910156,10.207031,-2.044922,-1.875,-0.839844,0.023315,-0.213562,-0.774292,-0.595215,up
34488,-0.65625,-9.722656,5.800781,-2.044922,-1.875,-0.839844,0.023315,-0.213562,-0.774292,-0.595215,up
34493,0.222656,-8.339844,4.921875,-3.507813,-2.367188,-1.007813,0.007568,-0.216919,-0.765625,-0.605591,up
34498,1.71875,-5.3125,3.425781,-3.507813,-2.367188,-1.007813,0.000488,-0.21936,-0.760315,-0.611389,up
34503,2.023438,-3.742188,2.164063,-3.507813,-2.367188,-1.007813,0.000488,-0.21936,-0.760315,-0.611389,up
34508,2.0625,-2.25,0.515625,-3.363281,-1.400391,-0.132812,0.009399,0.223145,0.750061,0.622559,up
34513,2.332031,0.394531,-3.273438,-3.363281,-1.400391,-0.132812,0.009399,0.223145,0.750061,0.622559,up
34518,2.597656,1.65625,-4.3125,-1.146484,-0.058594,0.111328,0.011597,0.223999,0.746094,0.626892,up
34523,2.789063,3.152344,-4.5,-0.273438,0.054687,0.025391,0.012512,0.224365,0.743835,0.629456,up
34528,2.945313,4.300781,-4.15625,0.525391,0.216797,-0.181641,0.012878,0.224487,0.742554,0.63092,up
34533,2.945313,4.300781,-4.15625,0.964844,0.320313,-0.445312,0.012634,0.224121,0.742859,0.630676,up
34538,3.25,7.671875,-3.238281,0.964844,0.320313,-0.445312,0.012268,0.223267,0.74408,0.629517,up
34544,3.289063,8.746094,-3.125,0.958984,0.363281,-1.035156,0.012268,0.223267,0.74408,0.629517,up
34549,3.367188,10.546875,-3.351563,0.958984,0.363281,-1.035156,0.013,0.216614,0.750366,0.62439,up
34554,3.402344,11.3125,-3.429688,0.958984,0.363281,-1.035156,0.014343,0.21405,0.752258,0.622925,up
34559,3.519531,11.734375,-3.351563,0.65625,-0.259766,-1.695313,0.016907,0.21106,0.754395,0.621338,up
34565,3.671875,12.382813,-3.316406,0.478516,-0.486328,-1.798828,0.020325,0.20813,0.756348,0.619812,up
34570,3.75,12.6875,-3.125,0.478516,-0.486328,-1.798828,0.023437,0.205933,0.757629,0.618896,up
34576,3.671875,12.648438,-3.125,-0.099609,-0.623047,-1.78125,0.023437,0.205933,0.757629,0.618896,up
34582,3.632813,12.609375,-3.199219,-0.320313,-0.619141,-1.644531,0.023437,0.205933,0.757629,0.618896,up
34588,3.558594,12.421875,-3.046875,-0.486328,-0.603516,-1.449219,0.023437,0.205933,0.757629,0.618896,up
34593,3.367188,12.5,-2.96875,-0.486328,-0.603516,-1.449219,0.038635,0.197388,0.759033,0.619202,up
34598,3.175781,12.5,-2.96875,-0.484375,-0.429687,-0.667969,0.038635,0.197388,0.759033,0.619202,up
34603,2.980469,12.503906,-3.007813,-0.484375,-0.429687,-0.667969,0.044006,0.19519,0.75824,0.620483,up
34609,2.636719,12.609375,-2.96875,-0.484375,-0.429687,-0.667969,0.047241,0.194702,0.757507,0.621277,up
34614,2.40625,12.570313,-3.085938,0.052734,-0.259766,0.007813,0.047974,0.194946,0.757446,0.621216,up
34619,2.214844,12.53125,-3.160156,0.052734,-0.259766,0.007813,0.048218,0.195435,0.75769,0.62085,up
34624,1.949219,12.425781,-3.085938,0.052734,-0.259766,0.007813,0.048157,0.196228,0.758179,0.619995,up
34630,1.871094,12.230469,-2.894531,0.052734,-0.259766,0.007813,0.047852,0.197205,0.758911,0.618774,up
34636,1.757813,11.765625,-2.625,0.753906,-0.193359,0.316406,0.047424,0.198181,0.759827,0.61731,up
34641,1.601563,11.238281,-2.28125,0.796875,-0.1875,0.292969,0.046997,0.199036,0.760803,0.615906,up
34648,1.601563,10.960938,-2.011719,0.761719,-0.205078,0.275391,0.046997,0.199036,0.760803,0.615906,up
34653,1.601563,10.699219,-1.707031,0.455078,-0.277344,0.216797,0.046997,0.199036,0.760803,0.615906,up
34658,1.601563,10.351563,-1.550781,0.455078,-0.277344,0.216797,0.046204,0.201782,0.76355,0.611633,up
34664,1.601563,9.777344,-1.324219,0.212891,-0.267578,0.1875,0.046448,0.203369,0.764038,0.610535,up
34669,1.527344,9.472656,-1.285156,-0.246094,-0.212891,0.164062,0.046448,0.203369,0.764038,0.610535,up
34674,1.566406,9.28125,-1.285156,-0.378906,-0.220703,0.171875,0.046692,0.204041,0.763672,0.610718,up
34679,1.449219,9.089844,-1.398438,-0.378906,-0.220703,0.171875,0.047363,0.2052,0.762451,0.611816,up
34684,1.566406,9.125,-1.707031,-0.378906,-0.220703,0.171875,0.047729,0.205811,0.761658,0.612549,up
34689,1.601563,9.125,-1.742188,-0.632812,-0.224609,0.240234,0.047729,0.205811,0.761658,0.612549,up
34694,1.71875,8.667969,-1.667969,-0.621094,-0.15625,0.263672,0.048157,0.206543,0.76062,0.613586,up
34700,1.71875,8.667969,-1.667969,-0.621094,-0.15625,0.263672,0.048584,0.207764,0.758667,0.61554,up
34705,1.601563,8.78125,-2.164063,-0.240234,-0.105469,0.257813,0.048584,0.208435,0.757996,0.61615,up
34710,1.71875,8.703125,-2.050781,-0.240234,-0.105469,0.257813,0.048523,0.208984,0.757629,0.616394,up
34715,1.757813,8.785156,-2.089844,-0.240234,-0.105469,0.257813,0.048523,0.209717,0.757507,0.616333,up
34721,1.910156,8.902344,-2.089844,-0.240234,-0.105469,0.257813,0.048523,0.210388,0.757507,0.616089,up
34727,1.949219,8.941406,-2.011719,0.121094,-0.220703,0.199219,0.048523,0.210388,0.757507,0.616089,up
34732,1.910156,8.972656,-2.089844,0.130859,-0.236328,0.195312,0.048523,0.210388,0.757507,0.616089,up
34737,1.910156,9.007813,-2.203125,0.130859,-0.236328,0.195312,0.048767,0.212524,0.75769,0.615051,up
34743,1.910156,8.96875,-2.203125,0.083984,-0.236328,0.136719,0.048767,0.212524,0.75769,0.615051,up
34749,1.949219,9.167969,-2.28125,0.041016,-0.275391,0.113281,0.048767,0.212524,0.75769,0.615051,up
34754,1.910156,9.324219,-2.433594,0.041016,-0.275391,0.113281,0.050232,0.214966,0.757568,0.614258,up
34760,1.984375,9.46875,-2.546875,0.041016,-0.275391,0.113281,0.050781,0.215393,0.757324,0.614441,up
34765,1.984375,9.46875,-2.546875,-0.283203,-0.273438,-0.019531,0.051575,0.21582,0.756897,0.614746,up
34771,2.0625,9.550781,-2.664063,-0.283203,-0.273438,-0.019531,0.052246,0.216064,0.756409,0.615173,up
34777,1.984375,9.511719,-2.738281,-0.408203,-0.199219,-0.058594,0.052246,0.216064,0.756409,0.615173,up
34783,1.910156,9.46875,-2.738281,-0.400391,-0.160156,-0.066406,0.052246,0.216064,0.756409,0.615173,up
34788,1.871094,9.46875,-2.664063,-0.351563,-0.152344,-0.080078,0.052246,0.216064,0.756409,0.615173,up
34794,1.792969,9.46875,-2.625,-0.232422,-0.126953,-0.074219,0.052246,0.216064,0.756409,0.615173,up
34799,1.832031,9.433594,-2.585938,-0.232422,-0.126953,-0.074219,0.055908,0.21637,0.753601,0.618164,up
34804,1.792969,9.507813,-2.625,-0.232422,-0.126953,-0.074219,0.056274,0.216431,0.753479,0.618286,up
34809,1.71875,9.664063,-2.664063,-0.232422,-0.126953,-0.074219,0.056274,0.216431,0.753479,0.618286,up
34814,1.71875,9.703125,-2.625,-0.037109,-0.089844,0.021484,0.056274,0.216431,0.753479,0.618286,up
34819,1.679688,9.667969,-2.625,-0.037109,-0.089844,0.021484,0.056946,0.216797,0.753235,0.618408,up
34824,1.71875,9.703125,-2.703125,-0.037109,-0.089844,0.021484,0.057007,0.21698,0.753174,0.618347,up
34829,1.757813,9.667969,-2.816406,0.007813,-0.041016,0.080078,0.057007,0.21698,0.753174,0.618347,up
34834,1.71875,9.664063,-2.777344,0.007813,-0.041016,0.080078,0.057007,0.217224,0.753174,0.618286,up
34839,1.71875,9.585938,-2.777344,0.003906,-0.013672,0.095703,0.056824,0.217529,0.753113,0.618286,up
34845,1.679688,9.546875,-2.664063,-0.013672,0.033203,0.09375,0.056702,0.217651,0.753052,0.618286,up
34850,1.71875,9.507813,-2.664063,-0.042969,0.066406,0.083984,0.056519,0.217773,0.752991,0.618408,up
34855,1.640625,9.433594,-2.511719,-0.042969,0.066406,0.083984,0.056274,0.217773,0.75293,0.61853,up
34860,1.601563,9.390625,-2.472656,-0.037109,0.066406,0.058594,0.056274,0.217773,0.75293,0.61853,up
34865,1.566406,9.324219,-2.355469,-0.037109,0.066406,0.058594,0.055969,0.217712,0.752808,0.618713,up
34870,1.566406,9.246094,-2.28125,-0.013672,0.056641,0.041016,0.055786,0.217651,0.752747,0.618774,up
34875,1.566406,9.164063,-2.128906,-0.013672,0.056641,0.041016,0.055664,0.217651,0.752747,0.618774,up
34881,1.527344,8.96875,-2.050781,-0.013672,0.056641,0.041016,0.055603,0.21759,0.752747,0.618774,up
34886,1.527344,8.9375,-1.972656,0.001953,0.027344,0.025391,0.055603,0.21759,0.752747,0.618774,up
34891,1.488281,8.972656,-1.9375,0.009766,0.025391,0.023437,0.05542,0.217529,0.752808,0.618774,up
34897,1.527344,9.007813,-2.050781,0.009766,0.025391,0.023437,0.05542,0.217529,0.752808,0.618774,up
34903,1.527344,9.046875,-2.011719,0.003906,0.027344,0.025391,0.05542,0.217529,0.752808,0.618774,up
34909,1.566406,9.085938,-1.972656,0.001953,0.003906,0.035156,0.055298,0.217529,0.752808,0.618774,up
34914,1.566406,9.128906,-2.050781,0.001953,0.003906,0.035156,0.055237,0.21759,0.752808,0.618774,up
34919,1.601563,9.125,-2.164063,0.001953,0.003906,0.035156,0.055237,0.217651,0.752747,0.618835,up
34924,1.601563,9.167969,-2.089844,0.001953,0.003906,0.035156,0.055237,0.217651,0.752747,0.618835,up
34930,1.601563,9.125,-2.050781,-0.041016,-0.009766,0.033203,0.055237,0.217651,0.752747,0.618835,up
34936,1.640625,9.085938,-1.972656,-0.041016,-0.009766,0.033203,0.055298,0.217773,0.752563,0.619019,up
34941,1.601563,9.046875,-1.972656,-0.041016,-0.037109,0.001953,0.055359,0.217834,0.752502,0.619019,up
34946,1.601563,8.972656,-1.9375,-0.041016,-0.050781,-0.009766,0.055359,0.217834,0.752502,0.619019,up
34951,1.640625,8.9375,-1.898438,-0.041016,-0.050781,-0.009766,0.055359,0.217834,0.752502,0.619019,up
34958,1.601563,8.9375,-1.820313,-0.041016,-0.050781,-0.009766,0.055359,0.217834,0.752502,0.619019,up
34963,1.601563,8.9375,-1.820313,-0.025391,-0.089844,-0.050781,0.055359,0.217834,0.752502,0.619019,up
34969,1.601563,8.898438,-1.898438,-0.009766,-0.128906,-0.0625,0.055359,0.217834,0.752502,0.619019,up
34974,1.601563,8.9375,-1.820313,-0.009766,-0.128906,-0.0625,0.056885,0.217957,0.75238,0.619019,up
34979,1.601563,8.96875,-1.859375,0.0,-0.162109,-0.076172,0.056885,0.217957,0.75238,0.619019,up
34984,1.640625,9.125,-1.972656,0.0,-0.162109,-0.076172,0.057739,0.21814,0.752441,0.618835,up
34989,1.640625,9.125,-1.972656,0.0,-0.162109,-0.076172,0.058655,0.218323,0.752502,0.618591,up
34994,1.71875,9.324219,-2.164063,0.0,-0.162109,-0.076172,0.058655,0.218323,0.752502,0.618591,up
34999,1.71875,9.359375,-2.242188,-0.011719,-0.164062,-0.070312,0.058655,0.218323,0.752502,0.618591,up
35004,1.757813,9.511719,-2.472656,-0.011719,-0.164062,-0.070312,0.05957,0.218567,0.752502,0.618408,up
35009,1.792969,9.511719,-2.511719,-0.011719,-0.164062,-0.070312,0.059998,0.218628,0.752502,0.618347,up
35015,1.832031,9.546875,-2.472656,-0.025391,-0.113281,-0.066406,0.059998,0.218628,0.752502,0.618347,up
35020,1.792969,9.589844,-2.546875,-0.025391,-0.113281,-0.066406,0.061157,0.21875,0.752502,0.618225,up
35026,1.792969,9.511719,-2.546875,-0.025391,-0.113281,-0.066406,0.061401,0.218689,0.752441,0.618225,up
35031,1.792969,9.511719,-2.511719,-0.044922,-0.054687,-0.082031,0.061401,0.218689,0.752441,0.618225,up
35036,1.71875,9.507813,-2.394531,-0.037109,-0.042969,-0.080078,0.061401,0.218689,0.752441,0.618225,up
35041,1.757813,9.511719,-2.355469,-0.037109,-0.042969,-0.080078,0.062195,0.218445,0.75238,0.618286,up
35047,1.71875,9.507813,-2.28125,-0.037109,-0.042969,-0.080078,0.062439,0.218323,0.752441,0.618286,up
35054,1.71875,9.589844,-2.320313,-0.001953,-0.03125,-0.078125,0.062439,0.218323,0.752441,0.618286,up
35059,1.640625,9.625,-2.355469,0.0,-0.001953,-0.066406,0.062439,0.218323,0.752441,0.618286,up
35065,1.71875,9.628906,-2.320313,0.021484,-0.011719,-0.039063,0.062439,0.218323,0.752441,0.618286,up
35070,1.71875,9.664063,-2.28125,0.021484,-0.011719,-0.039063,0.06311,0.217773,0.752686,0.618103,up
35075,1.679688,9.546875,-2.28125,0.021484,-0.011719,-0.039063,0.06311,0.217773,0.752686,0.618103,up
35080,1.640625,9.511719,-2.242188,0.021484,-0.011719,-0.039063,0.06311,0.217651,0.752869,0.61792,up
35085,1.640625,9.511719,-2.242188,0.052734,0.015625,0.003906,0.06311,0.217651,0.752869,0.61792,up
35090,1.640625,9.472656,-2.242188,0.056641,0.007813,0.007813,0.06311,0.21759,0.75293,0.617859,up
35095,1.601563,9.550781,-2.164063,0.056641,0.007813,0.007813,0.063049,0.21759,0.753113,0.617615,up
35100,1.601563,9.46875,-2.164063,0.056641,0.007813,0.007813,0.063049,0.21759,0.753235,0.617493,up
35105,1.601563,9.507813,-2.164063,0.058594,-0.007813,0.0,0.063049,0.21759,0.753235,0.617493,up
35110,1.566406,9.46875,-2.128906,0.058594,-0.007813,0.0,0.063049,0.21759,0.753357,0.617371,up
35116,1.601563,9.507813,-2.050781,0.058594,-0.007813,0.0,0.063171,0.217529,0.753479,0.617187,up
35121,1.601563,9.46875,-2.050781,0.015625,-0.041016,-0.044922,0.063293,0.217529,0.75354,0.617126,up
35126,1.601563,9.429688,-2.128906,0.003906,-0.054687,-0.046875,0.063293,0.217529,0.75354,0.617126,up
35132,1.601563,9.363281,-2.128906,0.003906,-0.054687,-0.046875,0.063293,0.217529,0.75354,0.617126,up
35137,1.601563,9.390625,-2.089844,-0.03125,-0.074219,-0.066406,0.063293,0.217529,0.75354,0.617126,up
35143,1.601563,9.390625,-2.089844,-0.050781,-0.083984,-0.070312,0.063293,0.217529,0.75354,0.617126,up
35149,1.601563,9.363281,-2.089844,-0.050781,-0.083984,-0.070312,0.064636,0.217346,0.75354,0.617065,up
35154,1.601563,9.390625,-2.128906,-0.050781,-0.083984,-0.070312,0.065002,0.217285,0.753479,0.617126,up
35159,1.601563,9.363281,-2.128906,-0.099609,-0.078125,-0.087891,0.065002,0.217285,0.753479,0.617126,up
35165,1.601563,9.394531,-2.203125,-0.113281,-0.070312,-0.099609,0.066101,0.21698,0.753113,0.617493,up
35170,1.601563,9.359375,-2.164063,-0.113281,-0.070312,-0.099609,0.066528,0.216858,0.752991,0.617676,up
35175,1.601563,9.359375,-2.164063,-0.113281,-0.070312,-0.099609,0.066528,0.216858,0.752991,0.617676,up
35180,1.601563,9.324219,-2.203125,-0.101563,-0.052734,-0.09375,0.066528,0.216858,0.752991,0.617676,up
35185,1.601563,9.28125,-2.164063,-0.091797,-0.037109,-0.089844,0.067444,0.216431,0.752747,0.618042,up
35190,1.601563,9.285156,-2.128906,-0.091797,-0.037109,-0.089844,0.067688,0.216309,0.752686,0.618103,up
35195,1.601563,9.285156,-2.011719,-0.091797,-0.037109,-0.089844,0.067688,0.216309,0.752686,0.618103,up
35200,1.601563,9.285156,-2.011719,0.005859,-0.025391,-0.035156,0.067688,0.216309,0.752686,0.618103,up
