timestamp,ax,ay,az,gx,gy,gz,qw,qx,qy,qz,label
431560,-9.167969,3.761719,1.703125,-0.306641,-0.189453,-0.113281,0.508545,-0.303833,0.565247,0.574097,up
431566,-9.167969,3.761719,1.742188,-0.306641,-0.189453,-0.113281,0.508911,-0.304443,0.56366,0.575012,up
431571,-9.167969,3.761719,1.742188,-0.306641,-0.189453,-0.113281,0.509094,-0.304993,0.562378,0.575806,up
431576,-9.207031,3.722656,1.742188,-0.683594,-0.3125,-0.119141,0.509155,-0.305481,0.561096,0.57666,up
431582,-9.085938,3.683594,1.742188,-0.683594,-0.3125,-0.119141,0.509216,-0.306091,0.559692,0.577698,up
431587,-8.976563,3.53125,1.820313,-0.683594,-0.3125,-0.119141,0.509277,-0.306763,0.557861,0.579041,up
431593,-8.902344,3.453125,1.820313,-0.951172,-0.40625,-0.072266,0.509277,-0.306763,0.557861,0.579041,up
431598,-8.902344,3.417969,1.742188,-0.994141,-0.417969,-0.041016,0.509277,-0.306763,0.557861,0.579041,up
431604,-8.707031,3.261719,1.742188,-1.025391,-0.429687,-0.001953,0.509277,-0.306763,0.557861,0.579041,up
431609,-8.59375,3.1875,1.703125,-1.019531,-0.421875,0.039063,0.509277,-0.306763,0.557861,0.579041,up
431615,-8.597656,3.148438,1.703125,-0.96875,-0.380859,0.117188,0.509277,-0.306763,0.557861,0.579041,up
431620,-8.59375,2.765625,1.628906,-0.96875,-0.380859,0.117188,0.508057,-0.31073,0.546204,0.589111,up
431625,-8.59375,2.496094,1.664063,-0.830078,-0.324219,0.167969,0.507568,-0.311218,0.544373,0.590881,up
431630,-8.597656,2.304688,1.742188,-0.830078,-0.324219,0.167969,0.50708,-0.311646,0.542664,0.592651,up
431635,-8.554688,2.191406,1.742188,-0.638672,-0.251953,0.167969,0.506653,-0.311951,0.54126,0.594177,up
431641,-8.558594,2.074219,1.820313,-0.638672,-0.251953,0.167969,0.505859,-0.312378,0.539124,0.596558,up
431646,-8.558594,2.113281,1.859375,-0.365234,-0.144531,0.111328,0.505554,-0.312561,0.538269,0.597534,up
431652,-8.636719,2.191406,1.933594,-0.365234,-0.144531,0.111328,0.505371,-0.312622,0.537781,0.598083,up
431658,-8.59375,2.382813,1.933594,-0.365234,-0.144531,0.111328,0.505249,-0.312622,0.537537,0.598389,up
431663,-8.675781,2.574219,1.972656,0.044922,0.001953,0.019531,0.505249,-0.312622,0.537537,0.598389,up
431668,-8.636719,2.726563,2.011719,0.123047,0.056641,-0.009766,0.505249,-0.312622,0.537537,0.598389,up
431674,-8.707031,2.84375,2.085938,0.123047,0.056641,-0.009766,0.505249,-0.3125,0.538025,0.598022,up
431680,-8.863281,2.996094,2.050781,0.123047,0.056641,-0.009766,0.505249,-0.312622,0.539001,0.597046,up
431685,-8.863281,3.070313,2.125,0.123047,0.056641,-0.009766,0.505249,-0.312622,0.539001,0.597046,up
431690,-8.941406,3.109375,2.164063,0.191406,0.224609,-0.048828,0.505066,-0.312988,0.540039,0.596069,up
431695,-8.980469,3.226563,2.355469,0.191406,0.224609,-0.048828,0.504883,-0.313293,0.540466,0.595703,up
431700,-9.019531,3.148438,2.316406,0.191406,0.224609,-0.048828,0.504883,-0.313293,0.540466,0.595703,up
431705,-8.976563,3.1875,2.394531,-0.017578,0.25,-0.03125,0.504211,-0.31427,0.541016,0.595215,up
431710,-8.976563,3.226563,2.46875,-0.017578,0.25,-0.03125,0.504211,-0.31427,0.541016,0.595215,up
431715,-8.941406,3.148438,2.433594,-0.248047,0.222656,0.021484,0.503784,-0.314819,0.541077,0.595215,up
431720,-8.941406,3.109375,2.394531,-0.248047,0.222656,0.021484,0.502747,-0.315979,0.541016,0.595581,up
431725,-8.980469,3.148438,2.433594,-0.248047,0.222656,0.021484,0.502747,-0.315979,0.541016,0.595581,up
431730,-8.9375,3.035156,2.433594,-0.279297,0.201172,0.072266,0.502747,-0.315979,0.541016,0.595581,up
431735,-8.976563,2.957031,2.433594,-0.253906,0.169922,0.105469,0.501526,-0.317139,0.540833,0.59613,up
431740,-9.019531,2.878906,2.46875,-0.253906,0.169922,0.105469,0.500366,-0.317993,0.540649,0.596802,up
431745,-8.976563,2.6875,2.46875,-0.253906,0.169922,0.105469,0.500366,-0.317993,0.540649,0.596802,up
431750,-8.898438,2.574219,2.46875,-0.253906,0.169922,0.105469,0.499268,-0.318604,0.540588,0.597473,up
431755,-8.9375,2.535156,2.433594,-0.253906,0.169922,0.105469,0.499268,-0.318604,0.540588,0.597473,up
431760,-8.9375,2.496094,2.46875,-0.095703,0.099609,0.101563,0.498596,-0.318909,0.54071,0.597778,up
431765,-8.902344,2.457031,2.433594,-0.095703,0.099609,0.101563,0.498352,-0.319031,0.540894,0.597778,up
431770,-8.820313,2.496094,2.394531,-0.095703,0.099609,0.101563,0.498352,-0.319031,0.540894,0.597778,up
431775,-8.820313,2.496094,2.394531,0.068359,0.09375,0.050781,0.498352,-0.319031,0.540894,0.597778,up
431780,-8.785156,2.574219,2.316406,0.111328,0.101563,0.023437,0.497925,-0.319031,0.54187,0.597229,up
431785,-8.78125,2.765625,2.242188,0.111328,0.101563,0.023437,0.497925,-0.319031,0.54187,0.597229,up
431790,-8.746094,2.804688,2.316406,0.244141,0.123047,-0.007813,0.497864,-0.31897,0.542297,0.596863,up
431795,-8.785156,2.957031,2.277344,0.244141,0.123047,-0.007813,0.497925,-0.318787,0.543396,0.595947,up
431800,-8.820313,3.070313,2.203125,0.244141,0.123047,-0.007813,0.497925,-0.318787,0.543396,0.595947,up
431805,-8.859375,3.109375,2.277344,0.244141,0.123047,-0.007813,0.497925,-0.318604,0.544678,0.59491,up
431810,-8.902344,3.1875,2.242188,0.244141,0.123047,-0.007813,0.497925,-0.318604,0.544678,0.59491,up
431815,-8.976563,3.1875,2.277344,0.201172,0.154297,-0.009766,0.497925,-0.318604,0.544678,0.59491,up
431821,-8.976563,3.226563,2.277344,0.201172,0.154297,-0.009766,0.497864,-0.318604,0.546204,0.593567,up
431827,-9.015625,3.261719,2.316406,0.201172,0.154297,-0.009766,0.497742,-0.318665,0.546631,0.593201,up
431832,-9.054688,3.226563,2.316406,0.058594,0.144531,-0.015625,0.49762,-0.318787,0.546997,0.592896,up
431837,-9.015625,3.1875,2.316406,0.009766,0.125,-0.003906,0.49762,-0.318787,0.546997,0.592896,up
431842,-9.058594,3.148438,2.355469,0.009766,0.125,-0.003906,0.497314,-0.319214,0.547363,0.592651,up
431848,-9.019531,3.148438,2.316406,-0.064453,0.107422,0.005859,0.497314,-0.319214,0.547363,0.592651,up
431853,-9.019531,3.109375,2.316406,-0.068359,0.095703,0.019531,0.497314,-0.319214,0.547363,0.592651,up
431858,-8.976563,3.035156,2.203125,-0.068359,0.095703,0.019531,0.496643,-0.319885,0.547546,0.592651,up
431864,-9.015625,3.109375,2.277344,-0.058594,0.082031,0.035156,0.496643,-0.319885,0.547546,0.592651,up
431869,-9.015625,3.109375,2.277344,-0.033203,0.072266,0.044922,0.496643,-0.319885,0.547546,0.592651,up
431874,-9.019531,2.996094,2.203125,-0.033203,0.072266,0.044922,0.495972,-0.320313,0.547852,0.592712,up
431880,-9.019531,2.996094,2.203125,-0.033203,0.072266,0.044922,0.495728,-0.320251,0.548218,0.59259,up
431885,-9.019531,3.035156,2.203125,-0.033203,0.072266,0.044922,0.495728,-0.320251,0.548218,0.59259,up
431890,-8.980469,3.109375,2.164063,0.15625,0.037109,0.058594,0.495728,-0.320251,0.548218,0.59259,up
431895,-8.980469,3.109375,2.125,0.15625,0.037109,0.058594,0.495667,-0.319885,0.54895,0.592224,up
431900,-9.019531,3.1875,2.125,0.15625,0.037109,0.058594,0.495667,-0.31958,0.549377,0.591919,up
431905,-8.976563,3.1875,2.085938,0.251953,0.039063,0.048828,0.495789,-0.31897,0.550293,0.591248,up
431910,-8.976563,3.300781,2.011719,0.251953,0.039063,0.048828,0.495789,-0.31897,0.550293,0.591248,up
431915,-8.980469,3.300781,2.050781,0.232422,0.066406,0.046875,0.49585,-0.318726,0.550781,0.590942,up
431920,-8.9375,3.300781,2.011719,0.232422,0.066406,0.046875,0.49585,-0.31842,0.55127,0.590576,up
431926,-8.980469,3.378906,2.011719,0.208984,0.076172,0.042969,0.49585,-0.318054,0.552185,0.589966,up
431931,-9.015625,3.339844,2.011719,0.208984,0.076172,0.042969,0.495789,-0.317871,0.552673,0.589661,up
431936,-8.980469,3.417969,1.972656,0.126953,0.09375,0.017578,0.495789,-0.317871,0.552673,0.589661,up
431941,-8.976563,3.417969,1.933594,0.099609,0.101563,0.019531,0.495728,-0.317871,0.552979,0.589478,up
431946,-9.015625,3.492188,1.933594,0.099609,0.101563,0.019531,0.495544,-0.317871,0.553589,0.588989,up
431951,-8.980469,3.492188,1.894531,0.099609,0.101563,0.019531,0.495361,-0.317993,0.553894,0.588806,up
431956,-9.015625,3.492188,1.894531,0.021484,0.111328,0.017578,0.495361,-0.317993,0.553894,0.588806,up
431961,-8.941406,3.492188,1.933594,0.021484,0.111328,0.017578,0.495239,-0.318054,0.554077,0.588684,up
431967,-8.898438,3.453125,1.894531,0.021484,0.111328,0.017578,0.494873,-0.318359,0.554382,0.588562,up
431972,-8.941406,3.453125,1.894531,-0.029297,0.09375,0.025391,0.49469,-0.318481,0.554565,0.588501,up
431977,-8.9375,3.417969,1.859375,-0.019531,0.087891,0.029297,0.494507,-0.318665,0.554626,0.588501,up
431983,-8.976563,3.378906,1.894531,-0.023437,0.078125,0.03125,0.494507,-0.318665,0.554626,0.588501,up
431988,-8.9375,3.378906,1.859375,-0.029297,0.072266,0.025391,0.494507,-0.318665,0.554626,0.588501,up
431994,-8.941406,3.417969,1.820313,-0.033203,0.0625,0.021484,0.494507,-0.318665,0.554626,0.588501,up
431999,-8.941406,3.417969,1.820313,-0.017578,0.060547,0.013672,0.494507,-0.318665,0.554626,0.588501,up
432005,-8.941406,3.378906,1.820313,-0.017578,0.060547,0.013672,0.494507,-0.318665,0.554626,0.588501,up
432010,-8.941406,3.453125,1.78125,0.021484,0.039063,-0.001953,0.494507,-0.318665,0.554626,0.588501,up
432015,-8.898438,3.492188,1.742188,0.021484,0.039063,-0.001953,0.493591,-0.319336,0.555237,0.588318,up
432021,-8.859375,3.53125,1.742188,0.021484,0.039063,-0.001953,0.49353,-0.319397,0.55542,0.588135,up
432026,-8.898438,3.53125,1.742188,0.029297,0.039063,-0.001953,0.49353,-0.319397,0.55542,0.588135,up
432031,-8.902344,3.570313,1.703125,0.023437,0.048828,-0.007813,0.493469,-0.319458,0.555542,0.588013,up
432036,-8.902344,3.570313,1.742188,0.023437,0.048828,-0.007813,0.493408,-0.319519,0.555725,0.58783,up
432041,-8.863281,3.570313,1.703125,0.023437,0.048828,-0.007813,0.493347,-0.319641,0.555847,0.587769,up
432046,-8.859375,3.609375,1.78125,0.023437,0.048828,-0.007813,0.493347,-0.319641,0.555847,0.587769,up
432051,-8.859375,3.609375,1.664063,-0.019531,0.060547,-0.007813,0.493164,-0.319885,0.555908,0.587708,up
432056,-8.898438,3.609375,1.664063,-0.064453,0.068359,0.0,0.493164,-0.319885,0.555908,0.587708,up
432061,-8.898438,3.609375,1.664063,-0.064453,0.068359,0.0,0.49292,-0.320251,0.555908,0.587769,up
432066,-8.898438,3.683594,1.703125,-0.064453,0.068359,0.0,0.49292,-0.320251,0.555908,0.587769,up
432071,-8.859375,3.683594,1.742188,-0.107422,0.064453,0.011719,0.492554,-0.320679,0.555786,0.587952,up
432076,-8.902344,3.722656,1.664063,-0.107422,0.064453,0.011719,0.49231,-0.320923,0.555664,0.588135,up
432081,-8.9375,3.761719,1.664063,-0.193359,0.046875,0.027344,0.49231,-0.320923,0.555664,0.588135,up
432086,-8.976563,3.761719,1.703125,-0.193359,0.046875,0.027344,0.49176,-0.321472,0.555298,0.588623,up
432091,-8.980469,3.835938,1.742188,-0.193359,0.046875,0.027344,0.49176,-0.321472,0.555298,0.588623,up
432097,-8.980469,3.835938,1.742188,-0.232422,0.025391,0.082031,0.49115,-0.32196,0.554871,0.589294,up
432102,-9.054688,3.835938,1.78125,-0.248047,0.017578,0.099609,0.490723,-0.322205,0.554626,0.589722,up
432107,-9.015625,3.835938,1.664063,-0.251953,0.011719,0.128906,0.490356,-0.322327,0.554382,0.59021,up
432113,-9.054688,3.875,1.742188,-0.251953,0.011719,0.128906,0.489929,-0.322449,0.554138,0.590637,up
432119,-9.054688,3.875,1.664063,-0.25,0.009766,0.175781,0.489441,-0.322571,0.553955,0.591248,up
432124,-9.054688,3.875,1.703125,-0.253906,0.013672,0.197266,0.489441,-0.322571,0.553955,0.591248,up
432129,-9.085938,3.835938,1.664063,-0.253906,0.013672,0.197266,0.488403,-0.322693,0.553589,0.592346,up
432134,-9.015625,3.914063,1.703125,-0.248047,0.021484,0.242187,0.488403,-0.322693,0.553589,0.592346,up
432139,-9.019531,3.875,1.628906,-0.230469,0.019531,0.263672,0.488403,-0.322693,0.553589,0.592346,up
432144,-8.941406,3.914063,1.664063,-0.228516,0.03125,0.283203,0.488403,-0.322693,0.553589,0.592346,up
432149,-8.941406,3.914063,1.703125,-0.228516,0.03125,0.283203,0.488403,-0.322693,0.553589,0.592346,up
432155,-8.902344,3.800781,1.628906,-0.228516,0.03125,0.283203,0.485229,-0.32251,0.553223,0.595398,up
432161,-8.9375,3.835938,1.628906,-0.203125,0.095703,0.326172,0.483643,-0.322388,0.553406,0.596558,up
432166,-8.941406,3.800781,1.703125,-0.203125,0.095703,0.326172,0.482788,-0.322327,0.553528,0.597168,up
432171,-8.9375,3.761719,1.703125,-0.203125,0.095703,0.326172,0.482788,-0.322327,0.553528,0.597168,up
432176,-8.941406,3.800781,1.742188,-0.160156,0.146484,0.34375,0.482788,-0.322327,0.553528,0.597168,up
432181,-8.941406,3.800781,1.78125,-0.160156,0.146484,0.34375,0.48114,-0.322205,0.553894,0.598206,up
432186,-8.941406,3.800781,1.859375,-0.160156,0.146484,0.34375,0.480225,-0.322144,0.554138,0.598755,up
432191,-8.898438,3.800781,1.894531,-0.132812,0.142578,0.369141,0.480225,-0.322144,0.554138,0.598755,up
432196,-8.863281,3.761719,1.933594,-0.132812,0.142578,0.369141,0.478455,-0.32196,0.554687,0.599792,up
432201,-8.859375,3.800781,1.933594,-0.132812,0.142578,0.369141,0.4776,-0.321838,0.554932,0.600281,up
432206,-8.824219,3.835938,1.894531,-0.103516,0.132812,0.386719,0.476807,-0.321655,0.555237,0.600708,up
432211,-8.824219,3.835938,1.894531,-0.103516,0.123047,0.408203,0.476807,-0.321655,0.555237,0.600708,up
432217,-8.785156,3.835938,1.972656,-0.103516,0.123047,0.408203,0.475952,-0.321472,0.555542,0.601257,up
432222,-8.785156,3.835938,1.972656,-0.066406,0.111328,0.4375,0.474243,-0.320801,0.556274,0.602295,up
432227,-8.820313,3.875,1.972656,-0.066406,0.111328,0.4375,0.472473,-0.320068,0.557068,0.603333,up
432232,-8.785156,3.835938,1.972656,-0.076172,0.113281,0.460937,0.471436,-0.319641,0.557495,0.603943,up
432237,-8.78125,3.875,1.933594,-0.076172,0.113281,0.460937,0.470642,-0.319336,0.557861,0.604431,up
432242,-8.742188,3.914063,1.933594,-0.076172,0.113281,0.460937,0.469543,-0.318848,0.558289,0.605103,up
432247,-8.707031,3.953125,1.972656,-0.082031,0.109375,0.490234,0.468628,-0.31842,0.558655,0.605713,up
432253,-8.707031,3.953125,2.011719,-0.082031,0.109375,0.490234,0.467773,-0.318054,0.559021,0.606201,up
432258,-8.746094,3.953125,1.972656,-0.082031,0.109375,0.490234,0.466736,-0.317688,0.559387,0.606873,up
432263,-8.746094,3.992188,2.011719,-0.132812,0.119141,0.519531,0.466736,-0.317688,0.559387,0.606873,up
432268,-8.78125,3.914063,2.085938,-0.150391,0.115234,0.529297,0.466736,-0.317688,0.559387,0.606873,up
432274,-8.703125,3.953125,2.085938,-0.150391,0.115234,0.529297,0.46344,-0.316467,0.560486,0.609009,up
432280,-8.742188,3.914063,2.050781,-0.150391,0.115234,0.529297,0.46344,-0.316467,0.560486,0.609009,up
432286,-8.78125,3.835938,2.085938,-0.166016,0.101563,0.572266,0.460022,-0.315186,0.561523,0.611328,up
432291,-8.707031,3.761719,2.085938,-0.166016,0.101563,0.572266,0.460022,-0.315186,0.561523,0.611328,up
432296,-8.785156,3.761719,2.125,-0.130859,0.09375,0.566406,0.458862,-0.314697,0.561829,0.612183,up
432301,-8.707031,3.761719,2.164063,-0.130859,0.09375,0.566406,0.457703,-0.314209,0.562195,0.612915,up
432307,-8.675781,3.722656,2.050781,-0.095703,0.082031,0.5625,0.457703,-0.314209,0.562195,0.612915,up
432313,-8.707031,3.722656,2.085938,-0.095703,0.082031,0.5625,0.454651,-0.312622,0.563416,0.614929,up
432318,-8.707031,3.722656,2.085938,-0.001953,0.087891,0.505859,0.453674,-0.312012,0.563904,0.61554,up
432323,-8.707031,3.800781,2.011719,-0.001953,0.087891,0.505859,0.452759,-0.311462,0.564392,0.615967,up
432328,-8.742188,3.800781,2.125,-0.001953,0.087891,0.505859,0.451904,-0.310852,0.564941,0.616394,up
432334,-8.671875,3.835938,2.125,-0.001953,0.087891,0.505859,0.451904,-0.310852,0.564941,0.616394,up
432339,-8.632813,3.914063,2.011719,0.097656,0.087891,0.435547,0.450378,-0.309692,0.566101,0.617065,up
432345,-8.703125,3.953125,2.050781,0.091797,0.082031,0.431641,0.450378,-0.309692,0.566101,0.617065,up
432350,-8.636719,3.992188,2.085938,0.091797,0.082031,0.431641,0.450378,-0.309692,0.566101,0.617065,up
432356,-8.671875,3.992188,2.085938,0.070312,0.089844,0.408203,0.450378,-0.309692,0.566101,0.617065,up
432361,-8.671875,3.992188,2.050781,0.072266,0.085937,0.404297,0.446838,-0.306946,0.568848,0.61853,up
432366,-8.675781,4.03125,2.011719,0.072266,0.085937,0.404297,0.446838,-0.306946,0.568848,0.61853,up
432371,-8.59375,4.03125,2.011719,0.072266,0.085937,0.404297,0.446106,-0.306458,0.569336,0.618835,up
432377,-8.675781,4.03125,2.011719,-0.011719,0.103516,0.367188,0.446106,-0.306458,0.569336,0.618835,up
432382,-8.59375,4.03125,1.972656,-0.044922,0.109375,0.359375,0.444702,-0.305664,0.57019,0.619446,up
432387,-8.632813,3.953125,2.011719,-0.044922,0.109375,0.359375,0.443176,-0.304993,0.570923,0.620178,up
432392,-8.597656,4.03125,1.933594,-0.080078,0.121094,0.345703,0.443176,-0.304993,0.570923,0.620178,up
432397,-8.597656,3.953125,1.933594,-0.080078,0.121094,0.345703,0.44165,-0.304565,0.571472,0.620972,up
432402,-8.636719,3.953125,1.894531,-0.080078,0.121094,0.345703,0.440918,-0.304443,0.571716,0.621338,up
432407,-8.515625,3.953125,1.894531,-0.113281,0.134766,0.318359,0.440063,-0.30426,0.57196,0.621765,up
432412,-8.636719,3.835938,1.894531,-0.105469,0.142578,0.300781,0.439331,-0.304199,0.572205,0.622131,up
432417,-8.636719,3.914063,1.859375,-0.105469,0.142578,0.300781,0.439331,-0.304199,0.572205,0.622131,up
432422,-8.636719,3.914063,1.859375,-0.105469,0.142578,0.300781,0.437866,-0.304077,0.572632,0.622803,up
432427,-8.636719,3.953125,1.859375,-0.068359,0.142578,0.236328,0.437866,-0.304077,0.572632,0.622803,up
432432,-8.703125,3.953125,1.894531,-0.068359,0.142578,0.236328,0.436584,-0.303955,0.57312,0.623291,up
432437,-8.703125,4.03125,1.933594,-0.068359,0.142578,0.236328,0.436584,-0.303955,0.57312,0.623291,up
432442,-8.703125,4.03125,1.933594,-0.068359,0.142578,0.236328,0.435547,-0.303833,0.573608,0.623657,up
432447,-8.671875,4.066406,1.972656,-0.068359,0.142578,0.236328,0.435547,-0.303833,0.573608,0.623657,up
432452,-8.703125,4.066406,2.011719,0.009766,0.078125,0.189453,0.434753,-0.303528,0.574097,0.623901,up
432457,-8.671875,4.144531,1.933594,0.009766,0.078125,0.189453,0.434387,-0.303345,0.574341,0.624023,up
432462,-8.703125,4.183594,1.894531,0.013672,0.009766,0.173828,0.434387,-0.303345,0.574341,0.624023,up
432467,-8.636719,4.183594,1.933594,0.013672,0.009766,0.173828,0.434082,-0.303101,0.574524,0.624207,up
432472,-8.707031,4.222656,1.933594,0.011719,-0.015625,0.175781,0.434082,-0.303101,0.574524,0.624207,up
432477,-8.636719,4.257812,1.859375,0.011719,-0.015625,0.175781,0.43335,-0.302185,0.574829,0.624878,up
432482,-8.636719,4.257812,1.78125,0.011719,-0.015625,0.175781,0.433105,-0.301941,0.574829,0.625122,up
432487,-8.675781,4.222656,1.859375,-0.058594,-0.095703,0.171875,0.433105,-0.301941,0.574829,0.625122,up
432492,-8.558594,4.296875,1.894531,-0.058594,-0.095703,0.171875,0.432739,-0.30127,0.574707,0.625793,up
432497,-8.554688,4.257812,1.894531,-0.058594,-0.095703,0.171875,0.432739,-0.30127,0.574707,0.625793,up
432502,-8.554688,4.183594,1.859375,-0.125,-0.128906,0.171875,0.432739,-0.30127,0.574707,0.625793,up
432508,-8.59375,4.183594,1.820313,-0.125,-0.128906,0.171875,0.43219,-0.300293,0.574219,0.627136,up
432514,-8.554688,4.144531,1.859375,-0.125,-0.128906,0.171875,0.432068,-0.300049,0.573975,0.627563,up
432520,-8.558594,4.105469,1.859375,-0.162109,-0.142578,0.134766,0.431885,-0.299805,0.573669,0.628113,up
432525,-8.554688,4.03125,1.894531,-0.162109,-0.152344,0.105469,0.431885,-0.299805,0.573669,0.628113,up
432532,-8.515625,4.03125,1.933594,-0.162109,-0.152344,0.105469,0.431763,-0.299133,0.572693,0.629395,up
432537,-8.441406,4.03125,1.894531,-0.162109,-0.152344,0.105469,0.431763,-0.299133,0.572693,0.629395,up
432542,-8.480469,3.992188,1.933594,-0.125,-0.138672,0.035156,0.431824,-0.298889,0.572021,0.630066,up
432547,-8.4375,4.03125,1.972656,-0.125,-0.138672,0.035156,0.431946,-0.298767,0.571777,0.63031,up
432552,-8.441406,3.992188,2.050781,-0.078125,-0.113281,-0.025391,0.431946,-0.298767,0.571777,0.63031,up
432557,-8.441406,3.953125,2.085938,-0.078125,-0.113281,-0.025391,0.43219,-0.298706,0.571228,0.630615,up
432562,-8.359375,3.992188,2.050781,-0.046875,-0.068359,-0.068359,0.43219,-0.298706,0.571228,0.630615,up
432567,-8.359375,3.992188,2.050781,-0.046875,-0.068359,-0.068359,0.432556,-0.298767,0.570801,0.630737,up
432572,-8.359375,3.992188,2.085938,-0.046875,-0.068359,-0.068359,0.432556,-0.298767,0.570801,0.630737,up
432577,-8.398438,3.992188,2.125,-0.025391,-0.044922,-0.105469,0.432556,-0.298767,0.570801,0.630737,up
432582,-8.402344,4.066406,2.125,-0.025391,-0.044922,-0.105469,0.433167,-0.299011,0.570312,0.630676,up
432587,-8.476563,4.066406,2.164063,-0.017578,-0.056641,-0.121094,0.433167,-0.299011,0.570312,0.630676,up
432592,-8.476563,4.105469,2.164063,-0.023437,-0.054687,-0.130859,0.433411,-0.299133,0.570068,0.630615,up
432598,-8.476563,4.105469,2.085938,-0.023437,-0.054687,-0.130859,0.43396,-0.299316,0.569702,0.630493,up
432604,-8.519531,4.222656,2.085938,-0.023437,-0.054687,-0.130859,0.434265,-0.299377,0.569519,0.630371,up
432609,-8.476563,4.222656,2.125,-0.005859,-0.087891,-0.148437,0.434265,-0.299377,0.569519,0.630371,up
432614,-8.558594,4.222656,2.164063,0.007813,-0.103516,-0.138672,0.434265,-0.299377,0.569519,0.630371,up
432619,-8.554688,4.335937,2.125,0.007813,-0.103516,-0.138672,0.435364,-0.299561,0.568909,0.630127,up
432625,-8.515625,4.335937,2.164063,0.013672,-0.130859,-0.138672,0.435364,-0.299561,0.568909,0.630127,up
432630,-8.558594,4.296875,2.164063,0.021484,-0.146484,-0.144531,0.435364,-0.299561,0.568909,0.630127,up
432635,-8.554688,4.183594,2.125,0.021484,-0.146484,-0.144531,0.436768,-0.299438,0.568176,0.629883,up
432641,-8.519531,4.222656,2.164063,0.003906,-0.160156,-0.146484,0.436768,-0.299438,0.568176,0.629883,up
432647,-8.515625,4.183594,2.164063,0.007813,-0.175781,-0.146484,0.436768,-0.299438,0.568176,0.629883,up
432652,-8.480469,4.144531,2.203125,0.005859,-0.183594,-0.136719,0.436768,-0.299438,0.568176,0.629883,up
432657,-8.480469,4.144531,2.164063,0.005859,-0.183594,-0.136719,0.438599,-0.299072,0.567078,0.629761,up
432662,-8.476563,4.105469,2.164063,0.011719,-0.201172,-0.134766,0.439087,-0.29895,0.566711,0.629822,up
432667,-8.519531,4.105469,2.203125,0.011719,-0.201172,-0.134766,0.439636,-0.298828,0.566406,0.629761,up
432673,-8.476563,4.105469,2.164063,0.011719,-0.201172,-0.134766,0.440613,-0.298523,0.565796,0.629761,up
432678,-8.476563,4.105469,2.203125,0.017578,-0.203125,-0.138672,0.441162,-0.29834,0.565491,0.629761,up
432683,-8.558594,4.105469,2.164063,0.035156,-0.21875,-0.146484,0.441711,-0.298218,0.565186,0.6297,up
432688,-8.515625,4.144531,2.085938,0.035156,-0.21875,-0.146484,0.442322,-0.298035,0.56488,0.629639,up
432693,-8.554688,4.144531,2.085938,0.035156,-0.21875,-0.146484,0.442871,-0.297852,0.564575,0.629639,up
432698,-8.519531,4.222656,2.085938,0.068359,-0.240234,-0.164062,0.443542,-0.297607,0.56427,0.629517,up
432704,-8.480469,4.183594,2.050781,0.068359,-0.240234,-0.164062,0.444153,-0.297424,0.563965,0.629456,up
432709,-8.476563,4.222656,2.050781,0.068359,-0.240234,-0.164062,0.444824,-0.297241,0.563721,0.629333,up
432715,-8.480469,4.222656,1.972656,0.054687,-0.226562,-0.181641,0.444824,-0.297241,0.563721,0.629333,up
432721,-8.476563,4.183594,1.972656,0.046875,-0.226562,-0.185547,0.444824,-0.297241,0.563721,0.629333,up
432727,-8.476563,4.222656,1.933594,0.023437,-0.220703,-0.195312,0.444824,-0.297241,0.563721,0.629333,up
432732,-8.480469,4.222656,1.972656,0.023437,-0.220703,-0.195312,0.447388,-0.296631,0.562378,0.628906,up
432737,-8.441406,4.222656,2.011719,0.015625,-0.216797,-0.205078,0.447388,-0.296631,0.562378,0.628906,up
432743,-8.480469,4.222656,1.972656,0.003906,-0.212891,-0.201172,0.447388,-0.296631,0.562378,0.628906,up
432749,-8.476563,4.222656,1.933594,0.003906,-0.212891,-0.201172,0.449829,-0.296509,0.560852,0.628662,up
432755,-8.554688,4.222656,1.972656,-0.041016,-0.177734,-0.222656,0.449829,-0.296509,0.560852,0.628662,up
432761,-8.476563,4.183594,1.972656,-0.037109,-0.179687,-0.214844,0.450989,-0.296631,0.559937,0.62854,up
432767,-8.515625,4.183594,1.933594,-0.037109,-0.179687,-0.214844,0.450989,-0.296631,0.559937,0.62854,up
432772,-8.519531,4.183594,1.972656,-0.044922,-0.162109,-0.212891,0.450989,-0.296631,0.559937,0.62854,up
432777,-8.515625,4.183594,2.050781,-0.044922,-0.162109,-0.212891,0.452637,-0.296875,0.558655,0.628418,up
432783,-8.632813,4.183594,1.972656,-0.044922,-0.162109,-0.212891,0.453674,-0.296997,0.557861,0.628296,up
432788,-8.632813,4.183594,1.972656,-0.021484,-0.150391,-0.210937,0.453674,-0.296997,0.557861,0.628296,up
432793,-8.636719,4.222656,2.011719,-0.021484,-0.150391,-0.210937,0.454834,-0.29718,0.557068,0.628113,up
432798,-8.671875,4.222656,2.011719,-0.021484,-0.150391,-0.210937,0.455322,-0.29718,0.556763,0.627991,up
432803,-8.675781,4.222656,2.050781,-0.021484,-0.150391,-0.210937,0.455872,-0.297241,0.556396,0.627869,up
432808,-8.703125,4.257812,2.050781,0.015625,-0.169922,-0.201172,0.456482,-0.297241,0.55603,0.627747,up
432813,-8.703125,4.296875,2.011719,0.015625,-0.169922,-0.201172,0.457092,-0.297241,0.555725,0.627625,up
432818,-8.703125,4.335937,2.085938,0.027344,-0.167969,-0.197266,0.457581,-0.29718,0.55542,0.627502,up
432823,-8.78125,4.296875,1.972656,0.027344,-0.167969,-0.197266,0.458252,-0.297119,0.555115,0.62738,up
432828,-8.746094,4.335937,2.011719,0.039063,-0.195312,-0.173828,0.458252,-0.297119,0.555115,0.62738,up
432833,-8.742188,4.335937,2.125,0.021484,-0.195312,-0.177734,0.458801,-0.297058,0.55481,0.627258,up
432838,-8.707031,4.296875,2.050781,0.021484,-0.195312,-0.177734,0.4599,-0.296875,0.554199,0.627075,up
432843,-8.707031,4.296875,2.085938,0.003906,-0.201172,-0.175781,0.4599,-0.296875,0.554199,0.627075,up
432848,-8.703125,4.335937,2.050781,-0.003906,-0.195312,-0.175781,0.46051,-0.296814,0.553772,0.627014,up
432853,-8.675781,4.335937,2.011719,-0.003906,-0.195312,-0.175781,0.461609,-0.296692,0.55304,0.626953,up
432858,-8.675781,4.257812,2.011719,-0.003906,-0.195312,-0.175781,0.462097,-0.296631,0.552673,0.626953,up
432863,-8.636719,4.257812,2.050781,-0.029297,-0.189453,-0.177734,0.462097,-0.296631,0.552673,0.626953,up
432868,-8.632813,4.257812,2.011719,-0.029297,-0.189453,-0.177734,0.462646,-0.29657,0.552246,0.626892,up
432874,-8.59375,4.222656,1.933594,-0.029297,-0.189453,-0.177734,0.463623,-0.29657,0.551453,0.626892,up
432879,-8.597656,4.222656,2.011719,-0.054687,-0.164062,-0.167969,0.464111,-0.296631,0.551025,0.626892,up
432884,-8.59375,4.183594,2.011719,-0.066406,-0.148437,-0.162109,0.464111,-0.296631,0.551025,0.626892,up
432889,-8.59375,4.144531,2.011719,-0.066406,-0.148437,-0.162109,0.464966,-0.296753,0.550232,0.626953,up
432895,-8.554688,4.105469,1.972656,-0.066406,-0.148437,-0.162109,0.464966,-0.296753,0.550232,0.626953,up
432902,-8.558594,4.144531,1.972656,-0.054687,-0.105469,-0.148437,0.464966,-0.296753,0.550232,0.626953,up
432907,-8.515625,4.066406,2.011719,-0.044922,-0.095703,-0.134766,0.464966,-0.296753,0.550232,0.626953,up
432912,-8.554688,4.105469,1.972656,-0.044922,-0.095703,-0.134766,0.466309,-0.297058,0.548889,0.626892,up
432918,-8.515625,4.066406,2.011719,0.033203,-0.056641,-0.097656,0.466309,-0.297058,0.548889,0.626892,up
432923,-8.554688,3.992188,2.050781,0.033203,-0.056641,-0.097656,0.466919,-0.29718,0.548584,0.626709,up
432929,-8.597656,4.03125,2.164063,0.033203,-0.056641,-0.097656,0.467407,-0.297058,0.548523,0.626404,up
432934,-8.597656,4.03125,2.164063,0.130859,-0.041016,-0.0625,0.467712,-0.296936,0.548584,0.626221,up
432939,-8.597656,4.03125,2.164063,0.130859,-0.041016,-0.0625,0.467957,-0.296814,0.548706,0.625977,up
432945,-8.597656,4.03125,2.203125,0.130859,-0.041016,-0.0625,0.468201,-0.296631,0.548889,0.625732,up
432951,-8.632813,4.066406,2.203125,0.210937,-0.029297,-0.041016,0.468201,-0.296631,0.548889,0.625732,up
432956,-8.632813,4.105469,2.203125,0.228516,-0.03125,-0.03125,0.468201,-0.296631,0.548889,0.625732,up
432961,-8.671875,4.144531,2.125,0.240234,-0.035156,-0.035156,0.468201,-0.296631,0.548889,0.625732,up
432967,-8.671875,4.144531,2.164063,0.244141,-0.035156,-0.035156,0.468201,-0.296631,0.548889,0.625732,up
432973,-8.671875,4.183594,2.242188,0.226562,-0.046875,-0.037109,0.468201,-0.296631,0.548889,0.625732,up
432978,-8.671875,4.183594,2.203125,0.226562,-0.046875,-0.037109,0.470215,-0.294678,0.55072,0.623535,up
432984,-8.632813,4.222656,2.203125,0.226562,-0.046875,-0.037109,0.47052,-0.294434,0.550903,0.62323,up
432989,-8.59375,4.222656,2.164063,0.158203,-0.066406,-0.033203,0.470764,-0.294128,0.551086,0.623047,up
432994,-8.558594,4.222656,2.125,0.140625,-0.064453,-0.033203,0.470764,-0.294128,0.551086,0.623047,up
432999,-8.554688,4.183594,2.164063,0.140625,-0.064453,-0.033203,0.471313,-0.293701,0.55127,0.622681,up
433005,-8.515625,4.144531,2.164063,0.140625,-0.064453,-0.033203,0.471558,-0.293518,0.55127,0.622559,up
433010,-8.554688,4.144531,2.164063,0.076172,-0.074219,-0.044922,0.471558,-0.293518,0.55127,0.622559,up
433016,-8.558594,4.066406,2.203125,0.058594,-0.072266,-0.039063,0.471558,-0.293518,0.55127,0.622559,up
433022,-8.554688,4.03125,2.203125,0.058594,-0.072266,-0.039063,0.472229,-0.293091,0.551208,0.622314,up
433028,-8.554688,3.992188,2.203125,0.035156,-0.070312,-0.039063,0.472229,-0.293091,0.551208,0.622314,up
433033,-8.515625,3.953125,2.203125,0.035156,-0.070312,-0.039063,0.472656,-0.292908,0.551086,0.622192,up
433038,-8.515625,3.914063,2.242188,0.035156,-0.070312,-0.039063,0.473022,-0.292664,0.550964,0.622131,up
433043,-8.480469,3.914063,2.277344,0.082031,-0.082031,-0.037109,0.473022,-0.292664,0.550964,0.622131,up
433048,-8.515625,3.914063,2.242188,0.097656,-0.082031,-0.033203,0.473328,-0.29248,0.550964,0.622009,up
433054,-8.480469,3.875,2.277344,0.097656,-0.082031,-0.033203,0.473755,-0.292053,0.550964,0.621826,up
433060,-8.515625,3.914063,2.277344,0.097656,-0.082031,-0.033203,0.47406,-0.291809,0.551025,0.621704,up
433065,-8.554688,3.914063,2.242188,0.169922,-0.09375,-0.019531,0.474304,-0.291504,0.551147,0.621521,up
433070,-8.554688,3.953125,2.242188,0.191406,-0.099609,-0.017578,0.474304,-0.291504,0.551147,0.621521,up
433075,-8.554688,4.03125,2.164063,0.214844,-0.101563,-0.013672,0.474304,-0.291504,0.551147,0.621521,up
433081,-8.554688,4.03125,2.242188,0.222656,-0.097656,-0.019531,0.474304,-0.291504,0.551147,0.621521,up
433086,-8.597656,4.03125,2.164063,0.222656,-0.107422,-0.023437,0.474304,-0.291504,0.551147,0.621521,up
433092,-8.632813,4.105469,2.203125,0.222656,-0.107422,-0.023437,0.474304,-0.291504,0.551147,0.621521,up
433097,-8.558594,4.105469,2.164063,0.201172,-0.097656,-0.033203,0.474304,-0.291504,0.551147,0.621521,up
433102,-8.597656,4.144531,2.164063,0.183594,-0.097656,-0.029297,0.474304,-0.291504,0.551147,0.621521,up
433107,-8.597656,4.144531,2.164063,0.183594,-0.097656,-0.029297,0.47699,-0.288513,0.55249,0.619629,up
433112,-8.597656,4.144531,2.203125,0.183594,-0.097656,-0.029297,0.47699,-0.288513,0.55249,0.619629,up
433117,-8.597656,4.144531,2.203125,0.183594,-0.097656,-0.029297,0.477539,-0.288025,0.552673,0.619324,up
433123,-8.59375,4.105469,2.164063,0.101563,-0.082031,-0.035156,0.477539,-0.288025,0.552673,0.619324,up
433128,-8.59375,4.066406,2.242188,0.101563,-0.082031,-0.035156,0.478271,-0.287354,0.552795,0.618958,up
433133,-8.59375,4.066406,2.242188,0.101563,-0.082031,-0.035156,0.478271,-0.287354,0.552795,0.618958,up
433138,-8.597656,4.03125,2.277344,0.103516,-0.078125,-0.023437,0.478271,-0.287354,0.552795,0.618958,up
433143,-8.554688,3.992188,2.277344,0.103516,-0.078125,-0.023437,0.47876,-0.286926,0.552856,0.618713,up
433148,-8.558594,3.992188,2.316406,0.103516,-0.078125,-0.023437,0.478943,-0.286743,0.552917,0.618652,up
433153,-8.558594,3.992188,2.316406,0.146484,-0.083984,-0.009766,0.478943,-0.286743,0.552917,0.618652,up
433158,-8.59375,3.992188,2.355469,0.146484,-0.083984,-0.009766,0.479492,-0.286133,0.55304,0.618347,up
433163,-8.59375,3.992188,2.355469,0.1875,-0.087891,-0.009766,0.479736,-0.285828,0.553162,0.618164,up
433168,-8.558594,4.03125,2.316406,0.1875,-0.087891,-0.009766,0.47998,-0.285522,0.553284,0.618042,up
433174,-8.558594,4.066406,2.277344,0.208984,-0.097656,-0.007813,0.47998,-0.285522,0.553284,0.618042,up
433179,-8.597656,4.066406,2.316406,0.208984,-0.097656,-0.007813,0.480835,-0.284302,0.553833,0.617371,up
433185,-8.519531,4.066406,2.277344,0.208984,-0.097656,-0.007813,0.48114,-0.283936,0.554016,0.617187,up
433191,-8.558594,4.066406,2.277344,0.195312,-0.109375,-0.005859,0.48114,-0.283936,0.554016,0.617187,up
433196,-8.519531,4.066406,2.277344,0.195312,-0.109375,-0.005859,0.481812,-0.283081,0.554321,0.616821,up
433201,-8.519531,4.105469,2.203125,0.195312,-0.109375,-0.005859,0.481812,-0.283081,0.554321,0.616821,up
433206,-8.519531,4.066406,2.203125,0.146484,-0.107422,-0.013672,0.481812,-0.283081,0.554321,0.616821,up
433212,-8.519531,4.066406,2.203125,0.125,-0.101563,-0.015625,0.482605,-0.282227,0.554504,0.616455,up
433217,-8.476563,4.066406,2.203125,0.125,-0.101563,-0.015625,0.482788,-0.281982,0.554504,0.616333,up
433222,-8.515625,4.03125,2.203125,0.125,-0.101563,-0.015625,0.483032,-0.281799,0.554504,0.616272,up
433228,-8.515625,4.03125,2.277344,0.125,-0.101563,-0.015625,0.483215,-0.281616,0.554504,0.616211,up
433233,-8.515625,3.953125,2.277344,0.048828,-0.072266,-0.03125,0.483215,-0.281616,0.554504,0.616211,up
433238,-8.519531,3.953125,2.316406,0.048828,-0.072266,-0.03125,0.483765,-0.28125,0.554382,0.616028,up
433243,-8.59375,3.953125,2.316406,0.048828,-0.072266,-0.03125,0.483765,-0.28125,0.554382,0.616028,up
433248,-8.597656,3.914063,2.394531,0.056641,-0.056641,-0.033203,0.484131,-0.281006,0.554321,0.615906,up
433253,-8.632813,3.914063,2.355469,0.056641,-0.056641,-0.033203,0.484131,-0.281006,0.554321,0.615906,up
433258,-8.636719,3.953125,2.433594,0.056641,-0.056641,-0.033203,0.484314,-0.280884,0.554321,0.615845,up
433264,-8.636719,3.953125,2.433594,0.064453,-0.070312,-0.046875,0.484741,-0.280579,0.55426,0.615662,up
433269,-8.703125,3.953125,2.433594,0.087891,-0.085937,-0.054687,0.484741,-0.280579,0.55426,0.615662,up
433275,-8.703125,4.03125,2.46875,0.087891,-0.085937,-0.054687,0.485291,-0.280273,0.55426,0.615417,up
433280,-8.703125,4.03125,2.46875,0.082031,-0.097656,-0.064453,0.485596,-0.28009,0.554199,0.615295,up
433285,-8.675781,4.066406,2.433594,0.082031,-0.097656,-0.064453,0.485962,-0.279907,0.554138,0.615173,up
433291,-8.675781,4.105469,2.46875,0.082031,-0.097656,-0.064453,0.486267,-0.279724,0.554077,0.615051,up
433297,-8.675781,4.105469,2.433594,0.058594,-0.130859,-0.078125,0.486267,-0.279724,0.554077,0.615051,up
433302,-8.632813,4.105469,2.433594,0.035156,-0.128906,-0.083984,0.486267,-0.279724,0.554077,0.615051,up
433308,-8.636719,4.105469,2.355469,0.015625,-0.142578,-0.082031,0.486267,-0.279724,0.554077,0.615051,up
433314,-8.671875,4.066406,2.355469,-0.025391,-0.134766,-0.082031,0.486267,-0.279724,0.554077,0.615051,up
433319,-8.636719,4.066406,2.316406,-0.025391,-0.134766,-0.082031,0.488159,-0.278992,0.552856,0.61499,up
433325,-8.636719,4.066406,2.316406,-0.025391,-0.134766,-0.082031,0.488464,-0.278992,0.552551,0.615051,up
433330,-8.632813,4.066406,2.242188,-0.025391,-0.134766,-0.082031,0.488708,-0.278992,0.552185,0.615173,up
433335,-8.636719,4.03125,2.277344,-0.083984,-0.113281,-0.076172,0.488953,-0.278992,0.55188,0.615295,up
433340,-8.632813,4.03125,2.355469,-0.083984,-0.113281,-0.076172,0.489136,-0.278992,0.551575,0.615356,up
433345,-8.78125,4.105469,2.316406,-0.083984,-0.113281,-0.076172,0.489136,-0.278992,0.551575,0.615356,up
433350,-8.78125,4.105469,2.316406,-0.048828,-0.085937,-0.068359,0.489136,-0.278992,0.551575,0.615356,up
433355,-8.820313,4.105469,2.394531,-0.048828,-0.085937,-0.068359,0.489136,-0.278992,0.551575,0.615356,up
433360,-8.820313,4.105469,2.394531,-0.021484,-0.078125,-0.064453,0.489136,-0.278992,0.551575,0.615356,up
433366,-8.902344,4.222656,2.433594,-0.021484,-0.078125,-0.064453,0.490173,-0.278992,0.550415,0.615601,up
433371,-8.9375,4.222656,2.433594,0.0,-0.076172,-0.082031,0.490173,-0.278992,0.550415,0.615601,up
433377,-9.019531,4.296875,2.433594,0.009766,-0.080078,-0.078125,0.490173,-0.278992,0.550415,0.615601,up
433383,-8.976563,4.296875,2.507813,0.019531,-0.089844,-0.072266,0.490173,-0.278992,0.550415,0.615601,up
433388,-8.980469,4.335937,2.46875,0.025391,-0.103516,-0.072266,0.490173,-0.278992,0.550415,0.615601,up
433393,-9.015625,4.335937,2.507813,-0.019531,-0.123047,-0.054687,0.490173,-0.278992,0.550415,0.615601,up
433398,-8.902344,4.335937,2.546875,-0.019531,-0.123047,-0.054687,0.491638,-0.278687,0.549438,0.615417,up
433403,-8.902344,4.296875,2.46875,-0.048828,-0.128906,-0.048828,0.491638,-0.278687,0.549438,0.615417,up
433408,-8.898438,4.257812,2.507813,-0.085937,-0.140625,-0.037109,0.491638,-0.278687,0.549438,0.615417,up
433413,-8.78125,4.144531,2.507813,-0.085937,-0.140625,-0.037109,0.492249,-0.278442,0.548523,0.615845,up
433418,-8.742188,4.183594,2.46875,-0.085937,-0.140625,-0.037109,0.492371,-0.278381,0.548157,0.616089,up
433423,-8.707031,4.105469,2.46875,-0.085937,-0.140625,-0.037109,0.492493,-0.27832,0.547729,0.616394,up
433429,-8.675781,4.105469,2.46875,-0.158203,-0.154297,0.027344,0.492615,-0.278198,0.546936,0.617126,up
433434,-8.597656,3.953125,2.46875,-0.158203,-0.154297,0.027344,0.492676,-0.278076,0.546509,0.617493,up
433439,-8.554688,3.914063,2.46875,-0.158203,-0.154297,0.027344,0.492676,-0.277954,0.546082,0.617859,up
433444,-8.554688,3.875,2.46875,-0.158203,-0.154297,0.027344,0.492676,-0.277954,0.546082,0.617859,up
433449,-8.515625,3.875,2.394531,-0.119141,-0.144531,0.074219,0.492676,-0.277588,0.545471,0.618591,up
433454,-8.476563,3.761719,2.433594,-0.119141,-0.144531,0.074219,0.492676,-0.277344,0.545227,0.618958,up
433459,-8.398438,3.800781,2.433594,-0.119141,-0.144531,0.074219,0.492737,-0.2771,0.545044,0.619141,up
433464,-8.402344,3.761719,2.46875,-0.119141,-0.144531,0.074219,0.492737,-0.2771,0.545044,0.619141,up
433469,-8.402344,3.761719,2.433594,0.023437,-0.103516,0.085937,0.492737,-0.2771,0.545044,0.619141,up
433474,-8.398438,3.683594,2.46875,0.023437,-0.103516,0.085937,0.492798,-0.276123,0.544983,0.619568,up
433479,-8.363281,3.722656,2.433594,0.09375,-0.076172,0.089844,0.492798,-0.276123,0.544983,0.619568,up
433484,-8.363281,3.761719,2.46875,0.09375,-0.076172,0.089844,0.492798,-0.275757,0.545105,0.619629,up
433489,-8.320313,3.722656,2.46875,0.121094,-0.076172,0.095703,0.492798,-0.275757,0.545105,0.619629,up
433494,-8.320313,3.761719,2.46875,0.128906,-0.054687,0.082031,0.49292,-0.275024,0.545349,0.61969,up
433499,-8.28125,3.800781,2.433594,0.128906,-0.054687,0.082031,0.492981,-0.274292,0.545715,0.619629,up
433504,-8.28125,3.800781,2.46875,0.128906,-0.054687,0.082031,0.492981,-0.274292,0.545715,0.619629,up
433509,-8.28125,3.835938,2.46875,0.128906,-0.054687,0.082031,0.493042,-0.27356,0.546082,0.619568,up
433514,-8.28125,3.800781,2.433594,0.128906,-0.054687,0.082031,0.493042,-0.27356,0.546082,0.619568,up
433519,-8.253906,3.800781,2.46875,0.09375,-0.052734,0.064453,0.493042,-0.27356,0.546082,0.619568,up
433525,-8.253906,3.800781,2.46875,0.09375,-0.052734,0.064453,0.493164,-0.272644,0.546448,0.619507,up
433530,-8.210938,3.761719,2.394531,0.09375,-0.052734,0.064453,0.493225,-0.2724,0.54657,0.619507,up
433535,-8.25,3.761719,2.433594,0.070312,-0.058594,0.039063,0.493286,-0.272156,0.546631,0.619507,up
433541,-8.25,3.722656,2.433594,0.070312,-0.058594,0.039063,0.493347,-0.271912,0.546692,0.619507,up
433546,-8.214844,3.683594,2.433594,0.070312,-0.058594,0.039063,0.493469,-0.271729,0.546692,0.619507,up
433552,-8.253906,3.683594,2.433594,0.056641,-0.058594,0.017578,0.493469,-0.271729,0.546692,0.619507,up
433557,-8.253906,3.683594,2.394531,0.044922,-0.048828,0.0,0.493469,-0.271729,0.546692,0.619507,up
433562,-8.171875,3.644531,2.433594,0.044922,-0.048828,0.0,0.493774,-0.27124,0.546692,0.619446,up
433568,-8.210938,3.722656,2.433594,0.035156,-0.046875,-0.033203,0.493774,-0.27124,0.546692,0.619446,up
433574,-8.214844,3.683594,2.433594,0.025391,-0.023437,-0.052734,0.493774,-0.27124,0.546692,0.619446,up
433579,-8.214844,3.683594,2.394531,0.025391,-0.023437,-0.052734,0.494141,-0.271057,0.546631,0.619324,up
433584,-8.210938,3.722656,2.433594,0.025391,-0.023437,-0.052734,0.494324,-0.271057,0.54657,0.619202,up
433590,-8.214844,3.683594,2.433594,0.029297,-0.017578,-0.072266,0.494629,-0.271118,0.546509,0.619019,up
433595,-8.253906,3.683594,2.433594,0.029297,-0.017578,-0.072266,0.494751,-0.271179,0.546448,0.618896,up
433601,-8.25,3.722656,2.46875,0.029297,-0.017578,-0.072266,0.494873,-0.27124,0.546448,0.618774,up
433606,-8.285156,3.722656,2.46875,0.025391,0.0,-0.078125,0.495056,-0.271362,0.546387,0.618652,up
433611,-8.285156,3.761719,2.46875,0.015625,0.003906,-0.091797,0.495056,-0.271362,0.546387,0.618652,up
433616,-8.320313,3.722656,2.46875,0.015625,0.003906,-0.091797,0.495361,-0.271545,0.546326,0.618408,up
433621,-8.285156,3.761719,2.46875,0.027344,0.005859,-0.076172,0.495483,-0.271606,0.546326,0.618286,up
433628,-8.320313,3.761719,2.394531,0.023437,0.011719,-0.082031,0.495483,-0.271606,0.546326,0.618286,up
433634,-8.324219,3.800781,2.46875,0.039063,0.013672,-0.074219,0.49585,-0.271851,0.546326,0.617859,up
433639,-8.324219,3.800781,2.394531,0.058594,0.025391,-0.082031,0.49585,-0.271851,0.546326,0.617859,up
433644,-8.398438,3.835938,2.394531,0.058594,0.025391,-0.082031,0.495972,-0.271912,0.546387,0.617676,up
433650,-8.398438,3.835938,2.46875,0.0625,0.033203,-0.076172,0.495972,-0.271912,0.546387,0.617676,up
433655,-8.441406,3.875,2.46875,0.0625,0.033203,-0.076172,0.496338,-0.272156,0.546631,0.617004,up
433660,-8.515625,3.875,2.46875,0.0625,0.052734,-0.078125,0.49646,-0.272278,0.546753,0.616821,up
433665,-8.554688,3.914063,2.46875,0.0625,0.052734,-0.078125,0.49646,-0.272278,0.546753,0.616821,up
433670,-8.597656,3.953125,2.433594,0.0625,0.052734,-0.078125,0.496643,-0.272461,0.546936,0.616394,up
433675,-8.636719,3.953125,2.507813,0.044922,0.070312,-0.080078,0.496643,-0.272461,0.546936,0.616394,up
433680,-8.636719,3.992188,2.46875,0.033203,0.0625,-0.078125,0.496704,-0.272644,0.547058,0.616211,up
433685,-8.636719,3.992188,2.46875,0.023437,0.058594,-0.080078,0.496826,-0.272949,0.54718,0.615845,up
433691,-8.703125,3.953125,2.507813,0.023437,0.058594,-0.080078,0.496887,-0.273132,0.547241,0.615723,up
433696,-8.746094,3.953125,2.546875,-0.003906,0.058594,-0.076172,0.496887,-0.273132,0.547241,0.615723,up
433702,-8.707031,3.953125,2.546875,-0.011719,0.050781,-0.070312,0.496887,-0.273132,0.547241,0.615723,up
433708,-8.742188,3.953125,2.585938,-0.011719,0.050781,-0.070312,0.497009,-0.273682,0.547241,0.615356,up
433713,-8.785156,3.992188,2.546875,-0.001953,0.052734,-0.078125,0.497009,-0.273682,0.547241,0.615356,up
433718,-8.78125,3.953125,2.585938,-0.011719,0.046875,-0.074219,0.497009,-0.273682,0.547241,0.615356,up
433723,-8.785156,3.992188,2.546875,-0.007813,0.033203,-0.072266,0.497009,-0.273682,0.547241,0.615356,up
433728,-8.785156,3.953125,2.546875,-0.007813,0.033203,-0.072266,0.497009,-0.273682,0.547241,0.615356,up
433734,-8.78125,3.953125,2.585938,-0.007813,0.033203,-0.072266,0.497253,-0.274597,0.547119,0.614807,up
433739,-8.78125,3.953125,2.585938,-0.021484,0.029297,-0.064453,0.497253,-0.274597,0.547119,0.614807,up
433744,-8.742188,3.914063,2.585938,-0.021484,0.029297,-0.064453,0.497314,-0.274902,0.546997,0.614685,up
433749,-8.746094,3.914063,2.546875,-0.021484,0.029297,-0.064453,0.497375,-0.275085,0.546936,0.614624,up
433755,-8.703125,3.875,2.625,-0.021484,0.03125,-0.068359,0.497437,-0.275452,0.546875,0.614502,up
433760,-8.742188,3.914063,2.585938,-0.03125,0.037109,-0.060547,0.497498,-0.275574,0.546814,0.614441,up
433766,-8.703125,3.875,2.585938,-0.03125,0.037109,-0.060547,0.497498,-0.275757,0.546753,0.614441,up
433771,-8.703125,3.875,2.585938,-0.033203,0.037109,-0.056641,0.497498,-0.27594,0.546692,0.61438,up
433776,-8.703125,3.835938,2.585938,-0.023437,0.035156,-0.060547,0.497559,-0.276123,0.546631,0.614319,up
433781,-8.707031,3.835938,2.546875,-0.023437,0.035156,-0.060547,0.497559,-0.276245,0.546631,0.614258,up
433787,-8.703125,3.875,2.585938,-0.023437,0.035156,-0.060547,0.497559,-0.276428,0.54657,0.614197,up
433794,-8.707031,3.914063,2.546875,0.0,0.044922,-0.044922,0.497559,-0.276428,0.54657,0.614197,up
433799,-8.707031,3.914063,2.546875,0.017578,0.035156,-0.041016,0.49762,-0.276672,0.546631,0.614014,up
433804,-8.742188,3.953125,2.585938,0.017578,0.035156,-0.041016,0.49762,-0.276733,0.546692,0.613953,up
433810,-8.742188,3.992188,2.585938,0.023437,0.035156,-0.042969,0.497742,-0.276917,0.546753,0.61377,up
433815,-8.742188,3.953125,2.585938,0.023437,0.035156,-0.042969,0.497742,-0.276978,0.546753,0.613647,up
433820,-8.742188,3.953125,2.625,0.023437,0.035156,-0.042969,0.497803,-0.276978,0.546753,0.613647,up
433825,-8.742188,3.953125,2.585938,0.005859,0.003906,-0.021484,0.497803,-0.276978,0.546753,0.613647,up
433830,-8.742188,3.914063,2.585938,0.005859,0.003906,-0.021484,0.497803,-0.277039,0.546753,0.613586,up
433836,-8.671875,3.875,2.585938,0.005859,0.003906,-0.021484,0.497864,-0.2771,0.546692,0.613525,up
433841,-8.671875,3.875,2.585938,-0.025391,-0.007813,-0.017578,0.497864,-0.277161,0.546631,0.613586,up
433846,-8.671875,3.835938,2.585938,-0.025391,-0.007813,-0.017578,0.497925,-0.277161,0.54657,0.613586,up
433851,-8.671875,3.835938,2.585938,-0.025391,-0.007813,-0.017578,0.497925,-0.277161,0.546509,0.613647,up
433857,-8.632813,3.800781,2.546875,-0.025391,-0.007813,-0.017578,0.497986,-0.277222,0.546448,0.613647,up
433862,-8.632813,3.800781,2.546875,-0.013672,-0.025391,-0.011719,0.497986,-0.277222,0.546387,0.613647,up
433868,-8.636719,3.835938,2.585938,0.003906,-0.027344,-0.011719,0.497986,-0.277222,0.546387,0.613647,up
433874,-8.554688,3.800781,2.507813,0.003906,-0.027344,-0.011719,0.497986,-0.277222,0.546387,0.613647,up
433879,-8.554688,3.835938,2.507813,0.013672,-0.021484,-0.013672,0.497986,-0.277222,0.546387,0.613647,up
433885,-8.554688,3.761719,2.546875,0.017578,-0.021484,-0.021484,0.498352,-0.277039,0.546265,0.613647,up
433890,-8.515625,3.761719,2.546875,0.017578,-0.021484,-0.021484,0.498413,-0.276978,0.546265,0.613586,up
433895,-8.519531,3.761719,2.507813,0.025391,-0.017578,-0.013672,0.498413,-0.276978,0.546265,0.613586,up
433900,-8.519531,3.761719,2.507813,0.025391,-0.017578,-0.013672,0.498535,-0.276917,0.546204,0.613525,up
433905,-8.515625,3.800781,2.507813,0.025391,-0.017578,-0.013672,0.498596,-0.276917,0.546204,0.613464,up
433910,-8.519531,3.761719,2.507813,0.011719,-0.005859,-0.025391,0.498596,-0.276917,0.546204,0.613464,up
433915,-8.480469,3.761719,2.546875,0.011719,-0.005859,-0.025391,0.498657,-0.276917,0.546204,0.613464,up
433920,-8.519531,3.761719,2.507813,0.001953,0.0,-0.029297,0.498657,-0.276917,0.546204,0.613464,up
433925,-8.507813,3.804688,2.464844,0.001953,0.0,-0.029297,0.49884,-0.276917,0.546143,0.613403,up
433930,-8.546875,3.84375,2.464844,0.001953,0.0,-0.029297,0.49884,-0.276917,0.546143,0.613403,up
433935,-8.546875,3.84375,2.464844,0.013672,0.003906,-0.029297,0.49884,-0.276917,0.546143,0.613403,up
433940,-8.546875,3.84375,2.464844,0.013672,0.003906,-0.029297,0.499023,-0.276917,0.546021,0.613342,up
433945,-8.546875,3.84375,2.464844,0.013672,0.003906,-0.029297,0.499084,-0.276855,0.546021,0.613281,up
433950,-8.585938,3.882813,2.429688,0.013672,0.003906,-0.029297,0.499084,-0.276855,0.546021,0.613281,up
433955,-8.546875,3.84375,2.464844,0.035156,0.015625,-0.023437,0.499084,-0.276855,0.546021,0.613281,up
433960,-8.589844,3.804688,2.429688,0.035156,0.015625,-0.023437,0.499207,-0.276855,0.546021,0.613159,up
433966,-8.546875,3.804688,2.429688,0.029297,0.005859,-0.013672,0.499268,-0.276794,0.546082,0.613098,up
433971,-8.507813,3.804688,2.464844,0.029297,0.015625,-0.017578,0.499329,-0.276733,0.546143,0.613037,up
433976,-8.550781,3.804688,2.503906,0.029297,0.015625,-0.017578,0.49939,-0.276733,0.546143,0.613037,up
433981,-8.546875,3.804688,2.429688,0.029297,0.015625,-0.017578,0.49939,-0.276672,0.546204,0.612976,up
433986,-8.546875,3.84375,2.503906,0.035156,0.003906,-0.005859,0.499451,-0.276611,0.546204,0.612915,up
433992,-8.585938,3.804688,2.464844,0.035156,0.003906,-0.005859,0.499451,-0.27655,0.546265,0.612915,up
433997,-8.511719,3.804688,2.429688,0.035156,0.003906,-0.005859,0.499512,-0.27655,0.546265,0.612854,up
434003,-8.546875,3.804688,2.390625,0.039063,0.003906,-0.011719,0.499573,-0.276489,0.546326,0.612793,up
434008,-8.511719,3.804688,2.390625,0.037109,0.001953,-0.027344,0.499573,-0.276489,0.546326,0.612793,up
434014,-8.472656,3.804688,2.429688,0.050781,0.0,-0.017578,0.499573,-0.276489,0.546326,0.612793,up
434020,-8.433594,3.804688,2.351563,0.060547,0.0,-0.013672,0.499573,-0.276489,0.546326,0.612793,up
434025,-8.46875,3.769531,2.390625,0.052734,0.011719,-0.025391,0.499573,-0.276489,0.546326,0.612793,up
434031,-8.429688,3.769531,2.351563,0.052734,0.025391,-0.019531,0.499939,-0.276184,0.54657,0.612488,up
434037,-8.472656,3.769531,2.3125,0.052734,0.025391,-0.019531,0.5,-0.276123,0.546692,0.612305,up
434042,-8.511719,3.769531,2.3125,0.042969,0.041016,-0.029297,0.5,-0.276123,0.546753,0.612183,up
434047,-8.472656,3.769531,2.3125,0.042969,0.041016,-0.029297,0.500061,-0.276123,0.546875,0.612061,up
434052,-8.472656,3.804688,2.273438,0.042969,0.041016,-0.029297,0.500061,-0.276123,0.546875,0.612061,up
434057,-8.472656,3.804688,2.273438,0.037109,0.0625,-0.041016,0.500061,-0.276123,0.546875,0.612061,up
434062,-8.511719,3.804688,2.273438,0.027344,0.064453,-0.033203,0.500122,-0.276306,0.547119,0.611755,up
434068,-8.546875,3.84375,2.351563,0.025391,0.074219,-0.033203,0.500122,-0.276306,0.547119,0.611755,up
434074,-8.546875,3.84375,2.351563,0.025391,0.070312,-0.035156,0.500122,-0.276306,0.547119,0.611755,up
434079,-8.585938,3.84375,2.390625,0.025391,0.074219,-0.023437,0.500122,-0.276306,0.547119,0.611755,up
434084,-8.585938,3.804688,2.351563,0.029297,0.068359,-0.029297,0.500122,-0.276306,0.547119,0.611755,up
434089,-8.628906,3.84375,2.503906,0.029297,0.068359,-0.029297,0.500122,-0.276306,0.547119,0.611755,up
434094,-8.703125,3.804688,2.503906,0.039063,0.042969,-0.017578,0.500122,-0.276306,0.547119,0.611755,up
434099,-8.707031,3.769531,2.542969,0.033203,0.044922,-0.025391,0.500122,-0.276306,0.547119,0.611755,up
434104,-8.664063,3.769531,2.429688,0.027344,0.03125,-0.027344,0.500122,-0.276306,0.547119,0.611755,up
434109,-8.667969,3.769531,2.503906,0.027344,0.03125,-0.027344,0.500122,-0.276306,0.547119,0.611755,up
434115,-8.628906,3.769531,2.542969,0.027344,0.03125,-0.027344,0.500061,-0.276855,0.547913,0.610779,up
434120,-8.628906,3.769531,2.464844,0.044922,0.0,-0.03125,0.500061,-0.276855,0.547913,0.610779,up
434125,-8.628906,3.730469,2.429688,0.044922,0.0,-0.03125,0.500183,-0.276794,0.547974,0.610657,up
434130,-8.550781,3.730469,2.464844,0.044922,0.0,-0.03125,0.500305,-0.276794,0.548035,0.610535,up
434136,-8.589844,3.730469,2.429688,0.033203,0.003906,-0.041016,0.500305,-0.276794,0.548035,0.610535,up
434141,-8.507813,3.652344,2.390625,0.033203,0.003906,-0.041016,0.500549,-0.276733,0.548096,0.610291,up
434147,-8.46875,3.652344,2.429688,0.033203,0.003906,-0.041016,0.50061,-0.276733,0.548157,0.610168,up
434152,-8.46875,3.691406,2.464844,0.066406,0.009766,-0.050781,0.500732,-0.276733,0.548157,0.610046,up
434157,-8.433594,3.652344,2.390625,0.066406,0.009766,-0.050781,0.500854,-0.276794,0.548279,0.609863,up
434162,-8.433594,3.652344,2.390625,0.066406,0.009766,-0.050781,0.500916,-0.276794,0.54834,0.609741,up
434168,-8.472656,3.613281,2.464844,0.066406,0.009766,-0.050781,0.501038,-0.276794,0.548462,0.609558,up
434174,-8.472656,3.652344,2.464844,0.074219,0.041016,-0.054687,0.501038,-0.276794,0.548462,0.609558,up
434179,-8.507813,3.691406,2.464844,0.074219,0.041016,-0.054687,0.501221,-0.276917,0.548706,0.609192,up
434184,-8.46875,3.730469,2.542969,0.09375,0.025391,-0.050781,0.501221,-0.276917,0.548706,0.609192,up
434189,-8.507813,3.730469,2.582031,0.099609,0.011719,-0.042969,0.501221,-0.276917,0.548706,0.609192,up
434194,-8.589844,3.652344,2.542969,0.087891,0.007813,-0.041016,0.501221,-0.276917,0.548706,0.609192,up
434199,-8.628906,3.613281,2.582031,0.085937,-0.011719,-0.035156,0.501221,-0.276917,0.548706,0.609192,up
434204,-8.628906,3.578125,2.621094,0.085937,-0.039063,-0.042969,0.501221,-0.276917,0.548706,0.609192,up
434209,-8.628906,3.539063,2.621094,0.087891,-0.064453,-0.058594,0.501221,-0.276917,0.548706,0.609192,up
434214,-8.628906,3.539063,2.621094,0.101563,-0.083984,-0.082031,0.501221,-0.276917,0.548706,0.609192,up
434219,-8.664063,3.421875,2.621094,0.101563,-0.083984,-0.082031,0.501221,-0.276917,0.548706,0.609192,up
434224,-8.664063,3.421875,2.621094,0.144531,-0.140625,-0.132812,0.501221,-0.276917,0.548706,0.609192,up
434229,-8.667969,3.386719,2.65625,0.160156,-0.171875,-0.181641,0.501221,-0.276917,0.548706,0.609192,up
434234,-8.628906,3.421875,2.65625,0.160156,-0.171875,-0.181641,0.501221,-0.276917,0.548706,0.609192,up
434240,-8.625,3.578125,2.65625,0.160156,-0.171875,-0.181641,0.50531,-0.27533,0.548706,0.606445,up
434246,-8.550781,3.652344,2.65625,0.195312,-0.296875,-0.330078,0.507385,-0.274841,0.548035,0.60553,up
434251,-8.511719,3.769531,2.695313,0.195312,-0.296875,-0.330078,0.508545,-0.274597,0.547607,0.605042,up
434256,-8.472656,3.84375,2.695313,0.150391,-0.433594,-0.419922,0.508545,-0.274597,0.547607,0.605042,up
434261,-8.429688,3.882813,2.695313,0.09375,-0.464844,-0.4375,0.51001,-0.274292,0.546997,0.604553,up
434266,-8.429688,3.804688,2.65625,0.09375,-0.464844,-0.4375,0.511169,-0.274109,0.546387,0.604187,up
434272,-8.433594,3.84375,2.734375,0.09375,-0.464844,-0.4375,0.514038,-0.273743,0.544556,0.603577,up
434277,-8.511719,3.652344,2.695313,-0.119141,-0.589844,-0.519531,0.514038,-0.273743,0.544556,0.603577,up
434282,-8.511719,3.5,2.695313,-0.212891,-0.615234,-0.564453,0.514038,-0.273743,0.544556,0.603577,up
434287,-8.550781,3.539063,2.773438,-0.212891,-0.615234,-0.564453,0.518616,-0.273865,0.540344,0.603394,up
434293,-8.585938,3.613281,3.039063,-0.212891,-0.615234,-0.564453,0.520386,-0.274109,0.538391,0.603516,up
434299,-8.507813,3.578125,3.078125,-0.470703,-0.800781,-0.779297,0.520386,-0.274109,0.538391,0.603516,up
434304,-8.472656,3.5,2.886719,-0.541016,-0.826172,-0.855469,0.520386,-0.274109,0.538391,0.603516,up
434310,-8.46875,3.421875,2.886719,-0.619141,-0.84375,-0.925781,0.520386,-0.274109,0.538391,0.603516,up
434316,-8.511719,3.117188,2.964844,-0.693359,-0.970703,-1.037109,0.520386,-0.274109,0.538391,0.603516,up
434321,-8.625,2.695313,3.003906,-0.693359,-0.970703,-1.037109,0.530701,-0.277222,0.525574,0.604431,up
434326,-8.585938,2.425781,3.15625,-0.720703,-1.037109,-1.111328,0.535889,-0.278931,0.518982,0.604736,up
434331,-8.625,2.503906,3.195313,-0.720703,-1.037109,-1.111328,0.535889,-0.278931,0.518982,0.604736,up
434336,-8.628906,2.617188,3.230469,-0.681641,-1.154297,-1.330078,0.541931,-0.280762,0.511841,0.604553,up
434341,-8.773438,2.964844,3.15625,-0.703125,-1.138672,-1.585938,0.541931,-0.280762,0.511841,0.604553,up
434346,-8.773438,2.964844,3.15625,-0.703125,-1.138672,-1.585938,0.548584,-0.283203,0.504456,0.603638,up
434351,-9.007813,3.039063,3.078125,-0.654297,-1.205078,-1.785156,0.548584,-0.283203,0.504456,0.603638,up
434356,-8.929688,3.652344,2.886719,-0.654297,-1.205078,-1.785156,0.552551,-0.284607,0.500244,0.602905,up
434361,-8.894531,3.691406,2.8125,-0.654297,-1.205078,-1.785156,0.556396,-0.285889,0.496216,0.602051,up
434366,-8.894531,3.691406,2.8125,-0.720703,-1.349609,-1.910156,0.559998,-0.287109,0.49231,0.601318,up
434371,-8.851563,3.539063,2.734375,-0.875,-1.427734,-1.945313,0.559998,-0.287109,0.49231,0.601318,up
434376,-8.429688,3.730469,3.078125,-1.041016,-1.503906,-1.988281,0.568115,-0.290039,0.482788,0.600037,up
434381,-8.429688,3.730469,3.078125,-1.041016,-1.503906,-1.988281,0.568115,-0.290039,0.482788,0.600037,up
434386,-8.28125,3.5,3.15625,-1.226563,-1.513672,-2.015625,0.579468,-0.296509,0.465881,0.599365,up
434391,-8.203125,2.695313,2.964844,-1.226563,-1.513672,-2.015625,0.579468,-0.296509,0.465881,0.599365,up
434396,-8.085938,2.234375,3.117188,-1.226563,-1.513672,-2.015625,0.585632,-0.302673,0.453308,0.599976,up
434401,-8.011719,1.585938,3.425781,-2.181641,-1.205078,-1.783203,0.585632,-0.302673,0.453308,0.599976,up
434406,-8.167969,0.933594,3.652344,-2.181641,-1.205078,-1.783203,0.590454,-0.309448,0.44043,0.601379,up
434411,-8.511719,0.550781,3.769531,-2.181641,-1.205078,-1.783203,0.590454,-0.309448,0.44043,0.601379,up
434416,-8.625,0.511719,3.808594,-2.181641,-1.205078,-1.783203,0.594788,-0.315918,0.428101,0.602661,up
434421,-8.707031,0.433594,4.152344,-2.181641,-1.205078,-1.783203,0.594788,-0.315918,0.428101,0.602661,up
434426,-8.8125,0.398438,4.421875,-1.642578,-1.205078,-1.673828,0.599731,-0.32074,0.416992,0.602905,up
434431,-9.125,0.359375,4.574219,-1.642578,-1.205078,-1.673828,0.599731,-0.32074,0.416992,0.602905,up
434436,-9.125,0.589844,4.382812,-0.673828,-1.171875,-1.972656,0.602722,-0.322632,0.411987,0.602417,up
434441,-9.046875,0.894531,4.34375,-0.304688,-1.228516,-2.085938,0.606384,-0.324219,0.406982,0.601257,up
434446,-9.046875,0.894531,4.34375,-0.304688,-1.228516,-2.085938,0.609924,-0.325134,0.403137,0.599792,up
434451,-9.3125,1.585938,4.421875,-0.089844,-1.294922,-2.197266,0.609924,-0.325134,0.403137,0.599792,up
434456,-9.3125,1.585938,4.421875,0.134766,-1.349609,-2.294922,0.619019,-0.325928,0.395203,0.595276,up
434461,-9.394531,2.042969,4.304687,0.134766,-1.349609,-2.294922,0.623962,-0.325989,0.391296,0.592712,up
434466,-9.394531,2.042969,4.304687,-0.09375,-1.482422,-2.486328,0.628906,-0.326233,0.387024,0.590149,up
434471,-9.273438,1.546875,4.765625,-0.09375,-1.482422,-2.486328,0.638977,-0.327637,0.376526,0.585327,up
434476,-9.160156,1.011719,5.1875,-0.09375,-1.482422,-2.486328,0.638977,-0.327637,0.376526,0.585327,up
434481,-8.851563,1.011719,5.222656,-1.683594,-1.699219,-2.667969,0.638977,-0.327637,0.376526,0.585327,up
434487,-8.355469,0.628906,5.492187,-1.683594,-1.699219,-2.667969,0.651672,-0.334473,0.355286,0.580688,up
434493,-8.628906,-0.332031,5.222656,-1.683594,-1.699219,-2.667969,0.654846,-0.33905,0.34668,0.579651,up
434498,-8.816406,-0.714844,5.1875,-3.029297,-1.09375,-2.556641,0.65741,-0.344727,0.337585,0.578796,up
434504,-8.8125,-0.980469,5.414062,-3.269531,-0.980469,-2.498047,0.65741,-0.344727,0.337585,0.578796,up
434509,-9.007813,-0.945312,5.492187,-3.167969,-0.886719,-2.419922,0.65741,-0.344727,0.337585,0.578796,up
434514,-9.277344,-0.636719,5.875,-2.957031,-0.953125,-2.328125,0.65741,-0.344727,0.337585,0.578796,up
434520,-9.390625,-0.253906,6.105469,-2.957031,-0.953125,-2.328125,0.66333,-0.366333,0.30603,0.576294,up
434525,-9.695313,0.015625,6.335937,-2.957031,-0.953125,-2.328125,0.66333,-0.366333,0.30603,0.576294,up
434530,-9.695313,0.015625,6.335937,-2.263672,-0.980469,-2.095703,0.666748,-0.374023,0.292542,0.574463,up
434535,-9.695313,0.015625,6.335937,-1.142578,-1.105469,-1.837891,0.668884,-0.376221,0.286987,0.573303,up
434540,-10.3125,0.511719,6.566406,-1.142578,-1.105469,-1.837891,0.671387,-0.377441,0.281921,0.572083,up
434545,-10.726563,0.511719,7.371094,-0.5,-1.259766,-1.539063,0.67395,-0.377869,0.277466,0.570984,up
434551,-11.0,-0.175781,7.636719,-0.5,-1.259766,-1.539063,0.67395,-0.377869,0.277466,0.570984,up
434556,-11.230469,-0.753906,8.328125,-0.306641,-1.201172,-1.199219,0.67395,-0.377869,0.277466,0.570984,up
434561,-11.113281,-1.019531,8.59375,-0.306641,-1.201172,-1.199219,0.680969,-0.377136,0.266052,0.568604,up
434566,-11.191406,-1.171875,8.902344,-0.587891,-0.664062,-0.646484,0.680969,-0.377136,0.266052,0.568604,up
434571,-11.347656,-1.097656,8.976563,-0.587891,-0.664062,-0.646484,0.683716,-0.377197,0.259888,0.568054,up
434576,-11.886719,-0.292969,9.132813,-0.716797,-0.339844,-0.398438,0.683716,-0.377197,0.259888,0.568054,up
434581,-12.191406,0.242187,9.207031,-0.716797,-0.339844,-0.398438,0.684021,-0.379089,0.255859,0.568298,up
434586,-12.6875,0.433594,9.398438,-0.728516,0.625,0.722656,0.684021,-0.379089,0.255859,0.568298,up
434591,-13.300781,0.242187,9.628906,-0.728516,0.625,0.722656,0.681396,-0.382202,0.255005,0.569763,up
434596,-14.292969,-1.019531,9.859375,-0.728516,0.625,0.722656,0.678711,-0.38385,0.256531,0.571106,up
434601,-14.949219,-1.210938,9.746094,-0.728516,0.625,0.722656,0.676025,-0.384888,0.259155,0.572449,up
434607,-15.480469,-1.136719,9.746094,0.537109,1.550781,2.015625,0.668884,-0.384827,0.270447,0.575623,up
434612,-16.941406,0.28125,9.363281,0.537109,1.550781,2.015625,0.665222,-0.383606,0.278381,0.576904,up
434617,-17.742187,1.125,8.902344,0.537109,1.550781,2.015625,0.661194,-0.381592,0.288391,0.577942,up
434622,-18.433594,1.96875,8.519531,3.226563,3.548828,3.982422,0.656128,-0.378723,0.301758,0.578796,up
434627,-18.433594,1.96875,8.519531,3.226563,3.548828,3.982422,0.656128,-0.378723,0.301758,0.578796,up
434632,-19.84375,3.613281,7.597656,3.791016,4.269531,4.679687,0.656128,-0.378723,0.301758,0.578796,up
434637,-19.84375,3.613281,7.597656,4.267578,5.0625,5.484375,0.642883,-0.37146,0.335022,0.580017,up
434642,-21.953125,6.71875,6.027344,4.267578,5.0625,5.484375,0.633789,-0.367188,0.35553,0.580566,up
434647,-25.289062,12.464844,3.308594,5.037109,6.769531,7.472656,0.622009,-0.362244,0.379456,0.581299,up
434652,-27.089844,14.53125,2.429688,5.253906,7.664062,8.666016,0.608032,-0.356995,0.404968,0.582153,up
434657,-29.0,16.90625,1.203125,5.308594,9.523438,11.304688,0.59082,-0.351196,0.4328,0.583313,up
434663,-29.0,16.90625,1.203125,5.308594,9.523438,11.304688,0.544983,-0.337524,0.494629,0.586853,up
434668,-35.59375,24.339844,-2.859375,5.308594,9.523438,11.304688,0.544983,-0.337524,0.494629,0.586853,up
434673,-35.59375,24.339844,-2.859375,4.822266,10.427734,15.742188,0.544983,-0.337524,0.494629,0.586853,up
434678,-39.464844,28.820312,-6.152344,4.822266,10.427734,15.742188,0.483398,-0.317444,0.559814,0.593445,up
434683,-39.464844,28.820312,-6.152344,4.400391,10.212891,17.027344,0.408691,-0.28772,0.621521,0.603271,up
434689,-39.078125,22.882812,-9.371094,4.400391,10.212891,17.027344,0.368347,-0.269653,0.648132,0.609497,up
434694,-37.8125,21.351562,-9.0625,1.958984,8.550781,19.814453,0.368347,-0.269653,0.648132,0.609497,up
434699,-36.96875,21.121094,-8.988281,1.177734,8.46875,20.46875,0.28009,-0.226379,0.693176,0.624329,up
434704,-35.902344,18.363281,-9.832031,1.177734,8.46875,20.46875,0.233765,-0.203125,0.710999,0.631348,up
434710,-34.597656,14.1875,-8.679688,0.246094,8.492188,20.951172,0.233765,-0.203125,0.710999,0.631348,up
434715,-31.609375,8.210938,-8.183594,-0.007813,8.332031,20.59375,0.233765,-0.203125,0.710999,0.631348,up
434720,-28.125,3.15625,-8.066406,-0.390625,8.330078,19.921875,0.233765,-0.203125,0.710999,0.631348,up
434725,-21.0,-0.828125,-7.800781,-0.390625,8.330078,19.921875,0.233765,-0.203125,0.710999,0.631348,up
434730,-18.046875,-0.867187,-7.265625,-0.998047,6.546875,18.628906,0.233765,-0.203125,0.710999,0.631348,up
434736,-16.441406,-0.714844,-6.421875,-1.025391,5.976562,17.972656,0.233765,-0.203125,0.710999,0.631348,up
434741,-15.554688,-2.742188,-1.480469,-0.533203,5.308594,17.597656,0.233765,-0.203125,0.710999,0.631348,up
434747,-15.789063,-4.699219,2.351563,2.054688,3.710938,16.158203,0.233765,-0.203125,0.710999,0.631348,up
434752,-15.710938,-7.609375,6.066406,3.855469,4.107422,14.857422,0.154907,-0.018127,-0.758301,-0.632935,up
434758,-11.613281,-11.09375,13.691406,3.855469,4.107422,14.857422,0.219421,-0.059326,-0.763733,-0.604187,up
434763,-12.6875,-11.824219,14.378906,3.855469,4.107422,14.857422,0.250854,-0.072021,-0.769104,-0.583435,up
434768,-15.253906,-11.019531,14.417969,8.539063,5.644531,9.757813,0.279419,-0.079163,-0.775024,-0.561218,up
434774,-16.859375,-11.515625,16.871094,8.539063,5.644531,9.757813,0.300659,-0.082214,-0.780884,-0.541321,up
434779,-16.785156,-11.632813,19.085937,8.539063,5.644531,9.757813,0.320435,-0.08252,-0.788452,-0.518555,up
434785,-17.167969,-10.902344,19.242187,10.287109,3.494141,4.125,0.320435,-0.08252,-0.788452,-0.518555,up
434790,-17.015625,-10.597656,19.824219,10.126953,2.492188,2.277344,0.320435,-0.08252,-0.788452,-0.518555,up
434796,-12.953125,-10.023438,23.535156,10.126953,2.492188,2.277344,0.355713,-0.066101,-0.815186,-0.452271,up
434801,-12.226563,-9.292969,19.863281,5.408203,1.324219,-0.376953,0.355713,-0.066101,-0.815186,-0.452271,up
434807,-13.453125,-9.601563,14.230469,1.121094,1.412109,-0.996094,0.362671,-0.049927,-0.82312,-0.434021,up
434812,-10.15625,-11.210938,13.265625,1.121094,1.412109,-0.996094,0.359985,-0.050964,-0.819702,-0.442627,up
434817,-7.820312,-10.367188,13.382813,-6.222656,-1.511719,-1.292969,0.359985,-0.050964,-0.819702,-0.442627,up
434822,-6.671875,-9.371094,12.039063,-7.519531,-1.697266,-1.109375,0.354736,-0.054993,-0.814392,-0.455994,up
434827,-4.335937,-7.339844,9.667969,-7.519531,-1.697266,-1.109375,0.349548,-0.060059,-0.808594,-0.469421,up
434832,-3.261719,-6.34375,8.980469,-7.519531,-1.697266,-1.109375,0.336853,-0.076782,-0.79071,-0.505432,up
434837,-2.265625,-5.425781,8.328125,-11.496094,-2.113281,-0.300781,0.336853,-0.076782,-0.79071,-0.505432,up
434842,-1.078125,-4.007812,7.410156,-11.496094,-2.113281,-0.300781,0.322754,-0.099609,-0.764465,-0.549072,up
434847,0.835937,-1.671875,3.925781,-11.496094,-2.113281,-0.300781,0.322754,-0.099609,-0.764465,-0.549072,up
434852,1.644531,-1.019531,1.164063,-7.767578,-0.931641,-0.628906,0.315918,-0.110535,-0.749695,-0.570923,up
434857,2.449219,0.015625,-2.015625,-7.767578,-0.931641,-0.628906,0.310242,-0.118469,-0.737366,-0.588196,up
434862,3.25,1.738281,-4.394531,-7.767578,-0.931641,-0.628906,0.305725,-0.123291,-0.729065,-0.599854,up
434867,3.941406,5.257812,-3.816406,-2.111328,-1.080078,-0.832031,0.297974,-0.126709,-0.724548,-0.608459,up
434872,4.972656,5.71875,-2.859375,1.533203,-1.121094,-1.232422,0.297974,-0.126709,-0.724548,-0.608459,up
434877,5.703125,6.257812,-2.4375,1.533203,-1.121094,-1.232422,0.294067,-0.125854,-0.727173,-0.607361,up
434882,6.160156,7.171875,-2.476563,2.697266,-0.679687,-1.363281,0.289185,-0.119202,-0.736816,-0.599365,up
434887,6.390625,8.019531,-3.050781,2.697266,-0.679687,-1.363281,0.288086,-0.113525,-0.743286,-0.593018,up
434892,6.351562,9.664063,-5.082031,2.697266,-0.679687,-1.363281,0.288086,-0.113525,-0.743286,-0.593018,up
434897,6.542969,10.472656,-6.078125,4.726562,0.171875,-1.664063,0.28595,-0.100525,-0.757568,-0.578125,up
434902,6.734375,10.933594,-6.6875,4.146484,-0.835937,-1.660156,0.28595,-0.100525,-0.757568,-0.578125,up
434907,7.347656,11.234375,-6.113281,3.353516,-1.375,-1.498047,0.283508,-0.094788,-0.764832,-0.570679,up
434912,7.695312,11.542969,-5.003906,3.353516,-1.375,-1.498047,0.279724,-0.090393,-0.771729,-0.563904,up
434917,8.382813,12.0,-3.011719,3.353516,-1.375,-1.498047,0.275513,-0.087769,-0.7771,-0.559021,up
434922,8.460938,12.078125,-2.707031,3.353516,-1.375,-1.498047,0.271118,-0.086182,-0.781128,-0.555847,up
434927,8.230469,11.890625,-2.78125,-0.955078,-0.396484,-0.71875,0.271118,-0.086182,-0.781128,-0.555847,up
434932,7.847656,11.472656,-3.089844,-0.955078,-0.396484,-0.71875,0.265137,-0.084839,-0.783142,-0.55603,up
434938,7.042969,11.394531,-4.007812,-0.955078,-0.396484,-0.71875,0.262207,-0.08551,-0.778564,-0.563721,up
434944,6.8125,10.933594,-4.085937,-0.955078,-0.396484,-0.71875,0.260986,-0.086792,-0.775085,-0.568909,up
434949,6.851562,10.664063,-3.894531,-2.939453,-0.384766,-0.150391,0.25946,-0.088684,-0.771179,-0.574524,up
434954,6.773437,10.285156,-3.507813,-2.576172,-0.507812,-0.082031,0.25946,-0.088684,-0.771179,-0.574524,up
434959,6.699219,9.898438,-3.089844,-2.576172,-0.507812,-0.082031,0.256104,-0.092957,-0.764587,-0.584106,up
434965,6.390625,9.359375,-2.207031,-2.576172,-0.507812,-0.082031,0.254639,-0.094788,-0.762512,-0.587097,up
434971,6.199219,9.242188,-1.976563,-0.677734,-0.410156,0.052734,0.254639,-0.094788,-0.762512,-0.587097,up
434976,5.585937,9.019531,-2.09375,-0.021484,-0.273438,0.048828,0.254639,-0.094788,-0.762512,-0.587097,up
434982,5.433594,8.863281,-2.246094,0.558594,-0.167969,0.029297,0.254639,-0.094788,-0.762512,-0.587097,up
434987,5.394531,8.785156,-2.246094,1.021484,-0.173828,0.013672,0.252258,-0.096375,-0.764893,-0.584839,up
434992,5.089844,8.753906,-2.128906,1.021484,-0.173828,0.013672,0.252258,-0.096375,-0.764893,-0.584839,up
434998,4.972656,8.820313,-2.054688,1.021484,-0.173828,0.013672,0.252136,-0.094604,-0.770386,-0.577942,up
435003,4.9375,8.480469,-1.976563,1.933594,-0.244141,-0.068359,0.252014,-0.093628,-0.773132,-0.574463,up
435008,4.898437,8.558594,-1.402344,1.933594,-0.244141,-0.068359,0.251831,-0.092651,-0.776245,-0.570496,up
435013,4.707031,8.515625,-1.132813,1.933594,-0.244141,-0.068359,0.251587,-0.092041,-0.778564,-0.567505,up
435019,4.589844,8.25,-0.980469,1.933594,-0.244141,-0.068359,0.251282,-0.091614,-0.780762,-0.564697,up
435024,4.515625,8.175781,-1.019531,0.558594,-0.28125,0.027344,0.250916,-0.091492,-0.782043,-0.56311,up
435030,4.476562,7.867187,-1.289063,0.558594,-0.28125,0.027344,0.250427,-0.091736,-0.782654,-0.562439,up
435036,4.476562,7.675781,-1.289063,-0.351563,-0.236328,0.0625,0.250427,-0.091736,-0.782654,-0.562439,up
435041,4.4375,7.523437,-1.25,-0.626953,-0.246094,0.083984,0.250427,-0.091736,-0.782654,-0.562439,up
435047,4.398437,7.488281,-1.402344,-0.777344,-0.255859,0.074219,0.250427,-0.091736,-0.782654,-0.562439,up
435052,4.398437,7.488281,-1.363281,-0.777344,-0.255859,0.074219,0.248169,-0.094849,-0.780273,-0.566223,up
435058,4.398437,7.445312,-1.402344,-0.904297,-0.34375,0.023437,0.248169,-0.094849,-0.780273,-0.566223,up
435063,4.4375,7.40625,-1.402344,-0.904297,-0.34375,0.023437,0.245605,-0.098022,-0.7771,-0.571106,up
435068,4.4375,7.289062,-1.519531,-0.904297,-0.34375,0.023437,0.244629,-0.098877,-0.776428,-0.572327,up
435073,4.589844,7.332031,-1.824219,-0.34375,-0.423828,-0.087891,0.243469,-0.099609,-0.776001,-0.573242,up
435079,4.667969,7.5625,-1.824219,-0.34375,-0.423828,-0.087891,0.242371,-0.100159,-0.776001,-0.573608,up
435084,4.820312,7.710937,-1.863281,-0.34375,-0.423828,-0.087891,0.241333,-0.100525,-0.776306,-0.573547,up
435089,4.859375,7.753906,-1.976563,0.275391,-0.519531,-0.126953,0.241333,-0.100525,-0.776306,-0.573547,up
435095,4.859375,7.710937,-2.015625,0.363281,-0.525391,-0.136719,0.241333,-0.100525,-0.776306,-0.573547,up
435100,4.898437,7.792969,-2.128906,0.386719,-0.539062,-0.130859,0.241333,-0.100525,-0.776306,-0.573547,up
435105,4.972656,8.054688,-2.320313,0.386719,-0.539062,-0.130859,0.236633,-0.101685,-0.779602,-0.570862,up
435111,5.011719,8.097656,-2.4375,0.300781,-0.53125,-0.125,0.236633,-0.101685,-0.779602,-0.570862,up
435116,5.050781,8.097656,-2.515625,0.193359,-0.519531,-0.113281,0.236633,-0.101685,-0.779602,-0.570862,up
435121,5.089844,8.25,-2.742188,0.193359,-0.519531,-0.113281,0.233154,-0.102722,-0.781677,-0.569275,up
435126,5.089844,8.25,-2.78125,-0.074219,-0.398438,-0.107422,0.233154,-0.102722,-0.781677,-0.569275,up
435131,5.164062,8.214844,-2.78125,-0.197266,-0.351563,-0.119141,0.233154,-0.102722,-0.781677,-0.569275,up
435137,5.089844,8.171875,-2.707031,-0.197266,-0.351563,-0.119141,0.230225,-0.103821,-0.781921,-0.569885,up
435142,5.128906,8.175781,-2.742188,-0.197266,-0.351563,-0.119141,0.22937,-0.104065,-0.781677,-0.570557,up
435148,5.050781,8.25,-2.707031,-0.34375,-0.164062,-0.179687,0.22937,-0.104065,-0.781677,-0.570557,up
435153,4.972656,8.363281,-2.515625,-0.34375,-0.164062,-0.179687,0.227905,-0.104309,-0.781006,-0.572021,up
435159,4.898437,8.4375,-2.246094,-0.34375,-0.164062,-0.179687,0.226501,-0.104248,-0.780518,-0.573242,up
435165,4.859375,8.476563,-2.246094,-0.097656,-0.162109,-0.234375,0.225708,-0.104126,-0.780518,-0.573608,up
435172,4.820312,8.636719,-2.207031,-0.003906,-0.160156,-0.234375,0.225708,-0.104126,-0.780518,-0.573608,up
435177,4.820312,8.671875,-2.128906,0.082031,-0.203125,-0.226562,0.224304,-0.103638,-0.780823,-0.573853,up
435182,4.820312,8.714844,-2.128906,0.082031,-0.203125,-0.226562,0.223511,-0.103455,-0.781189,-0.573669,up
435188,4.78125,8.710938,-2.09375,0.175781,-0.316406,-0.199219,0.221741,-0.103394,-0.782104,-0.573059,up
435193,4.742187,8.75,-2.207031,0.175781,-0.316406,-0.199219,0.220825,-0.103455,-0.782593,-0.572754,up
435198,4.707031,8.753906,-2.246094,0.175781,-0.316406,-0.199219,0.219849,-0.103638,-0.78302,-0.57251,up
435203,4.742187,8.78125,-2.359375,0.175781,-0.316406,-0.199219,0.219849,-0.103638,-0.78302,-0.57251,up
435208,4.707031,8.898438,-2.476563,-0.009766,-0.351563,-0.107422,0.21814,-0.104126,-0.783447,-0.572571,up
435213,4.667969,8.902344,-2.742188,-0.009766,-0.351563,-0.107422,0.217224,-0.104492,-0.783386,-0.572937,up
435218,4.707031,8.863281,-2.78125,-0.351563,-0.271484,-0.085937,0.217224,-0.104492,-0.783386,-0.572937,up
435223,4.707031,8.824219,-2.820313,-0.351563,-0.271484,-0.085937,0.215698,-0.105225,-0.782776,-0.574158,up
