timestamp,ax,ay,az,gx,gy,gz,qw,qx,qy,qz,label
513056,-8.21875,4.839844,-0.820312,-0.042969,0.087891,0.056641,0.416504,-0.281311,0.675537,0.53949,up
513062,-8.261719,4.917969,-0.78125,0.189453,0.158203,0.070312,0.416504,-0.281311,0.675537,0.53949,up
513067,-8.335938,5.109375,-0.742187,0.226562,0.158203,0.074219,0.416138,-0.280579,0.676819,0.538513,up
513072,-8.417969,5.261719,-0.859375,0.226562,0.158203,0.074219,0.415955,-0.279968,0.67804,0.537476,up
513077,-8.414063,5.300781,-0.78125,0.226562,0.158203,0.074219,0.415955,-0.279968,0.67804,0.537476,up
513082,-8.457031,5.414062,-0.820312,0.226562,0.142578,0.078125,0.415833,-0.279236,0.67926,0.536377,up
513087,-8.492188,5.414062,-0.742187,0.226562,0.142578,0.078125,0.415833,-0.279236,0.67926,0.536377,up
513092,-8.492188,5.414062,-0.742187,0.085937,0.121094,0.050781,0.415771,-0.27887,0.67981,0.53595,up
513097,-8.535156,5.414062,-0.820312,0.005859,0.09375,0.035156,0.41571,-0.278625,0.680176,0.535583,up
513102,-8.496094,5.261719,-0.742187,0.005859,0.09375,0.035156,0.415649,-0.278442,0.680542,0.535339,up
513107,-8.414063,5.183594,-0.78125,-0.158203,0.060547,0.009766,0.415588,-0.278381,0.680664,0.535278,up
513112,-8.339844,5.070312,-0.742187,-0.158203,0.060547,0.009766,0.415466,-0.278381,0.680664,0.535339,up
513117,-8.335938,5.03125,-0.78125,-0.271484,0.035156,0.0,0.415405,-0.278442,0.680603,0.535522,up
513123,-8.335938,5.03125,-0.78125,-0.289063,0.021484,0.001953,0.415161,-0.278748,0.680115,0.536072,up
513129,-8.035156,4.726562,-0.742187,-0.289063,0.021484,0.001953,0.415039,-0.27887,0.67981,0.536499,up
513134,-8.074219,4.761719,-0.707031,-0.246094,0.023437,0.017578,0.414917,-0.278992,0.679626,0.536743,up
513139,-8.03125,4.726562,-0.707031,-0.246094,0.023437,0.017578,0.414795,-0.279053,0.679443,0.537048,up
513144,-8.070313,4.6875,-0.742187,-0.246094,0.023437,0.017578,0.414795,-0.279053,0.679443,0.537048,up
513149,-8.109375,4.726562,-0.707031,-0.068359,0.037109,0.052734,0.414795,-0.279053,0.679443,0.537048,up
513154,-8.070313,4.6875,-0.742187,0.003906,0.042969,0.068359,0.414795,-0.279053,0.679443,0.537048,up
513159,-8.109375,4.6875,-0.707031,0.003906,0.042969,0.068359,0.414551,-0.278503,0.679687,0.537231,up
513165,-8.21875,4.726562,-0.707031,0.003906,0.042969,0.068359,0.414551,-0.278503,0.679687,0.537231,up
513170,-8.222656,4.800781,-0.667969,0.214844,0.037109,0.074219,0.414551,-0.278503,0.679687,0.537231,up
513175,-8.261719,4.953125,-0.628906,0.238281,0.039063,0.060547,0.414551,-0.278503,0.679687,0.537231,up
513181,-8.300781,5.070312,-0.589844,0.236328,0.033203,0.050781,0.414551,-0.278503,0.679687,0.537231,up
513187,-8.339844,5.109375,-0.667969,0.181641,0.03125,0.035156,0.414551,-0.278503,0.679687,0.537231,up
513192,-8.414063,5.222656,-0.667969,0.181641,0.03125,0.035156,0.415161,-0.276001,0.682312,0.534729,up
513198,-8.453125,5.222656,-0.628906,0.125,0.021484,0.027344,0.415405,-0.275391,0.682861,0.534119,up
513203,-8.417969,5.183594,-0.667969,-0.015625,0.0,0.013672,0.415527,-0.275146,0.682983,0.533997,up
513209,-8.339844,5.03125,-0.667969,-0.015625,0.0,0.013672,0.415588,-0.275024,0.683044,0.533997,up
513214,-8.21875,4.839844,-0.707031,-0.015625,0.0,0.013672,0.415588,-0.274963,0.682983,0.534119,up
513219,-8.152344,4.761719,-0.742187,-0.177734,-0.023437,0.015625,0.415588,-0.274963,0.682983,0.534119,up
513224,-8.074219,4.6875,-0.667969,-0.1875,-0.025391,0.025391,0.415588,-0.274963,0.682983,0.534119,up
513230,-7.953125,4.570312,-0.78125,-0.175781,-0.011719,0.033203,0.415588,-0.274963,0.682983,0.534119,up
513235,-7.957031,4.570312,-0.820312,-0.162109,0.0,0.046875,0.415405,-0.274902,0.682312,0.535095,up
513241,-7.953125,4.496094,-0.742187,-0.128906,0.015625,0.048828,0.415405,-0.274902,0.682312,0.535095,up
513246,-7.992187,4.496094,-0.78125,-0.085937,0.033203,0.052734,0.415405,-0.274902,0.682312,0.535095,up
513252,-8.03125,4.457031,-0.820312,-0.085937,0.033203,0.052734,0.415405,-0.274902,0.682312,0.535095,up
513257,-8.035156,4.457031,-0.78125,0.039063,0.052734,0.056641,0.415039,-0.274536,0.682373,0.535461,up
513262,-8.113281,4.535156,-0.742187,0.119141,0.056641,0.0625,0.414978,-0.273987,0.682983,0.534973,up
513267,-8.113281,4.570312,-0.742187,0.119141,0.056641,0.0625,0.414978,-0.273987,0.682983,0.534973,up
513272,-8.152344,4.6875,-0.78125,0.119141,0.056641,0.0625,0.415039,-0.273621,0.683472,0.534546,up
513277,-8.152344,4.761719,-0.742187,0.28125,0.058594,0.070312,0.415039,-0.273621,0.683472,0.534546,up
513282,-8.148438,4.800781,-0.742187,0.28125,0.058594,0.070312,0.415161,-0.272827,0.684448,0.533569,up
513288,-8.257813,4.917969,-0.707031,0.28125,0.058594,0.070312,0.415344,-0.271912,0.685486,0.532593,up
513293,-8.296875,4.917969,-0.742187,0.244141,0.019531,0.044922,0.415344,-0.271912,0.685486,0.532593,up
513298,-8.257813,4.953125,-0.742187,0.195312,0.015625,0.017578,0.415466,-0.271484,0.685974,0.532104,up
513304,-8.257813,4.953125,-0.742187,0.152344,0.007813,-0.011719,0.415771,-0.270874,0.686646,0.531311,up
513309,-8.335938,5.183594,-0.859375,0.152344,0.007813,-0.011719,0.415955,-0.270691,0.686829,0.531006,up
513314,-8.378906,5.222656,-0.898437,0.027344,-0.017578,-0.046875,0.416077,-0.270569,0.68689,0.530884,up
513321,-8.378906,5.222656,-0.898437,-0.037109,-0.035156,-0.066406,0.416077,-0.270569,0.68689,0.530884,up
513326,-8.378906,5.222656,-0.898437,-0.107422,-0.037109,-0.082031,0.416077,-0.270569,0.68689,0.530884,up
513332,-8.417969,5.222656,-0.859375,-0.175781,-0.042969,-0.09375,0.416077,-0.270569,0.68689,0.530884,up
513337,-8.378906,5.109375,-0.9375,-0.228516,-0.044922,-0.103516,0.416077,-0.270569,0.68689,0.530884,up
513342,-8.414063,5.070312,-0.9375,-0.228516,-0.044922,-0.103516,0.416809,-0.27124,0.685791,0.531372,up
513347,-8.414063,5.03125,-0.898437,-0.228516,-0.044922,-0.103516,0.416931,-0.271606,0.685303,0.531738,up
513353,-8.378906,4.992187,-0.9375,-0.300781,-0.037109,-0.072266,0.416931,-0.271606,0.685303,0.531738,up
513358,-8.339844,4.917969,-0.898437,-0.300781,-0.037109,-0.072266,0.417053,-0.272522,0.68396,0.532898,up
513363,-8.339844,4.917969,-0.859375,-0.300781,-0.037109,-0.072266,0.417053,-0.272766,0.683594,0.533325,up
513368,-8.296875,4.839844,-0.898437,-0.181641,-0.001953,-0.011719,0.417053,-0.272766,0.683594,0.533325,up
513373,-8.296875,4.839844,-0.898437,-0.121094,0.009766,0.015625,0.416992,-0.272888,0.68335,0.533569,up
513378,-8.261719,4.839844,-0.898437,-0.121094,0.009766,0.015625,0.416931,-0.272888,0.683167,0.533813,up
513383,-8.296875,4.839844,-0.898437,0.019531,0.041016,0.0625,0.416931,-0.272888,0.683167,0.533813,up
513388,-8.261719,4.839844,-0.898437,0.085937,0.056641,0.09375,0.416809,-0.272766,0.683289,0.533813,up
513393,-8.296875,4.878906,-0.859375,0.085937,0.056641,0.09375,0.416626,-0.272217,0.683838,0.533508,up
513398,-8.296875,4.878906,-0.898437,0.085937,0.056641,0.09375,0.416504,-0.271851,0.684265,0.533264,up
513403,-8.296875,4.953125,-0.820312,0.085937,0.056641,0.09375,0.416504,-0.271851,0.684265,0.533264,up
513408,-8.335938,4.992187,-0.78125,0.203125,0.070312,0.148437,0.41626,-0.270935,0.685242,0.532715,up
513413,-8.339844,5.070312,-0.78125,0.203125,0.070312,0.148437,0.416138,-0.270447,0.68573,0.53241,up
513418,-8.335938,5.109375,-0.78125,0.195312,0.048828,0.185547,0.416138,-0.270447,0.68573,0.53241,up
513423,-8.335938,5.144531,-0.78125,0.154297,0.041016,0.191406,0.416016,-0.269836,0.686218,0.532166,up
513428,-8.296875,5.261719,-0.78125,0.107422,0.027344,0.203125,0.415833,-0.269348,0.686707,0.531982,up
513433,-8.339844,5.300781,-0.820312,0.107422,0.027344,0.203125,0.415466,-0.268372,0.687378,0.531921,up
513438,-8.339844,5.300781,-0.820312,0.107422,0.027344,0.203125,0.415222,-0.267883,0.687622,0.532043,up
513443,-8.335938,5.300781,-0.859375,-0.048828,0.0,0.212891,0.415222,-0.267883,0.687622,0.532043,up
513448,-8.261719,5.261719,-0.859375,-0.048828,0.0,0.212891,0.414734,-0.26709,0.687866,0.532471,up
513453,-8.261719,5.222656,-0.78125,-0.142578,-0.019531,0.238281,0.414734,-0.26709,0.687866,0.532471,up
513458,-8.21875,5.222656,-0.820312,-0.142578,-0.019531,0.238281,0.414368,-0.266724,0.687866,0.532959,up
513463,-8.21875,5.109375,-0.859375,-0.177734,-0.019531,0.240234,0.414368,-0.266724,0.687866,0.532959,up
513468,-8.21875,5.109375,-0.859375,-0.177734,-0.019531,0.240234,0.41333,-0.265686,0.687683,0.534485,up
513473,-8.152344,5.03125,-0.820312,-0.177734,-0.019531,0.240234,0.41333,-0.265686,0.687683,0.534485,up
513478,-8.191406,5.03125,-0.898437,-0.166016,-0.021484,0.273438,0.41333,-0.265686,0.687683,0.534485,up
513484,-8.1875,5.070312,-0.859375,-0.166016,-0.021484,0.273438,0.412109,-0.264465,0.687561,0.536194,up
513490,-8.1875,5.070312,-0.859375,-0.166016,-0.021484,0.273438,0.411682,-0.263916,0.687622,0.536682,up
513495,-8.152344,5.070312,-0.898437,-0.058594,-0.013672,0.308594,0.411377,-0.263428,0.687744,0.537048,up
513500,-8.148438,5.070312,-0.9375,-0.013672,-0.007813,0.308594,0.411377,-0.263428,0.687744,0.537048,up
513505,-8.191406,5.109375,-0.898437,-0.013672,-0.007813,0.308594,0.411377,-0.263428,0.687744,0.537048,up
513511,-8.21875,5.144531,-0.898437,0.09375,-0.005859,0.322266,0.411377,-0.263428,0.687744,0.537048,up
513516,-8.257813,5.183594,-0.859375,0.126953,0.009766,0.314453,0.411377,-0.263428,0.687744,0.537048,up
513521,-8.261719,5.261719,-0.859375,0.126953,0.009766,0.314453,0.411377,-0.263428,0.687744,0.537048,up
513527,-8.257813,5.300781,-0.859375,0.126953,0.009766,0.314453,0.409363,-0.259399,0.689758,0.537964,up
513533,-8.261719,5.300781,-0.820312,0.169922,0.03125,0.3125,0.409363,-0.259399,0.689758,0.537964,up
513538,-8.257813,5.300781,-0.78125,0.169922,0.03125,0.3125,0.408691,-0.257935,0.690735,0.537903,up
513543,-8.257813,5.300781,-0.742187,0.140625,0.025391,0.296875,0.408386,-0.257141,0.691284,0.537842,up
513548,-8.261719,5.261719,-0.742187,0.140625,0.025391,0.296875,0.40802,-0.256348,0.691772,0.537842,up
513553,-8.21875,5.222656,-0.667969,0.101563,0.007813,0.267578,0.407776,-0.255676,0.6922,0.537842,up
513558,-8.148438,5.261719,-0.667969,0.101563,0.007813,0.267578,0.407471,-0.255066,0.692566,0.537842,up
513563,-8.148438,5.222656,-0.667969,0.050781,-0.029297,0.25,0.407227,-0.254456,0.692871,0.537903,up
513568,-8.109375,5.222656,-0.628906,0.050781,-0.029297,0.25,0.406982,-0.253784,0.693115,0.538086,up
513573,-8.074219,5.222656,-0.628906,0.015625,-0.037109,0.197266,0.406799,-0.253235,0.693359,0.538208,up
513579,-8.074219,5.222656,-0.628906,0.007813,-0.050781,0.175781,0.406555,-0.252319,0.693604,0.538513,up
513584,-7.992187,5.144531,-0.667969,0.0,-0.056641,0.150391,0.406433,-0.251831,0.693665,0.538696,up
513589,-7.914062,4.992187,-0.628906,0.0,-0.056641,0.150391,0.406433,-0.251404,0.693787,0.538818,up
513594,-7.914062,4.992187,-0.628906,0.0,-0.056641,0.150391,0.406433,-0.251099,0.693787,0.538879,up
513600,-7.875,4.992187,-0.667969,0.0,-0.056641,0.150391,0.406494,-0.250732,0.693848,0.53894,up
513605,-7.875,4.992187,-0.667969,0.037109,-0.070312,0.052734,0.406555,-0.250488,0.693909,0.53894,up
513610,-7.878906,5.070312,-0.707031,0.058594,-0.072266,0.039063,0.406555,-0.250488,0.693909,0.53894,up
513615,-7.839844,5.183594,-0.742187,0.058594,-0.072266,0.039063,0.40686,-0.249878,0.694031,0.538879,up
513620,-7.839844,5.261719,-0.820312,0.103516,-0.042969,0.017578,0.40686,-0.249878,0.694031,0.538879,up
513625,-7.878906,5.300781,-0.78125,0.111328,-0.046875,0.019531,0.40686,-0.249878,0.694031,0.538879,up
513630,-7.878906,5.375,-0.78125,0.111328,-0.046875,0.019531,0.407349,-0.249084,0.694458,0.53833,up
513636,-7.917969,5.492187,-0.859375,0.111328,-0.046875,0.019531,0.407471,-0.248779,0.69458,0.538147,up
513641,-7.957031,5.453125,-0.859375,0.09375,-0.005859,0.021484,0.407471,-0.248779,0.69458,0.538147,up
513646,-7.996094,5.453125,-0.859375,0.068359,0.001953,0.023437,0.407471,-0.248779,0.69458,0.538147,up
513652,-7.996094,5.453125,-0.898437,0.041016,0.011719,0.015625,0.407471,-0.248779,0.69458,0.538147,up
513657,-7.957031,5.414062,-0.859375,0.009766,0.007813,0.015625,0.407471,-0.248779,0.69458,0.538147,up
513662,-7.953125,5.414062,-0.9375,-0.023437,0.015625,0.005859,0.407471,-0.248779,0.69458,0.538147,up
513668,-8.035156,5.414062,-0.9375,-0.070312,0.003906,0.007813,0.407654,-0.248047,0.69519,0.537598,up
513673,-7.996094,5.414062,-0.898437,-0.070312,0.003906,0.007813,0.407654,-0.248047,0.69519,0.537659,up
513678,-7.957031,5.453125,-0.859375,-0.070312,0.003906,0.007813,0.407654,-0.248047,0.695068,0.53772,up
513683,-7.917969,5.375,-0.898437,-0.070312,0.003906,0.007813,0.407593,-0.248047,0.695007,0.537842,up
513688,-7.875,5.300781,-0.9375,-0.070312,0.003906,0.007813,0.407593,-0.248047,0.694946,0.537964,up
513693,-7.878906,5.300781,-0.898437,-0.070312,0.003906,0.007813,0.407593,-0.247986,0.694885,0.538025,up
513698,-7.839844,5.300781,-0.898437,-0.025391,-0.011719,0.019531,0.407593,-0.247803,0.694885,0.538086,up
513703,-7.796875,5.183594,-0.898437,-0.025391,-0.011719,0.019531,0.407593,-0.247803,0.694885,0.538086,up
513708,-7.796875,5.183594,-0.898437,-0.025391,-0.011719,0.019531,0.407654,-0.247681,0.695007,0.538025,up
513713,-7.769531,5.144531,-0.898437,0.134766,-0.001953,0.048828,0.407654,-0.247681,0.695007,0.538025,up
513718,-7.765625,5.183594,-0.9375,0.134766,-0.001953,0.048828,0.407715,-0.247253,0.695312,0.537781,up
513723,-7.800781,5.183594,-0.9375,0.134766,-0.001953,0.048828,0.407715,-0.246948,0.695618,0.537537,up
513729,-7.796875,5.222656,-0.972656,0.205078,0.037109,0.066406,0.407715,-0.246948,0.695618,0.537537,up
513734,-7.769531,5.222656,-0.9375,0.205078,0.037109,0.066406,0.407776,-0.245911,0.696655,0.53656,up
513739,-7.796875,5.261719,-0.972656,0.205078,0.037109,0.066406,0.407776,-0.245605,0.697021,0.536255,up
513744,-7.839844,5.222656,-0.9375,0.205078,0.037109,0.066406,0.407715,-0.245239,0.69751,0.535828,up
513749,-7.835937,5.261719,-1.050781,0.216797,0.068359,0.087891,0.407715,-0.245239,0.69751,0.535828,up
513754,-7.839844,5.222656,-0.972656,0.216797,0.068359,0.087891,0.407593,-0.244568,0.698364,0.535095,up
513760,-7.878906,5.261719,-1.011719,0.216797,0.068359,0.087891,0.407532,-0.244202,0.698792,0.53479,up
513765,-7.878906,5.300781,-1.050781,0.208984,0.052734,0.091797,0.407532,-0.244202,0.698792,0.53479,up
513770,-7.917969,5.339844,-1.089844,0.205078,0.070312,0.091797,0.407532,-0.244202,0.698792,0.53479,up
513775,-7.839844,5.339844,-1.128906,0.205078,0.070312,0.091797,0.407288,-0.243225,0.700073,0.533752,up
513781,-7.796875,5.339844,-1.089844,0.205078,0.070312,0.091797,0.407288,-0.243225,0.700073,0.533752,up
513786,-7.765625,5.300781,-1.089844,0.185547,0.080078,0.083984,0.407288,-0.243225,0.700073,0.533752,up
513791,-7.691406,5.183594,-1.128906,0.185547,0.080078,0.083984,0.406982,-0.242249,0.701355,0.532715,up
513797,-7.613281,5.109375,-1.164063,0.179687,0.083984,0.078125,0.406982,-0.242249,0.701355,0.532715,up
513802,-7.570312,5.109375,-1.203125,0.175781,0.095703,0.074219,0.406982,-0.242249,0.701355,0.532715,up
513807,-7.609375,5.070312,-1.242188,0.177734,0.109375,0.066406,0.406982,-0.242249,0.701355,0.532715,up
513812,-7.613281,4.992187,-1.28125,0.177734,0.109375,0.066406,0.406494,-0.241333,0.702942,0.531433,up
513818,-7.6875,5.03125,-1.242188,0.183594,0.162109,0.035156,0.406494,-0.241333,0.702942,0.531433,up
513823,-7.769531,4.992187,-1.28125,0.183594,0.162109,0.035156,0.406128,-0.241089,0.703796,0.530701,up
513829,-7.796875,5.144531,-1.28125,0.189453,0.166016,0.023437,0.406128,-0.241089,0.703796,0.530701,up
513834,-7.839844,5.183594,-1.28125,0.248047,0.160156,-0.007813,0.405762,-0.240967,0.704712,0.529785,up
513839,-7.917969,5.300781,-1.28125,0.248047,0.160156,-0.007813,0.405579,-0.240784,0.70575,0.528625,up
513844,-7.957031,5.375,-1.242188,0.248047,0.160156,-0.007813,0.405579,-0.240784,0.70575,0.528625,up
513849,-7.996094,5.453125,-1.203125,0.248047,0.160156,-0.007813,0.405518,-0.24054,0.706848,0.527344,up
513854,-7.996094,5.453125,-1.203125,0.324219,0.132812,-0.011719,0.405518,-0.24054,0.706848,0.527344,up
513859,-8.03125,5.492187,-1.164063,0.324219,0.125,-0.011719,0.405457,-0.240356,0.707458,0.526611,up
513864,-8.03125,5.53125,-1.203125,0.324219,0.125,-0.011719,0.405518,-0.23999,0.708557,0.525269,up
513869,-8.035156,5.492187,-1.128906,0.324219,0.125,-0.011719,0.405518,-0.239807,0.709106,0.524597,up
513874,-8.03125,5.453125,-1.164063,0.324219,0.125,-0.011719,0.405518,-0.239807,0.709106,0.524597,up
513879,-8.03125,5.453125,-1.203125,0.261719,0.083984,-0.017578,0.40564,-0.239441,0.7099,0.52356,up
513884,-7.996094,5.453125,-1.164063,0.261719,0.083984,-0.017578,0.405701,-0.239319,0.710266,0.523132,up
513889,-7.957031,5.414062,-1.203125,0.167969,0.050781,-0.009766,0.405701,-0.239319,0.710266,0.523132,up
513894,-7.917969,5.375,-1.203125,0.15625,0.048828,-0.005859,0.405762,-0.239136,0.710632,0.522705,up
513899,-7.835937,5.339844,-1.28125,0.138672,0.035156,-0.011719,0.405823,-0.239014,0.710876,0.522339,up
513904,-7.835937,5.339844,-1.28125,0.138672,0.035156,-0.011719,0.405945,-0.23877,0.711365,0.521729,up
513909,-7.839844,5.375,-1.28125,0.138672,0.035156,-0.011719,0.405945,-0.23877,0.711365,0.521729,up
513914,-7.796875,5.339844,-1.320313,0.107422,0.056641,-0.013672,0.405945,-0.23877,0.711365,0.521729,up
513919,-7.800781,5.339844,-1.28125,0.107422,0.056641,-0.013672,0.406006,-0.238586,0.711792,0.521179,up
513924,-7.800781,5.300781,-1.320313,0.109375,0.052734,-0.029297,0.406006,-0.238525,0.711975,0.520935,up
513929,-7.796875,5.261719,-1.320313,0.109375,0.052734,-0.029297,0.406067,-0.238464,0.712402,0.520325,up
513934,-7.796875,5.222656,-1.320313,0.111328,0.0625,-0.042969,0.406067,-0.238464,0.712402,0.520325,up
513939,-7.765625,5.222656,-1.28125,0.111328,0.0625,-0.042969,0.406128,-0.238403,0.71283,0.519714,up
513944,-7.796875,5.183594,-1.242188,0.097656,0.052734,-0.060547,0.406128,-0.238403,0.71283,0.519714,up
513949,-7.800781,5.222656,-1.203125,0.097656,0.052734,-0.060547,0.406189,-0.238464,0.713013,0.519409,up
513954,-7.835937,5.222656,-1.164063,0.09375,0.048828,-0.068359,0.406311,-0.238586,0.713257,0.51886,up
513960,-7.953125,5.261719,-1.164063,0.09375,0.048828,-0.068359,0.406433,-0.238647,0.713379,0.518616,up
513965,-7.953125,5.261719,-1.164063,0.068359,0.039063,-0.078125,0.406494,-0.238708,0.713501,0.518311,up
513970,-7.953125,5.300781,-1.128906,0.068359,0.039063,-0.078125,0.406616,-0.238831,0.713623,0.518066,up
513975,-7.996094,5.300781,-1.164063,0.068359,0.039063,-0.078125,0.406738,-0.238831,0.713684,0.517822,up
513981,-7.992187,5.339844,-1.164063,0.068359,0.039063,-0.078125,0.40686,-0.238892,0.713806,0.517578,up
513986,-7.957031,5.300781,-1.203125,0.082031,0.019531,-0.064453,0.406982,-0.238892,0.713867,0.517334,up
513992,-7.992187,5.300781,-1.128906,0.097656,0.005859,-0.068359,0.406982,-0.238892,0.713867,0.517334,up
513997,-7.996094,5.339844,-1.128906,0.107422,-0.001953,-0.050781,0.406982,-0.238892,0.713867,0.517334,up
514003,-7.996094,5.300781,-1.164063,0.121094,0.0,-0.042969,0.406982,-0.238892,0.713867,0.517334,up
514009,-7.992187,5.375,-1.089844,0.138672,-0.007813,-0.03125,0.406982,-0.238892,0.713867,0.517334,up
514014,-8.074219,5.375,-1.164063,0.171875,-0.013672,-0.011719,0.407776,-0.238464,0.7146,0.51593,up
514019,-8.070313,5.414062,-1.128906,0.171875,-0.013672,-0.011719,0.407959,-0.238281,0.714844,0.515564,up
514024,-8.113281,5.492187,-1.128906,0.179687,-0.023437,-0.021484,0.407959,-0.238281,0.714844,0.515564,up
514029,-8.113281,5.492187,-1.128906,0.179687,-0.023437,-0.021484,0.408508,-0.237671,0.715454,0.514587,up
514034,-8.152344,5.414062,-1.128906,0.179687,-0.023437,-0.021484,0.408508,-0.237671,0.715454,0.514587,up
514039,-8.148438,5.375,-1.164063,0.140625,-0.041016,-0.021484,0.408875,-0.237244,0.715698,0.514038,up
514044,-8.109375,5.339844,-1.128906,0.140625,-0.041016,-0.021484,0.408875,-0.237244,0.715698,0.514038,up
514049,-8.109375,5.339844,-1.089844,0.085937,-0.052734,-0.035156,0.409363,-0.237,0.71582,0.513672,up
514054,-8.152344,5.339844,-1.164063,0.085937,-0.052734,-0.035156,0.409363,-0.237,0.71582,0.513672,up
514059,-8.070313,5.339844,-1.203125,0.044922,-0.044922,-0.068359,0.40979,-0.236877,0.71582,0.513367,up
514064,-8.035156,5.339844,-1.203125,0.044922,-0.044922,-0.068359,0.40979,-0.236877,0.71582,0.513367,up
514069,-7.996094,5.375,-1.203125,0.035156,-0.060547,-0.080078,0.409973,-0.236877,0.715759,0.513306,up
514074,-7.957031,5.375,-1.203125,0.035156,-0.060547,-0.080078,0.410278,-0.236877,0.715698,0.513123,up
514079,-7.914062,5.339844,-1.203125,0.035156,-0.060547,-0.080078,0.410461,-0.236877,0.715698,0.513,up
514084,-7.914062,5.339844,-1.203125,0.035156,-0.060547,-0.080078,0.410767,-0.236877,0.715637,0.512878,up
514089,-7.914062,5.339844,-1.203125,0.091797,-0.052734,-0.056641,0.411011,-0.236816,0.715637,0.512695,up
514094,-7.917969,5.300781,-1.164063,0.091797,-0.052734,-0.056641,0.411255,-0.236755,0.715698,0.512512,up
514100,-7.996094,5.375,-1.242188,0.091797,-0.052734,-0.056641,0.411743,-0.236511,0.71582,0.512024,up
514106,-8.03125,5.492187,-1.242188,0.091797,-0.052734,-0.056641,0.411987,-0.236328,0.715942,0.511719,up
514112,-8.03125,5.605469,-1.320313,0.167969,-0.046875,-0.023437,0.411987,-0.236328,0.715942,0.511719,up
514117,-8.113281,5.722656,-1.394531,0.171875,-0.044922,-0.025391,0.412415,-0.23584,0.716309,0.511108,up
514122,-8.109375,5.835937,-1.394531,0.158203,-0.027344,-0.017578,0.412415,-0.23584,0.716309,0.511108,up
514128,-8.222656,5.796875,-1.433594,0.142578,-0.017578,-0.025391,0.412415,-0.23584,0.716309,0.511108,up
514134,-8.222656,5.875,-1.472656,0.126953,-0.005859,-0.017578,0.412415,-0.23584,0.716309,0.511108,up
514139,-8.222656,5.914062,-1.546875,0.095703,0.007813,-0.025391,0.413147,-0.235107,0.717041,0.509705,up
514144,-8.222656,5.988281,-1.472656,0.095703,0.007813,-0.025391,0.413147,-0.235107,0.717041,0.509705,up
514149,-8.261719,6.027344,-1.511719,0.048828,0.023437,-0.023437,0.413269,-0.235107,0.717224,0.509399,up
514154,-8.222656,5.988281,-1.546875,0.048828,0.023437,-0.023437,0.413269,-0.235107,0.717224,0.509399,up
514159,-8.222656,5.988281,-1.472656,-0.017578,0.027344,-0.007813,0.413269,-0.235107,0.717224,0.509399,up
514164,-8.222656,6.027344,-1.472656,-0.017578,0.027344,-0.007813,0.413269,-0.235168,0.717346,0.509338,up
514170,-8.191406,5.988281,-1.433594,-0.035156,0.025391,-0.007813,0.413147,-0.235229,0.717285,0.509338,up
514175,-8.148438,5.914062,-1.394531,-0.035156,0.025391,-0.007813,0.413147,-0.235229,0.717285,0.509399,up
514181,-8.03125,5.796875,-1.355469,-0.035156,0.025391,-0.007813,0.413086,-0.235229,0.717285,0.50946,up
514186,-8.03125,5.722656,-1.320313,-0.041016,0.003906,0.037109,0.413025,-0.235168,0.717285,0.509521,up
514191,-7.996094,5.683594,-1.28125,-0.041016,0.003906,0.037109,0.412964,-0.235107,0.717285,0.509583,up
514197,-7.953125,5.566406,-1.28125,-0.041016,0.003906,0.037109,0.412903,-0.234985,0.717285,0.509705,up
514203,-7.914062,5.566406,-1.28125,-0.019531,-0.005859,0.083984,0.412903,-0.234985,0.717285,0.509705,up
514209,-7.957031,5.53125,-1.242188,-0.009766,-0.013672,0.09375,0.412903,-0.234985,0.717285,0.509705,up
514214,-7.878906,5.492187,-1.28125,-0.009766,-0.013672,0.09375,0.412537,-0.234192,0.717529,0.51001,up
514219,-7.875,5.492187,-1.320313,-0.009766,-0.013672,0.09375,0.412537,-0.234192,0.717529,0.51001,up
514224,-7.878906,5.53125,-1.28125,0.015625,-0.009766,0.105469,0.412354,-0.233643,0.717712,0.510193,up
514229,-7.878906,5.53125,-1.242188,0.015625,-0.009766,0.105469,0.412354,-0.233643,0.717712,0.510193,up
514234,-7.875,5.53125,-1.320313,0.015625,-0.009766,0.105469,0.412292,-0.233337,0.717834,0.510193,up
514240,-7.914062,5.492187,-1.355469,0.050781,-0.011719,0.119141,0.412292,-0.233337,0.717834,0.510193,up
514245,-7.953125,5.53125,-1.320313,0.050781,-0.011719,0.119141,0.412048,-0.232483,0.718201,0.510254,up
514250,-7.953125,5.53125,-1.355469,0.050781,-0.011719,0.119141,0.411987,-0.232178,0.718323,0.510315,up
514255,-7.953125,5.492187,-1.355469,0.011719,-0.005859,0.09375,0.411987,-0.232178,0.718323,0.510315,up
514260,-7.953125,5.453125,-1.355469,0.011719,-0.005859,0.09375,0.411865,-0.231995,0.718384,0.510376,up
514266,-7.914062,5.414062,-1.355469,0.011719,-0.005859,0.09375,0.411743,-0.231628,0.718445,0.510498,up
514271,-7.914062,5.414062,-1.355469,-0.039063,-0.021484,0.070312,0.411682,-0.231445,0.718445,0.51062,up
514276,-7.875,5.375,-1.355469,-0.042969,-0.023437,0.058594,0.411621,-0.231323,0.718445,0.510742,up
514282,-7.835937,5.375,-1.355469,-0.042969,-0.023437,0.058594,0.411621,-0.231201,0.718384,0.510925,up
514287,-7.765625,5.375,-1.320313,-0.056641,-0.037109,0.054687,0.411621,-0.231201,0.718384,0.510925,up
514292,-7.769531,5.339844,-1.320313,-0.058594,-0.048828,0.050781,0.411621,-0.231201,0.718384,0.510925,up
514298,-7.769531,5.339844,-1.355469,-0.039063,-0.046875,0.056641,0.411621,-0.231201,0.718384,0.510925,up
514305,-7.726562,5.261719,-1.355469,-0.039063,-0.046875,0.056641,0.411621,-0.231201,0.718384,0.510925,up
514310,-7.730469,5.261719,-1.28125,-0.001953,-0.060547,0.089844,0.411621,-0.231201,0.718384,0.510925,up
514315,-7.691406,5.183594,-1.355469,-0.001953,-0.060547,0.089844,0.411682,-0.230103,0.71814,0.511719,up
514320,-7.648437,5.261719,-1.394531,0.037109,-0.060547,0.107422,0.411682,-0.230103,0.71814,0.511719,up
514325,-7.691406,5.183594,-1.320313,0.037109,-0.060547,0.107422,0.411682,-0.229126,0.718323,0.511902,up
514330,-7.730469,5.144531,-1.320313,0.074219,-0.041016,0.125,0.411682,-0.229126,0.718323,0.511902,up
514335,-7.730469,5.144531,-1.355469,0.074219,-0.041016,0.125,0.411682,-0.228333,0.718567,0.511902,up
514340,-7.691406,5.144531,-1.355469,0.074219,-0.041016,0.125,0.411621,-0.227844,0.71875,0.511902,up
514345,-7.730469,5.144531,-1.355469,0.074219,-0.041016,0.125,0.411621,-0.227844,0.71875,0.511902,up
514350,-7.730469,5.109375,-1.320313,0.105469,-0.035156,0.154297,0.41156,-0.226929,0.719177,0.51178,up
514355,-7.765625,5.070312,-1.242188,0.101563,-0.023437,0.166016,0.411438,-0.22644,0.71936,0.51178,up
514360,-7.765625,5.070312,-1.28125,0.101563,-0.023437,0.166016,0.411438,-0.22644,0.71936,0.51178,up
514365,-7.796875,5.070312,-1.320313,0.097656,-0.007813,0.15625,0.411377,-0.225952,0.719604,0.51178,up
514371,-7.839844,4.992187,-1.242188,0.097656,-0.007813,0.15625,0.411133,-0.225098,0.720093,0.511658,up
514377,-7.839844,5.03125,-1.242188,0.097656,-0.007813,0.15625,0.411011,-0.22467,0.720276,0.511658,up
514383,-7.917969,5.03125,-1.242188,0.095703,0.003906,0.15625,0.411011,-0.22467,0.720276,0.511658,up
514388,-7.917969,4.992187,-1.203125,0.083984,0.0,0.148437,0.411011,-0.22467,0.720276,0.511658,up
514394,-7.878906,4.953125,-1.203125,0.083984,0.0,0.148437,0.410645,-0.22345,0.720947,0.511536,up
514400,-7.878906,4.992187,-1.164063,0.117188,-0.019531,0.125,0.410645,-0.22345,0.720947,0.511536,up
514405,-7.875,5.03125,-1.128906,0.117188,-0.019531,0.125,0.410522,-0.222595,0.721375,0.511414,up
514410,-7.875,5.03125,-1.128906,0.117188,-0.019531,0.125,0.410583,-0.22168,0.721802,0.511169,up
514415,-7.878906,5.070312,-1.089844,0.117188,-0.019531,0.125,0.410583,-0.22168,0.721802,0.511169,up
514420,-7.839844,5.109375,-1.050781,0.185547,-0.113281,0.121094,0.410583,-0.22168,0.721802,0.511169,up
514425,-7.835937,5.070312,-1.050781,0.185547,-0.113281,0.121094,0.410828,-0.22052,0.72229,0.510803,up
514430,-7.800781,5.03125,-1.011719,0.185547,-0.113281,0.121094,0.411194,-0.219177,0.722717,0.510498,up
514435,-7.769531,4.992187,-1.050781,0.185547,-0.113281,0.121094,0.411194,-0.219177,0.722717,0.510498,up
514440,-7.730469,4.953125,-1.011719,0.195312,-0.169922,0.148437,0.411743,-0.217712,0.723022,0.510193,up
514445,-7.648437,4.878906,-1.050781,0.195312,-0.169922,0.148437,0.411743,-0.217712,0.723022,0.510193,up
514450,-7.570312,4.917969,-1.128906,0.1875,-0.212891,0.144531,0.412048,-0.21698,0.723145,0.510132,up
514455,-7.570312,4.878906,-1.089844,0.1875,-0.212891,0.144531,0.412354,-0.216187,0.723267,0.51001,up
514461,-7.492187,4.839844,-1.203125,0.1875,-0.212891,0.144531,0.413086,-0.214661,0.72345,0.509766,up
514467,-7.34375,4.800781,-1.203125,0.1875,-0.212891,0.144531,0.413513,-0.213928,0.723511,0.509644,up
514474,-7.34375,4.800781,-1.242188,0.183594,-0.234375,0.083984,0.413513,-0.213928,0.723511,0.509644,up
514479,-7.304687,4.761719,-1.242188,0.177734,-0.234375,0.064453,0.413513,-0.213928,0.723511,0.509644,up
514484,-7.230469,4.726562,-1.242188,0.175781,-0.220703,0.039063,0.413513,-0.213928,0.723511,0.509644,up
514490,-7.230469,4.6875,-1.242188,0.171875,-0.201172,-0.013672,0.413513,-0.213928,0.723511,0.509644,up
514495,-7.230469,4.726562,-1.242188,0.171875,-0.201172,-0.013672,0.416382,-0.210388,0.723755,0.508484,up
514500,-7.1875,4.648437,-1.28125,0.171875,-0.201172,-0.013672,0.416931,-0.210022,0.723755,0.508179,up
514505,-7.265625,4.761719,-1.203125,0.171875,-0.201172,-0.013672,0.416931,-0.210022,0.723755,0.508179,up
514510,-7.308594,4.839844,-1.128906,0.246094,-0.269531,-0.166016,0.416931,-0.210022,0.723755,0.508179,up
514515,-7.34375,4.917969,-1.089844,0.246094,-0.269531,-0.166016,0.418396,-0.209351,0.723694,0.507324,up
514520,-7.414062,5.109375,-1.011719,0.267578,-0.304688,-0.203125,0.420349,-0.208618,0.723572,0.506165,up
514525,-7.53125,5.183594,-0.9375,0.267578,-0.304688,-0.203125,0.420349,-0.208618,0.723572,0.506165,up
514530,-7.492187,5.222656,-0.859375,0.289063,-0.425781,-0.255859,0.422913,-0.207764,0.723145,0.505005,up
514535,-7.53125,5.222656,-0.78125,0.285156,-0.582031,-0.308594,0.422913,-0.207764,0.723145,0.505005,up
514541,-7.609375,5.222656,-0.742187,0.253906,-0.648437,-0.333984,0.424438,-0.207275,0.722778,0.504395,up
514546,-7.609375,5.183594,-0.707031,0.253906,-0.648437,-0.333984,0.428101,-0.206116,0.72168,0.503357,up
514551,-7.609375,5.183594,-0.707031,0.253906,-0.648437,-0.333984,0.429871,-0.205688,0.721008,0.503052,up
514556,-7.609375,5.183594,-0.628906,0.253906,-0.648437,-0.333984,0.432129,-0.205139,0.720032,0.502686,up
514562,-7.53125,5.109375,-0.667969,0.253906,-0.648437,-0.333984,0.434692,-0.20459,0.718811,0.502441,up
514567,-7.492187,5.109375,-0.707031,0.023437,-1.058594,-0.558594,0.437073,-0.204224,0.717651,0.502258,up
514573,-7.492187,5.070312,-0.742187,0.023437,-1.058594,-0.558594,0.439758,-0.203857,0.716187,0.502197,up
514578,-7.496094,5.03125,-0.78125,-0.101563,-1.177734,-0.677734,0.442566,-0.203552,0.714539,0.502136,up
514584,-7.53125,5.03125,-0.820312,-0.166016,-1.222656,-0.730469,0.442566,-0.203552,0.714539,0.502136,up
514590,-7.574219,5.070312,-0.859375,-0.214844,-1.25,-0.792969,0.442566,-0.203552,0.714539,0.502136,up
514595,-7.691406,5.070312,-0.898437,-0.214844,-1.25,-0.792969,0.451843,-0.20343,0.708557,0.502319,up
514600,-7.691406,5.070312,-0.898437,-0.265625,-1.287109,-0.912109,0.4552,-0.203613,0.706299,0.502441,up
514605,-7.800781,5.03125,-0.972656,-0.296875,-1.275391,-0.986328,0.4552,-0.203613,0.706299,0.502441,up
514610,-8.074219,4.839844,-0.972656,-0.279297,-1.341797,-1.095703,0.4552,-0.203613,0.706299,0.502441,up
514615,-8.257813,4.648437,-0.859375,-0.279297,-1.341797,-1.095703,0.465454,-0.204956,0.69928,0.502319,up
514620,-8.414063,4.535156,-0.667969,-0.279297,-1.341797,-1.095703,0.469238,-0.205444,0.696716,0.502136,up
514625,-8.722656,4.304687,-0.4375,-0.279297,-1.341797,-1.095703,0.473328,-0.205933,0.694092,0.50177,up
514630,-8.914063,4.265625,-0.324219,-0.279297,-1.341797,-1.095703,0.477356,-0.206299,0.69165,0.501221,up
514635,-9.027344,4.113281,-0.132812,0.082031,-1.597656,-1.394531,0.477356,-0.206299,0.69165,0.501221,up
514641,-9.105469,4.226562,-0.015625,0.179687,-1.683594,-1.517578,0.49176,-0.207092,0.683838,0.49762,up
514647,-9.566406,4.609375,0.328125,0.179687,-1.683594,-1.517578,0.496765,-0.207336,0.681396,0.495911,up
514652,-9.5625,4.917969,0.367188,0.472656,-1.984375,-2.027344,0.496765,-0.207336,0.681396,0.495911,up
514657,-9.5625,4.917969,0.367188,0.5,-2.087891,-2.199219,0.509094,-0.208069,0.675415,0.491272,up
514662,-9.644531,5.261719,0.367188,0.423828,-2.205078,-2.363281,0.516663,-0.208679,0.671631,0.488281,up
514668,-9.601563,5.988281,0.136719,0.423828,-2.205078,-2.363281,0.522766,-0.209412,0.668335,0.486023,up
514673,-9.71875,6.140625,0.023437,0.048828,-2.390625,-2.552734,0.522766,-0.209412,0.668335,0.486023,up
514678,-9.601563,6.257812,-0.015625,-0.255859,-2.423828,-2.580078,0.522766,-0.209412,0.668335,0.486023,up
514683,-9.867188,5.644531,-0.132812,-0.255859,-2.423828,-2.580078,0.543823,-0.213684,0.654297,0.480103,up
514689,-9.761719,5.375,-0.132812,-0.978516,-2.505859,-2.537109,0.543823,-0.213684,0.654297,0.480103,up
514694,-9.5625,4.878906,-0.167969,-1.302734,-2.509766,-2.472656,0.543823,-0.213684,0.654297,0.480103,up
514700,-9.5625,4.878906,-0.167969,-1.541016,-2.478516,-2.408203,0.563293,-0.221375,0.635803,0.479004,up
514705,-9.644531,4.148437,0.097656,-1.541016,-2.478516,-2.408203,0.563293,-0.221375,0.635803,0.479004,up
514710,-9.644531,4.148437,0.097656,-1.833984,-2.347656,-2.267578,0.574463,-0.227661,0.622375,0.480408,up
514715,-10.449219,2.003906,0.789062,-1.833984,-2.347656,-2.267578,0.574463,-0.227661,0.622375,0.480408,up
514720,-10.597656,1.929688,1.019531,-1.833984,-2.347656,-2.267578,0.584961,-0.234375,0.608826,0.481934,up
514726,-10.945313,1.890625,1.363281,-0.953125,-2.283203,-2.478516,0.584961,-0.234375,0.608826,0.481934,up
514731,-11.25,1.96875,1.707031,-0.953125,-2.283203,-2.478516,0.602417,-0.242187,0.589844,0.480103,up
514736,-11.519531,2.160156,1.785156,-0.953125,-2.283203,-2.478516,0.608826,-0.243347,0.584595,0.477844,up
514741,-12.054688,2.234375,1.210938,-0.953125,-2.283203,-2.478516,0.617065,-0.243713,0.578735,0.474304,up
514746,-12.359375,2.734375,0.863281,1.070313,-3.556641,-3.367188,0.617065,-0.243713,0.578735,0.474304,up
514751,-11.671875,4.035156,0.902344,1.070313,-3.556641,-3.367188,0.626892,-0.243042,0.572205,0.469604,up
514756,-11.441406,4.417969,1.210938,1.070313,-3.556641,-3.367188,0.647583,-0.239258,0.559021,0.459229,up
514761,-11.054688,5.03125,1.554688,1.621094,-4.449219,-3.992188,0.647583,-0.239258,0.559021,0.459229,up
514766,-10.632813,5.375,1.746094,1.394531,-4.332031,-3.982422,0.660095,-0.236694,0.550781,0.452637,up
514771,-10.484375,5.988281,1.402344,1.394531,-4.332031,-3.982422,0.681824,-0.233154,0.534973,0.44104,up
514776,-10.59375,5.375,1.9375,1.394531,-4.332031,-3.982422,0.692993,-0.232239,0.525208,0.435852,up
514781,-10.59375,5.375,1.9375,1.394531,-4.332031,-3.982422,0.692993,-0.232239,0.525208,0.435852,up
514786,-10.210938,5.605469,2.398438,-0.458984,-4.144531,-3.185547,0.692993,-0.232239,0.525208,0.435852,up
514791,-10.210938,5.605469,2.398438,-1.291016,-3.792969,-2.783203,0.708801,-0.233215,0.507385,0.430969,up
514797,-9.949219,6.140625,4.582031,-2.851563,-2.449219,-2.029297,0.715149,-0.23584,0.497559,0.430542,up
514802,-11.753906,4.6875,3.011719,-2.851563,-2.449219,-2.029297,0.722351,-0.245422,0.480042,0.433044,up
514808,-12.164063,3.996094,3.355469,-2.851563,-2.449219,-2.029297,0.724243,-0.25177,0.471191,0.435913,up
514813,-12.015625,3.691406,4.007812,-4.009766,-2.003906,-1.134766,0.724243,-0.25177,0.471191,0.435913,up
514818,-12.164063,3.5,4.390625,-4.019531,-1.822266,-0.929687,0.726257,-0.264526,0.453857,0.443359,up
514824,-12.550781,3.269531,4.65625,-3.945313,-1.449219,-0.746094,0.726257,-0.264526,0.453857,0.443359,up
514830,-13.507813,3.078125,4.390625,-3.945313,-1.449219,-0.746094,0.726257,-0.264526,0.453857,0.443359,up
514836,-14.046875,2.65625,4.464844,-3.583984,-0.537109,-0.386719,0.726257,-0.264526,0.453857,0.443359,up
514841,-14.65625,2.3125,4.65625,-3.304688,-0.060547,-0.181641,0.72052,-0.295532,0.42511,0.461243,up
514846,-16.078125,2.578125,5.386719,-3.304688,-0.060547,-0.181641,0.717529,-0.300903,0.423706,0.463806,up
514851,-16.769531,2.847656,5.882812,-1.923828,1.722656,0.777344,0.717529,-0.300903,0.423706,0.463806,up
514856,-17.414062,3.078125,6.113281,-1.923828,1.722656,0.777344,0.709229,-0.310059,0.426514,0.467957,up
514861,-17.414062,3.078125,6.113281,-1.923828,1.722656,0.777344,0.709229,-0.310059,0.426514,0.467957,up
514866,-18.910156,2.65625,5.769531,-1.923828,1.722656,0.777344,0.709229,-0.310059,0.426514,0.467957,up
514871,-19.601562,3.269531,5.460937,-0.818359,3.234375,1.890625,0.688049,-0.317749,0.449585,0.472717,up
514876,-20.714844,4.457031,5.117187,-0.818359,3.234375,1.890625,0.677429,-0.318054,0.463867,0.474121,up
514881,-23.203125,6.21875,3.203125,2.029297,7.386719,5.720703,0.677429,-0.318054,0.463867,0.474121,up
514886,-24.882812,9.628906,0.214844,2.029297,7.386719,5.720703,0.664856,-0.3172,0.481079,0.475281,up
514891,-26.1875,11.503906,-1.128906,3.380859,9.886719,8.388672,0.664856,-0.3172,0.481079,0.475281,up
514896,-27.535156,13.6875,-3.003906,3.380859,9.886719,8.388672,0.629639,-0.310791,0.528137,0.477539,up
514901,-29.792969,19.589844,-8.0625,3.380859,9.886719,8.388672,0.582336,-0.298523,0.584595,0.479614,up
514906,-31.476562,22.996094,-10.4375,3.380859,9.886719,8.388672,0.582336,-0.298523,0.584595,0.479614,up
514911,-33.65625,25.792969,-12.082031,4.216797,13.429688,14.625,0.582336,-0.298523,0.584595,0.479614,up
514916,-35.609375,27.710937,-13.421875,4.216797,13.429688,14.625,0.477905,-0.263306,0.682007,0.486938,up
514921,-38.527344,29.546875,-15.453125,4.216797,13.429688,14.625,0.477905,-0.263306,0.682007,0.486938,up
514926,-39.636719,29.011719,-15.953125,4.216797,13.429688,14.625,0.388428,-0.22699,0.741882,0.497192,up
514931,-40.746094,27.019531,-17.597656,4.216797,13.429688,14.625,0.388428,-0.22699,0.741882,0.497192,up
514936,-41.511719,22.0,-19.207031,4.216797,13.429688,14.625,0.340454,-0.205688,0.766235,0.504578,up
514941,-41.625,15.144531,-19.09375,-2.351563,12.185547,20.265625,0.340454,-0.205688,0.766235,0.504578,up
514946,-39.214844,9.589844,-18.019531,-2.351563,12.185547,20.265625,0.236633,-0.159546,0.801575,0.52533,up
514952,-33.933594,3.613281,-12.621094,-2.351563,12.185547,20.265625,0.134094,-0.110962,0.817322,0.549255,up
514958,-31.625,2.886719,-8.941406,-2.351563,12.185547,20.265625,0.088196,-0.086304,0.820374,0.55835,up
514963,-25.308594,-6.5,-3.273438,-2.052734,8.652344,19.576172,0.035767,-0.055481,0.822021,0.565674,up
514968,-22.46875,-10.789063,-1.394531,-2.052734,8.652344,19.576172,0.010864,0.02771,-0.821716,-0.569153,up
514973,-15.730469,-11.515625,1.707031,-2.052734,8.652344,19.576172,0.010864,0.02771,-0.821716,-0.569153,up
514978,-14.160156,-10.253906,5.652344,0.695312,7.664062,17.871094,0.010864,0.02771,-0.821716,-0.569153,up
514983,-12.824219,-10.40625,10.75,2.675781,7.517578,16.789062,0.010864,0.02771,-0.821716,-0.569153,up
514988,-10.90625,-9.332031,13.390625,2.675781,7.517578,16.789062,0.010864,0.02771,-0.821716,-0.569153,up
514993,-13.625,-3.625,12.011719,2.675781,7.517578,16.789062,0.174866,-0.069336,-0.817322,-0.544556,up
514998,-13.625,-3.625,12.011719,8.197266,6.582031,11.861328,0.174866,-0.069336,-0.817322,-0.544556,up
515003,-17.035156,-2.4375,15.726563,8.197266,6.582031,11.861328,0.272339,-0.108276,-0.826477,-0.480652,up
515008,-17.375,-2.171875,17.070312,8.197266,6.582031,11.861328,0.292664,-0.113708,-0.830444,-0.460205,up
515014,-16.804687,-3.320313,17.945312,8.197266,6.582031,11.861328,0.292664,-0.113708,-0.830444,-0.460205,up
515020,-15.539063,-4.507812,17.875,7.820312,2.861328,3.958984,0.325745,-0.116699,-0.839905,-0.418152,up
515026,-13.585938,-5.808594,18.292969,4.222656,1.248047,0.683594,0.325745,-0.116699,-0.839905,-0.418152,up
515031,-10.253906,-6.882812,14.347656,4.222656,1.248047,0.683594,0.342651,-0.112122,-0.847961,-0.38855,up
515036,-9.488281,-7.535156,10.398438,-1.695313,-0.068359,-1.589844,0.342651,-0.112122,-0.847961,-0.38855,up
515041,-8.492188,-8.109375,9.101563,-1.695313,-0.068359,-1.589844,0.345703,-0.106079,-0.849854,-0.383423,up
515047,-5.773437,-7.726562,9.214844,-1.695313,-0.068359,-1.589844,0.335999,-0.105591,-0.844238,-0.403931,up
515052,-5.3125,-6.730469,8.183594,-1.695313,-0.068359,-1.589844,0.328918,-0.107788,-0.838806,-0.420227,up
515057,-4.277344,-6.0,7.453125,-9.482422,-1.675781,-2.119141,0.321228,-0.111633,-0.831726,-0.438782,up
515062,-3.015625,-5.65625,6.992187,-9.482422,-1.675781,-2.119141,0.312866,-0.117615,-0.822632,-0.459961,up
515068,-1.367188,-4.582031,6.191406,-9.482422,-1.675781,-2.119141,0.302917,-0.126404,-0.810059,-0.48584,up
515074,0.089844,-3.320313,5.996094,-12.498047,-2.09375,-0.861328,0.293396,-0.136169,-0.79657,-0.510742,up
515079,2.15625,-1.824219,4.886719,-11.214844,-1.683594,-0.666016,0.293396,-0.136169,-0.79657,-0.510742,up
515084,3.042969,-0.945312,2.089844,-8.40625,-0.800781,-0.599609,0.293396,-0.136169,-0.79657,-0.510742,up
515090,2.960938,0.472656,-0.628906,-5.138672,-0.291016,-0.507812,0.293396,-0.136169,-0.79657,-0.510742,up
515096,3.464844,2.960938,-1.664063,-2.230469,-0.470703,-0.394531,0.293396,-0.136169,-0.79657,-0.510742,up
515102,4.230469,3.574219,-0.820312,0.142578,-1.005859,-0.392578,0.265869,-0.160156,-0.759521,-0.571655,up
515107,5.144531,3.957031,-0.324219,3.392578,-1.222656,-0.572266,0.265869,-0.160156,-0.759521,-0.571655,up
515112,5.644531,4.496094,-0.324219,4.824219,-0.855469,-0.636719,0.263733,-0.159119,-0.764526,-0.566223,up
515117,5.296875,6.179687,-1.128906,4.824219,-0.855469,-0.636719,0.262451,-0.153076,-0.778687,-0.54895,up
515122,5.105469,7.175781,-2.046875,6.898437,0.021484,-0.894531,0.262451,-0.153076,-0.778687,-0.54895,up
515127,5.070312,7.9375,-3.425781,6.898437,0.021484,-0.894531,0.264771,-0.140381,-0.79834,-0.522339,up
515132,5.296875,8.675781,-6.144531,6.898437,0.021484,-0.894531,0.264771,-0.140381,-0.79834,-0.522339,up
515137,5.644531,9.015625,-6.414062,6.898437,0.021484,-0.894531,0.264404,-0.130005,-0.813599,-0.501282,up
515142,6.292969,9.359375,-5.648437,2.439453,-1.337891,-0.933594,0.264404,-0.130005,-0.813599,-0.501282,up
515147,6.90625,9.625,-4.269531,0.708984,-1.228516,-0.871094,0.261658,-0.126953,-0.819336,-0.494019,up
515152,7.671875,9.785156,-4.152344,0.708984,-1.228516,-0.871094,0.255432,-0.125244,-0.823242,-0.491272,up
515157,7.40625,9.511719,-5.148437,0.708984,-1.228516,-0.871094,0.252747,-0.125549,-0.822144,-0.494385,up
515162,7.445312,9.667969,-5.339844,-3.208984,-0.552734,-0.457031,0.252747,-0.125549,-0.822144,-0.494385,up
515167,7.558594,10.011719,-4.804687,-3.208984,-0.552734,-0.457031,0.249817,-0.126831,-0.819153,-0.500427,up
515172,7.445312,10.050781,-4.691406,-3.208984,-0.552734,-0.457031,0.24408,-0.131958,-0.809387,-0.517639,up
515177,7.445312,10.085938,-4.804687,-3.208984,-0.552734,-0.457031,0.241577,-0.134644,-0.804016,-0.526367,up
515182,7.636719,9.96875,-5.074219,-3.208984,-0.552734,-0.457031,0.241577,-0.134644,-0.804016,-0.526367,up
515187,7.367187,9.859375,-5.339844,-4.751953,-0.384766,-0.271484,0.241577,-0.134644,-0.804016,-0.526367,up
515192,7.519531,9.746094,-5.148437,-4.751953,-0.384766,-0.271484,0.233276,-0.142273,-0.787659,-0.552246,up
515197,7.289062,9.785156,-4.765625,-4.751953,-0.384766,-0.271484,0.231323,-0.143433,-0.785217,-0.556152,up
515202,7.0625,9.625,-4.230469,-0.400391,-0.289063,-0.298828,0.231323,-0.143433,-0.785217,-0.556152,up
515207,6.523437,9.359375,-3.617188,-0.400391,-0.289063,-0.298828,0.228943,-0.143555,-0.784485,-0.558167,up
515212,6.371094,9.285156,-3.617188,-0.400391,-0.289063,-0.298828,0.228577,-0.142578,-0.786011,-0.556396,up
515217,6.140625,9.097656,-3.617188,1.839844,-0.091797,-0.318359,0.228577,-0.142578,-0.786011,-0.556396,up
515222,5.910156,8.859375,-3.464844,1.839844,-0.091797,-0.318359,0.228516,-0.141296,-0.788147,-0.553772,up
515228,5.644531,8.597656,-2.964844,1.839844,-0.091797,-0.318359,0.228577,-0.137512,-0.795044,-0.544739,up
515233,5.644531,8.597656,-2.964844,2.90625,-0.185547,-0.3125,0.22876,-0.135193,-0.799683,-0.538391,up
515239,5.375,8.441406,-2.351563,2.90625,-0.185547,-0.3125,0.228943,-0.133423,-0.803223,-0.533508,up
515244,5.070312,8.132813,-2.085938,2.90625,-0.185547,-0.3125,0.228943,-0.133423,-0.803223,-0.533508,up
515250,4.953125,8.132813,-2.046875,1.574219,-0.091797,-0.064453,0.228943,-0.133423,-0.803223,-0.533508,up
515255,4.878906,8.132813,-1.96875,0.755859,-0.080078,0.005859,0.228943,-0.133423,-0.803223,-0.533508,up
515260,4.800781,7.980469,-2.046875,0.755859,-0.080078,0.005859,0.229492,-0.129883,-0.811462,-0.521545,up
515265,4.722656,7.714844,-2.160156,0.755859,-0.080078,0.005859,0.229492,-0.129883,-0.811462,-0.521545,up
515271,4.648437,7.636719,-2.199219,0.755859,-0.080078,0.005859,0.229187,-0.131165,-0.809509,-0.524353,up
515277,4.648437,7.558594,-2.277344,-1.667969,-0.033203,0.238281,0.229187,-0.131165,-0.809509,-0.524353,up
515282,4.6875,7.554687,-2.238281,-1.681641,-0.103516,0.232422,0.228699,-0.133667,-0.805481,-0.53009,up
515287,4.6875,7.554687,-2.238281,-1.681641,-0.103516,0.232422,0.227661,-0.136719,-0.801086,-0.536438,up
515292,4.839844,7.292969,-2.160156,-1.294922,-0.177734,0.185547,0.227661,-0.136719,-0.801086,-0.536438,up
515297,4.878906,7.171875,-2.238281,-1.294922,-0.177734,0.185547,0.227051,-0.138245,-0.799072,-0.539307,up
515302,4.878906,7.210937,-2.390625,-1.294922,-0.177734,0.185547,0.226501,-0.139343,-0.797729,-0.541199,up
515307,4.914062,7.289062,-2.621094,-1.294922,-0.177734,0.185547,0.225525,-0.140869,-0.796326,-0.543274,up
515312,4.878906,7.488281,-2.851563,-1.294922,-0.177734,0.185547,0.225525,-0.140869,-0.796326,-0.543274,up
515317,4.914062,7.488281,-2.734375,0.394531,-0.291016,-0.058594,0.225098,-0.141174,-0.796448,-0.543213,up
515322,4.992187,7.554687,-2.734375,0.394531,-0.291016,-0.058594,0.224609,-0.141235,-0.796997,-0.542603,up
515327,4.953125,7.675781,-2.8125,0.394531,-0.291016,-0.058594,0.223572,-0.140991,-0.798828,-0.540405,up
515332,4.992187,7.789062,-3.042969,0.394531,-0.291016,-0.058594,0.223572,-0.140991,-0.798828,-0.540405,up
515337,4.992187,7.828125,-3.082031,0.394531,-0.291016,-0.058594,0.222656,-0.140442,-0.800537,-0.538391,up
515342,5.03125,7.867187,-3.082031,0.173828,-0.207031,-0.134766,0.222656,-0.140442,-0.800537,-0.538391,up
515347,5.03125,7.90625,-3.003906,-0.044922,-0.189453,-0.138672,0.222107,-0.14032,-0.801025,-0.537903,up
515353,5.03125,7.980469,-2.925781,-0.044922,-0.189453,-0.138672,0.220825,-0.140259,-0.80127,-0.538025,up
515358,4.992187,7.980469,-2.890625,-0.429687,-0.175781,-0.130859,0.220093,-0.140381,-0.800964,-0.538818,up
515364,4.839844,7.910156,-2.851563,-0.429687,-0.175781,-0.130859,0.219421,-0.140564,-0.800476,-0.539734,up
515370,4.839844,7.792969,-2.851563,-0.660156,-0.160156,-0.115234,0.219421,-0.140564,-0.800476,-0.539734,up
515375,4.800781,7.753906,-2.925781,-0.6875,-0.164062,-0.115234,0.219421,-0.140564,-0.800476,-0.539734,up
515380,4.800781,7.714844,-2.890625,-0.652344,-0.167969,-0.125,0.219421,-0.140564,-0.800476,-0.539734,up
515385,4.761719,7.714844,-2.851563,-0.568359,-0.183594,-0.138672,0.219421,-0.140564,-0.800476,-0.539734,up
515390,4.761719,7.75,-2.890625,-0.568359,-0.183594,-0.138672,0.219421,-0.140564,-0.800476,-0.539734,up
515396,4.722656,7.828125,-2.925781,-0.568359,-0.183594,-0.138672,0.214722,-0.142151,-0.796753,-0.546692,up
515402,4.722656,7.789062,-2.925781,-0.189453,-0.220703,-0.191406,0.213074,-0.142151,-0.796631,-0.547546,up
515407,4.761719,7.75,-2.925781,-0.189453,-0.220703,-0.191406,0.212219,-0.14209,-0.796753,-0.547668,up
515412,4.761719,7.789062,-2.925781,0.015625,-0.255859,-0.195312,0.212219,-0.14209,-0.796753,-0.547668,up
515417,4.800781,7.867187,-3.042969,0.015625,-0.255859,-0.195312,0.210571,-0.141968,-0.79718,-0.547668,up
515422,4.800781,7.910156,-3.15625,0.015625,-0.255859,-0.195312,0.210571,-0.141968,-0.79718,-0.547668,up
515428,4.839844,7.90625,-3.117188,0.011719,-0.253906,-0.167969,0.208984,-0.141907,-0.797668,-0.547668,up
515433,4.878906,7.90625,-3.117188,-0.078125,-0.224609,-0.126953,0.208252,-0.141968,-0.797729,-0.547791,up
515438,4.878906,7.90625,-3.15625,-0.138672,-0.195312,-0.111328,0.207581,-0.142029,-0.797791,-0.547974,up
515444,4.914062,7.941406,-3.234375,-0.138672,-0.195312,-0.111328,0.207092,-0.142151,-0.797729,-0.548279,up
515450,4.953125,7.941406,-3.273438,-0.201172,-0.136719,-0.060547,0.207092,-0.142151,-0.797729,-0.548279,up
515455,4.953125,7.976562,-3.3125,-0.214844,-0.113281,-0.037109,0.207092,-0.142151,-0.797729,-0.548279,up
515460,4.878906,7.90625,-3.234375,-0.189453,-0.103516,-0.011719,0.207092,-0.142151,-0.797729,-0.548279,up
515465,4.878906,7.9375,-3.15625,-0.146484,-0.089844,0.005859,0.207092,-0.142151,-0.797729,-0.548279,up
515471,4.878906,7.867187,-3.117188,-0.089844,-0.060547,0.019531,0.207092,-0.142151,-0.797729,-0.548279,up
515476,4.839844,7.871094,-3.082031,-0.089844,-0.060547,0.019531,0.205078,-0.143066,-0.796814,-0.550049,up
515482,4.800781,7.828125,-3.003906,-0.089844,-0.060547,0.019531,0.204895,-0.143127,-0.797058,-0.549805,up
515487,4.761719,7.867187,-2.925781,-0.089844,-0.060547,0.019531,0.204895,-0.143127,-0.797058,-0.549805,up
515492,4.761719,7.789062,-2.925781,0.152344,-0.070312,-0.015625,0.204529,-0.143005,-0.797546,-0.549255,up
515497,4.6875,7.792969,-2.851563,0.152344,-0.070312,-0.015625,0.204529,-0.143005,-0.797546,-0.549255,up
515503,4.6875,7.753906,-2.851563,0.105469,-0.087891,-0.095703,0.204529,-0.143005,-0.797546,-0.549255,up
515508,4.648437,7.675781,-2.8125,0.105469,-0.087891,-0.095703,0.205444,-0.139893,-0.798767,-0.547913,up
515513,4.648437,7.597656,-2.773438,0.105469,-0.087891,-0.095703,0.205444,-0.139893,-0.798767,-0.547913,up
515518,4.648437,7.597656,-2.699219,0.105469,-0.087891,-0.095703,0.206299,-0.137085,-0.799377,-0.547424,up
515523,4.648437,7.519531,-2.660156,-0.15625,-0.119141,-0.164062,0.206604,-0.135681,-0.7995,-0.547424,up
515528,4.609375,7.484375,-2.660156,-0.15625,-0.119141,-0.164062,0.206787,-0.134399,-0.799622,-0.547546,up
515533,4.6875,7.488281,-2.621094,-0.15625,-0.119141,-0.164062,0.207031,-0.133118,-0.799622,-0.547729,up
515538,4.648437,7.488281,-2.699219,-0.15625,-0.119141,-0.164062,0.207153,-0.131897,-0.799561,-0.548096,up
515543,4.722656,7.519531,-2.734375,-0.291016,-0.134766,-0.197266,0.207153,-0.131897,-0.799561,-0.548096,up
515548,4.6875,7.636719,-2.8125,-0.291016,-0.134766,-0.197266,0.207275,-0.129578,-0.799377,-0.548828,up
515553,4.722656,7.636719,-2.8125,-0.291016,-0.134766,-0.197266,0.207336,-0.128418,-0.799377,-0.549133,up
515559,4.761719,7.632812,-2.773438,-0.291016,-0.134766,-0.197266,0.207336,-0.127258,-0.799316,-0.549438,up
515564,4.800781,7.632812,-2.851563,-0.164062,-0.132812,-0.228516,0.207275,-0.126099,-0.799377,-0.549622,up
515569,4.761719,7.675781,-2.925781,-0.164062,-0.132812,-0.228516,0.207275,-0.124939,-0.7995,-0.549805,up
515575,4.761719,7.753906,-2.964844,-0.164062,-0.132812,-0.228516,0.207275,-0.123718,-0.799622,-0.549866,up
515581,4.761719,7.828125,-2.925781,-0.09375,-0.136719,-0.25,0.207275,-0.123718,-0.799622,-0.549866,up
515587,4.800781,7.9375,-3.003906,-0.083984,-0.148437,-0.257813,0.207275,-0.123718,-0.799622,-0.549866,up
515592,4.839844,7.941406,-2.964844,-0.083984,-0.148437,-0.257813,0.207031,-0.120178,-0.80011,-0.550049,up
515597,4.800781,7.910156,-2.925781,-0.115234,-0.142578,-0.253906,0.207031,-0.120178,-0.80011,-0.550049,up
515603,4.878906,7.871094,-3.042969,-0.146484,-0.128906,-0.242187,0.207031,-0.120178,-0.80011,-0.550049,up
515608,4.878906,7.871094,-3.042969,-0.171875,-0.101563,-0.222656,0.206604,-0.116943,-0.800354,-0.550537,up
515613,4.878906,7.867187,-3.117188,-0.171875,-0.101563,-0.222656,0.206421,-0.114868,-0.800354,-0.551025,up
515618,4.878906,7.910156,-3.082031,-0.173828,-0.082031,-0.208984,0.206421,-0.114868,-0.800354,-0.551025,up
515623,4.878906,7.980469,-3.082031,-0.173828,-0.082031,-0.208984,0.206421,-0.113892,-0.800293,-0.55127,up
515629,4.878906,7.976562,-3.117188,-0.173828,-0.082031,-0.208984,0.206482,-0.112,-0.800293,-0.551697,up
515634,4.839844,8.019531,-3.082031,-0.099609,-0.058594,-0.177734,0.206482,-0.112,-0.800293,-0.551697,up
515639,4.839844,7.980469,-3.082031,-0.054687,-0.060547,-0.162109,0.206482,-0.112,-0.800293,-0.551697,up
