timestamp,ax,ay,az,gx,gy,gz,qw,qx,qy,qz,label
207377,-7.941406,5.472656,0.933594,0.179687,0.238281,0.189453,0.456848,-0.207092,0.647461,0.57373,up
207382,-7.941406,5.472656,0.933594,0.179687,0.238281,0.189453,0.456238,-0.20697,0.648132,0.573547,up
207388,-8.015625,5.433594,0.933594,0.179687,0.238281,0.189453,0.45575,-0.206909,0.64856,0.573486,up
207394,-7.976562,5.433594,0.933594,0.029297,0.191406,0.128906,0.45575,-0.206909,0.64856,0.573486,up
207399,-7.976562,5.394531,0.933594,-0.007813,0.166016,0.109375,0.45575,-0.206909,0.64856,0.573486,up
207405,-7.976562,5.359375,0.933594,-0.021484,0.142578,0.085937,0.45575,-0.206909,0.64856,0.573486,up
207411,-7.976562,5.359375,0.894531,-0.076172,0.113281,0.050781,0.45575,-0.206909,0.64856,0.573486,up
207416,-7.9375,5.28125,0.894531,-0.076172,0.113281,0.050781,0.453308,-0.207458,0.64978,0.573792,up
207422,-7.863281,5.28125,0.894531,-0.076172,0.113281,0.050781,0.453125,-0.207642,0.64978,0.573914,up
207427,-7.9375,5.28125,0.777344,-0.078125,0.087891,-0.013672,0.453125,-0.207642,0.64978,0.573914,up
207432,-7.941406,5.28125,0.816406,-0.0625,0.072266,-0.039063,0.453125,-0.207642,0.64978,0.573914,up
207438,-7.941406,5.320312,0.894531,-0.0625,0.072266,-0.039063,0.452698,-0.208374,0.649719,0.574036,up
207443,-7.898437,5.359375,0.855469,-0.068359,0.056641,-0.066406,0.452698,-0.208374,0.649719,0.574036,up
207448,-7.898437,5.359375,0.816406,-0.091797,0.054687,-0.074219,0.452698,-0.208374,0.649719,0.574036,up
207453,-7.898437,5.359375,0.816406,-0.089844,0.054687,-0.087891,0.452576,-0.209167,0.649536,0.574036,up
207458,-7.898437,5.394531,0.816406,-0.089844,0.054687,-0.087891,0.452515,-0.209534,0.649414,0.574036,up
207463,-7.902344,5.394531,0.742187,-0.09375,0.046875,-0.095703,0.452515,-0.209534,0.649414,0.574036,up
207470,-7.9375,5.433594,0.742187,-0.09375,0.048828,-0.101563,0.452515,-0.209534,0.649414,0.574036,up
207475,-8.019531,5.511719,0.742187,-0.085937,0.044922,-0.101563,0.452515,-0.209534,0.649414,0.574036,up
207481,-8.058594,5.511719,0.777344,-0.097656,0.052734,-0.087891,0.452515,-0.209534,0.649414,0.574036,up
207486,-8.019531,5.511719,0.742187,-0.097656,0.052734,-0.087891,0.452576,-0.211182,0.648865,0.574097,up
207491,-8.015625,5.394531,0.777344,-0.109375,0.048828,-0.085937,0.452576,-0.211182,0.648865,0.574097,up
207496,-7.980469,5.359375,0.816406,-0.087891,0.046875,-0.070312,0.452515,-0.211792,0.648621,0.574158,up
207501,-7.980469,5.359375,0.816406,-0.078125,0.050781,-0.0625,0.452454,-0.212097,0.648499,0.574219,up
207506,-7.902344,5.394531,0.777344,-0.078125,0.050781,-0.0625,0.452393,-0.212402,0.648437,0.574219,up
207512,-7.9375,5.359375,0.777344,-0.078125,0.050781,-0.0625,0.452271,-0.21283,0.648376,0.57428,up
207517,-7.9375,5.359375,0.777344,-0.035156,0.060547,-0.033203,0.452209,-0.213074,0.648376,0.574219,up
207522,-7.9375,5.394531,0.777344,-0.017578,0.076172,-0.029297,0.452087,-0.213257,0.648376,0.574219,up
207527,-7.9375,5.359375,0.742187,-0.017578,0.076172,-0.029297,0.452026,-0.213379,0.648499,0.574158,up
207532,-7.902344,5.394531,0.742187,-0.017578,0.076172,-0.029297,0.451904,-0.213501,0.648621,0.574036,up
207537,-7.976562,5.394531,0.777344,0.037109,0.080078,0.005859,0.451782,-0.213562,0.648743,0.573975,up
207543,-7.902344,5.359375,0.742187,0.037109,0.080078,0.005859,0.45166,-0.213623,0.648926,0.573853,up
207548,-7.941406,5.320312,0.742187,0.037109,0.080078,0.005859,0.45166,-0.213623,0.648926,0.573853,up
207554,-7.898437,5.320312,0.777344,0.042969,0.085937,0.025391,0.45166,-0.213623,0.648926,0.573853,up
207559,-7.898437,5.320312,0.703125,0.041016,0.089844,0.029297,0.45166,-0.213623,0.648926,0.573853,up
207564,-7.863281,5.242187,0.703125,0.039063,0.089844,0.035156,0.45166,-0.213623,0.648926,0.573853,up
207569,-7.820312,5.203125,0.664062,0.035156,0.091797,0.03125,0.45166,-0.213623,0.648926,0.573853,up
207574,-7.785156,5.203125,0.664062,0.035156,0.095703,0.037109,0.45166,-0.213623,0.648926,0.573853,up
207579,-7.785156,5.203125,0.664062,0.033203,0.095703,0.035156,0.45166,-0.213623,0.648926,0.573853,up
207584,-7.785156,5.203125,0.703125,0.033203,0.095703,0.035156,0.45166,-0.213623,0.648926,0.573853,up
207590,-7.746094,5.242187,0.664062,0.033203,0.095703,0.035156,0.450012,-0.213928,0.650574,0.57312,up
207596,-7.746094,5.28125,0.664062,0.064453,0.111328,0.035156,0.449585,-0.213989,0.651123,0.572815,up
207601,-7.824219,5.320312,0.703125,0.082031,0.099609,0.029297,0.449585,-0.213989,0.651123,0.572815,up
207606,-7.820312,5.359375,0.664062,0.082031,0.099609,0.029297,0.449402,-0.213989,0.651367,0.572693,up
207611,-7.820312,5.394531,0.625,0.080078,0.09375,0.023437,0.449219,-0.213989,0.651672,0.57251,up
207616,-7.859375,5.320312,0.585937,0.080078,0.09375,0.023437,0.449036,-0.213989,0.651917,0.572327,up
207622,-7.863281,5.394531,0.585937,0.080078,0.09375,0.023437,0.44873,-0.21405,0.652344,0.572021,up
207627,-7.863281,5.433594,0.625,0.052734,0.103516,0.001953,0.448608,-0.214172,0.652588,0.571899,up
207632,-7.863281,5.433594,0.625,0.041016,0.113281,-0.001953,0.448425,-0.214233,0.652832,0.571716,up
207638,-7.898437,5.472656,0.585937,0.041016,0.113281,-0.001953,0.448242,-0.214355,0.652954,0.571594,up
207644,-7.941406,5.511719,0.585937,0.015625,0.107422,-0.005859,0.448242,-0.214355,0.652954,0.571594,up
207650,-7.941406,5.472656,0.585937,0.011719,0.109375,-0.005859,0.447876,-0.2146,0.65332,0.571411,up
207656,-7.941406,5.472656,0.585937,0.0,0.117188,-0.009766,0.447876,-0.2146,0.65332,0.571411,up
207661,-7.902344,5.472656,0.511719,0.0,0.117188,-0.009766,0.44751,-0.214905,0.653625,0.571228,up
207667,-7.941406,5.472656,0.550781,-0.005859,0.117188,-0.011719,0.447144,-0.215332,0.65387,0.571106,up
207672,-7.980469,5.472656,0.585937,-0.005859,0.117188,-0.011719,0.446899,-0.215515,0.654053,0.570984,up
207678,-8.054688,5.550781,0.585937,-0.005859,0.117188,-0.011719,0.446777,-0.215698,0.654236,0.570862,up
207683,-8.085938,5.550781,0.625,0.03125,0.126953,-0.007813,0.446777,-0.215698,0.654236,0.570862,up
207689,-8.085938,5.550781,0.703125,0.027344,0.111328,-0.003906,0.446777,-0.215698,0.654236,0.570862,up
207695,-8.089844,5.511719,0.664062,0.021484,0.107422,-0.001953,0.446777,-0.215698,0.654236,0.570862,up
207700,-8.089844,5.511719,0.664062,0.009766,0.099609,-0.001953,0.446777,-0.215698,0.654236,0.570862,up
207705,-8.058594,5.472656,0.664062,0.013672,0.089844,0.011719,0.446777,-0.215698,0.654236,0.570862,up
207710,-8.054688,5.550781,0.664062,0.013672,0.089844,0.011719,0.445679,-0.216431,0.655212,0.570251,up
207716,-8.054688,5.550781,0.703125,0.025391,0.070312,0.013672,0.445679,-0.216431,0.655212,0.570251,up
207721,-8.085938,5.550781,0.703125,0.035156,0.060547,0.015625,0.445312,-0.216492,0.65564,0.570068,up
207726,-8.125,5.585937,0.664062,0.035156,0.060547,0.015625,0.445312,-0.216492,0.65564,0.570068,up
207732,-8.085938,5.550781,0.703125,0.035156,0.060547,0.015625,0.445129,-0.216492,0.655884,0.569946,up
207737,-8.125,5.550781,0.703125,0.033203,0.041016,0.037109,0.445129,-0.216492,0.655884,0.569946,up
207742,-8.167969,5.511719,0.664062,0.033203,0.041016,0.037109,0.445007,-0.216431,0.656006,0.569885,up
207748,-8.089844,5.511719,0.664062,0.033203,0.041016,0.037109,0.444763,-0.21637,0.65625,0.569824,up
207753,-8.089844,5.511719,0.664062,0.011719,0.052734,0.035156,0.44458,-0.21637,0.656372,0.569824,up
207758,-8.089844,5.472656,0.703125,0.011719,0.052734,0.035156,0.444458,-0.21637,0.656433,0.569824,up
207763,-8.085938,5.394531,0.703125,0.011719,0.052734,0.035156,0.444336,-0.216431,0.656555,0.569824,up
207768,-8.054688,5.433594,0.703125,0.011719,0.052734,0.035156,0.444336,-0.216431,0.656555,0.569824,up
207773,-8.125,5.394531,0.742187,-0.007813,0.058594,0.037109,0.444031,-0.216492,0.656738,0.569824,up
207779,-8.128906,5.472656,0.703125,-0.013672,0.0625,0.041016,0.443848,-0.216492,0.656799,0.569885,up
207784,-8.089844,5.472656,0.777344,-0.013672,0.0625,0.041016,0.443665,-0.216553,0.65686,0.569885,up
207790,-8.167969,5.511719,0.777344,-0.019531,0.044922,0.050781,0.443665,-0.216553,0.65686,0.569885,up
207796,-8.125,5.433594,0.742187,-0.003906,0.013672,0.076172,0.443665,-0.216553,0.65686,0.569885,up
207801,-8.085938,5.472656,0.816406,-0.003906,0.013672,0.076172,0.443176,-0.216431,0.657104,0.570068,up
207806,-8.128906,5.433594,0.855469,-0.003906,0.013672,0.076172,0.443054,-0.216309,0.657166,0.570129,up
207812,-8.089844,5.433594,0.816406,0.021484,-0.011719,0.101563,0.443054,-0.216309,0.657166,0.570129,up
207817,-8.085938,5.394531,0.777344,0.021484,-0.011719,0.101563,0.442627,-0.215698,0.65741,0.570374,up
207822,-8.085938,5.394531,0.742187,0.021484,-0.011719,0.101563,0.442566,-0.215454,0.657532,0.570435,up
207827,-8.054688,5.359375,0.777344,0.044922,-0.035156,0.123047,0.442566,-0.215454,0.657532,0.570435,up
207832,-8.019531,5.320312,0.742187,0.044922,-0.027344,0.123047,0.442444,-0.215149,0.657593,0.570557,up
207837,-8.019531,5.320312,0.703125,0.044922,-0.027344,0.123047,0.4422,-0.214539,0.657837,0.570679,up
207842,-7.980469,5.320312,0.703125,0.060547,-0.027344,0.125,0.4422,-0.214539,0.657837,0.570679,up
207847,-7.980469,5.320312,0.703125,0.064453,-0.029297,0.125,0.442078,-0.214172,0.657959,0.57074,up
207852,-7.980469,5.320312,0.703125,0.068359,-0.017578,0.115234,0.441956,-0.213867,0.658081,0.570801,up
207857,-7.980469,5.320312,0.703125,0.068359,-0.017578,0.115234,0.441772,-0.213318,0.658386,0.570862,up
207862,-7.976562,5.28125,0.664062,0.072266,-0.011719,0.115234,0.441772,-0.213318,0.658386,0.570862,up
207867,-7.976562,5.28125,0.664062,0.085937,-0.005859,0.099609,0.44165,-0.213013,0.658569,0.570862,up
207872,-7.980469,5.320312,0.703125,0.085937,-0.005859,0.099609,0.441406,-0.212463,0.658875,0.570862,up
207877,-8.019531,5.320312,0.664062,0.085937,-0.005859,0.099609,0.441345,-0.212219,0.659058,0.570801,up
207882,-7.980469,5.320312,0.703125,0.085937,-0.005859,0.099609,0.441345,-0.212219,0.659058,0.570801,up
207887,-8.015625,5.359375,0.703125,0.080078,-0.005859,0.078125,0.441223,-0.211731,0.659363,0.57074,up
207892,-7.976562,5.394531,0.664062,0.080078,-0.005859,0.078125,0.441162,-0.211487,0.659485,0.570679,up
207897,-8.015625,5.359375,0.664062,0.080078,-0.005859,0.078125,0.441162,-0.211304,0.659607,0.570679,up
207902,-7.976562,5.359375,0.664062,0.080078,-0.005859,0.078125,0.441162,-0.211304,0.659607,0.570679,up
207907,-7.976562,5.359375,0.703125,0.072266,-0.03125,0.056641,0.441162,-0.211304,0.659607,0.570679,up
207912,-7.980469,5.320312,0.703125,0.072266,-0.03125,0.056641,0.441162,-0.210632,0.659912,0.570557,up
207917,-7.980469,5.320312,0.703125,0.072266,-0.03125,0.056641,0.441162,-0.210632,0.659912,0.570557,up
207922,-7.9375,5.28125,0.703125,0.074219,-0.064453,0.052734,0.441223,-0.210083,0.660034,0.570557,up
207927,-7.980469,5.320312,0.703125,0.074219,-0.064453,0.052734,0.441345,-0.209839,0.660095,0.570496,up
207932,-7.941406,5.320312,0.664062,0.074219,-0.064453,0.052734,0.441467,-0.209534,0.660156,0.570496,up
207937,-7.941406,5.320312,0.664062,0.074219,-0.064453,0.052734,0.441467,-0.209534,0.660156,0.570496,up
207942,-7.9375,5.359375,0.625,0.095703,-0.099609,0.042969,0.441711,-0.208923,0.660217,0.570374,up
207947,-7.863281,5.394531,0.585937,0.095703,-0.099609,0.042969,0.441895,-0.208557,0.660278,0.570312,up
207952,-7.863281,5.394531,0.625,0.111328,-0.113281,0.037109,0.441895,-0.208557,0.660278,0.570312,up
207958,-7.863281,5.433594,0.625,0.111328,-0.113281,0.037109,0.442261,-0.207825,0.6604,0.570129,up
207964,-7.902344,5.433594,0.585937,0.111328,-0.113281,0.037109,0.442444,-0.20752,0.660461,0.570068,up
207969,-7.902344,5.394531,0.585937,0.083984,-0.121094,0.027344,0.442688,-0.207214,0.660461,0.570007,up
207974,-7.863281,5.394531,0.550781,0.066406,-0.109375,0.023437,0.442688,-0.207214,0.660461,0.570007,up
207979,-7.863281,5.394531,0.550781,0.052734,-0.105469,0.019531,0.442688,-0.207214,0.660461,0.570007,up
207984,-7.859375,5.359375,0.511719,0.052734,-0.105469,0.019531,0.442688,-0.207214,0.660461,0.570007,up
207990,-7.824219,5.359375,0.511719,0.035156,-0.101563,0.009766,0.442688,-0.207214,0.660461,0.570007,up
207995,-7.820312,5.359375,0.550781,0.023437,-0.085937,0.005859,0.442688,-0.207214,0.660461,0.570007,up
208001,-7.859375,5.359375,0.511719,0.023437,-0.085937,0.005859,0.442688,-0.207214,0.660461,0.570007,up
208007,-7.824219,5.320312,0.550781,0.029297,-0.09375,0.003906,0.442688,-0.207214,0.660461,0.570007,up
208012,-7.863281,5.359375,0.585937,0.042969,-0.09375,0.001953,0.443909,-0.205566,0.660156,0.570007,up
208017,-7.898437,5.320312,0.625,0.042969,-0.09375,0.001953,0.444092,-0.205322,0.660095,0.570007,up
208023,-7.902344,5.359375,0.664062,0.042969,-0.09375,0.001953,0.444458,-0.204895,0.660034,0.569885,up
208028,-7.976562,5.394531,0.664062,0.085937,-0.115234,-0.003906,0.444702,-0.204651,0.660034,0.569824,up
208033,-7.9375,5.433594,0.664062,0.085937,-0.115234,-0.003906,0.444946,-0.204407,0.660034,0.569763,up
208038,-7.9375,5.433594,0.703125,0.085937,-0.115234,-0.003906,0.44519,-0.204102,0.660034,0.569641,up
208043,-7.941406,5.472656,0.664062,0.121094,-0.146484,0.015625,0.445496,-0.203674,0.660095,0.569519,up
208048,-7.898437,5.472656,0.664062,0.134766,-0.15625,0.019531,0.445801,-0.203308,0.660095,0.569397,up
208054,-7.898437,5.472656,0.625,0.134766,-0.15625,0.019531,0.446045,-0.202942,0.660095,0.569275,up
208059,-7.820312,5.433594,0.585937,0.126953,-0.164062,0.027344,0.44635,-0.202515,0.660156,0.569214,up
208064,-7.820312,5.433594,0.664062,0.119141,-0.177734,0.029297,0.44635,-0.202515,0.660156,0.569214,up
208070,-7.820312,5.433594,0.625,0.103516,-0.173828,0.035156,0.44635,-0.202515,0.660156,0.569214,up
208076,-7.820312,5.433594,0.625,0.103516,-0.173828,0.035156,0.44635,-0.202515,0.660156,0.569214,up
208081,-7.820312,5.433594,0.664062,0.091797,-0.179687,0.037109,0.44635,-0.202515,0.660156,0.569214,up
208086,-7.824219,5.511719,0.664062,0.09375,-0.179687,0.039063,0.44635,-0.202515,0.660156,0.569214,up
208091,-7.824219,5.472656,0.703125,0.087891,-0.177734,0.042969,0.44635,-0.202515,0.660156,0.569214,up
208097,-7.859375,5.472656,0.664062,0.087891,-0.179687,0.048828,0.44635,-0.202515,0.660156,0.569214,up
208102,-7.824219,5.511719,0.703125,0.115234,-0.183594,0.060547,0.44635,-0.202515,0.660156,0.569214,up
208107,-7.863281,5.550781,0.703125,0.115234,-0.183594,0.060547,0.448853,-0.198547,0.659851,0.568909,up
208112,-7.820312,5.550781,0.742187,0.115234,-0.183594,0.060547,0.449158,-0.198059,0.659851,0.568909,up
208117,-7.863281,5.550781,0.742187,0.115234,-0.183594,0.060547,0.449402,-0.197449,0.659851,0.568848,up
208122,-7.902344,5.550781,0.742187,0.128906,-0.199219,0.09375,0.44989,-0.196289,0.659912,0.568848,up
208127,-7.859375,5.550781,0.816406,0.128906,-0.199219,0.09375,0.44989,-0.196289,0.659912,0.568848,up
208132,-7.824219,5.550781,0.855469,0.128906,-0.199219,0.09375,0.450134,-0.195679,0.659912,0.568848,up
208137,-7.859375,5.550781,0.855469,0.148437,-0.265625,0.160156,0.450134,-0.195679,0.659912,0.568848,up
208142,-7.820312,5.511719,0.816406,0.148437,-0.265625,0.160156,0.450684,-0.194153,0.659912,0.56897,up
208147,-7.820312,5.511719,0.816406,0.167969,-0.292969,0.191406,0.450989,-0.193237,0.659912,0.569031,up
208152,-7.820312,5.511719,0.816406,0.167969,-0.292969,0.191406,0.451294,-0.192383,0.659912,0.569092,up
208157,-7.78125,5.550781,0.816406,0.169922,-0.326172,0.21875,0.451294,-0.192383,0.659912,0.569092,up
208162,-7.824219,5.550781,0.855469,0.169922,-0.326172,0.21875,0.451904,-0.19043,0.659912,0.569275,up
208167,-7.785156,5.550781,0.777344,0.169922,-0.326172,0.21875,0.452209,-0.189392,0.659912,0.569397,up
208173,-7.863281,5.585937,0.742187,0.216797,-0.337891,0.248047,0.452209,-0.189392,0.659912,0.569397,up
208178,-7.859375,5.585937,0.816406,0.216797,-0.337891,0.248047,0.453125,-0.185913,0.659973,0.569641,up
208183,-7.820312,5.625,0.777344,0.216797,-0.337891,0.248047,0.453369,-0.184875,0.660034,0.569763,up
208188,-7.820312,5.625,0.777344,0.230469,-0.316406,0.269531,0.453369,-0.184875,0.660034,0.569763,up
208193,-7.820312,5.585937,0.742187,0.230469,-0.316406,0.269531,0.453918,-0.182434,0.660217,0.569946,up
208199,-7.785156,5.625,0.703125,0.230469,-0.316406,0.269531,0.454102,-0.181335,0.660339,0.570007,up
208204,-7.785156,5.664062,0.703125,0.230469,-0.316406,0.269531,0.454285,-0.180115,0.660522,0.570068,up
208209,-7.785156,5.742187,0.703125,0.273438,-0.283203,0.318359,0.454285,-0.180115,0.660522,0.570068,up
208215,-7.707031,5.703125,0.664062,0.298828,-0.267578,0.341797,0.454285,-0.180115,0.660522,0.570068,up
208220,-7.707031,5.742187,0.703125,0.324219,-0.255859,0.355469,0.454285,-0.180115,0.660522,0.570068,up
208227,-7.707031,5.742187,0.664062,0.353516,-0.246094,0.384766,0.454285,-0.180115,0.660522,0.570068,up
208232,-7.632812,5.742187,0.703125,0.460937,-0.205078,0.4375,0.454285,-0.180115,0.660522,0.570068,up
208237,-7.632812,5.777344,0.625,0.460937,-0.205078,0.4375,0.45459,-0.171997,0.662537,0.569885,up
208242,-7.636719,5.816406,0.625,0.509766,-0.189453,0.462891,0.45459,-0.171997,0.662537,0.569885,up
208248,-7.636719,5.816406,0.585937,0.574219,-0.183594,0.492187,0.454163,-0.166748,0.664917,0.569092,up
208253,-7.59375,5.894531,0.625,0.574219,-0.183594,0.492187,0.453918,-0.164856,0.665894,0.568665,up
208258,-7.59375,5.894531,0.625,0.574219,-0.183594,0.492187,0.453918,-0.164856,0.665894,0.568665,up
208263,-7.59375,5.894531,0.625,0.771484,-0.136719,0.638672,0.453613,-0.162964,0.666931,0.568237,up
208268,-7.636719,5.855469,0.550781,0.771484,-0.136719,0.638672,0.452698,-0.158386,0.669678,0.567017,up
208273,-7.636719,5.816406,0.585937,0.771484,-0.136719,0.638672,0.452026,-0.15564,0.671448,0.566223,up
208278,-7.59375,5.742187,0.550781,0.771484,-0.136719,0.638672,0.451477,-0.15332,0.672974,0.565491,up
208283,-7.515625,5.742187,0.472656,1.189453,0.0,0.861328,0.451477,-0.15332,0.672974,0.565491,up
208288,-7.402344,5.703125,0.394531,1.189453,0.0,0.861328,0.450684,-0.150452,0.675049,0.564453,up
208293,-7.363281,5.742187,0.394531,1.453125,0.060547,0.957031,0.44989,-0.147583,0.677124,0.563354,up
208298,-7.324219,5.855469,0.28125,1.453125,0.060547,0.957031,0.44812,-0.141418,0.681824,0.560608,up
208303,-7.324219,5.855469,0.203125,1.453125,0.060547,0.957031,0.447021,-0.137695,0.684875,0.558716,up
208308,-7.25,6.046875,0.089844,1.453125,0.060547,0.957031,0.445984,-0.134155,0.687805,0.556824,up
208314,-7.214844,6.046875,0.050781,1.453125,0.060547,0.957031,0.444824,-0.130066,0.691223,0.554443,up
208319,-7.214844,6.199219,-0.027344,2.148438,0.183594,1.138672,0.443726,-0.126404,0.694397,0.552246,up
208324,-7.136719,6.351562,-0.179687,2.25,0.195312,1.173828,0.442444,-0.122131,0.698059,0.549561,up
208329,-7.058594,6.507812,-0.253906,2.25,0.195312,1.173828,0.442444,-0.122131,0.698059,0.549561,up
208334,-7.058594,6.507812,-0.253906,2.394531,0.238281,1.212891,0.442444,-0.122131,0.698059,0.549561,up
208339,-6.976562,6.621094,-0.410156,2.394531,0.238281,1.212891,0.442444,-0.122131,0.698059,0.549561,up
208344,-6.941406,6.621094,-0.484375,2.394531,0.238281,1.212891,0.442444,-0.122131,0.698059,0.549561,up
208349,-6.867187,6.660156,-0.5625,2.394531,0.238281,1.212891,0.442444,-0.122131,0.698059,0.549561,up
208354,-6.867187,6.660156,-0.5625,2.421875,0.238281,1.273438,0.442444,-0.122131,0.698059,0.549561,up
208359,-6.828125,6.660156,-0.636719,2.421875,0.238281,1.273438,0.432373,-0.090576,0.724731,0.528809,up
208364,-6.753906,6.699219,-0.753906,2.421875,0.238281,1.273438,0.432373,-0.090576,0.724731,0.528809,up
208369,-6.753906,6.699219,-0.753906,2.339844,0.230469,1.267578,0.430725,-0.085876,0.728455,0.525757,up
208375,-6.714844,6.699219,-0.792969,2.339844,0.230469,1.267578,0.427612,-0.077026,0.735352,0.520081,up
208381,-6.636719,6.65625,-0.945312,2.339844,0.230469,1.267578,0.426025,-0.072571,0.738708,0.517273,up
208386,-6.675781,6.695312,-0.945312,2.097656,0.183594,1.197266,0.426025,-0.072571,0.738708,0.517273,up
208391,-6.636719,6.695312,-0.984375,2.044922,0.162109,1.171875,0.426025,-0.072571,0.738708,0.517273,up
208396,-6.597656,6.695312,-1.019531,2.005859,0.138672,1.130859,0.426025,-0.072571,0.738708,0.517273,up
208401,-6.558594,6.699219,-1.058594,2.005859,0.138672,1.130859,0.420227,-0.05603,0.75061,0.506836,up
208406,-6.519531,6.738281,-1.097656,2.005859,0.138672,1.130859,0.420227,-0.05603,0.75061,0.506836,up
208412,-6.519531,6.65625,-1.175781,2.005859,0.138672,1.130859,0.417725,-0.048096,0.755981,0.501709,up
208417,-6.519531,6.65625,-1.175781,2.005859,0.138672,1.130859,0.416687,-0.044312,0.758423,0.499207,up
208423,-6.445312,6.660156,-1.25,2.005859,0.138672,1.130859,0.416687,-0.044312,0.758423,0.499207,up
208428,-6.445312,6.660156,-1.289063,1.699219,-0.060547,0.841797,0.414246,-0.033936,0.764832,0.492187,up
208433,-6.40625,6.699219,-1.328125,1.699219,-0.060547,0.841797,0.413635,-0.030579,0.766846,0.489868,up
208438,-6.367187,6.65625,-1.328125,1.457031,-0.171875,0.667969,0.413635,-0.030579,0.766846,0.489868,up
208443,-6.328125,6.699219,-1.40625,1.457031,-0.171875,0.667969,0.413208,-0.027588,0.768433,0.487854,up
208448,-6.367187,6.695312,-1.441406,1.363281,-0.197266,0.597656,0.412659,-0.02179,0.771545,0.483704,up
208453,-6.367187,6.777344,-1.480469,1.363281,-0.197266,0.597656,0.412598,-0.01947,0.772644,0.482117,up
208458,-6.328125,6.855469,-1.558594,1.054688,-0.292969,0.404297,0.412598,-0.01947,0.772644,0.482117,up
208463,-6.328125,6.855469,-1.558594,1.054688,-0.292969,0.404297,0.412659,-0.016968,0.773743,0.480347,up
208468,-6.328125,6.855469,-1.632813,0.943359,-0.306641,0.349609,0.412659,-0.016968,0.773743,0.480347,up
208473,-6.328125,6.855469,-1.632813,0.833984,-0.306641,0.302734,0.413086,-0.013062,0.77533,0.477539,up
208478,-6.214844,6.894531,-1.789063,0.833984,-0.306641,0.302734,0.413391,-0.011292,0.776001,0.476318,up
208483,-6.214844,6.894531,-1.789063,0.833984,-0.306641,0.302734,0.414062,-0.008423,0.776794,0.474365,up
208488,-6.214844,6.933594,-1.863281,0.833984,-0.306641,0.302734,0.414062,-0.008423,0.776794,0.474365,up
208493,-6.214844,6.851562,-1.902344,0.328125,-0.291016,0.083984,0.41449,-0.007324,0.777039,0.473633,up
208498,-6.214844,6.894531,-1.902344,0.328125,-0.291016,0.083984,0.414978,-0.006287,0.777161,0.473022,up
208504,-6.289062,6.816406,-1.902344,0.328125,-0.291016,0.083984,0.416016,-0.004944,0.777161,0.472107,up
208510,-6.328125,6.890625,-1.863281,0.328125,-0.291016,0.083984,0.416565,-0.004517,0.7771,0.471741,up
208517,-6.40625,6.929687,-1.902344,0.142578,-0.271484,-0.103516,0.416565,-0.004517,0.7771,0.471741,up
208522,-6.558594,7.039062,-1.863281,0.115234,-0.28125,-0.140625,0.416565,-0.004517,0.7771,0.471741,up
208527,-6.75,7.421875,-1.941406,0.115234,-0.28125,-0.140625,0.416565,-0.004517,0.7771,0.471741,up
208533,-6.828125,7.699219,-1.863281,0.029297,-0.367188,-0.300781,0.416565,-0.004517,0.7771,0.471741,up
208538,-6.902344,7.925781,-1.863281,0.029297,-0.367188,-0.300781,0.421692,-0.004028,0.775696,0.469543,up
208543,-6.941406,8.082031,-1.824219,0.029297,-0.367188,-0.300781,0.422913,-0.004395,0.775146,0.46936,up
208548,-6.980469,8.265625,-1.824219,0.029297,-0.367188,-0.300781,0.422913,-0.004395,0.775146,0.46936,up
208553,-6.980469,8.230469,-1.824219,-0.505859,-0.513672,-0.535156,0.422913,-0.004395,0.775146,0.46936,up
208558,-6.980469,8.230469,-1.824219,-0.699219,-0.541016,-0.576172,0.425903,-0.005859,0.773315,0.469604,up
208564,-6.867187,8.042969,-1.863281,-0.699219,-0.541016,-0.576172,0.429382,-0.008301,0.770447,0.47113,up
208569,-6.867187,7.847656,-1.824219,-1.085938,-0.599609,-0.634766,0.431335,-0.01001,0.768494,0.472473,up
208575,-6.710937,7.542969,-1.671875,-1.085938,-0.599609,-0.634766,0.433289,-0.011841,0.766357,0.474121,up
208580,-6.710937,7.382812,-1.632813,-1.400391,-0.617187,-0.666016,0.433289,-0.011841,0.766357,0.474121,up
208586,-6.597656,7.039062,-1.597656,-1.400391,-0.617187,-0.666016,0.433289,-0.011841,0.766357,0.474121,up
208591,-6.519531,6.929687,-1.519531,-1.509766,-0.603516,-0.667969,0.433289,-0.011841,0.766357,0.474121,up
208597,-6.558594,6.777344,-1.441406,-1.509766,-0.603516,-0.667969,0.440918,-0.020386,0.756653,0.482361,up
208603,-6.519531,6.578125,-1.367188,-1.509766,-0.603516,-0.667969,0.442444,-0.022217,0.754517,0.484131,up
208609,-6.445312,6.550781,-1.289063,-1.230469,-0.515625,-0.595703,0.445801,-0.026001,0.750244,0.48761,up
208614,-6.367187,6.472656,-1.25,-1.230469,-0.515625,-0.595703,0.447266,-0.027466,0.748535,0.488708,up
208619,-6.367187,6.433594,-1.214844,-1.230469,-0.515625,-0.595703,0.447266,-0.027466,0.748535,0.488708,up
208624,-6.367187,6.429687,-1.175781,-0.324219,-0.328125,-0.400391,0.447266,-0.027466,0.748535,0.488708,up
208629,-6.367187,6.433594,-1.136719,-0.324219,-0.328125,-0.400391,0.450806,-0.030029,0.745605,0.489807,up
208634,-6.40625,6.433594,-1.097656,-0.324219,-0.328125,-0.400391,0.451599,-0.030334,0.7453,0.489563,up
208640,-6.445312,6.46875,-0.984375,-0.324219,-0.328125,-0.400391,0.452393,-0.030396,0.745239,0.488953,up
208645,-6.449219,6.390625,-1.019531,0.376953,-0.152344,-0.191406,0.453003,-0.030212,0.745422,0.488098,up
208650,-6.484375,6.46875,-0.945312,0.376953,-0.152344,-0.191406,0.453491,-0.029907,0.745789,0.487122,up
208656,-6.597656,6.734375,-0.945312,0.376953,-0.152344,-0.191406,0.453857,-0.02948,0.746216,0.486084,up
208661,-6.710937,6.929687,-1.019531,0.634766,-0.091797,-0.099609,0.454285,-0.028809,0.746887,0.484741,up
208666,-6.75,7.15625,-0.984375,0.654297,-0.107422,-0.097656,0.454285,-0.028809,0.746887,0.484741,up
208671,-6.828125,7.460937,-0.90625,0.654297,-0.107422,-0.097656,0.454285,-0.028809,0.746887,0.484741,up
208676,-6.902344,7.617187,-0.867187,0.615234,-0.162109,-0.134766,0.454285,-0.028809,0.746887,0.484741,up
208682,-6.980469,7.738281,-0.867187,0.554687,-0.199219,-0.173828,0.454285,-0.028809,0.746887,0.484741,up
208687,-7.058594,7.84375,-0.90625,0.554687,-0.199219,-0.173828,0.456726,-0.025696,0.749573,0.478394,up
208692,-7.171875,8.0,-0.90625,0.554687,-0.199219,-0.173828,0.456726,-0.025696,0.749573,0.478394,up
208697,-7.171875,8.039063,-0.90625,0.554687,-0.199219,-0.173828,0.458313,-0.025269,0.749634,0.476807,up
208702,-7.171875,8.003906,-0.945312,-0.054687,-0.375,-0.345703,0.458313,-0.025269,0.749634,0.476807,up
208707,-7.132812,7.808594,-0.984375,-0.054687,-0.375,-0.345703,0.46051,-0.025818,0.748596,0.476257,up
208712,-7.058594,7.695312,-0.945312,-0.054687,-0.375,-0.345703,0.461853,-0.02655,0.747559,0.476624,up
208717,-7.058594,7.539062,-0.90625,-0.751953,-0.503906,-0.482422,0.461853,-0.02655,0.747559,0.476624,up
208722,-7.058594,7.421875,-0.945312,-0.941406,-0.53125,-0.515625,0.461853,-0.02655,0.747559,0.476624,up
208727,-7.019531,7.039062,-0.90625,-1.117188,-0.537109,-0.539062,0.461853,-0.02655,0.747559,0.476624,up
208732,-6.976562,6.890625,-0.90625,-1.117188,-0.537109,-0.539062,0.467896,-0.032104,0.74054,0.481323,up
208737,-6.9375,6.660156,-0.792969,-1.341797,-0.542969,-0.572266,0.467896,-0.032104,0.74054,0.481323,up
208742,-6.9375,6.46875,-0.753906,-1.412109,-0.53125,-0.580078,0.467896,-0.032104,0.74054,0.481323,up
208747,-6.9375,6.238281,-0.714844,-1.412109,-0.53125,-0.580078,0.472656,-0.038147,0.733459,0.487,up
208752,-6.9375,5.96875,-0.601562,-1.363281,-0.5,-0.587891,0.472656,-0.038147,0.733459,0.487,up
208757,-6.898437,5.933594,-0.523437,-1.242188,-0.492187,-0.591797,0.472656,-0.038147,0.733459,0.487,up
208762,-7.015625,5.816406,-0.445312,-1.242188,-0.492187,-0.591797,0.472656,-0.038147,0.733459,0.487,up
208767,-7.09375,5.894531,-0.371094,-1.242188,-0.492187,-0.591797,0.478577,-0.045776,0.724915,0.493286,up
208772,-7.175781,5.96875,-0.371094,-0.664062,-0.457031,-0.576172,0.478577,-0.045776,0.724915,0.493286,up
208778,-7.25,6.125,-0.292969,-0.664062,-0.457031,-0.576172,0.481628,-0.048462,0.721924,0.494446,up
208783,-7.253906,6.199219,-0.292969,-0.664062,-0.457031,-0.576172,0.481628,-0.048462,0.721924,0.494446,up
208788,-7.320312,6.277344,-0.292969,-0.291016,-0.460937,-0.542969,0.481628,-0.048462,0.721924,0.494446,up
208793,-7.320312,6.277344,-0.292969,-0.072266,-0.474609,-0.511719,0.485962,-0.050415,0.719177,0.494019,up
208799,-7.480469,6.316406,-0.21875,0.003906,-0.501953,-0.484375,0.485962,-0.050415,0.719177,0.494019,up
208805,-7.476562,6.160156,-0.21875,0.003906,-0.501953,-0.484375,0.490601,-0.051331,0.717041,0.492432,up
208810,-7.519531,6.125,-0.101563,-0.037109,-0.539062,-0.505859,0.492187,-0.051636,0.716309,0.491943,up
208816,-7.476562,6.085937,-0.101563,-0.037109,-0.539062,-0.505859,0.493591,-0.051941,0.715576,0.491577,up
208821,-7.519531,6.007812,-0.0625,-0.1875,-0.570312,-0.554687,0.4953,-0.052368,0.7146,0.491272,up
208827,-7.515625,6.046875,-0.027344,-0.267578,-0.59375,-0.582031,0.4953,-0.052368,0.7146,0.491272,up
208833,-7.519531,6.125,-0.027344,-0.326172,-0.626953,-0.603516,0.4953,-0.052368,0.7146,0.491272,up
208838,-7.519531,6.160156,-0.0625,-0.359375,-0.662109,-0.621094,0.4953,-0.052368,0.7146,0.491272,up
208844,-7.515625,6.199219,-0.101563,-0.402344,-0.701172,-0.671875,0.4953,-0.052368,0.7146,0.491272,up
208849,-7.480469,6.277344,-0.140625,-0.402344,-0.701172,-0.671875,0.504517,-0.055908,0.70813,0.490784,up
208855,-7.398437,6.390625,-0.101563,-0.402344,-0.701172,-0.671875,0.508667,-0.057617,0.705017,0.490845,up
208860,-7.398437,6.390625,-0.101563,-0.511719,-0.763672,-0.720703,0.510864,-0.058594,0.703247,0.490906,up
208865,-7.4375,6.390625,-0.179687,-0.564453,-0.773437,-0.728516,0.513245,-0.059753,0.701355,0.491089,up
208872,-7.28125,6.238281,-0.179687,-0.564453,-0.773437,-0.728516,0.515137,-0.060669,0.699707,0.491333,up
208877,-7.28125,6.125,-0.140625,-0.761719,-0.769531,-0.726562,0.515137,-0.060669,0.699707,0.491333,up
208883,-7.253906,5.96875,-0.179687,-0.861328,-0.751953,-0.726562,0.515137,-0.060669,0.699707,0.491333,up
208889,-7.171875,5.625,0.011719,-0.941406,-0.724609,-0.716797,0.523437,-0.066467,0.69104,0.493958,up
208894,-7.09375,5.472656,0.011719,-0.941406,-0.724609,-0.716797,0.523437,-0.066467,0.69104,0.493958,up
208899,-7.132812,5.242187,0.050781,-1.146484,-0.660156,-0.734375,0.523437,-0.066467,0.69104,0.493958,up
208904,-7.132812,4.9375,0.089844,-1.146484,-0.660156,-0.734375,0.527283,-0.070129,0.686279,0.496033,up
208909,-7.175781,4.9375,0.167969,-1.138672,-0.619141,-0.779297,0.529175,-0.072144,0.683777,0.497192,up
208914,-7.285156,4.859375,0.28125,-1.138672,-0.619141,-0.779297,0.531128,-0.074341,0.681213,0.498352,up
208919,-7.402344,4.859375,0.359375,-1.138672,-0.619141,-0.779297,0.532898,-0.076355,0.678894,0.499268,up
208924,-7.707031,4.746094,0.511719,-0.980469,-0.607422,-0.853516,0.536621,-0.080139,0.674622,0.500549,up
208929,-7.742187,4.820312,0.550781,-0.746094,-0.658203,-0.980469,0.536621,-0.080139,0.674622,0.500549,up
208934,-7.78125,4.9375,0.625,-0.746094,-0.658203,-0.980469,0.538879,-0.082214,0.672363,0.500793,up
208939,-7.820312,5.050781,0.742187,-0.5625,-0.765625,-1.146484,0.538879,-0.082214,0.672363,0.500793,up
208945,-8.019531,5.472656,0.933594,-0.5625,-0.765625,-1.146484,0.543457,-0.085571,0.668518,0.500427,up
208950,-8.019531,5.472656,0.933594,-0.53125,-0.830078,-1.230469,0.546143,-0.08728,0.666504,0.499878,up
208955,-8.054688,5.664062,0.96875,-0.53125,-0.830078,-1.230469,0.549072,-0.089111,0.664307,0.499207,up
208960,-8.28125,5.96875,1.007813,-0.539062,-0.939453,-1.341797,0.552063,-0.09082,0.66217,0.498474,up
208965,-8.324219,6.007812,1.007813,-0.734375,-1.068359,-1.357422,0.552063,-0.09082,0.66217,0.498474,up
208971,-8.398438,6.085937,1.007813,-0.734375,-1.068359,-1.357422,0.561829,-0.096497,0.654236,0.497009,up
208977,-8.359375,5.816406,1.199219,-1.060547,-1.230469,-1.337891,0.561829,-0.096497,0.654236,0.497009,up
208982,-8.363281,5.777344,1.199219,-1.21875,-1.292969,-1.322266,0.561829,-0.096497,0.654236,0.497009,up
208989,-8.402344,5.664062,1.199219,-1.365234,-1.314453,-1.300781,0.561829,-0.096497,0.654236,0.497009,up
208994,-8.507813,5.472656,1.355469,-1.484375,-1.365234,-1.273438,0.561829,-0.096497,0.654236,0.497009,up
209000,-8.441406,5.394531,1.46875,-1.484375,-1.365234,-1.273438,0.582764,-0.110596,0.630432,0.500732,up
209005,-8.4375,5.320312,1.660156,-1.603516,-1.695313,-1.324219,0.586182,-0.112732,0.626038,0.50177,up
209010,-8.820313,4.9375,2.042969,-1.603516,-1.695313,-1.324219,0.590759,-0.115295,0.620361,0.502869,up
209015,-8.972656,4.972656,2.121094,-1.603516,-1.695313,-1.324219,0.594543,-0.117249,0.615784,0.50354,up
209020,-9.085938,5.433594,2.082031,-1.496094,-2.074219,-1.710938,0.599731,-0.11969,0.609863,0.504028,up
209025,-9.125,5.777344,2.082031,-1.496094,-2.074219,-1.710938,0.60437,-0.121765,0.604675,0.504211,up
209030,-9.355469,5.816406,2.003906,-1.496094,-2.074219,-1.710938,0.610168,-0.124451,0.598389,0.50415,up
209036,-9.625,5.28125,2.121094,-1.496094,-2.074219,-1.710938,0.615479,-0.126892,0.59259,0.503906,up
209041,-9.625,5.28125,2.121094,-1.794922,-2.572266,-2.519531,0.621765,-0.130066,0.585632,0.503479,up
209046,-9.625,5.28125,2.121094,-2.0,-2.771484,-2.708984,0.628296,-0.133423,0.578308,0.503052,up
209051,-10.007813,4.820312,2.617188,-2.0,-2.771484,-2.708984,0.628296,-0.133423,0.578308,0.503052,up
209056,-9.894531,4.628906,3.039063,-2.226563,-3.009766,-2.890625,0.635132,-0.137085,0.57019,0.502625,up
209061,-9.894531,4.628906,3.039063,-2.490234,-3.185547,-3.091797,0.650146,-0.145935,0.551514,0.501892,up
209068,-9.933594,3.902344,3.34375,-2.490234,-3.185547,-3.091797,0.650146,-0.145935,0.551514,0.501892,up
209073,-9.8125,3.863281,3.539063,-3.234375,-3.453125,-3.714844,0.650146,-0.145935,0.551514,0.501892,up
209079,-9.585938,4.246094,3.382813,-3.296875,-3.585938,-3.824219,0.650146,-0.145935,0.551514,0.501892,up
209084,-9.246094,5.203125,3.34375,-3.353516,-3.712891,-3.875,0.690002,-0.175171,0.494324,0.49884,up
209089,-8.550781,5.894531,3.230469,-3.353516,-3.712891,-3.875,0.690002,-0.175171,0.494324,0.49884,up
209094,-8.246094,5.742187,3.382813,-3.353516,-3.712891,-3.875,0.698547,-0.18219,0.480591,0.497925,up
209100,-7.824219,5.96875,3.539063,-3.851563,-3.167969,-3.724609,0.698547,-0.18219,0.480591,0.497925,up
209105,-7.558594,5.550781,4.074219,-3.851563,-3.167969,-3.724609,0.712219,-0.195618,0.456238,0.496338,up
209110,-7.324219,5.472656,4.648437,-4.029297,-2.916016,-3.53125,0.717896,-0.202576,0.444641,0.49585,up
209115,-7.324219,5.472656,4.648437,-4.029297,-2.916016,-3.53125,0.717896,-0.202576,0.444641,0.49585,up
209120,-7.480469,5.050781,4.878906,-4.380859,-1.552734,-2.71875,0.730225,-0.226868,0.411682,0.495789,up
209125,-7.898437,3.710938,5.144531,-4.400391,-1.181641,-2.400391,0.730225,-0.226868,0.411682,0.495789,up
209130,-8.4375,1.71875,5.949219,-4.400391,-1.181641,-2.400391,0.733582,-0.245422,0.392761,0.497314,up
209135,-8.550781,1.105469,6.523437,-4.400391,-1.181641,-2.400391,0.734009,-0.254456,0.384644,0.498535,up
209140,-8.894531,0.644531,7.101562,-3.9375,-0.029297,-1.404297,0.733643,-0.26239,0.378479,0.499695,up
209145,-10.007813,0.378906,7.367187,-3.9375,-0.029297,-1.404297,0.733643,-0.26239,0.378479,0.499695,up
209150,-10.738281,0.378906,7.558594,-3.470703,0.509766,-1.068359,0.732483,-0.270569,0.373474,0.500732,up
209155,-10.738281,0.378906,7.558594,-3.470703,0.509766,-1.068359,0.730835,-0.278015,0.370178,0.501526,up
209160,-12.148438,1.410156,8.59375,-2.126953,1.138672,-0.458984,0.728943,-0.284363,0.368469,0.502014,up
209165,-12.730469,2.101563,8.59375,-1.277344,1.486328,-0.185547,0.724731,-0.293213,0.370422,0.501526,up
209170,-13.535156,2.597656,8.441406,0.125,2.316406,0.365234,0.722107,-0.296265,0.374573,0.500488,up
209175,-15.25,2.484375,8.363281,0.125,2.316406,0.365234,0.722107,-0.296265,0.374573,0.500488,up
209180,-15.949219,2.0625,8.515625,0.890625,2.960938,0.925781,0.719482,-0.298157,0.379761,0.499268,up
209185,-16.367187,1.871094,8.515625,0.890625,2.960938,0.925781,0.712463,-0.30072,0.394287,0.49646,up
209190,-16.78125,1.601563,8.402344,0.890625,2.960938,0.925781,0.707886,-0.301941,0.403137,0.495178,up
209195,-17.554687,1.601563,7.941406,0.890625,2.960938,0.925781,0.703064,-0.303162,0.41156,0.494385,up
209200,-18.011719,1.988281,7.484375,0.890625,2.960938,0.925781,0.695679,-0.304932,0.423218,0.493896,up
209205,-18.359375,2.484375,7.023437,0.917969,5.169922,3.148438,0.688538,-0.306274,0.433594,0.494019,up
209211,-18.8125,4.246094,5.796875,0.917969,5.169922,3.148438,0.67804,-0.307495,0.447937,0.495056,up
209217,-18.703125,6.160156,4.609375,0.917969,5.169922,3.148438,0.667542,-0.307922,0.461243,0.496826,up
209223,-18.703125,6.160156,4.609375,1.234375,6.767578,6.09375,0.652588,-0.307495,0.479126,0.499939,up
209228,-18.703125,6.160156,4.609375,1.568359,7.478516,7.279297,0.637939,-0.306091,0.495972,0.503296,up
209233,-18.746094,9.074219,1.125,1.568359,7.478516,7.279297,0.637939,-0.306091,0.495972,0.503296,up
209239,-18.746094,10.144531,-0.410156,2.529297,8.730469,9.75,0.598083,-0.29834,0.539368,0.512146,up
209245,-18.933594,11.21875,-1.863281,3.945313,9.386719,12.318359,0.598083,-0.29834,0.539368,0.512146,up
209250,-19.773437,14.015625,-3.933594,3.945313,9.386719,12.318359,0.520264,-0.268555,0.617065,0.525757,up
209255,-20.15625,14.894531,-4.125,5.375,9.513672,14.494141,0.520264,-0.268555,0.617065,0.525757,up
209260,-20.582031,15.777344,-4.429687,5.375,9.513672,14.494141,0.457642,-0.23407,0.672791,0.532043,up
209265,-20.582031,15.777344,-4.429687,5.375,9.513672,14.494141,0.457642,-0.23407,0.672791,0.532043,up
209270,-20.765625,15.433594,-5.425781,5.693359,9.416016,16.085937,0.424011,-0.213684,0.69928,0.534363,up
209275,-20.765625,15.433594,-5.425781,5.71875,9.154297,16.837891,0.388733,-0.191284,0.724426,0.536194,up
209280,-20.582031,15.316406,-5.503906,5.652344,8.707031,17.548828,0.313416,-0.13916,0.76947,0.538818,up
209285,-20.382812,15.394531,-5.3125,5.652344,8.707031,17.548828,0.275085,-0.111816,0.787476,0.5401,up
209290,-21.042969,8.152344,-5.695312,5.652344,8.707031,17.548828,0.231079,-0.081177,0.80426,0.541382,up
209295,-19.546875,5.742187,-5.425781,3.945313,7.816406,17.634766,0.231079,-0.081177,0.80426,0.541382,up
209300,-18.050781,4.515625,-4.621094,3.945313,7.816406,17.634766,0.156677,-0.029114,0.826294,0.540222,up
209305,-16.515625,4.746094,-3.320313,3.945313,7.816406,17.634766,0.11908,-0.00177,0.835266,0.536804,up
209310,-12.992188,2.597656,1.582031,3.945313,7.816406,17.634766,0.11908,-0.00177,0.835266,0.536804,up
209315,-10.390625,-0.464844,3.539063,4.386719,5.642578,14.265625,0.11908,-0.00177,0.835266,0.536804,up
209320,-8.085938,-2.152344,4.726562,4.386719,5.642578,14.265625,0.02124,0.071472,0.851868,0.518433,up
209325,-6.636719,-2.648438,4.839844,4.386719,5.642578,14.265625,0.009521,-0.091675,-0.854126,-0.511841,up
209330,-6.714844,-1.804688,3.539063,4.386719,5.642578,14.265625,0.009521,-0.091675,-0.854126,-0.511841,up
209335,-6.753906,-0.773437,2.886719,2.765625,6.046875,11.392578,0.009521,-0.091675,-0.854126,-0.511841,up
209340,-7.019531,-0.464844,3.730469,2.765625,6.046875,11.392578,0.069153,-0.127014,-0.854126,-0.499512,up
209345,-7.019531,-0.464844,3.730469,2.765625,6.046875,11.392578,0.119324,-0.156677,-0.851318,-0.486328,up
209350,-6.632812,0.222656,4.457031,2.765625,6.046875,11.392578,0.119324,-0.156677,-0.851318,-0.486328,up
209355,-6.445312,-0.3125,4.726562,3.710938,4.042969,8.066406,0.159607,-0.179199,-0.850342,-0.468262,up
209360,-5.90625,0.683594,5.414062,3.710938,4.042969,8.066406,0.176147,-0.187073,-0.851013,-0.458008,up
209365,-5.296875,0.722656,5.640625,4.585937,2.677734,4.966797,0.176147,-0.187073,-0.851013,-0.458008,up
209370,-4.644531,0.722656,5.800781,4.318359,2.228516,4.126953,0.192139,-0.193909,-0.852356,-0.446106,up
209375,-3.53125,1.027344,5.722656,4.318359,2.228516,4.126953,0.204651,-0.19873,-0.853821,-0.435425,up
209380,-2.917969,1.410156,5.183594,4.318359,2.228516,4.126953,0.223206,-0.204651,-0.856689,-0.417542,up
209385,-2.574219,1.757813,4.535156,4.318359,2.228516,4.126953,0.228943,-0.206055,-0.857727,-0.411621,up
209390,-2.308594,1.910156,3.804688,4.318359,2.228516,4.126953,0.228943,-0.206055,-0.857727,-0.411621,up
209395,-1.234375,1.871094,2.542969,1.164063,0.607422,0.923828,0.228943,-0.206055,-0.857727,-0.411621,up
209400,-0.738281,1.71875,2.234375,-1.820313,-0.160156,-0.199219,0.234863,-0.207642,-0.858337,-0.406128,up
209405,-0.085937,1.566406,1.8125,-1.820313,-0.160156,-0.199219,0.234375,-0.208374,-0.857239,-0.408386,up
209411,1.21875,1.375,1.046875,-3.222656,-0.373047,-0.613281,0.234375,-0.208374,-0.857239,-0.408386,up
209417,2.136719,1.066406,0.625,-3.222656,-0.373047,-0.613281,0.222717,-0.211426,-0.847168,-0.433594,up
209422,2.136719,1.066406,0.625,-6.320312,-0.878906,-1.466797,0.216675,-0.212646,-0.842102,-0.44574,up
209428,2.75,0.914062,0.28125,-6.320312,-0.878906,-1.466797,0.216675,-0.212646,-0.842102,-0.44574,up
209433,3.058594,0.761719,-0.484375,-6.320312,-0.878906,-1.466797,0.202515,-0.215088,-0.829712,-0.473511,up
209439,3.324219,0.953125,-1.019531,-6.886719,-0.873047,-1.775391,0.202515,-0.215088,-0.829712,-0.473511,up
209445,3.4375,1.449219,-1.519531,-5.330078,-0.708984,-1.740234,0.202515,-0.215088,-0.829712,-0.473511,up
209450,3.863281,2.0625,-1.980469,-5.330078,-0.708984,-1.740234,0.173889,-0.216187,-0.804687,-0.524902,up
209455,3.902344,2.40625,-1.902344,-5.330078,-0.708984,-1.740234,0.173889,-0.216187,-0.804687,-0.524902,up
209460,3.976563,2.828125,-1.710938,-1.857422,-0.460937,-1.380859,0.173889,-0.216187,-0.804687,-0.524902,up
209465,4.019531,3.902344,-1.558594,-1.857422,-0.460937,-1.380859,0.164246,-0.21405,-0.798767,-0.53772,up
209470,3.9375,4.320312,-1.558594,-1.857422,-0.460937,-1.380859,0.160767,-0.212524,-0.797729,-0.540955,up
209476,3.859375,4.664062,-1.632813,0.5625,-0.386719,-0.943359,0.160767,-0.212524,-0.797729,-0.540955,up
209481,3.746094,5.046875,-1.75,0.5625,-0.386719,-0.943359,0.154541,-0.207642,-0.800537,-0.540466,up
209486,3.707031,5.511719,-1.863281,0.5625,-0.386719,-0.943359,0.153564,-0.206238,-0.802795,-0.537964,up
209492,3.515625,6.851562,-2.976563,0.5625,-0.386719,-0.943359,0.152649,-0.204712,-0.805969,-0.534058,up
209497,3.515625,7.238281,-3.472656,2.052734,-0.496094,-0.492187,0.152039,-0.203552,-0.808777,-0.530334,up
209502,3.554688,7.65625,-3.933594,1.882813,-0.583984,-0.384766,0.151367,-0.202637,-0.811829,-0.526306,up
209507,3.820313,8.1875,-4.46875,1.882813,-0.583984,-0.384766,0.151367,-0.202637,-0.811829,-0.526306,up
209512,4.128906,8.382813,-4.621094,0.980469,-0.755859,-0.173828,0.151367,-0.202637,-0.811829,-0.526306,up
209517,4.28125,8.765625,-4.8125,0.417969,-0.742187,-0.072266,0.151367,-0.202637,-0.811829,-0.526306,up
209522,4.550781,8.6875,-5.273437,0.417969,-0.742187,-0.072266,0.151367,-0.202637,-0.811829,-0.526306,up
209527,4.550781,8.6875,-5.273437,-0.548828,-0.591797,-0.007813,0.151367,-0.202637,-0.811829,-0.526306,up
209532,4.742187,8.613281,-5.234375,-0.548828,-0.591797,-0.007813,0.151367,-0.202637,-0.811829,-0.526306,up
209537,4.742187,8.613281,-5.234375,-1.150391,-0.337891,0.021484,0.151367,-0.202637,-0.811829,-0.526306,up
209542,4.703125,8.730469,-5.464844,-1.150391,-0.337891,0.021484,0.140686,-0.206848,-0.814758,-0.52301,up
209549,4.816406,8.765625,-6.0,-1.150391,-0.337891,0.021484,0.140686,-0.206848,-0.814758,-0.52301,up
209554,4.933594,8.648438,-5.695312,-1.091797,-0.375,-0.199219,0.140686,-0.206848,-0.814758,-0.52301,up
209559,4.972656,8.570313,-5.042969,-1.091797,-0.375,-0.199219,0.13623,-0.208313,-0.811035,-0.529358,up
209564,4.933594,8.503906,-4.851562,-0.476562,-0.269531,-0.277344,0.13623,-0.208313,-0.811035,-0.529358,up
209569,4.855469,8.460938,-4.851562,-0.113281,-0.166016,-0.318359,0.13623,-0.208313,-0.811035,-0.529358,up
209574,4.855469,8.34375,-4.660156,-0.113281,-0.166016,-0.318359,0.133057,-0.207642,-0.810486,-0.53125,up
209579,4.816406,8.304688,-4.546875,0.263672,-0.138672,-0.375,0.133057,-0.207642,-0.810486,-0.53125,up
209584,4.78125,8.269531,-4.355469,0.376953,-0.166016,-0.396484,0.133057,-0.207642,-0.810486,-0.53125,up
209589,4.742187,8.230469,-4.238281,0.453125,-0.183594,-0.402344,0.133057,-0.207642,-0.810486,-0.53125,up
209594,4.742187,8.226563,-4.199219,0.453125,-0.183594,-0.402344,0.130249,-0.204834,-0.813416,-0.528625,up
209599,4.625,8.042969,-3.933594,0.453125,-0.183594,-0.402344,0.130249,-0.204834,-0.813416,-0.528625,up
209604,4.589844,7.964844,-3.933594,0.289063,-0.208984,-0.318359,0.130249,-0.204834,-0.813416,-0.528625,up
209610,4.472656,7.964844,-3.933594,0.289063,-0.208984,-0.318359,0.127991,-0.203186,-0.815491,-0.526611,up
209615,4.433594,8.0,-3.855469,0.289063,-0.208984,-0.318359,0.127258,-0.202881,-0.815796,-0.526428,up
209620,4.398437,8.042969,-3.78125,0.289063,-0.208984,-0.318359,0.126404,-0.202698,-0.815918,-0.526489,up
209626,4.359375,8.117188,-3.816406,-0.246094,-0.25,-0.152344,0.124634,-0.202881,-0.815674,-0.527283,up
209631,4.167969,8.148438,-3.816406,-0.246094,-0.25,-0.152344,0.12384,-0.203064,-0.81543,-0.52771,up
209636,4.167969,8.117188,-3.742188,-0.246094,-0.25,-0.152344,0.122925,-0.20343,-0.815247,-0.528137,up
209641,4.128906,8.078125,-3.664063,-0.123047,-0.314453,-0.015625,0.122925,-0.20343,-0.815247,-0.528137,up
209646,4.089844,8.152344,-3.78125,-0.123047,-0.314453,-0.015625,0.121338,-0.204224,-0.815186,-0.52832,up
209651,4.089844,8.121094,-3.855469,-0.123047,-0.314453,-0.015625,0.120667,-0.20459,-0.815308,-0.528076,up
209656,4.089844,8.148438,-3.972656,-0.123047,-0.314453,-0.015625,0.120667,-0.20459,-0.815308,-0.528076,up
209661,4.089844,8.191406,-4.046875,0.216797,-0.369141,-0.007813,0.120667,-0.20459,-0.815308,-0.528076,up
209666,4.128906,8.226563,-4.007812,0.230469,-0.380859,-0.013672,0.119263,-0.205322,-0.815979,-0.527039,up
209671,4.207031,8.230469,-3.972656,0.230469,-0.380859,-0.013672,0.117798,-0.206116,-0.816895,-0.525696,up
209676,4.242187,8.152344,-4.046875,0.201172,-0.328125,-0.025391,0.117798,-0.206116,-0.816895,-0.525696,up
209681,4.242187,8.121094,-4.085937,0.201172,-0.328125,-0.025391,0.116516,-0.206726,-0.817627,-0.524597,up
209686,4.242187,8.121094,-4.125,0.201172,-0.328125,-0.025391,0.115784,-0.20697,-0.817871,-0.524292,up
209691,4.242187,8.121094,-4.164062,-0.0625,-0.296875,-0.068359,0.115784,-0.20697,-0.817871,-0.524292,up
209696,4.242187,8.078125,-4.199219,-0.0625,-0.296875,-0.068359,0.11499,-0.207214,-0.817932,-0.52417,up
209701,4.242187,8.042969,-4.164062,-0.234375,-0.263672,-0.095703,0.11499,-0.207214,-0.817932,-0.52417,up
209706,4.242187,8.082031,-4.085937,-0.234375,-0.263672,-0.095703,0.112488,-0.207825,-0.817627,-0.525024,up
209711,4.242187,8.0,-4.046875,-0.330078,-0.238281,-0.099609,0.112488,-0.207825,-0.817627,-0.525024,up
209716,4.28125,7.925781,-4.007812,-0.34375,-0.220703,-0.089844,0.111694,-0.208008,-0.817322,-0.525574,up
209722,4.242187,7.765625,-3.972656,-0.34375,-0.220703,-0.089844,0.110168,-0.208313,-0.816711,-0.526733,up
209727,4.242187,7.734375,-4.007812,-0.296875,-0.210937,-0.087891,0.109314,-0.208496,-0.816345,-0.527344,up
209733,4.242187,7.65625,-3.894531,-0.296875,-0.210937,-0.087891,0.108521,-0.208679,-0.816101,-0.527832,up
209739,4.242187,7.699219,-4.007812,-0.177734,-0.21875,-0.066406,0.108521,-0.208679,-0.816101,-0.527832,up
209745,4.207031,7.695312,-3.933594,-0.117188,-0.226562,-0.042969,0.108521,-0.208679,-0.816101,-0.527832,up
209750,4.207031,7.695312,-3.894531,-0.058594,-0.246094,-0.023437,0.108521,-0.208679,-0.816101,-0.527832,up
209755,4.28125,7.734375,-3.894531,-0.007813,-0.246094,0.005859,0.108521,-0.208679,-0.816101,-0.527832,up
209761,4.28125,7.769531,-4.007812,0.03125,-0.234375,0.041016,0.105103,-0.210266,-0.81604,-0.528015,up
209766,4.28125,7.804687,-4.046875,0.03125,-0.234375,0.041016,0.105103,-0.210266,-0.81604,-0.528015,up
209771,4.28125,7.84375,-4.085937,0.080078,-0.251953,0.078125,0.104248,-0.211121,-0.816345,-0.527405,up
209776,4.359375,7.921875,-4.199219,0.080078,-0.251953,0.078125,0.103821,-0.211609,-0.816406,-0.527161,up
209781,4.28125,7.921875,-4.199219,0.080078,-0.251953,0.078125,0.103394,-0.212158,-0.816528,-0.526855,up
209786,4.359375,7.964844,-4.199219,0.080078,-0.251953,0.078125,0.103394,-0.212158,-0.816528,-0.526855,up
209791,4.320312,8.042969,-4.316406,0.03125,-0.257813,0.109375,0.103394,-0.212158,-0.816528,-0.526855,up
209797,4.320312,8.042969,-4.355469,0.03125,-0.257813,0.109375,0.102173,-0.213806,-0.81665,-0.526184,up
209802,4.320312,8.042969,-4.390625,0.03125,-0.257813,0.109375,0.101807,-0.214294,-0.816711,-0.526001,up
209808,4.359375,7.964844,-4.390625,0.041016,-0.248047,0.111328,0.10144,-0.214783,-0.816772,-0.525818,up
209813,4.320312,7.882812,-4.316406,0.041016,-0.248047,0.111328,0.101013,-0.215271,-0.816833,-0.525574,up
209818,4.28125,7.847656,-4.316406,0.072266,-0.226562,0.076172,0.101013,-0.215271,-0.816833,-0.525574,up
209825,4.242187,7.765625,-4.355469,0.080078,-0.216797,0.066406,0.101013,-0.215271,-0.816833,-0.525574,up
209831,4.207031,7.769531,-4.316406,0.080078,-0.216797,0.066406,0.099609,-0.216736,-0.817383,-0.524414,up
209836,4.207031,7.695312,-4.277344,0.080078,-0.216797,0.066406,0.099609,-0.216736,-0.817383,-0.524414,up
209841,4.167969,7.621094,-4.238281,0.052734,-0.146484,-0.007813,0.099609,-0.216736,-0.817383,-0.524414,up
209846,4.167969,7.578125,-4.199219,0.052734,-0.146484,-0.007813,0.098938,-0.217102,-0.817627,-0.523987,up
209851,4.167969,7.582031,-4.164062,0.052734,-0.146484,-0.007813,0.098572,-0.217224,-0.817749,-0.523804,up
209856,4.167969,7.542969,-4.125,-0.023437,-0.101563,-0.091797,0.098572,-0.217224,-0.817749,-0.523804,up
209861,4.128906,7.542969,-4.125,-0.023437,-0.101563,-0.091797,0.097839,-0.217224,-0.817871,-0.523743,up
