timestamp,ax,ay,az,gx,gy,gz,qw,qx,qy,qz,label
238645,-7.558594,2.710938,4.746094,0.201172,-0.019531,0.300781,0.437622,-0.302246,0.380249,0.756653,up
238651,-7.742187,2.710938,4.824219,0.322266,0.052734,0.351563,0.437622,-0.302246,0.380249,0.756653,up
238656,-7.746094,2.671875,4.824219,0.355469,0.060547,0.345703,0.437622,-0.302246,0.380249,0.756653,up
238661,-7.820312,2.671875,4.859375,0.371094,0.072266,0.333984,0.437622,-0.302246,0.380249,0.756653,up
238667,-7.941406,2.75,4.898437,0.380859,0.068359,0.308594,0.437622,-0.302246,0.380249,0.756653,up
238672,-7.9375,2.785156,4.9375,0.373047,0.041016,0.257813,0.434937,-0.298218,0.386902,0.75647,up
238677,-7.941406,2.824219,4.976562,0.333984,-0.005859,0.138672,0.434937,-0.298218,0.386902,0.75647,up
238682,-7.898437,2.902344,5.015625,0.294922,-0.029297,0.09375,0.434814,-0.297668,0.387756,0.756287,up
238687,-7.863281,2.941406,5.050781,0.294922,-0.029297,0.09375,0.434937,-0.296753,0.388916,0.755981,up
238692,-7.785156,3.015625,5.015625,0.294922,-0.029297,0.09375,0.435059,-0.296387,0.389282,0.755859,up
238697,-7.667969,3.09375,4.9375,0.103516,-0.066406,0.039063,0.435059,-0.296387,0.389282,0.755859,up
238702,-7.59375,3.132813,4.976562,0.103516,-0.066406,0.039063,0.435181,-0.296021,0.389526,0.755798,up
238707,-7.515625,3.132813,4.898437,0.103516,-0.066406,0.039063,0.435181,-0.295715,0.389587,0.75592,up
238712,-7.441406,3.09375,4.898437,0.103516,-0.066406,0.039063,0.435181,-0.295715,0.389587,0.75592,up
238717,-7.402344,3.054688,4.859375,-0.144531,-0.044922,0.076172,0.434753,-0.295654,0.389099,0.756409,up
238722,-7.441406,2.863281,4.859375,-0.144531,-0.044922,0.076172,0.434387,-0.295776,0.388733,0.756775,up
238727,-7.441406,2.824219,4.785156,-0.144531,-0.044922,0.076172,0.43396,-0.295898,0.388428,0.757141,up
238732,-7.441406,2.75,4.859375,-0.144531,-0.044922,0.076172,0.43396,-0.295898,0.388428,0.757141,up
238737,-7.4375,2.671875,4.898437,-0.240234,0.019531,0.162109,0.432983,-0.296204,0.387817,0.757874,up
238742,-7.515625,2.632813,4.859375,-0.240234,0.019531,0.162109,0.432434,-0.296265,0.387695,0.75824,up
238747,-7.515625,2.59375,4.898437,-0.240234,0.019531,0.162109,0.431885,-0.296265,0.387695,0.758545,up
238752,-7.558594,2.671875,4.898437,-0.240234,0.019531,0.162109,0.431885,-0.296265,0.387695,0.758545,up
238757,-7.515625,2.710938,4.898437,0.048828,0.070312,0.222656,0.430969,-0.296021,0.388367,0.758789,up
238762,-7.554687,2.824219,4.785156,0.048828,0.070312,0.222656,0.430969,-0.296021,0.388367,0.758789,up
238767,-7.558594,2.902344,4.785156,0.048828,0.070312,0.222656,0.430603,-0.295715,0.38916,0.758789,up
238772,-7.554687,2.902344,4.824219,0.363281,0.091797,0.244141,0.429993,-0.294861,0.391052,0.758423,up
238777,-7.636719,2.976563,4.824219,0.363281,0.091797,0.244141,0.429993,-0.294861,0.391052,0.758423,up
238782,-7.664062,3.054688,4.785156,0.486328,0.134766,0.230469,0.429749,-0.294373,0.392151,0.758179,up
238787,-7.703125,3.09375,4.859375,0.486328,0.134766,0.230469,0.429321,-0.293457,0.394592,0.757568,up
238792,-7.78125,3.246094,4.898437,0.486328,0.134766,0.230469,0.429321,-0.293457,0.394592,0.757568,up
238797,-7.820312,3.324219,4.898437,0.486328,0.134766,0.230469,0.429138,-0.292969,0.395813,0.757202,up
238802,-7.785156,3.398438,4.824219,0.273438,0.123047,0.134766,0.429016,-0.292603,0.39679,0.756897,up
238808,-7.742187,3.4375,4.859375,0.273438,0.123047,0.134766,0.428589,-0.292236,0.398315,0.75647,up
238813,-7.707031,3.515625,4.859375,0.273438,0.123047,0.134766,0.428345,-0.292236,0.398804,0.756348,up
238819,-7.667969,3.515625,4.859375,0.273438,0.123047,0.134766,0.427979,-0.292358,0.39917,0.756287,up
238824,-7.703125,3.476563,4.898437,-0.087891,0.148437,0.121094,0.427612,-0.292542,0.399353,0.756348,up
238829,-7.703125,3.476563,4.898437,-0.171875,0.160156,0.126953,0.427124,-0.292847,0.399353,0.756531,up
238835,-7.636719,3.246094,4.824219,-0.171875,0.160156,0.126953,0.426636,-0.293213,0.399292,0.756714,up
238840,-7.636719,3.207031,4.824219,-0.261719,0.175781,0.142578,0.426636,-0.293213,0.399292,0.756714,up
238845,-7.632812,3.207031,4.785156,-0.283203,0.177734,0.154297,0.426636,-0.293213,0.399292,0.756714,up
238850,-7.597656,3.167969,4.824219,-0.275391,0.191406,0.15625,0.426636,-0.293213,0.399292,0.756714,up
238855,-7.515625,3.132813,4.824219,-0.275391,0.191406,0.15625,0.426636,-0.293213,0.399292,0.756714,up
238861,-7.441406,3.132813,4.859375,-0.275391,0.191406,0.15625,0.423218,-0.295593,0.398438,0.758118,up
238866,-7.476562,3.132813,4.785156,-0.148437,0.203125,0.224609,0.423218,-0.295593,0.398438,0.758118,up
238872,-7.4375,3.132813,4.785156,-0.148437,0.203125,0.224609,0.420898,-0.296448,0.398987,0.758789,up
238877,-7.476562,3.132813,4.746094,-0.148437,0.203125,0.224609,0.420898,-0.296448,0.398987,0.758789,up
238882,-7.519531,3.09375,4.746094,0.009766,0.261719,0.330078,0.419128,-0.296753,0.400085,0.759094,up
238887,-7.519531,3.09375,4.632812,0.009766,0.261719,0.330078,0.419128,-0.296753,0.400085,0.759094,up
238892,-7.59375,3.207031,4.667969,0.009766,0.261719,0.330078,0.419128,-0.296753,0.400085,0.759094,up
238897,-7.632812,3.207031,4.667969,0.160156,0.302734,0.394531,0.419128,-0.296753,0.400085,0.759094,up
238902,-7.703125,3.359375,4.707031,0.179687,0.322266,0.408203,0.419128,-0.296753,0.400085,0.759094,up
238907,-7.707031,3.4375,4.707031,0.179687,0.322266,0.408203,0.415344,-0.296936,0.403687,0.759155,up
238912,-7.742187,3.515625,4.667969,0.179687,0.322266,0.408203,0.414368,-0.296997,0.404724,0.759155,up
238918,-7.785156,3.628906,4.746094,0.224609,0.341797,0.394531,0.412476,-0.296997,0.406921,0.758972,up
238923,-7.824219,3.742188,4.746094,0.224609,0.341797,0.394531,0.41156,-0.297058,0.407959,0.758911,up
238929,-7.824219,3.78125,4.707031,0.224609,0.341797,0.394531,0.410645,-0.297119,0.408875,0.758911,up
238935,-7.859375,3.859375,4.707031,0.076172,0.330078,0.371094,0.409607,-0.297302,0.40979,0.758911,up
238940,-7.824219,3.859375,4.667969,0.005859,0.335938,0.359375,0.409607,-0.297302,0.40979,0.758911,up
238945,-7.824219,3.78125,4.707031,-0.082031,0.333984,0.353516,0.409607,-0.297302,0.40979,0.758911,up
238950,-7.78125,3.78125,4.632812,-0.179687,0.341797,0.349609,0.406494,-0.298218,0.411316,0.759338,up
238955,-7.703125,3.78125,4.707031,-0.255859,0.347656,0.351563,0.406494,-0.298218,0.411316,0.759338,up
238960,-7.667969,3.667969,4.667969,-0.255859,0.347656,0.351563,0.406494,-0.298218,0.411316,0.759338,up
238965,-7.667969,3.628906,4.632812,-0.382813,0.371094,0.355469,0.406494,-0.298218,0.411316,0.759338,up
238971,-7.597656,3.515625,4.632812,-0.429687,0.378906,0.365234,0.406494,-0.298218,0.411316,0.759338,up
238976,-7.59375,3.476563,4.59375,-0.460937,0.408203,0.386719,0.406494,-0.298218,0.411316,0.759338,up
238981,-7.476562,3.398438,4.441406,-0.460937,0.408203,0.386719,0.406494,-0.298218,0.411316,0.759338,up
238986,-7.441406,3.398438,4.363281,-0.460937,0.408203,0.386719,0.39679,-0.303406,0.411072,0.762573,up
238991,-7.441406,3.398438,4.363281,-0.382813,0.484375,0.443359,0.39679,-0.303406,0.411072,0.762573,up
238996,-7.402344,3.4375,4.363281,-0.382813,0.484375,0.443359,0.393494,-0.305115,0.411255,0.763489,up
239001,-7.441406,3.515625,4.363281,-0.382813,0.484375,0.443359,0.391724,-0.305969,0.411621,0.763855,up
239006,-7.519531,3.550781,4.324219,-0.160156,0.611328,0.527344,0.391724,-0.305969,0.411621,0.763855,up
239011,-7.59375,3.628906,4.25,-0.09375,0.667969,0.554687,0.391724,-0.305969,0.411621,0.763855,up
239016,-7.746094,3.707031,4.25,-0.09375,0.667969,0.554687,0.391724,-0.305969,0.411621,0.763855,up
239022,-7.820312,3.820313,4.285156,-0.09375,0.667969,0.554687,0.384521,-0.309143,0.415283,0.764282,up
239027,-7.902344,3.9375,4.285156,0.148437,0.757812,0.634766,0.384521,-0.309143,0.415283,0.764282,up
239032,-8.089844,4.089844,4.515625,0.148437,0.757812,0.634766,0.380798,-0.310486,0.418091,0.764038,up
239037,-8.128906,4.128906,4.554687,0.148437,0.757812,0.634766,0.378845,-0.311157,0.419678,0.763916,up
239043,-8.203125,4.089844,4.476562,0.171875,0.771484,0.621094,0.378845,-0.311157,0.419678,0.763916,up
239048,-8.285156,4.128906,4.554687,0.171875,0.771484,0.621094,0.373169,-0.313171,0.424377,0.763245,up
239053,-8.28125,4.164062,4.554687,0.171875,0.771484,0.621094,0.37146,-0.313721,0.425781,0.763123,up
239058,-8.246094,4.203125,4.59375,0.091797,0.640625,0.568359,0.37146,-0.313721,0.425781,0.763123,up
239063,-8.164063,4.164062,4.554687,0.050781,0.599609,0.568359,0.369507,-0.314331,0.427185,0.763,up
239068,-8.128906,4.203125,4.59375,0.050781,0.599609,0.568359,0.366333,-0.315247,0.429321,0.762939,up
239073,-8.125,4.203125,4.554687,0.050781,0.599609,0.568359,0.364685,-0.315735,0.430237,0.763,up
239078,-7.941406,4.128906,4.441406,0.050781,0.599609,0.568359,0.364685,-0.315735,0.430237,0.763,up
239083,-7.859375,4.050781,4.363281,-0.082031,0.507812,0.535156,0.361328,-0.31665,0.431824,0.763367,up
239088,-7.636719,4.203125,4.210937,-0.082031,0.507812,0.535156,0.361328,-0.31665,0.431824,0.763367,up
239093,-7.636719,4.203125,4.210937,-0.162109,0.509766,0.615234,0.359619,-0.317139,0.432434,0.763611,up
239098,-7.59375,4.28125,4.171875,-0.162109,0.509766,0.615234,0.357605,-0.317627,0.433105,0.763977,up
239103,-7.554687,4.394531,4.09375,-0.162109,0.615234,0.734375,0.357605,-0.317627,0.433105,0.763977,up
239108,-7.554687,4.394531,4.09375,-0.167969,0.671875,0.785156,0.353271,-0.318665,0.434753,0.764648,up
239114,-7.707031,4.472656,3.789063,-0.171875,0.707031,0.824219,0.348267,-0.319885,0.436646,0.76532,up
239120,-7.707031,4.433594,3.941406,-0.171875,0.707031,0.824219,0.345642,-0.320435,0.437744,0.765686,up
239126,-7.703125,4.355469,3.941406,-0.171875,0.707031,0.824219,0.345642,-0.320435,0.437744,0.765686,up
239131,-7.742187,4.394531,4.019531,-0.041016,0.742187,0.875,0.345642,-0.320435,0.437744,0.765686,up
239136,-7.746094,4.355469,4.019531,0.019531,0.738281,0.869141,0.345642,-0.320435,0.437744,0.765686,up
239142,-7.785156,4.320312,4.09375,0.101563,0.738281,0.861328,0.345642,-0.320435,0.437744,0.765686,up
239147,-7.78125,4.320312,4.054687,0.179687,0.734375,0.84375,0.345642,-0.320435,0.437744,0.765686,up
239153,-7.785156,4.394531,4.054687,0.240234,0.722656,0.789062,0.345642,-0.320435,0.437744,0.765686,up
239158,-7.746094,4.355469,4.09375,0.216797,0.724609,0.753906,0.328796,-0.323364,0.447754,0.766052,up
239163,-7.820312,4.320312,4.019531,0.216797,0.724609,0.753906,0.324463,-0.324158,0.451111,0.765625,up
239168,-7.785156,4.28125,3.980469,0.216797,0.724609,0.753906,0.322632,-0.324585,0.452393,0.765442,up
239173,-7.746094,4.320312,3.902344,0.164062,0.660156,0.605469,0.322632,-0.324585,0.452393,0.765442,up
239178,-7.746094,4.320312,3.902344,0.164062,0.660156,0.605469,0.319092,-0.3255,0.455078,0.764954,up
239183,-7.664062,4.433594,3.863281,0.164062,0.660156,0.605469,0.319092,-0.3255,0.455078,0.764954,up
239188,-7.667969,4.472656,3.863281,0.146484,0.591797,0.466797,0.319092,-0.3255,0.455078,0.764954,up
239193,-7.597656,4.664062,3.710938,0.146484,0.591797,0.466797,0.314514,-0.326904,0.458618,0.764099,up
239198,-7.59375,4.664062,3.671875,0.126953,0.546875,0.408203,0.314514,-0.326904,0.458618,0.764099,up
239203,-7.59375,4.777344,3.671875,0.126953,0.546875,0.408203,0.31311,-0.327454,0.459717,0.763794,up
239208,-7.554687,4.816406,3.597656,0.105469,0.515625,0.367188,0.31311,-0.327454,0.459717,0.763794,up
239214,-7.515625,4.894531,3.558594,0.105469,0.515625,0.367188,0.309448,-0.328857,0.462402,0.763062,up
239219,-7.476562,4.894531,3.480469,0.105469,0.515625,0.367188,0.308167,-0.329407,0.463318,0.762817,up
239225,-7.515625,4.933594,3.519531,0.021484,0.511719,0.355469,0.307007,-0.329956,0.46405,0.762634,up
239230,-7.519531,4.933594,3.480469,-0.03125,0.511719,0.361328,0.305725,-0.330505,0.464722,0.762451,up
239235,-7.515625,4.933594,3.558594,-0.050781,0.496094,0.376953,0.305725,-0.330505,0.464722,0.762451,up
239240,-7.515625,4.855469,3.597656,-0.09375,0.496094,0.388672,0.305725,-0.330505,0.464722,0.762451,up
239245,-7.597656,4.855469,3.636719,-0.125,0.492187,0.404297,0.305725,-0.330505,0.464722,0.762451,up
239250,-7.632812,4.738281,3.636719,-0.125,0.492187,0.404297,0.30011,-0.332764,0.466858,0.76239,up
239256,-7.707031,4.664062,3.671875,-0.125,0.492187,0.404297,0.30011,-0.332764,0.466858,0.76239,up
239262,-7.707031,4.511719,3.75,-0.181641,0.412109,0.412109,0.30011,-0.332764,0.466858,0.76239,up
239268,-7.707031,4.355469,3.75,-0.181641,0.412109,0.412109,0.295593,-0.334229,0.467957,0.762817,up
239273,-7.554687,4.242187,3.710938,-0.101563,0.322266,0.371094,0.293457,-0.334717,0.468628,0.763062,up
239278,-7.597656,4.242187,3.75,-0.101563,0.322266,0.371094,0.293457,-0.334717,0.468628,0.763062,up
239283,-7.4375,4.128906,3.789063,-0.025391,0.21875,0.296875,0.293457,-0.334717,0.468628,0.763062,up
239288,-7.398437,4.128906,3.671875,-0.025391,0.21875,0.296875,0.291138,-0.3349,0.46991,0.763062,up
239293,-7.402344,4.164062,3.597656,-0.025391,0.21875,0.296875,0.291138,-0.3349,0.46991,0.763062,up
239298,-7.359375,4.164062,3.558594,0.273438,0.097656,0.175781,0.290649,-0.334534,0.471252,0.762573,up
239303,-7.28125,4.320312,3.597656,0.273438,0.097656,0.175781,0.290649,-0.334534,0.471252,0.762573,up
239308,-7.253906,4.394531,3.519531,0.273438,0.097656,0.175781,0.290833,-0.333801,0.473145,0.761658,up
239313,-7.253906,4.433594,3.40625,0.273438,0.097656,0.175781,0.290833,-0.333801,0.473145,0.761658,up
239318,-7.210937,4.511719,3.328125,0.509766,0.03125,0.091797,0.29126,-0.332947,0.475281,0.760498,up
239323,-7.171875,4.664062,3.328125,0.509766,0.03125,0.091797,0.29126,-0.332947,0.475281,0.760498,up
239328,-7.175781,4.703125,3.253906,0.556641,0.048828,0.070312,0.291565,-0.33252,0.476562,0.759827,up
239333,-7.171875,4.703125,3.175781,0.556641,0.048828,0.070312,0.292053,-0.331787,0.478699,0.758606,up
239338,-7.175781,4.816406,3.175781,0.556641,0.048828,0.070312,0.292053,-0.331787,0.478699,0.758606,up
239343,-7.253906,4.894531,3.175781,0.556641,0.048828,0.070312,0.292297,-0.331482,0.479858,0.757935,up
239348,-7.214844,4.894531,3.175781,0.556641,0.048828,0.070312,0.29248,-0.331177,0.480896,0.757263,up
239354,-7.285156,4.855469,3.175781,0.425781,0.105469,0.039063,0.292786,-0.330933,0.482727,0.756165,up
239360,-7.363281,4.777344,3.253906,0.425781,0.105469,0.039063,0.292908,-0.330872,0.483459,0.755676,up
239365,-7.363281,4.777344,3.253906,0.328125,0.119141,0.003906,0.29303,-0.330811,0.484192,0.755127,up
239370,-7.320312,4.777344,3.253906,0.322266,0.099609,-0.013672,0.293152,-0.330811,0.484924,0.754639,up
239375,-7.320312,4.777344,3.253906,0.322266,0.099609,-0.013672,0.293396,-0.33075,0.485596,0.754089,up
239380,-7.398437,4.855469,3.214844,0.322266,0.099609,-0.013672,0.293396,-0.33075,0.485596,0.754089,up
239385,-7.398437,4.855469,3.214844,0.382813,0.056641,-0.070312,0.293396,-0.33075,0.485596,0.754089,up
239390,-7.480469,5.007812,3.328125,0.382813,0.056641,-0.070312,0.293396,-0.33075,0.485596,0.754089,up
239396,-7.597656,5.238281,3.328125,0.382813,0.056641,-0.070312,0.293396,-0.33075,0.485596,0.754089,up
239402,-7.632812,5.316406,3.328125,0.439453,0.007813,-0.117188,0.293396,-0.33075,0.485596,0.754089,up
239407,-7.667969,5.429687,3.289063,0.429687,-0.011719,-0.123047,0.293396,-0.33075,0.485596,0.754089,up
239412,-7.664062,5.46875,3.289063,0.40625,-0.035156,-0.128906,0.293396,-0.33075,0.485596,0.754089,up
239417,-7.703125,5.542969,3.289063,0.40625,-0.035156,-0.128906,0.293396,-0.33075,0.485596,0.754089,up
239422,-7.742187,5.621094,3.328125,0.40625,-0.035156,-0.128906,0.297852,-0.32959,0.491577,0.748962,up
239427,-7.746094,5.582031,3.253906,0.240234,-0.058594,-0.130859,0.297852,-0.32959,0.491577,0.748962,up
239433,-7.859375,5.582031,3.367188,0.240234,-0.058594,-0.130859,0.299316,-0.329285,0.492187,0.748108,up
239438,-7.859375,5.582031,3.367188,0.240234,-0.058594,-0.130859,0.299316,-0.329285,0.492187,0.748108,up
239443,-7.902344,5.542969,3.480469,-0.066406,-0.089844,-0.160156,0.299316,-0.329285,0.492187,0.748108,up
239448,-7.941406,5.542969,3.519531,-0.066406,-0.089844,-0.160156,0.30011,-0.329346,0.491882,0.747986,up
239454,-8.089844,5.429687,3.671875,-0.066406,-0.089844,-0.160156,0.300842,-0.329651,0.490906,0.74823,up
239459,-8.125,5.351562,3.671875,-0.066406,-0.089844,-0.160156,0.30127,-0.329895,0.490295,0.748352,up
239464,-8.285156,5.238281,3.828125,-0.066406,-0.089844,-0.160156,0.301758,-0.330139,0.489563,0.748474,up
239469,-8.363281,5.238281,3.902344,-0.066406,-0.089844,-0.160156,0.302429,-0.330444,0.488892,0.748596,up
239474,-8.441406,5.199219,3.828125,-0.167969,-0.210937,-0.462891,0.302429,-0.330444,0.488892,0.748596,up
239479,-8.4375,5.160156,3.789063,-0.136719,-0.291016,-0.542969,0.303345,-0.33075,0.487976,0.748657,up
239484,-8.472656,5.277344,3.828125,-0.136719,-0.291016,-0.542969,0.305847,-0.331177,0.486084,0.748657,up
239489,-8.546875,5.46875,3.902344,-0.136719,-0.291016,-0.542969,0.307495,-0.331177,0.485168,0.748596,up
239494,-8.546875,5.542969,4.019531,-0.021484,-0.601562,-0.707031,0.307495,-0.331177,0.485168,0.748596,up
239499,-8.585938,5.660156,4.054687,-0.001953,-0.669922,-0.738281,0.30957,-0.330933,0.484009,0.748596,up
239504,-8.707031,5.8125,4.09375,-0.001953,-0.669922,-0.738281,0.313721,-0.330322,0.48175,0.748596,up
239509,-8.703125,6.082031,4.054687,-0.09375,-0.773437,-0.746094,0.313721,-0.330322,0.48175,0.748596,up
239514,-8.707031,6.195312,4.09375,-0.177734,-0.818359,-0.736328,0.316101,-0.329834,0.480347,0.748718,up
239519,-8.664063,6.347656,4.054687,-0.177734,-0.818359,-0.736328,0.320618,-0.328796,0.477051,0.749329,up
239524,-8.589844,6.234375,4.054687,-0.177734,-0.818359,-0.736328,0.322449,-0.328369,0.47522,0.749878,up
239529,-8.507813,6.234375,4.019531,-0.177734,-0.818359,-0.736328,0.322449,-0.328369,0.47522,0.749878,up
239534,-8.472656,6.195312,4.019531,-0.636719,-0.912109,-0.642578,0.326111,-0.327454,0.470215,0.751892,up
239539,-8.363281,5.925781,4.054687,-0.636719,-0.912109,-0.642578,0.327515,-0.327148,0.467407,0.753174,up
239544,-8.324219,5.773437,4.019531,-1.033203,-0.878906,-0.507812,0.327515,-0.327148,0.467407,0.753174,up
239549,-8.285156,5.507812,4.019531,-1.033203,-0.878906,-0.507812,0.329834,-0.326721,0.461304,0.756104,up
239554,-8.125,5.277344,3.941406,-1.033203,-0.878906,-0.507812,0.33075,-0.326599,0.45813,0.75769,up
239559,-8.019531,4.96875,3.902344,-1.033203,-0.878906,-0.507812,0.331543,-0.326538,0.454834,0.759338,up
239564,-7.976562,4.777344,3.941406,-1.191406,-0.8125,-0.423828,0.331543,-0.326538,0.454834,0.759338,up
239569,-7.824219,4.546875,3.980469,-1.191406,-0.8125,-0.423828,0.333069,-0.326355,0.448303,0.762634,up
239574,-7.664062,4.128906,3.980469,-1.001953,-0.744141,-0.417969,0.333069,-0.326355,0.448303,0.762634,up
239579,-7.664062,4.128906,3.980469,-1.001953,-0.744141,-0.417969,0.334717,-0.326111,0.442505,0.765381,up
239584,-7.664062,3.9375,4.054687,-1.001953,-0.744141,-0.417969,0.334717,-0.326111,0.442505,0.765381,up
239589,-7.707031,3.898438,3.980469,-0.4375,-0.71875,-0.412109,0.334717,-0.326111,0.442505,0.765381,up
239594,-7.597656,3.972656,3.980469,-0.269531,-0.699219,-0.427734,0.336853,-0.325317,0.438171,0.767273,up
239599,-7.597656,4.050781,4.019531,-0.269531,-0.699219,-0.427734,0.338196,-0.324707,0.436523,0.767883,up
239604,-7.597656,4.089844,3.980469,-0.035156,-0.683594,-0.457031,0.339722,-0.323975,0.435059,0.768372,up
239609,-7.515625,4.164062,3.902344,-0.035156,-0.683594,-0.457031,0.342773,-0.322449,0.433044,0.768738,up
239614,-7.558594,4.242187,3.941406,-0.035156,-0.683594,-0.457031,0.344482,-0.321533,0.432251,0.76886,up
239619,-7.558594,4.320312,4.019531,-0.035156,-0.683594,-0.457031,0.344482,-0.321533,0.432251,0.76886,up
239624,-7.480469,4.355469,3.941406,0.048828,-0.654297,-0.455078,0.344482,-0.321533,0.432251,0.76886,up
239629,-7.476562,4.394531,3.941406,0.048828,-0.654297,-0.455078,0.349365,-0.319031,0.429749,0.769043,up
239634,-7.4375,4.355469,4.019531,0.048828,-0.654297,-0.455078,0.349365,-0.319031,0.429749,0.769043,up
239639,-7.402344,4.320312,4.019531,0.048828,-0.654297,-0.455078,0.352356,-0.317627,0.427307,0.769653,up
239644,-7.324219,4.128906,4.054687,0.048828,-0.654297,-0.455078,0.352356,-0.317627,0.427307,0.769653,up
239649,-7.28125,4.050781,4.019531,0.048828,-0.654297,-0.455078,0.353577,-0.317139,0.425903,0.770081,up
239654,-7.28125,4.050781,4.019531,-0.457031,-0.597656,-0.404297,0.354614,-0.316772,0.424377,0.770569,up
239660,-7.214844,3.972656,3.980469,-0.511719,-0.589844,-0.402344,0.354614,-0.316772,0.424377,0.770569,up
239665,-7.136719,3.628906,3.980469,-0.533203,-0.580078,-0.404297,0.356628,-0.316284,0.420715,0.771912,up
239670,-7.136719,3.628906,3.980469,-0.533203,-0.580078,-0.404297,0.356628,-0.316284,0.420715,0.771912,up
239675,-7.136719,3.628906,3.980469,-0.535156,-0.576172,-0.404297,0.359558,-0.315613,0.415161,0.773804,up
239680,-7.132812,3.476563,4.09375,-0.535156,-0.576172,-0.404297,0.360535,-0.315369,0.413452,0.774353,up
239686,-7.253906,3.398438,4.132812,-0.535156,-0.576172,-0.404297,0.361633,-0.315125,0.411804,0.774841,up
239691,-7.320312,3.359375,4.171875,-0.337891,-0.568359,-0.443359,0.362793,-0.314758,0.410278,0.775208,up
239697,-7.359375,3.359375,4.25,-0.285156,-0.597656,-0.451172,0.362793,-0.314758,0.410278,0.775208,up
239702,-7.363281,3.246094,4.132812,-0.230469,-0.625,-0.462891,0.362793,-0.314758,0.410278,0.775208,up
239708,-7.285156,3.167969,4.09375,-0.222656,-0.646484,-0.498047,0.362793,-0.314758,0.410278,0.775208,up
239713,-7.210937,3.132813,4.09375,-0.207031,-0.683594,-0.505859,0.362793,-0.314758,0.410278,0.775208,up
239719,-7.054687,3.054688,4.25,-0.222656,-0.728516,-0.515625,0.362793,-0.314758,0.410278,0.775208,up
239724,-6.9375,2.976563,4.210937,-0.222656,-0.728516,-0.515625,0.371399,-0.311401,0.401428,0.777161,up
239729,-6.859375,2.941406,4.210937,-0.222656,-0.728516,-0.515625,0.373108,-0.310608,0.39978,0.777466,up
239734,-6.832031,2.824219,4.210937,-0.267578,-0.765625,-0.544922,0.376404,-0.309204,0.396423,0.778198,up
239739,-6.710937,2.824219,4.171875,-0.267578,-0.765625,-0.544922,0.377869,-0.308655,0.394836,0.778503,up
239744,-6.714844,2.941406,4.132812,-0.267578,-0.765625,-0.544922,0.377869,-0.308655,0.394836,0.778503,up
239749,-6.710937,2.902344,4.09375,-0.310547,-0.695312,-0.570312,0.377869,-0.308655,0.394836,0.778503,up
239754,-6.792969,2.976563,4.054687,-0.314453,-0.664062,-0.587891,0.382568,-0.307251,0.389709,0.779358,up
239759,-6.832031,3.132813,4.171875,-0.314453,-0.664062,-0.587891,0.382568,-0.307251,0.389709,0.779358,up
239764,-6.863281,3.132813,4.210937,-0.421875,-0.626953,-0.6875,0.384277,-0.306885,0.387695,0.779602,up
239769,-6.9375,3.167969,4.210937,-0.421875,-0.626953,-0.6875,0.385925,-0.306641,0.385803,0.779846,up
239774,-6.976562,3.207031,4.210937,-0.421875,-0.626953,-0.6875,0.387451,-0.30658,0.38385,0.78009,up
239779,-7.015625,3.132813,4.171875,-0.421875,-0.626953,-0.6875,0.389038,-0.306641,0.381836,0.780273,up
239784,-7.058594,3.09375,4.210937,-0.421875,-0.626953,-0.6875,0.390808,-0.306885,0.379456,0.780457,up
239790,-7.054687,3.015625,4.25,-0.767578,-0.490234,-0.816406,0.390808,-0.306885,0.379456,0.780457,up
239795,-6.980469,2.941406,4.476562,-0.767578,-0.490234,-0.816406,0.395203,-0.308289,0.372131,0.781189,up
239800,-7.058594,2.863281,4.476562,-0.908203,-0.441406,-0.78125,0.396667,-0.309082,0.369141,0.781616,up
239805,-7.054687,2.785156,4.554687,-0.908203,-0.441406,-0.78125,0.397888,-0.309937,0.366089,0.782043,up
239810,-7.054687,2.671875,4.59375,-0.986328,-0.375,-0.71875,0.398865,-0.31073,0.363464,0.782471,up
239816,-6.9375,2.171875,4.554687,-0.986328,-0.375,-0.71875,0.399719,-0.311584,0.360779,0.782898,up
239821,-6.902344,2.058594,4.632812,-0.876953,-0.339844,-0.644531,0.399719,-0.311584,0.360779,0.782898,up
239826,-6.902344,2.019531,4.667969,-0.765625,-0.341797,-0.59375,0.399719,-0.311584,0.360779,0.782898,up
239832,-6.9375,2.058594,4.707031,-0.765625,-0.341797,-0.59375,0.402405,-0.313721,0.353455,0.783997,up
239838,-6.898437,2.136719,4.707031,-0.451172,-0.333984,-0.535156,0.402405,-0.313721,0.353455,0.783997,up
239844,-6.898437,2.171875,4.707031,-0.113281,-0.298828,-0.529297,0.402405,-0.313721,0.353455,0.783997,up
239849,-6.902344,2.363281,4.707031,-0.113281,-0.298828,-0.529297,0.405579,-0.314331,0.34906,0.784119,up
239854,-6.898437,2.441406,4.632812,0.029297,-0.287109,-0.53125,0.405579,-0.314331,0.34906,0.784119,up
239860,-6.863281,2.59375,4.632812,0.128906,-0.273438,-0.533203,0.409729,-0.313843,0.347229,0.782959,up
239865,-6.832031,2.824219,4.59375,0.128906,-0.273438,-0.533203,0.411011,-0.313721,0.346924,0.782471,up
239870,-6.898437,2.941406,4.59375,0.128906,-0.273438,-0.533203,0.411011,-0.313721,0.346924,0.782471,up
239875,-6.898437,2.941406,4.59375,0.138672,-0.171875,-0.521484,0.412292,-0.31366,0.346619,0.781982,up
239880,-6.980469,3.015625,4.632812,0.050781,-0.125,-0.511719,0.412292,-0.31366,0.346619,0.781982,up
239885,-7.175781,3.132813,4.707031,-0.072266,-0.060547,-0.511719,0.412292,-0.31366,0.346619,0.781982,up
239890,-7.175781,3.132813,4.707031,-0.238281,-0.017578,-0.523437,0.415527,-0.314514,0.344971,0.78064,up
239897,-7.632812,2.902344,5.207031,-0.238281,-0.017578,-0.523437,0.416809,-0.316528,0.342346,0.780334,up
239903,-7.863281,2.554688,5.242187,-0.238281,-0.017578,-0.523437,0.417236,-0.318115,0.340332,0.780334,up
239908,-7.980469,2.480469,5.472656,-0.970703,0.128906,-0.585937,0.417236,-0.318115,0.340332,0.780334,up
239913,-7.976562,2.289063,5.628906,-1.041016,0.099609,-0.589844,0.417236,-0.318115,0.340332,0.780334,up
239918,-7.9375,2.171875,5.742187,-1.041016,0.099609,-0.589844,0.417969,-0.323364,0.333435,0.780701,up
239923,-7.980469,2.058594,5.894531,-1.041016,0.099609,-0.589844,0.417969,-0.323364,0.333435,0.780701,up
239928,-7.976562,1.980469,5.894531,-1.041016,0.099609,-0.589844,0.418579,-0.326599,0.328552,0.781128,up
239933,-7.976562,1.980469,5.933594,-0.894531,-0.03125,-0.599609,0.418579,-0.326599,0.328552,0.781128,up
239938,-8.050781,2.019531,5.972656,-0.894531,-0.03125,-0.599609,0.419556,-0.329346,0.323975,0.781372,up
239943,-8.207031,2.210938,6.203125,-0.894531,-0.03125,-0.599609,0.419556,-0.329346,0.323975,0.781372,up
239949,-8.207031,2.328125,6.277344,-0.894531,-0.03125,-0.599609,0.421143,-0.331177,0.32019,0.781311,up
239955,-8.203125,2.480469,6.238281,-0.455078,-0.238281,-0.585937,0.421143,-0.331177,0.32019,0.781311,up
239960,-8.128906,2.402344,6.238281,-0.455078,-0.238281,-0.585937,0.424072,-0.332458,0.315063,0.78125,up
239965,-8.164063,2.480469,6.238281,-0.513672,-0.417969,-0.548828,0.424072,-0.332458,0.315063,0.78125,up
239970,-8.167969,2.441406,6.316406,-0.513672,-0.417969,-0.548828,0.42511,-0.332703,0.313171,0.781372,up
239975,-8.089844,2.328125,6.394531,-0.667969,-0.535156,-0.449219,0.42511,-0.332703,0.313171,0.781372,up
239980,-7.824219,2.210938,6.394531,-0.667969,-0.535156,-0.449219,0.42749,-0.332825,0.306641,0.782593,up
239985,-7.78125,2.097656,6.316406,-0.667969,-0.535156,-0.449219,0.427917,-0.332886,0.304199,0.783264,up
239991,-7.664062,1.980469,6.316406,-0.902344,-0.539062,-0.259766,0.428162,-0.332947,0.301758,0.784058,up
239996,-7.554687,1.597656,6.316406,-0.902344,-0.539062,-0.259766,0.428284,-0.333069,0.299255,0.784912,up
240002,-7.476562,1.40625,6.355469,-0.902344,-0.539062,-0.259766,0.428284,-0.333191,0.296814,0.785767,up
240007,-7.558594,1.367188,6.355469,-0.798828,-0.460937,-0.179687,0.428284,-0.333191,0.296814,0.785767,up
240012,-7.597656,1.101563,6.316406,-0.798828,-0.460937,-0.179687,0.428406,-0.333374,0.292358,0.787292,up
240018,-7.667969,1.332031,6.277344,-0.535156,-0.361328,-0.248047,0.428406,-0.333374,0.292358,0.787292,up
240024,-7.824219,1.5625,6.316406,-0.226562,-0.423828,-0.367188,0.428406,-0.333374,0.292358,0.787292,up
240029,-7.859375,2.058594,6.585937,-0.226562,-0.423828,-0.367188,0.429749,-0.333252,0.28772,0.78833,up
240034,-7.820312,2.171875,6.625,-0.107422,-0.517578,-0.435547,0.429749,-0.333252,0.28772,0.78833,up
240039,-7.78125,2.289063,6.46875,-0.046875,-0.5625,-0.501953,0.429749,-0.333252,0.28772,0.78833,up
240044,-7.664062,2.632813,6.238281,-0.046875,-0.5625,-0.501953,0.433533,-0.331421,0.284119,0.788391,up
240049,-7.59375,2.671875,6.203125,-0.046875,-0.5625,-0.501953,0.434998,-0.330688,0.282715,0.78833,up
240054,-7.515625,2.75,6.164062,-0.046875,-0.5625,-0.501953,0.436462,-0.330078,0.281006,0.788391,up
240059,-7.4375,2.671875,6.085937,-0.576172,-0.658203,-0.583984,0.436462,-0.330078,0.281006,0.788391,up
240064,-7.214844,2.480469,6.046875,-0.576172,-0.658203,-0.583984,0.43866,-0.32959,0.276367,0.789062,up
240069,-7.132812,2.25,6.011719,-0.576172,-0.658203,-0.583984,0.43927,-0.329834,0.273376,0.789612,up
240074,-6.976562,2.019531,5.972656,-1.435547,-0.574219,-0.498047,0.43927,-0.329834,0.273376,0.789612,up
240079,-6.898437,1.484375,5.933594,-1.435547,-0.574219,-0.498047,0.439697,-0.331421,0.265442,0.791443,up
240084,-6.902344,1.101563,5.933594,-1.435547,-0.574219,-0.498047,0.439392,-0.332703,0.261047,0.79248,up
240090,-6.9375,0.871094,5.933594,-1.894531,-0.357422,-0.425781,0.439392,-0.332703,0.261047,0.79248,up
240095,-6.9375,0.871094,5.933594,-1.894531,-0.357422,-0.425781,0.438477,-0.335754,0.252197,0.794617,up
240100,-7.019531,0.640625,6.355469,-1.857422,-0.330078,-0.470703,0.438049,-0.337402,0.247803,0.795532,up
240105,-7.019531,0.640625,6.355469,-1.753906,-0.296875,-0.53125,0.437683,-0.339111,0.243286,0.796387,up
240111,-6.976562,0.640625,6.429687,-1.753906,-0.296875,-0.53125,0.437561,-0.340698,0.239258,0.796997,up
240117,-7.09375,0.488281,6.46875,-1.421875,-0.203125,-0.677734,0.43811,-0.343811,0.231873,0.797607,up
240123,-7.519531,0.335938,6.851562,-1.421875,-0.203125,-0.677734,0.438782,-0.345093,0.228638,0.797607,up
240128,-7.558594,0.410156,6.96875,-0.9375,-0.308594,-0.863281,0.438782,-0.345093,0.228638,0.797607,up
240134,-7.476562,0.527344,7.160156,-0.925781,-0.402344,-0.902344,0.438782,-0.345093,0.228638,0.797607,up
240139,-7.636719,0.640625,7.351562,-0.925781,-0.402344,-0.902344,0.438782,-0.345093,0.228638,0.797607,up
240145,-7.554687,0.679687,7.503906,-1.392578,-0.585937,-0.945312,0.438782,-0.345093,0.228638,0.797607,up
240151,-7.363281,0.679687,7.539062,-1.392578,-0.585937,-0.945312,0.445435,-0.349976,0.207581,0.797485,up
240156,-7.214844,0.449219,7.042969,-1.503906,-0.585937,-0.824219,0.446167,-0.350952,0.203308,0.797791,up
240162,-7.175781,0.527344,7.042969,-1.503906,-0.585937,-0.824219,0.446716,-0.351929,0.198425,0.798279,up
240167,-7.09375,0.066406,7.15625,-1.644531,-0.601562,-0.609375,0.446899,-0.352844,0.19397,0.798889,up
240173,-7.25,-0.585937,7.082031,-1.667969,-0.560547,-0.498047,0.446899,-0.352844,0.19397,0.798889,up
240179,-7.320312,-0.660156,6.96875,-1.585938,-0.498047,-0.443359,0.446899,-0.352844,0.19397,0.798889,up
240185,-7.476562,-0.851562,7.082031,-1.269531,-0.509766,-0.443359,0.446899,-0.352844,0.19397,0.798889,up
240190,-7.515625,-0.851562,7.199219,-1.269531,-0.509766,-0.443359,0.446228,-0.356262,0.177979,0.801453,up
240195,-7.558594,-0.621094,7.121094,-1.060547,-0.519531,-0.503906,0.446838,-0.356995,0.17157,0.802124,up
240200,-7.667969,-0.507812,7.121094,-1.060547,-0.519531,-0.503906,0.446838,-0.356995,0.17157,0.802124,up
240205,-7.742187,-0.355469,7.042969,-0.640625,-0.539062,-0.666016,0.448669,-0.356934,0.166321,0.802246,up
240210,-7.597656,0.027344,7.199219,-0.640625,-0.539062,-0.666016,0.448669,-0.356934,0.166321,0.802246,up
240216,-7.597656,0.066406,7.042969,-0.847656,-0.601562,-0.875,0.448669,-0.356934,0.166321,0.802246,up
240221,-7.515625,0.144531,6.929687,-0.847656,-0.601562,-0.875,0.452393,-0.357178,0.156799,0.802002,up
240226,-7.210937,0.144531,6.777344,-0.847656,-0.601562,-0.875,0.453552,-0.357483,0.153015,0.801941,up
240231,-7.132812,0.144531,6.660156,-0.847656,-0.601562,-0.875,0.454407,-0.358032,0.149231,0.801941,up
240236,-7.132812,0.144531,6.660156,-0.847656,-0.601562,-0.875,0.454407,-0.358032,0.149231,0.801941,up
240241,-7.097656,-0.085937,6.546875,-1.539063,-0.560547,-0.888672,0.454407,-0.358032,0.149231,0.801941,up
240246,-7.019531,-0.8125,6.507812,-1.689453,-0.535156,-0.853516,0.455627,-0.359863,0.140259,0.802002,up
240251,-7.019531,-0.8125,6.507812,-1.689453,-0.535156,-0.853516,0.455627,-0.359863,0.140259,0.802002,up
240256,-7.019531,-1.082031,6.507812,-1.746094,-0.429687,-0.796875,0.456299,-0.36377,0.125793,0.802246,up
240262,-6.859375,-1.3125,6.429687,-1.746094,-0.429687,-0.796875,0.456543,-0.365295,0.120605,0.802185,up
240268,-6.710937,-1.160156,6.238281,-1.746094,-0.429687,-0.796875,0.456848,-0.366455,0.117004,0.802063,up
240273,-6.632812,-1.042969,6.238281,-1.347656,-0.269531,-0.818359,0.457275,-0.367798,0.112976,0.801758,up
240279,-6.710937,-1.007813,6.238281,-1.181641,-0.216797,-0.798828,0.457275,-0.367798,0.112976,0.801758,up
240285,-6.789062,-1.082031,6.277344,-1.054688,-0.140625,-0.769531,0.458984,-0.371216,0.103333,0.800537,up
240290,-6.859375,-1.042969,6.316406,-1.054688,-0.140625,-0.769531,0.458984,-0.371216,0.103333,0.800537,up
240295,-6.832031,-1.234375,6.394531,-1.048828,-0.048828,-0.728516,0.458984,-0.371216,0.103333,0.800537,up
240300,-7.015625,-1.199219,6.394531,-1.150391,0.027344,-0.744141,0.458984,-0.371216,0.103333,0.800537,up
240305,-6.941406,-1.351563,6.429687,-1.150391,0.027344,-0.744141,0.460449,-0.375366,0.094666,0.798828,up
240310,-6.859375,-1.542969,6.429687,-1.248047,0.056641,-0.75,0.460449,-0.375366,0.094666,0.798828,up
240316,-7.015625,-1.734375,6.394531,-1.375,0.132812,-0.751953,0.460449,-0.375366,0.094666,0.798828,up
240322,-7.136719,-1.734375,6.738281,-1.375,0.132812,-0.751953,0.461304,-0.38324,0.081665,0.796021,up
240327,-7.171875,-2.269531,6.851562,-1.359375,0.246094,-0.794922,0.461304,-0.38324,0.081665,0.796021,up
240333,-6.828125,-2.539063,6.890625,-1.355469,0.246094,-0.775391,0.461304,-0.38324,0.081665,0.796021,up
240338,-7.324219,-2.460938,7.351562,-1.355469,0.246094,-0.775391,0.461792,-0.389893,0.072083,0.793457,up
240343,-7.171875,-2.539063,7.3125,-1.183594,0.283203,-0.625,0.461792,-0.389893,0.072083,0.793457,up
240348,-7.175781,-2.347656,7.160156,-0.892578,0.269531,-0.541016,0.461792,-0.389893,0.072083,0.793457,up
240353,-7.175781,-2.347656,7.160156,-0.732422,0.175781,-0.396484,0.461975,-0.395325,0.065063,0.79126,up
240358,-7.324219,-2.117188,7.582031,-0.732422,0.175781,-0.396484,0.461975,-0.395325,0.065063,0.79126,up
240364,-7.285156,-1.964844,7.660156,-0.177734,0.046875,-0.134766,0.462097,-0.396912,0.062988,0.790588,up
240369,-7.285156,-1.964844,7.660156,-0.177734,0.046875,-0.134766,0.462097,-0.396912,0.062988,0.790588,up
240374,-7.363281,-1.464844,7.738281,-0.011719,-0.03125,0.013672,0.461975,-0.396851,0.062866,0.790649,up
240379,-7.324219,-1.273438,7.660156,-0.011719,-0.03125,0.013672,0.461792,-0.396362,0.063232,0.790955,up
240385,-7.210937,-1.121094,7.695312,0.216797,-0.189453,0.408203,0.461792,-0.396362,0.063232,0.790955,up
240390,-7.132812,-0.699219,7.617187,0.216797,-0.189453,0.408203,0.460999,-0.395081,0.064392,0.791992,up
240395,-7.09375,-0.660156,7.582031,0.164062,-0.152344,0.472656,0.460999,-0.395081,0.064392,0.791992,up
240400,-7.019531,-0.738281,7.351562,0.164062,-0.152344,0.472656,0.459473,-0.393982,0.065674,0.793335,up
240405,-7.171875,-0.929687,7.277344,0.164062,-0.152344,0.472656,0.458252,-0.393738,0.066406,0.794067,up
240410,-7.28125,-1.121094,7.199219,0.164062,-0.152344,0.472656,0.456909,-0.393677,0.0672,0.7948,up
240416,-7.320312,-1.3125,7.082031,0.164062,-0.152344,0.472656,0.453796,-0.393677,0.069336,0.796448,up
240421,-7.4375,-1.464844,7.160156,0.25,0.205078,1.044922,0.453796,-0.393677,0.069336,0.796448,up
240426,-7.664062,-1.425781,7.160156,0.25,0.205078,1.044922,0.451721,-0.393616,0.071106,0.797424,up
240431,-7.664062,-1.425781,7.042969,0.25,0.205078,1.044922,0.447937,-0.393555,0.075195,0.799255,up
240436,-7.707031,-1.390625,6.890625,0.5625,0.412109,1.291016,0.447937,-0.393555,0.075195,0.799255,up
240441,-7.824219,-1.390625,6.851562,0.5625,0.412109,1.291016,0.445801,-0.393494,0.078003,0.800232,up
240446,-7.820312,-1.425781,6.890625,0.755859,0.517578,1.433594,0.445801,-0.393494,0.078003,0.800232,up
240451,-7.863281,-1.464844,7.007812,0.755859,0.517578,1.433594,0.439087,-0.39325,0.088013,0.802979,up
240456,-7.863281,-1.542969,7.007812,0.755859,0.517578,1.433594,0.436951,-0.393188,0.091675,0.803772,up
240461,-8.015625,-1.964844,7.082031,0.755859,0.517578,1.433594,0.434387,-0.393188,0.096436,0.804626,up
240466,-8.085938,-2.230469,7.160156,0.755859,0.517578,1.433594,0.432251,-0.39325,0.100647,0.805237,up
240471,-8.015625,-2.230469,7.160156,0.755859,0.517578,1.433594,0.432251,-0.39325,0.100647,0.805237,up
240476,-7.980469,-2.308594,7.3125,1.345703,1.011719,1.482422,0.427979,-0.393494,0.110718,0.80603,up
240481,-8.128906,-2.117188,7.503906,1.345703,1.011719,1.482422,0.427979,-0.393494,0.110718,0.80603,up
240486,-8.125,-1.964844,7.503906,1.603516,1.208984,1.361328,0.426086,-0.393738,0.116272,0.806152,up
240491,-8.246094,-1.808594,7.464844,1.603516,1.208984,1.361328,0.423096,-0.394287,0.127869,0.805725,up
240496,-8.46875,-1.082031,7.542969,1.603516,1.208984,1.361328,0.423096,-0.394287,0.127869,0.805725,up
240501,-8.441406,-0.851562,7.695312,1.603516,1.208984,1.361328,0.420654,-0.394592,0.141113,0.804626,up
240506,-8.589844,-0.546875,7.695312,2.136719,1.400391,1.310547,0.420654,-0.394592,0.141113,0.804626,up
240511,-8.667969,-0.316406,7.695312,2.136719,1.400391,1.310547,0.418518,-0.394714,0.155273,0.803101,up
240516,-8.667969,-0.316406,7.695312,2.136719,1.400391,1.310547,0.418518,-0.394714,0.155273,0.803101,up
240521,-8.703125,0.257813,7.695312,2.136719,1.400391,1.310547,0.418518,-0.394714,0.155273,0.803101,up
240526,-8.707031,0.410156,7.617187,2.144531,1.5,1.382813,0.418518,-0.394714,0.155273,0.803101,up
240531,-8.707031,0.410156,7.617187,2.054688,1.619141,1.564453,0.414246,-0.395508,0.177124,0.800354,up
240537,-8.707031,0.410156,7.617187,1.996094,1.693359,1.757813,0.410095,-0.396423,0.191711,0.798645,up
240542,-9.089844,0.566406,7.3125,2.009766,1.722656,1.863281,0.407288,-0.396973,0.200317,0.797729,up
240547,-9.164063,0.679687,7.273437,2.064453,1.757813,1.96875,0.404541,-0.3974,0.208252,0.796875,up
240553,-9.207031,0.71875,7.234375,2.064453,1.757813,1.96875,0.4021,-0.397705,0.214966,0.796204,up
240558,-9.660156,1.101563,7.007812,2.064453,1.757813,1.96875,0.398865,-0.398071,0.22345,0.795288,up
240563,-9.890625,1.140625,7.042969,2.277344,1.894531,2.314453,0.398865,-0.398071,0.22345,0.795288,up
240569,-10.039063,1.140625,7.082031,2.414063,1.873047,2.417969,0.398865,-0.398071,0.22345,0.795288,up
240574,-10.351563,1.101563,7.082031,2.414063,1.873047,2.417969,0.388489,-0.398132,0.25,0.79248,up
240580,-10.460938,1.140625,7.007812,2.613281,1.857422,2.539063,0.388489,-0.398132,0.25,0.79248,up
240585,-10.699219,1.101563,6.929687,2.677734,1.84375,2.570313,0.388489,-0.398132,0.25,0.79248,up
240590,-11.082031,1.332031,6.777344,2.71875,1.802734,2.587891,0.388489,-0.398132,0.25,0.79248,up
240595,-11.082031,1.332031,6.777344,2.742188,1.75,2.558594,0.373962,-0.395569,0.288086,0.787842,up
240600,-11.160156,1.445313,6.738281,2.75,1.689453,2.529297,0.3703,-0.394531,0.297852,0.786438,up
240606,-11.160156,1.445313,6.738281,2.697266,1.669922,2.470703,0.366821,-0.393433,0.307129,0.785095,up
240611,-10.960938,1.789063,6.585937,2.705078,1.693359,2.416016,0.366821,-0.393433,0.307129,0.785095,up
240616,-10.960938,1.789063,6.585937,2.679688,1.773438,2.402344,0.359863,-0.391357,0.325684,0.78186,up
240621,-10.277344,3.09375,4.976562,2.685547,1.876953,2.445313,0.352295,-0.389771,0.344543,0.778015,up
240626,-10.082031,4.472656,4.25,2.685547,1.876953,2.445313,0.352295,-0.389771,0.344543,0.778015,up
240631,-10.238281,4.96875,4.171875,2.685547,1.876953,2.445313,0.34314,-0.388855,0.364624,0.773376,up
240636,-10.539063,5.125,4.25,2.685547,1.876953,2.445313,0.34314,-0.388855,0.364624,0.773376,up
240641,-10.960938,5.125,4.363281,2.773438,2.640625,3.050781,0.331848,-0.38855,0.385498,0.768311,up
240647,-11.691406,5.160156,4.324219,2.773438,2.640625,3.050781,0.325623,-0.388489,0.395996,0.765686,up
240652,-12.347656,5.351562,4.441406,2.773438,2.640625,3.050781,0.318848,-0.388367,0.406555,0.763062,up
240657,-12.347656,5.351562,4.441406,2.365234,2.603516,3.308594,0.311462,-0.388062,0.417542,0.760315,up
240662,-12.386719,5.390625,4.476562,2.365234,2.603516,3.308594,0.304871,-0.387573,0.426941,0.757996,up
240667,-12.574219,5.46875,4.441406,2.365234,2.603516,3.308594,0.298889,-0.386902,0.435303,0.755981,up
240672,-12.492188,5.699219,4.363281,2.019531,2.054688,3.132813,0.292175,-0.385864,0.444397,0.753784,up
240677,-12.492188,5.699219,4.363281,1.892578,1.839844,3.101563,0.286499,-0.384766,0.451843,0.752136,up
240682,-12.109375,6.730469,4.054687,1.892578,1.839844,3.101563,0.286499,-0.384766,0.451843,0.752136,up
240687,-12.109375,6.730469,4.054687,1.771484,1.615234,3.097656,0.280273,-0.383118,0.459656,0.750549,up
240692,-11.648438,7.152344,3.75,1.771484,1.615234,3.097656,0.274414,-0.381226,0.466736,0.749329,up
240697,-11.648438,7.152344,3.75,1.142578,1.298828,3.306641,0.261658,-0.376892,0.479797,0.747864,up
240703,-10.539063,6.960937,2.5625,1.142578,1.298828,3.306641,0.254822,-0.374573,0.485718,0.747559,up
240708,-10.234375,6.808594,2.332031,0.753906,1.34375,3.576172,0.247253,-0.372192,0.491577,0.747498,up
240713,-10.039063,6.65625,1.988281,0.650391,1.431641,3.71875,0.239441,-0.369873,0.49707,0.747559,up
240720,-9.773438,6.617187,1.414063,0.650391,1.431641,3.71875,0.231201,-0.367554,0.502625,0.747559,up
240726,-9.855469,6.886719,1.222656,0.775391,1.671875,4.009766,0.231201,-0.367554,0.502625,0.747559,up
240731,-10.007813,6.960937,1.261719,0.75,1.923828,4.296875,0.231201,-0.367554,0.502625,0.747559,up
240736,-10.039063,7.039062,1.144531,0.75,1.923828,4.296875,0.203613,-0.360291,0.520874,0.746643,up
240741,-10.238281,7.113281,1.105469,0.833984,2.068359,4.427734,0.193298,-0.357849,0.527405,0.745911,up
240746,-10.238281,7.113281,1.105469,0.833984,2.068359,4.427734,0.193298,-0.357849,0.527405,0.745911,up
240751,-10.617188,7.152344,1.144531,1.267578,2.238281,4.59375,0.193298,-0.357849,0.527405,0.745911,up
240756,-10.738281,6.886719,1.144531,1.455078,2.246094,4.587891,0.162109,-0.350159,0.548889,0.741516,up
240761,-10.15625,6.921875,1.261719,1.455078,2.246094,4.587891,0.152039,-0.347351,0.556458,0.739319,up
240766,-9.933594,7.34375,1.296875,1.455078,2.246094,4.587891,0.142456,-0.344238,0.564148,0.736816,up
240771,-9.203125,7.765625,1.335938,1.455078,2.246094,4.587891,0.132385,-0.340576,0.572876,0.733704,up
240777,-8.929688,8.1875,1.296875,2.060547,1.742188,4.314453,0.115417,-0.333374,0.588318,0.7276,up
240782,-8.855469,8.417969,1.070313,2.048828,1.699219,4.207031,0.115417,-0.333374,0.588318,0.7276,up
240787,-8.589844,8.996094,0.378906,1.896484,1.683594,4.173828,0.106384,-0.329346,0.596558,0.724121,up
240793,-8.589844,8.996094,0.378906,1.896484,1.683594,4.173828,0.089966,-0.322205,0.610352,0.718018,up
240798,-8.589844,8.996094,0.378906,1.275391,1.623047,4.173828,0.080872,-0.318359,0.616821,0.715271,up
240803,-8.128906,9.183594,-0.195312,1.275391,1.623047,4.173828,0.080872,-0.318359,0.616821,0.715271,up
240808,-7.667969,9.417969,-0.730469,0.919922,1.623047,4.199219,0.071838,-0.314636,0.622375,0.713135,up
240813,-7.667969,9.417969,-0.730469,0.591797,1.662109,4.224609,0.0625,-0.310852,0.627197,0.711365,up
240818,-7.667969,9.417969,-0.730469,0.591797,1.662109,4.224609,0.042053,-0.303406,0.635376,0.708862,up
240823,-6.941406,9.070313,-1.0,0.591797,1.662109,4.224609,0.042053,-0.303406,0.635376,0.708862,up
240829,-6.671875,8.957031,-1.0,0.591797,1.662109,4.224609,0.042053,-0.303406,0.635376,0.708862,up
240835,-6.636719,8.761719,-0.960937,-0.439453,2.076172,4.595703,0.042053,-0.303406,0.635376,0.708862,up
240840,-6.558594,8.53125,-0.769531,-0.380859,2.101563,4.669922,0.042053,-0.303406,0.635376,0.708862,up
240846,-6.289062,8.03125,-0.578125,0.035156,2.017578,4.757812,0.042053,-0.303406,0.635376,0.708862,up
240851,-6.097656,7.765625,-0.425781,0.035156,2.017578,4.757812,0.027222,0.280457,-0.652832,-0.703186,up
240856,-6.097656,7.765625,-0.425781,0.300781,1.962891,4.740234,0.039124,0.276062,-0.656372,-0.70105,up
240861,-5.871094,7.574219,-0.234375,0.574219,1.925781,4.701172,0.039124,0.276062,-0.656372,-0.70105,up
240866,-5.871094,7.574219,-0.234375,0.876953,1.816406,4.634766,0.060791,0.267456,-0.664246,-0.695374,up
240871,-4.988281,7.191406,0.378906,0.876953,1.816406,4.634766,0.060791,0.267456,-0.664246,-0.695374,up
240876,-4.988281,7.191406,0.378906,1.128906,1.681641,4.542969,0.080872,0.258484,-0.673523,-0.687805,up
240882,-4.070312,7.574219,0.683594,1.128906,1.681641,4.542969,0.099548,0.249939,-0.683167,-0.678955,up
240887,-3.953125,8.035156,0.035156,1.431641,1.677734,4.148437,0.099548,0.249939,-0.683167,-0.678955,up
240892,-3.761719,8.148438,-0.308594,1.431641,1.677734,4.148437,0.117432,0.242065,-0.692078,-0.6698,up
240897,-3.761719,8.148438,-0.308594,1.431641,1.677734,4.148437,0.117432,0.242065,-0.692078,-0.6698,up
240902,-3.265625,8.570313,-0.769531,1.431641,1.677734,4.148437,0.117432,0.242065,-0.692078,-0.6698,up
240907,-3.109375,8.71875,-0.847656,1.195313,1.634766,4.074219,0.117432,0.242065,-0.692078,-0.6698,up
240912,-3.109375,8.71875,-0.847656,0.382813,1.785156,4.136719,0.117432,0.242065,-0.692078,-0.6698,up
240918,-2.535156,8.914063,-1.113281,0.382813,1.785156,4.136719,0.164185,0.221375,-0.707581,-0.650696,up
240923,-2.34375,8.648438,-1.0,-0.136719,1.808594,4.212891,0.175537,0.216248,-0.70929,-0.647583,up
240929,-2.078125,8.414063,-0.769531,-0.136719,1.808594,4.212891,0.184509,0.212158,-0.710266,-0.645386,up
240934,-1.960938,8.191406,-0.65625,-0.404297,1.804688,4.271484,0.195007,0.207275,-0.71106,-0.642944,up
240939,-1.960938,8.191406,-0.65625,-0.441406,1.722656,4.259766,0.195007,0.207275,-0.71106,-0.642944,up
240944,-1.617188,7.269531,-0.273438,-0.441406,1.722656,4.259766,0.205078,0.202332,-0.71167,-0.640686,up
240949,-1.464844,6.769531,-0.042969,-0.330078,1.601563,4.25,0.224792,0.1922,-0.71283,-0.635986,up
240954,-1.464844,6.769531,-0.042969,-0.330078,1.601563,4.25,0.224792,0.1922,-0.71283,-0.635986,up
240959,-0.964844,5.46875,0.570312,0.074219,1.419922,4.103516,0.224792,0.1922,-0.71283,-0.635986,up
240964,-0.582031,5.3125,1.070313,0.074219,1.419922,4.103516,0.252258,0.17688,-0.71582,-0.626648,up
240969,-0.351563,5.433594,1.296875,0.544922,1.154297,3.808594,0.252258,0.17688,-0.71582,-0.626648,up
240974,0.03125,5.8125,1.105469,0.544922,1.154297,3.808594,0.252258,0.17688,-0.71582,-0.626648,up
240980,0.070312,6.078125,0.878906,0.744141,1.091797,3.486328,0.252258,0.17688,-0.71582,-0.626648,up
240985,0.335938,6.386719,0.570312,0.767578,1.060547,3.363281,0.252258,0.17688,-0.71582,-0.626648,up
240990,0.566406,6.65625,0.378906,0.767578,1.060547,3.363281,0.288757,0.155334,-0.72467,-0.60614,up
240996,0.757812,6.765625,0.226562,0.767578,1.060547,3.363281,0.295166,0.151489,-0.726379,-0.601868,up
241001,0.757812,6.765625,0.226562,0.748047,0.988281,3.222656,0.301453,0.147705,-0.728027,-0.597778,up
241006,0.949219,7.0,0.035156,0.748047,0.988281,3.222656,0.307983,0.143738,-0.729492,-0.593567,up
241011,1.332031,6.542969,-0.234375,0.748047,0.988281,3.222656,0.307983,0.143738,-0.729492,-0.593567,up
241016,1.332031,6.542969,-0.234375,0.441406,1.054688,3.289063,0.321106,0.13562,-0.731384,-0.586182,up
241021,1.792969,5.777344,-0.117188,0.441406,1.054688,3.289063,0.321106,0.13562,-0.731384,-0.586182,up
241027,1.984375,5.429687,0.339844,-0.275391,1.029297,3.507813,0.34198,0.12085,-0.731567,-0.577271,up
241032,2.058594,5.085937,0.609375,-0.4375,0.880859,3.515625,0.34198,0.12085,-0.731567,-0.577271,up
241037,2.25,4.773437,0.722656,-0.4375,0.880859,3.515625,0.348999,0.115234,-0.731201,-0.574646,up
241042,2.636719,4.546875,0.953125,-0.425781,0.835937,3.484375,0.348999,0.115234,-0.731201,-0.574646,up
241047,2.636719,4.546875,0.953125,-0.142578,0.679687,3.380859,0.362549,0.103882,-0.730469,-0.569336,up
241052,3.09375,4.28125,1.144531,-0.142578,0.679687,3.380859,0.369141,0.098145,-0.730347,-0.566284,up
241057,3.246094,4.28125,1.183594,-0.142578,0.679687,3.380859,0.380615,0.088379,-0.730896,-0.55957,up
241062,3.210938,4.429687,1.261719,-0.142578,0.679687,3.380859,0.385742,0.084412,-0.731567,-0.555725,up
241067,3.09375,5.007812,0.953125,-0.142578,0.679687,3.380859,0.385742,0.084412,-0.731567,-0.555725,up
241072,3.054688,5.128906,0.609375,0.951172,0.802734,3.095703,0.385742,0.084412,-0.731567,-0.555725,up
241077,3.054688,5.128906,0.609375,1.140625,0.876953,3.005859,0.396912,0.076965,-0.733826,-0.545898,up
241082,3.246094,5.273437,-0.117188,1.28125,0.898437,2.960938,0.396912,0.076965,-0.733826,-0.545898,up
241087,3.246094,5.273437,-0.117188,1.400391,0.855469,2.957031,0.407776,0.071045,-0.736633,-0.53479,up
241092,3.515625,5.578125,-0.464844,1.400391,0.855469,2.957031,0.412903,0.068176,-0.73822,-0.529053,up
241097,3.515625,5.578125,-0.464844,1.490234,0.773437,3.011719,0.417969,0.065247,-0.739868,-0.523132,up
241102,4.28125,5.3125,-0.425781,1.490234,0.773437,3.011719,0.42865,0.059204,-0.742737,-0.511047,up
241107,4.359375,5.125,-0.617187,1.490234,0.773437,3.011719,0.42865,0.059204,-0.742737,-0.511047,up
241112,4.511719,4.929687,-0.617187,1.001953,1.095703,3.134766,0.42865,0.059204,-0.742737,-0.511047,up
241118,4.742187,4.703125,-0.273438,1.001953,1.095703,3.134766,0.445862,0.049438,-0.74469,-0.494202,up
241123,4.78125,4.433594,-0.117188,0.824219,1.029297,3.113281,0.452087,0.045532,-0.744995,-0.488464,up
241128,5.085937,4.203125,0.035156,0.802734,0.958984,3.052734,0.45752,0.041992,-0.745178,-0.483398,up
241134,5.238281,4.089844,0.300781,0.837891,0.933594,2.964844,0.462341,0.038757,-0.745361,-0.478699,up
241139,5.433594,4.164062,0.378906,0.837891,0.933594,2.964844,0.46759,0.0354,-0.745605,-0.47345,up
241144,5.390625,4.089844,0.457031,1.005859,0.896484,2.773438,0.46759,0.0354,-0.745605,-0.47345,up
241149,5.511719,3.898438,0.53125,1.171875,0.8125,2.695313,0.46759,0.0354,-0.745605,-0.47345,up
241154,5.550781,3.820313,0.609375,1.171875,0.8125,2.695313,0.46759,0.0354,-0.745605,-0.47345,up
241159,5.546875,3.859375,0.53125,1.447266,0.78125,2.613281,0.48584,0.025208,-0.748169,-0.451172,up
241164,5.546875,3.859375,0.53125,1.447266,0.78125,2.613281,0.48584,0.025208,-0.748169,-0.451172,up
241169,5.546875,3.859375,0.53125,2.216797,0.658203,2.365234,0.493774,0.022522,-0.75116,-0.4375,up
241174,5.660156,3.9375,0.609375,2.363281,0.556641,2.244141,0.493774,0.022522,-0.75116,-0.4375,up
241180,5.894531,3.859375,0.761719,2.363281,0.556641,2.244141,0.500488,0.021057,-0.755127,-0.422974,up
241185,6.011719,4.011719,0.839844,2.363281,0.359375,2.033203,0.500488,0.021057,-0.755127,-0.422974,up
241190,6.351562,3.898438,0.878906,2.363281,0.359375,2.033203,0.500488,0.021057,-0.755127,-0.422974,up
241196,6.425781,3.898438,0.800781,2.136719,0.142578,1.818359,0.500488,0.021057,-0.755127,-0.422974,up
241202,6.539062,3.972656,0.722656,1.949219,0.058594,1.710938,0.500488,0.021057,-0.755127,-0.422974,up
241207,6.617187,4.050781,0.609375,1.490234,-0.089844,1.527344,0.500488,0.021057,-0.755127,-0.422974,up
241212,6.777344,4.089844,0.300781,1.490234,-0.089844,1.527344,0.512634,0.017151,-0.767029,-0.385437,up
241218,6.84375,4.050781,0.074219,1.042969,-0.238281,1.351563,0.512634,0.017151,-0.767029,-0.385437,up
241223,7.078125,4.128906,-0.15625,1.042969,-0.238281,1.351563,0.51532,0.012878,-0.771423,-0.373047,up
241228,7.160156,4.242187,-0.308594,1.042969,-0.238281,1.351563,0.515747,0.011353,-0.772522,-0.3703,up
241233,7.226562,4.242187,-0.464844,0.521484,-0.367188,1.101563,0.516052,0.009521,-0.77356,-0.367615,up
241238,7.226562,4.242187,-0.464844,0.521484,-0.367188,1.101563,0.516052,0.009521,-0.77356,-0.367615,up
241243,7.347656,4.28125,-1.039063,0.427734,-0.367188,0.998047,0.516296,0.007813,-0.774536,-0.365417,up
241248,7.347656,4.28125,-1.039063,0.345703,-0.390625,0.884766,0.516357,0.006165,-0.775391,-0.363464,up
241253,7.34375,4.320312,-1.039063,0.345703,-0.390625,0.884766,0.516357,0.004639,-0.776184,-0.361755,up
241258,7.34375,4.320312,-1.039063,0.294922,-0.433594,0.666016,0.515869,0.002014,-0.777893,-0.358887,up
241264,7.542969,4.433594,-1.152344,0.294922,-0.433594,0.666016,0.515442,0.001038,-0.778687,-0.357727,up
241269,7.464844,4.472656,-1.230469,0.240234,-0.435547,0.361328,0.515442,0.001038,-0.778687,-0.357727,up
241275,7.542969,4.472656,-1.304688,0.195312,-0.431641,0.28125,0.515442,0.001038,-0.778687,-0.357727,up
241281,7.613281,4.472656,-1.382813,0.195312,-0.431641,0.28125,0.513672,-0.001221,-0.781006,-0.355225,up
241286,7.652344,4.472656,-1.460938,0.080078,-0.425781,0.132812,0.513672,-0.001221,-0.781006,-0.355225,up
241291,7.652344,4.546875,-1.496094,0.003906,-0.417969,0.082031,0.513672,-0.001221,-0.781006,-0.355225,up
241296,7.691406,4.664062,-1.652344,-0.058594,-0.392578,0.027344,0.513672,-0.001221,-0.781006,-0.355225,up
241301,7.769531,4.816406,-1.882813,-0.058594,-0.392578,0.027344,0.513672,-0.001221,-0.781006,-0.355225,up
241307,7.847656,4.933594,-1.882813,-0.058594,-0.392578,0.027344,0.509888,-0.003601,-0.783508,-0.355103,up
241312,7.847656,4.96875,-1.84375,-0.300781,-0.378906,-0.060547,0.509888,-0.003601,-0.783508,-0.355103,up
241317,7.847656,5.007812,-1.882813,-0.300781,-0.378906,-0.060547,0.50824,-0.0047,-0.784058,-0.356201,up
241322,7.847656,4.96875,-1.84375,-0.300781,-0.378906,-0.060547,0.507446,-0.005249,-0.784302,-0.356934,up
241328,7.804687,4.933594,-1.882813,-0.263672,-0.371094,-0.089844,0.505737,-0.006226,-0.78479,-0.358215,up
241333,7.804687,4.894531,-1.84375,-0.175781,-0.365234,-0.111328,0.504944,-0.006592,-0.785034,-0.358704,up
241338,7.808594,4.855469,-1.882813,-0.175781,-0.365234,-0.111328,0.50415,-0.006836,-0.7854,-0.359131,up
241343,7.726562,4.816406,-1.957031,-0.064453,-0.386719,-0.136719,0.50415,-0.006836,-0.7854,-0.359131,up
241348,7.769531,4.855469,-1.996094,-0.039063,-0.398438,-0.148437,0.503235,-0.00708,-0.785767,-0.359558,up
241354,7.769531,4.855469,-1.996094,-0.001953,-0.402344,-0.162109,0.501465,-0.007263,-0.786682,-0.360046,up
241359,7.808594,4.96875,-2.109375,0.029297,-0.386719,-0.175781,0.500366,-0.007202,-0.787292,-0.360229,up
241364,7.847656,5.046875,-2.265625,0.029297,-0.386719,-0.175781,0.499451,-0.007141,-0.787781,-0.360413,up
241369,7.886719,5.125,-2.378906,0.029297,-0.386719,-0.175781,0.498718,-0.00708,-0.788147,-0.360596,up
241375,7.921875,5.390625,-2.648438,0.029297,-0.386719,-0.175781,0.497864,-0.006897,-0.788574,-0.36084,up
241381,7.960937,5.46875,-2.683594,-0.033203,-0.316406,-0.222656,0.497864,-0.006897,-0.788574,-0.36084,up
241386,7.992187,5.542969,-2.761719,-0.068359,-0.320313,-0.224609,0.497864,-0.006897,-0.788574,-0.36084,up
241392,8.070313,5.542969,-2.761719,-0.068359,-0.320313,-0.224609,0.495361,-0.006592,-0.789612,-0.362,up
241398,8.113281,5.542969,-2.839844,-0.138672,-0.255859,-0.222656,0.495361,-0.006592,-0.789612,-0.362,up
241403,8.148438,5.507812,-2.992188,-0.138672,-0.255859,-0.222656,0.493774,-0.006531,-0.7901,-0.363098,up
241408,8.148438,5.507812,-2.992188,-0.138672,-0.255859,-0.222656,0.492371,-0.00647,-0.790466,-0.364197,up
241413,8.191406,5.582031,-3.03125,-0.138672,-0.255859,-0.222656,0.492371,-0.00647,-0.790466,-0.364197,up
241418,8.109375,5.621094,-2.992188,-0.113281,-0.222656,-0.242187,0.492371,-0.00647,-0.790466,-0.364197,up
241424,8.109375,5.582031,-2.914063,-0.113281,-0.222656,-0.242187,0.490295,-0.006042,-0.791016,-0.365845,up
241430,8.070313,5.507812,-2.878906,-0.113281,-0.222656,-0.242187,0.489624,-0.005798,-0.791199,-0.366394,up
241435,8.074219,5.429687,-2.878906,-0.056641,-0.160156,-0.275391,0.489136,-0.005493,-0.791321,-0.36676,up
241440,8.035156,5.507812,-2.839844,-0.046875,-0.142578,-0.292969,0.489136,-0.005493,-0.791321,-0.36676,up
241445,8.035156,5.660156,-2.839844,-0.046875,-0.142578,-0.292969,0.489136,-0.005493,-0.791321,-0.36676,up
241450,8.035156,5.660156,-2.839844,-0.013672,-0.130859,-0.3125,0.489136,-0.005493,-0.791321,-0.36676,up
241455,7.925781,5.773437,-2.761719,-0.013672,-0.130859,-0.3125,0.489136,-0.005493,-0.791321,-0.36676,up
241460,7.925781,5.773437,-2.722656,-0.03125,-0.146484,-0.314453,0.489136,-0.005493,-0.791321,-0.36676,up
241465,7.882812,5.734375,-2.722656,-0.074219,-0.140625,-0.306641,0.489136,-0.005493,-0.791321,-0.36676,up
241470,7.886719,5.734375,-2.648438,-0.103516,-0.158203,-0.292969,0.489136,-0.005493,-0.791321,-0.36676,up
241475,7.882812,5.621094,-2.683594,-0.154297,-0.162109,-0.285156,0.489136,-0.005493,-0.791321,-0.36676,up
241480,7.84375,5.542969,-2.609375,-0.154297,-0.162109,-0.285156,0.483948,-0.002014,-0.792358,-0.371399,up
241486,7.804687,5.429687,-2.648438,-0.154297,-0.162109,-0.285156,0.483948,-0.002014,-0.792358,-0.371399,up
241491,7.804687,5.429687,-2.648438,-0.240234,-0.144531,-0.28125,0.483948,-0.002014,-0.792358,-0.371399,up
241496,7.769531,5.507812,-2.53125,-0.234375,-0.142578,-0.273438,0.483948,-0.002014,-0.792358,-0.371399,up
241502,7.769531,5.46875,-2.492188,-0.226562,-0.154297,-0.269531,0.483948,-0.002014,-0.792358,-0.371399,up
