timestamp,ax,ay,az,gx,gy,gz,qw,qx,qy,qz,label
133814,-7.105469,5.5,-1.289063,-0.263672,0.027344,0.001953,0.160828,-0.447083,0.610596,0.633545,up
133819,-7.105469,5.5,-1.289063,-0.236328,0.025391,-0.023437,0.160278,-0.447449,0.609863,0.634155,up
133824,-7.105469,5.5,-1.25,-0.236328,0.025391,-0.023437,0.160278,-0.447449,0.609863,0.634155,up
133829,-7.105469,5.539062,-1.210938,-0.236328,0.025391,-0.023437,0.160034,-0.447632,0.609497,0.634399,up
133834,-7.105469,5.578125,-1.210938,-0.160156,0.017578,-0.021484,0.160034,-0.447632,0.609497,0.634399,up
133840,-7.179687,5.613281,-1.210938,-0.138672,0.025391,-0.029297,0.160034,-0.447632,0.609497,0.634399,up
133845,-7.257812,5.691406,-1.210938,-0.138672,0.025391,-0.029297,0.159546,-0.448364,0.608582,0.634949,up
133850,-7.300781,5.691406,-1.175781,-0.058594,0.027344,-0.021484,0.159546,-0.448364,0.608582,0.634949,up
133855,-7.339844,5.769531,-1.175781,-0.058594,0.027344,-0.021484,0.159485,-0.448608,0.608398,0.634949,up
133860,-7.378906,5.769531,-1.175781,-0.058594,0.027344,-0.021484,0.159485,-0.448669,0.608337,0.634949,up
133865,-7.40625,5.882812,-1.175781,-0.058594,0.027344,-0.021484,0.159546,-0.44873,0.608337,0.634888,up
133870,-7.449219,5.921875,-1.136719,-0.017578,-0.019531,0.0,0.159546,-0.44873,0.608337,0.634888,up
133875,-7.484375,5.921875,-1.136719,-0.017578,-0.019531,0.0,0.159607,-0.448792,0.608276,0.634888,up
133881,-7.566406,6.074219,-1.136719,-0.017578,-0.019531,0.0,0.159607,-0.448792,0.608215,0.634949,up
133886,-7.5625,6.074219,-1.175781,-0.019531,-0.035156,0.015625,0.159607,-0.448792,0.608215,0.634949,up
133891,-7.605469,6.035156,-1.175781,-0.021484,-0.041016,0.023437,0.159607,-0.448792,0.608215,0.634949,up
133896,-7.566406,6.074219,-1.136719,-0.021484,-0.041016,0.023437,0.159668,-0.448669,0.608154,0.635071,up
133901,-7.527344,6.035156,-1.097656,-0.021484,-0.041016,0.023437,0.159607,-0.448608,0.608154,0.635193,up
133906,-7.527344,6.0,-1.136719,-0.050781,-0.056641,0.046875,0.159607,-0.448486,0.608093,0.635315,up
133911,-7.527344,5.960937,-1.136719,-0.050781,-0.056641,0.046875,0.159546,-0.448364,0.608032,0.635437,up
133917,-7.527344,5.921875,-1.175781,-0.050781,-0.056641,0.046875,0.159546,-0.448303,0.608032,0.635559,up
133922,-7.488281,5.882812,-1.097656,-0.041016,-0.058594,0.060547,0.159546,-0.448303,0.608032,0.635559,up
133927,-7.449219,5.808594,-1.175781,-0.021484,-0.054687,0.070312,0.159424,-0.447998,0.607971,0.635803,up
133932,-7.410156,5.730469,-1.175781,-0.013672,-0.048828,0.064453,0.159424,-0.447998,0.607971,0.635803,up
133937,-7.339844,5.730469,-1.136719,0.015625,-0.058594,0.076172,0.159424,-0.447693,0.608093,0.635925,up
133943,-7.335937,5.652344,-1.097656,0.029297,-0.060547,0.085937,0.159424,-0.447693,0.608093,0.635925,up
133948,-7.300781,5.652344,-1.136719,0.050781,-0.058594,0.087891,0.159424,-0.447693,0.608093,0.635925,up
133953,-7.296875,5.691406,-1.097656,0.050781,-0.058594,0.087891,0.159424,-0.447693,0.608093,0.635925,up
133959,-7.296875,5.691406,-1.097656,0.050781,-0.058594,0.087891,0.159485,-0.446777,0.608765,0.635925,up
133965,-7.339844,5.691406,-1.097656,0.123047,-0.054687,0.115234,0.159607,-0.446167,0.609375,0.635681,up
133970,-7.296875,5.769531,-1.058594,0.123047,-0.054687,0.115234,0.159668,-0.445862,0.609741,0.635559,up
133975,-7.339844,5.769531,-1.058594,0.123047,-0.054687,0.115234,0.159729,-0.445496,0.610168,0.635376,up
133980,-7.257812,5.84375,-1.097656,0.123047,-0.054687,0.115234,0.159729,-0.445496,0.610168,0.635376,up
133985,-7.296875,5.808594,-1.058594,0.207031,-0.066406,0.160156,0.159973,-0.444702,0.611145,0.634949,up
133990,-7.222656,5.808594,-1.058594,0.207031,-0.066406,0.160156,0.160095,-0.444214,0.611694,0.634705,up
133995,-7.179687,5.84375,-1.058594,0.207031,-0.066406,0.160156,0.160217,-0.443787,0.612244,0.63446,up
134000,-7.144531,5.84375,-1.097656,0.207031,-0.066406,0.160156,0.160217,-0.443787,0.612244,0.63446,up
134005,-7.0625,5.808594,-1.097656,0.279297,-0.089844,0.195312,0.160217,-0.443787,0.612244,0.63446,up
134010,-7.0625,5.769531,-1.136719,0.279297,-0.089844,0.195312,0.160706,-0.442078,0.614136,0.633667,up
134015,-6.988281,5.769531,-1.136719,0.279297,-0.089844,0.195312,0.160889,-0.441589,0.614746,0.633423,up
134020,-6.957031,5.691406,-1.136719,0.275391,-0.091797,0.189453,0.160889,-0.441589,0.614746,0.633423,up
134025,-6.957031,5.691406,-1.136719,0.275391,-0.091797,0.189453,0.161194,-0.440552,0.615967,0.632874,up
134030,-6.917969,5.730469,-1.136719,0.275391,-0.091797,0.189453,0.161194,-0.440552,0.615967,0.632874,up
134035,-6.914062,5.691406,-1.210938,0.279297,-0.082031,0.167969,0.161194,-0.440552,0.615967,0.632874,up
134040,-6.914062,5.730469,-1.25,0.271484,-0.076172,0.167969,0.161194,-0.440552,0.615967,0.632874,up
134046,-6.917969,5.769531,-1.210938,0.257813,-0.072266,0.146484,0.161682,-0.439087,0.617798,0.631958,up
134051,-6.957031,5.808594,-1.25,0.257813,-0.072266,0.146484,0.162048,-0.438232,0.618896,0.631409,up
134056,-6.984375,5.808594,-1.25,0.224609,-0.058594,0.103516,0.162231,-0.437866,0.619385,0.631165,up
134062,-7.066406,5.808594,-1.25,0.224609,-0.058594,0.103516,0.162415,-0.437561,0.619751,0.63092,up
134067,-7.066406,5.808594,-1.25,0.171875,-0.052734,0.066406,0.162415,-0.437561,0.619751,0.63092,up
134073,-7.105469,5.84375,-1.25,0.140625,-0.056641,0.056641,0.162415,-0.437561,0.619751,0.63092,up
134079,-7.105469,5.808594,-1.25,0.107422,-0.054687,0.029297,0.162903,-0.43689,0.620605,0.630432,up
134084,-7.105469,5.808594,-1.175781,0.083984,-0.066406,0.019531,0.162903,-0.43689,0.620605,0.630432,up
134089,-7.140625,5.808594,-1.175781,0.058594,-0.066406,0.003906,0.162903,-0.43689,0.620605,0.630432,up
134094,-7.140625,5.808594,-1.175781,0.029297,-0.060547,-0.007813,0.162903,-0.43689,0.620605,0.630432,up
134099,-7.105469,5.769531,-1.175781,0.029297,-0.060547,-0.007813,0.162903,-0.43689,0.620605,0.630432,up
134105,-7.105469,5.769531,-1.210938,-0.007813,-0.080078,-0.023437,0.162903,-0.43689,0.620605,0.630432,up
134110,-7.101562,5.769531,-1.136719,-0.007813,-0.080078,-0.023437,0.163879,-0.436218,0.62085,0.630371,up
134115,-7.179687,5.808594,-1.175781,-0.007813,-0.080078,-0.023437,0.164062,-0.436157,0.620789,0.630493,up
134120,-7.140625,5.808594,-1.175781,0.058594,-0.107422,-0.021484,0.164246,-0.436096,0.620728,0.630493,up
134125,-7.140625,5.808594,-1.175781,0.058594,-0.107422,-0.021484,0.16449,-0.435974,0.620728,0.630493,up
134130,-7.183594,5.84375,-1.136719,0.058594,-0.107422,-0.021484,0.164795,-0.435791,0.620789,0.630493,up
134135,-7.222656,5.84375,-1.210938,0.058594,-0.107422,-0.021484,0.1651,-0.435669,0.620911,0.630432,up
134140,-7.222656,5.882812,-1.175781,0.144531,-0.121094,-0.023437,0.165466,-0.435486,0.621033,0.630371,up
134145,-7.261719,5.882812,-1.210938,0.144531,-0.121094,-0.023437,0.165894,-0.435242,0.621155,0.630249,up
134151,-7.296875,5.882812,-1.210938,0.144531,-0.121094,-0.023437,0.166687,-0.434937,0.62146,0.629944,up
134156,-7.300781,5.921875,-1.210938,0.132812,-0.126953,-0.027344,0.167114,-0.434753,0.621643,0.629822,up
134162,-7.40625,6.0,-1.210938,0.132812,-0.126953,-0.027344,0.167542,-0.434631,0.621765,0.6297,up
134167,-7.40625,6.0,-1.210938,0.105469,-0.140625,-0.041016,0.167969,-0.434448,0.621826,0.629578,up
134172,-7.484375,6.0,-1.25,0.105469,-0.140625,-0.041016,0.168335,-0.434326,0.621887,0.629517,up
134178,-7.484375,6.035156,-1.25,0.056641,-0.136719,-0.068359,0.168335,-0.434326,0.621887,0.629517,up
134183,-7.484375,6.0,-1.210938,0.033203,-0.136719,-0.080078,0.168335,-0.434326,0.621887,0.629517,up
134189,-7.523437,6.035156,-1.175781,0.033203,-0.136719,-0.080078,0.169556,-0.434082,0.621704,0.629578,up
134194,-7.523437,6.035156,-1.175781,-0.001953,-0.146484,-0.103516,0.169556,-0.434082,0.621704,0.629578,up
134199,-7.484375,6.035156,-1.210938,-0.011719,-0.146484,-0.119141,0.169556,-0.434082,0.621704,0.629578,up
134204,-7.449219,6.035156,-1.175781,-0.013672,-0.146484,-0.132812,0.169556,-0.434082,0.621704,0.629578,up
134209,-7.445312,6.035156,-1.136719,-0.009766,-0.15625,-0.140625,0.169556,-0.434082,0.621704,0.629578,up
134214,-7.40625,6.074219,-1.097656,-0.017578,-0.152344,-0.152344,0.169556,-0.434082,0.621704,0.629578,up
134219,-7.378906,6.074219,-1.136719,-0.013672,-0.15625,-0.160156,0.169556,-0.434082,0.621704,0.629578,up
134224,-7.378906,6.074219,-1.136719,-0.013672,-0.15625,-0.160156,0.172791,-0.434143,0.620117,0.630127,up
134229,-7.339844,6.074219,-1.136719,-0.013672,-0.15625,-0.160156,0.172791,-0.434143,0.620117,0.630127,up
134234,-7.40625,6.074219,-1.136719,-0.013672,-0.15625,-0.160156,0.173889,-0.434204,0.619568,0.630371,up
134239,-7.378906,6.074219,-1.097656,-0.013672,-0.201172,-0.177734,0.173889,-0.434204,0.619568,0.630371,up
134245,-7.339844,6.035156,-1.058594,-0.013672,-0.201172,-0.177734,0.175659,-0.434143,0.618652,0.630798,up
134250,-7.339844,6.074219,-1.097656,-0.013672,-0.201172,-0.177734,0.175659,-0.434143,0.618652,0.630798,up
134255,-7.335937,6.035156,-1.097656,-0.082031,-0.242187,-0.179687,0.175659,-0.434143,0.618652,0.630798,up
134260,-7.300781,5.960937,-1.136719,-0.082031,-0.242187,-0.179687,0.17688,-0.434143,0.617859,0.631226,up
134265,-7.296875,5.921875,-1.097656,-0.082031,-0.242187,-0.179687,0.177551,-0.434082,0.617371,0.631592,up
134271,-7.261719,5.882812,-1.058594,-0.136719,-0.259766,-0.185547,0.177551,-0.434082,0.617371,0.631592,up
134276,-7.261719,5.921875,-1.097656,-0.136719,-0.259766,-0.185547,0.179199,-0.43396,0.615845,0.632629,up
134281,-7.296875,5.882812,-1.058594,-0.136719,-0.259766,-0.185547,0.179749,-0.43396,0.615356,0.632996,up
134286,-7.296875,5.882812,-1.058594,-0.134766,-0.259766,-0.179687,0.179749,-0.43396,0.615356,0.632996,up
134291,-7.335937,5.84375,-1.097656,-0.134766,-0.259766,-0.179687,0.180908,-0.433899,0.614258,0.633789,up
134296,-7.378906,5.882812,-1.058594,-0.134766,-0.259766,-0.179687,0.180908,-0.433899,0.614258,0.633789,up
134301,-7.378906,5.882812,-1.058594,-0.107422,-0.246094,-0.173828,0.181396,-0.433838,0.613831,0.634094,up
134306,-7.378906,5.84375,-1.058594,-0.083984,-0.242187,-0.171875,0.182556,-0.433777,0.612976,0.634644,up
134311,-7.445312,5.921875,-1.019531,-0.083984,-0.242187,-0.171875,0.182556,-0.433777,0.612976,0.634644,up
134317,-7.445312,5.921875,-1.019531,0.009766,-0.232422,-0.134766,0.183716,-0.433533,0.612366,0.635071,up
134322,-7.449219,5.960937,-1.019531,0.023437,-0.21875,-0.119141,0.184387,-0.433411,0.612122,0.635193,up
134327,-7.449219,5.960937,-1.058594,0.048828,-0.224609,-0.107422,0.184937,-0.433228,0.611938,0.635315,up
134333,-7.484375,5.960937,-1.019531,0.048828,-0.224609,-0.107422,0.185486,-0.433044,0.611877,0.635376,up
134338,-7.484375,5.960937,-1.019531,0.097656,-0.226562,-0.074219,0.186096,-0.432739,0.611816,0.635437,up
134344,-7.527344,6.0,-1.097656,0.097656,-0.226562,-0.074219,0.186096,-0.432739,0.611816,0.635437,up
134350,-7.523437,6.074219,-1.097656,0.152344,-0.222656,-0.035156,0.186096,-0.432739,0.611816,0.635437,up
134355,-7.523437,6.074219,-1.097656,0.152344,-0.222656,-0.035156,0.187805,-0.431885,0.611938,0.635437,up
134361,-7.527344,6.113281,-1.136719,0.179687,-0.224609,-0.019531,0.187805,-0.431885,0.611938,0.635437,up
134366,-7.527344,6.152344,-1.097656,0.179687,-0.224609,-0.019531,0.189026,-0.431152,0.612183,0.635315,up
134372,-7.488281,6.113281,-1.136719,0.179687,-0.224609,-0.019531,0.190186,-0.430298,0.612549,0.635193,up
134377,-7.488281,6.113281,-1.136719,0.183594,-0.21875,0.0,0.190735,-0.429932,0.612732,0.635071,up
134382,-7.445312,6.113281,-1.136719,0.179687,-0.220703,0.005859,0.191345,-0.429504,0.612915,0.63501,up
134388,-7.484375,6.113281,-1.175781,0.179687,-0.220703,0.005859,0.191833,-0.429077,0.613098,0.63501,up
134393,-7.40625,6.074219,-1.136719,0.148437,-0.207031,0.019531,0.191833,-0.429077,0.613098,0.63501,up
134398,-7.445312,6.074219,-1.175781,0.132812,-0.201172,0.009766,0.192749,-0.428284,0.613403,0.634949,up
134404,-7.40625,6.074219,-1.136719,0.121094,-0.193359,0.017578,0.192749,-0.428284,0.613403,0.634949,up
134410,-7.40625,6.074219,-1.136719,0.101563,-0.189453,0.005859,0.192749,-0.428284,0.613403,0.634949,up
134416,-7.40625,6.035156,-1.175781,0.09375,-0.177734,0.007813,0.192749,-0.428284,0.613403,0.634949,up
134421,-7.378906,6.035156,-1.210938,0.09375,-0.177734,0.007813,0.194397,-0.426941,0.61377,0.63501,up
134427,-7.335937,5.960937,-1.136719,0.09375,-0.177734,0.007813,0.195129,-0.426331,0.613892,0.635071,up
134432,-7.335937,5.960937,-1.136719,0.097656,-0.164062,0.023437,0.195496,-0.425903,0.614014,0.635071,up
134438,-7.335937,5.960937,-1.136719,0.097656,-0.164062,0.023437,0.195801,-0.425659,0.614075,0.635071,up
134444,-7.339844,5.921875,-1.097656,0.097656,-0.164062,0.023437,0.196106,-0.425354,0.614258,0.635071,up
134449,-7.335937,5.882812,-1.136719,0.136719,-0.146484,0.035156,0.196106,-0.425354,0.614258,0.635071,up
134454,-7.296875,5.921875,-1.097656,0.152344,-0.144531,0.046875,0.196106,-0.425354,0.614258,0.635071,up
134459,-7.296875,5.84375,-1.058594,0.164062,-0.144531,0.050781,0.196106,-0.425354,0.614258,0.635071,up
134464,-7.257812,5.84375,-1.097656,0.164062,-0.144531,0.050781,0.196106,-0.425354,0.614258,0.635071,up
134470,-7.300781,5.84375,-1.097656,0.164062,-0.144531,0.050781,0.197815,-0.423523,0.615356,0.634705,up
134476,-7.300781,5.882812,-1.097656,0.189453,-0.146484,0.064453,0.197815,-0.423523,0.615356,0.634705,up
134481,-7.257812,5.882812,-1.097656,0.185547,-0.142578,0.0625,0.198792,-0.422363,0.616211,0.634338,up
134486,-7.261719,5.921875,-1.136719,0.181641,-0.144531,0.060547,0.198792,-0.422363,0.616211,0.634338,up
134491,-7.257812,5.882812,-1.097656,0.177734,-0.150391,0.0625,0.199158,-0.421875,0.616516,0.634216,up
134497,-7.257812,5.960937,-1.097656,0.177734,-0.150391,0.0625,0.199829,-0.421143,0.617065,0.633972,up
134502,-7.261719,5.921875,-1.097656,0.164062,-0.158203,0.060547,0.200195,-0.420654,0.617371,0.633911,up
134508,-7.261719,5.960937,-1.175781,0.164062,-0.158203,0.060547,0.2005,-0.420349,0.617554,0.63385,up
134513,-7.257812,5.960937,-1.136719,0.164062,-0.158203,0.060547,0.200867,-0.419922,0.617798,0.633789,up
134519,-7.300781,5.960937,-1.136719,0.164062,-0.158203,0.060547,0.201172,-0.419556,0.617981,0.633728,up
134524,-7.300781,6.0,-1.097656,0.123047,-0.171875,0.046875,0.201172,-0.419556,0.617981,0.633728,up
134530,-7.300781,6.0,-1.097656,0.123047,-0.171875,0.046875,0.201843,-0.418762,0.618286,0.633728,up
134536,-7.261719,6.0,-1.175781,0.09375,-0.177734,0.025391,0.201843,-0.418762,0.618286,0.633728,up
134541,-7.296875,6.0,-1.175781,0.052734,-0.169922,0.009766,0.201843,-0.418762,0.618286,0.633728,up
134547,-7.296875,6.0,-1.175781,0.052734,-0.177734,0.001953,0.202881,-0.417786,0.618469,0.633911,up
134553,-7.300781,6.0,-1.136719,0.052734,-0.177734,0.001953,0.203491,-0.417236,0.618408,0.634094,up
134558,-7.300781,6.0,-1.136719,0.007813,-0.171875,-0.013672,0.203857,-0.416992,0.618347,0.634216,up
134565,-7.257812,6.0,-1.136719,-0.019531,-0.167969,-0.019531,0.203857,-0.416992,0.618347,0.634216,up
134570,-7.300781,5.960937,-1.136719,-0.019531,-0.167969,-0.019531,0.203857,-0.416992,0.618347,0.634216,up
134576,-7.300781,5.960937,-1.136719,-0.033203,-0.160156,-0.017578,0.203857,-0.416992,0.618347,0.634216,up
134581,-7.300781,5.960937,-1.136719,-0.039063,-0.148437,-0.029297,0.203857,-0.416992,0.618347,0.634216,up
134587,-7.296875,5.921875,-1.097656,-0.039063,-0.148437,-0.029297,0.205505,-0.415771,0.617432,0.635376,up
134593,-7.296875,5.921875,-1.097656,-0.039063,-0.148437,-0.029297,0.20575,-0.415588,0.61731,0.635559,up
134598,-7.300781,5.921875,-1.058594,-0.005859,-0.138672,-0.017578,0.205994,-0.415405,0.617187,0.635681,up
134603,-7.339844,5.882812,-1.019531,0.009766,-0.140625,-0.009766,0.205994,-0.415405,0.617187,0.635681,up
134608,-7.335937,5.921875,-1.019531,0.009766,-0.140625,-0.009766,0.205994,-0.415405,0.617187,0.635681,up
134614,-7.339844,5.882812,-1.019531,0.015625,-0.136719,0.003906,0.205994,-0.415405,0.617187,0.635681,up
134619,-7.378906,5.882812,-1.058594,0.033203,-0.146484,0.003906,0.205994,-0.415405,0.617187,0.635681,up
134624,-7.378906,5.882812,-0.984375,0.033203,-0.146484,0.003906,0.205994,-0.415405,0.617187,0.635681,up
134630,-7.339844,5.84375,-0.984375,0.041016,-0.144531,0.015625,0.205994,-0.415405,0.617187,0.635681,up
134635,-7.335937,5.882812,-0.945312,0.044922,-0.146484,0.011719,0.205994,-0.415405,0.617187,0.635681,up
134640,-7.378906,5.882812,-0.984375,0.048828,-0.150391,0.015625,0.205994,-0.415405,0.617187,0.635681,up
134645,-7.378906,5.882812,-0.984375,0.048828,-0.150391,0.015625,0.205994,-0.415405,0.617187,0.635681,up
134650,-7.339844,5.84375,-0.90625,0.048828,-0.150391,0.015625,0.208557,-0.412964,0.617004,0.636597,up
134655,-7.335937,5.84375,-0.945312,0.046875,-0.152344,0.015625,0.208557,-0.412964,0.617004,0.636597,up
134661,-7.296875,5.808594,-0.867187,0.046875,-0.152344,0.015625,0.209351,-0.41217,0.617004,0.636902,up
134666,-7.261719,5.808594,-0.90625,0.046875,-0.152344,0.015625,0.209351,-0.41217,0.617004,0.636902,up
134671,-7.296875,5.769531,-0.867187,0.041016,-0.142578,0.003906,0.209351,-0.41217,0.617004,0.636902,up
134676,-7.296875,5.769531,-0.867187,0.041016,-0.142578,0.003906,0.2099,-0.411682,0.617004,0.637024,up
134682,-7.300781,5.730469,-0.867187,0.041016,-0.142578,0.003906,0.210449,-0.411194,0.616943,0.637207,up
134687,-7.261719,5.691406,-0.792969,0.027344,-0.160156,-0.011719,0.210449,-0.411194,0.616943,0.637207,up
134692,-7.296875,5.691406,-0.792969,0.025391,-0.160156,-0.023437,0.210754,-0.410889,0.616882,0.637329,up
134698,-7.296875,5.691406,-0.792969,0.025391,-0.160156,-0.023437,0.211365,-0.410461,0.61676,0.637512,up
134704,-7.375,5.808594,-0.792969,0.013672,-0.183594,-0.037109,0.211792,-0.410217,0.616638,0.637695,up
134710,-7.375,5.808594,-0.753906,0.003906,-0.195312,-0.058594,0.211792,-0.410217,0.616638,0.637695,up
134715,-7.410156,5.882812,-0.753906,0.003906,-0.195312,-0.058594,0.211792,-0.410217,0.616638,0.637695,up
134721,-7.339844,5.921875,-0.753906,-0.009766,-0.224609,-0.080078,0.211792,-0.410217,0.616638,0.637695,up
134726,-7.378906,5.921875,-0.714844,-0.035156,-0.238281,-0.099609,0.213989,-0.40918,0.61554,0.638672,up
134731,-7.40625,5.921875,-0.753906,-0.035156,-0.238281,-0.099609,0.213989,-0.40918,0.61554,0.638672,up
134736,-7.410156,6.0,-0.753906,-0.035156,-0.238281,-0.099609,0.214539,-0.408997,0.615173,0.638916,up
134742,-7.445312,5.960937,-0.753906,-0.126953,-0.28125,-0.138672,0.215637,-0.40863,0.614136,0.639771,up
134747,-7.410156,5.921875,-0.675781,-0.126953,-0.28125,-0.138672,0.216187,-0.408508,0.613525,0.640259,up
134752,-7.335937,5.84375,-0.753906,-0.126953,-0.28125,-0.138672,0.216675,-0.408447,0.612915,0.640808,up
134757,-7.375,5.960937,-0.753906,-0.25,-0.316406,-0.175781,0.217224,-0.408325,0.612122,0.641418,up
134762,-7.375,5.960937,-0.753906,-0.269531,-0.316406,-0.177734,0.217712,-0.408203,0.611389,0.641968,up
134768,-7.300781,5.84375,-0.753906,-0.285156,-0.310547,-0.185547,0.218201,-0.408142,0.610596,0.642639,up
134773,-7.339844,5.691406,-0.714844,-0.285156,-0.310547,-0.185547,0.21875,-0.408081,0.60968,0.643372,up
134778,-7.296875,5.730469,-0.714844,-0.285156,-0.304688,-0.1875,0.219177,-0.408081,0.608948,0.643921,up
134783,-7.300781,5.730469,-0.675781,-0.285156,-0.304688,-0.1875,0.219727,-0.40802,0.608032,0.644592,up
134788,-7.339844,5.652344,-0.523437,-0.285156,-0.304688,-0.1875,0.219727,-0.40802,0.608032,0.644592,up
134793,-7.378906,5.691406,-0.5625,-0.228516,-0.298828,-0.203125,0.219727,-0.40802,0.608032,0.644592,up
134799,-7.40625,5.691406,-0.601562,-0.207031,-0.302734,-0.201172,0.219727,-0.40802,0.608032,0.644592,up
134804,-7.445312,5.769531,-0.5625,-0.207031,-0.302734,-0.201172,0.219727,-0.40802,0.608032,0.644592,up
134810,-7.449219,5.808594,-0.523437,-0.207031,-0.302734,-0.201172,0.222534,-0.407715,0.604492,0.647156,up
134815,-7.523437,5.808594,-0.484375,-0.154297,-0.298828,-0.205078,0.222534,-0.407715,0.604492,0.647156,up
134820,-7.5625,5.730469,-0.484375,-0.175781,-0.283203,-0.216797,0.222534,-0.407715,0.604492,0.647156,up
134825,-7.605469,5.730469,-0.445312,-0.175781,-0.283203,-0.216797,0.222534,-0.407715,0.604492,0.647156,up
134831,-7.601562,5.769531,-0.445312,-0.175781,-0.283203,-0.216797,0.225037,-0.407532,0.601746,0.648926,up
134837,-7.601562,5.808594,-0.410156,-0.248047,-0.306641,-0.230469,0.225037,-0.407532,0.601746,0.648926,up
134842,-7.644531,5.84375,-0.445312,-0.248047,-0.306641,-0.230469,0.226807,-0.407532,0.599365,0.650574,up
134847,-7.644531,5.84375,-0.410156,-0.322266,-0.289063,-0.240234,0.226807,-0.407532,0.599365,0.650574,up
134852,-7.683594,5.769531,-0.410156,-0.341797,-0.277344,-0.25,0.227356,-0.407593,0.598389,0.651245,up
134857,-7.683594,5.769531,-0.410156,-0.341797,-0.277344,-0.25,0.228333,-0.407837,0.596497,0.652466,up
134862,-7.722656,5.691406,-0.371094,-0.341797,-0.277344,-0.25,0.22876,-0.407959,0.595581,0.653137,up
134867,-7.71875,5.652344,-0.332031,-0.341797,-0.277344,-0.25,0.22876,-0.407959,0.595581,0.653137,up
134872,-7.71875,5.652344,-0.292969,-0.328125,-0.273438,-0.238281,0.229675,-0.408142,0.593628,0.654419,up
134877,-7.71875,5.613281,-0.292969,-0.306641,-0.267578,-0.253906,0.230164,-0.408264,0.592712,0.654968,up
134883,-7.71875,5.539062,-0.214844,-0.306641,-0.267578,-0.253906,0.230774,-0.408386,0.591736,0.65564,up
134888,-7.722656,5.539062,-0.179687,-0.251953,-0.267578,-0.25,0.231323,-0.408447,0.590881,0.656128,up
134893,-7.722656,5.613281,-0.140625,-0.251953,-0.267578,-0.25,0.231873,-0.408508,0.590088,0.656616,up
134898,-7.761719,5.539062,-0.140625,-0.251953,-0.267578,-0.25,0.232422,-0.408508,0.589478,0.656982,up
134904,-7.71875,5.5,-0.0625,-0.251953,-0.267578,-0.25,0.233154,-0.408508,0.588684,0.65741,up
134910,-7.792969,5.460937,-0.101563,-0.113281,-0.28125,-0.255859,0.233154,-0.408508,0.588684,0.65741,up
134916,-7.757812,5.5,-0.0625,-0.113281,-0.28125,-0.255859,0.234497,-0.408508,0.587524,0.657959,up
134922,-7.789062,5.578125,-0.023437,-0.107422,-0.310547,-0.273438,0.234497,-0.408508,0.587524,0.657959,up
134927,-7.789062,5.578125,-0.023437,-0.107422,-0.310547,-0.273438,0.236084,-0.408447,0.586304,0.658569,up
134932,-7.789062,5.578125,-0.023437,-0.107422,-0.310547,-0.273438,0.237732,-0.408386,0.584961,0.65918,up
134937,-7.792969,5.691406,0.011719,-0.107422,-0.310547,-0.273438,0.237732,-0.408386,0.584961,0.65918,up
134942,-7.757812,5.730469,0.011719,-0.181641,-0.337891,-0.291016,0.237732,-0.408386,0.584961,0.65918,up
134947,-7.761719,5.730469,-0.0625,-0.181641,-0.337891,-0.291016,0.23938,-0.408325,0.583435,0.660034,up
134952,-7.757812,5.691406,0.011719,-0.181641,-0.337891,-0.291016,0.240906,-0.408325,0.581604,0.661011,up
134957,-7.722656,5.613281,0.011719,-0.181641,-0.337891,-0.291016,0.240906,-0.408325,0.581604,0.661011,up
134962,-7.722656,5.613281,0.011719,-0.328125,-0.324219,-0.308594,0.241577,-0.408447,0.580627,0.661621,up
134967,-7.722656,5.539062,0.011719,-0.355469,-0.330078,-0.308594,0.241577,-0.408447,0.580627,0.661621,up
134972,-7.722656,5.5,0.011719,-0.402344,-0.320313,-0.306641,0.243286,-0.408875,0.577271,0.663635,up
134977,-7.761719,5.460937,0.011719,-0.402344,-0.320313,-0.306641,0.243774,-0.409058,0.57605,0.664368,up
134982,-7.761719,5.347656,0.050781,-0.402344,-0.320313,-0.306641,0.243774,-0.409058,0.57605,0.664368,up
134987,-7.792969,5.347656,0.089844,-0.474609,-0.275391,-0.314453,0.244751,-0.409668,0.573364,0.666016,up
134992,-7.757812,5.230469,0.128906,-0.474609,-0.275391,-0.314453,0.244751,-0.409668,0.573364,0.666016,up
134997,-7.757812,5.195312,0.128906,-0.458984,-0.230469,-0.314453,0.244751,-0.409668,0.573364,0.666016,up
135003,-7.789062,5.15625,0.128906,-0.458984,-0.230469,-0.314453,0.24585,-0.410645,0.569763,0.668091,up
135009,-7.792969,5.15625,0.203125,-0.458984,-0.230469,-0.314453,0.246277,-0.411011,0.568542,0.668701,up
135014,-7.828125,5.15625,0.167969,-0.326172,-0.177734,-0.289063,0.246704,-0.411316,0.567505,0.66925,up
135020,-7.792969,5.269531,0.203125,-0.267578,-0.160156,-0.28125,0.24707,-0.411621,0.56665,0.669617,up
135026,-7.789062,5.308594,0.167969,-0.220703,-0.144531,-0.248047,0.24707,-0.411621,0.56665,0.669617,up
135032,-7.832031,5.308594,0.242187,-0.115234,-0.109375,-0.208984,0.24707,-0.411621,0.56665,0.669617,up
135037,-7.828125,5.386719,0.242187,-0.115234,-0.109375,-0.208984,0.248291,-0.412354,0.564697,0.67041,up
135042,-7.867187,5.347656,0.203125,-0.083984,-0.089844,-0.183594,0.248962,-0.412659,0.563904,0.670593,up
135047,-7.867187,5.421875,0.203125,-0.083984,-0.089844,-0.183594,0.248962,-0.412659,0.563904,0.670593,up
135052,-7.867187,5.386719,0.203125,-0.023437,-0.056641,-0.119141,0.249451,-0.412842,0.563477,0.670654,up
135057,-7.828125,5.386719,0.242187,-0.023437,-0.056641,-0.119141,0.249451,-0.412842,0.563477,0.670654,up
135063,-7.871094,5.386719,0.167969,0.003906,-0.001953,-0.035156,0.249451,-0.412842,0.563477,0.670654,up
135068,-7.867187,5.347656,0.242187,0.003906,-0.001953,-0.035156,0.249817,-0.412964,0.563293,0.670593,up
135073,-7.910156,5.308594,0.242187,0.003906,-0.001953,-0.035156,0.249817,-0.413025,0.563354,0.670593,up
135078,-7.945312,5.308594,0.242187,0.003906,-0.001953,-0.035156,0.249756,-0.413025,0.563354,0.670532,up
135083,-7.945312,5.308594,0.242187,0.023437,0.042969,0.025391,0.249695,-0.413025,0.563477,0.670471,up
135088,-7.945312,5.308594,0.28125,0.03125,0.044922,0.03125,0.249634,-0.413086,0.563599,0.67041,up
135093,-7.910156,5.269531,0.242187,0.03125,0.044922,0.03125,0.249512,-0.413086,0.56366,0.670349,up
135099,-7.90625,5.269531,0.320313,0.03125,0.044922,0.03125,0.249451,-0.413025,0.563843,0.670227,up
135104,-7.949219,5.269531,0.320313,0.03125,0.044922,0.03125,0.24939,-0.413025,0.564026,0.670105,up
135110,-7.949219,5.269531,0.320313,0.03125,0.044922,0.03125,0.24939,-0.412964,0.56427,0.669983,up
135117,-7.910156,5.269531,0.359375,0.105469,0.037109,0.035156,0.24939,-0.412964,0.56427,0.669983,up
135122,-7.871094,5.269531,0.359375,0.105469,0.033203,0.027344,0.24939,-0.412964,0.56427,0.669983,up
135128,-7.910156,5.269531,0.359375,0.099609,0.027344,0.019531,0.24939,-0.412964,0.56427,0.669983,up
135133,-7.90625,5.308594,0.320313,0.099609,0.027344,0.019531,0.249451,-0.412781,0.565308,0.669189,up
135138,-7.949219,5.269531,0.320313,0.044922,0.011719,0.005859,0.249512,-0.41272,0.565369,0.669128,up
135144,-7.910156,5.308594,0.359375,0.029297,0.005859,-0.005859,0.249512,-0.41272,0.565491,0.669067,up
135149,-7.949219,5.347656,0.359375,0.029297,0.005859,-0.005859,0.249573,-0.41272,0.565491,0.669006,up
135156,-7.984375,5.308594,0.320313,-0.017578,-0.011719,-0.019531,0.249573,-0.41272,0.565491,0.669006,up
135161,-7.984375,5.347656,0.359375,-0.039063,-0.011719,-0.033203,0.249573,-0.41272,0.565491,0.669006,up
135167,-8.023438,5.308594,0.28125,-0.060547,-0.021484,-0.033203,0.249573,-0.41272,0.565491,0.669006,up
135172,-7.984375,5.308594,0.320313,-0.078125,-0.025391,-0.042969,0.249573,-0.41272,0.565491,0.669006,up
135177,-7.945312,5.347656,0.320313,-0.078125,-0.025391,-0.042969,0.249695,-0.412964,0.56488,0.669373,up
135183,-7.90625,5.308594,0.320313,-0.072266,-0.037109,-0.039063,0.249695,-0.412964,0.56488,0.669373,up
135188,-7.867187,5.308594,0.320313,-0.072266,-0.037109,-0.039063,0.249817,-0.413086,0.564331,0.669678,up
135193,-7.867187,5.230469,0.28125,-0.052734,-0.041016,-0.029297,0.249878,-0.413086,0.564148,0.6698,up
135198,-7.832031,5.269531,0.28125,-0.052734,-0.041016,-0.029297,0.249878,-0.413086,0.564148,0.6698,up
135203,-7.828125,5.230469,0.28125,-0.046875,-0.035156,-0.023437,0.249939,-0.413086,0.563965,0.669983,up
135208,-7.871094,5.195312,0.320313,-0.017578,-0.023437,-0.019531,0.25,-0.413086,0.563843,0.670044,up
135213,-7.871094,5.195312,0.320313,-0.007813,-0.025391,-0.023437,0.25,-0.413086,0.563843,0.670044,up
135218,-7.832031,5.15625,0.28125,-0.007813,-0.025391,-0.023437,0.250122,-0.413086,0.563721,0.670044,up
135224,-7.871094,5.15625,0.394531,-0.007813,-0.025391,-0.023437,0.250183,-0.413086,0.563721,0.670044,up
135229,-7.871094,5.15625,0.394531,0.007813,-0.009766,-0.017578,0.250183,-0.413086,0.563721,0.670044,up
135235,-7.867187,5.195312,0.394531,0.017578,-0.013672,-0.023437,0.250183,-0.413086,0.563721,0.670044,up
135241,-7.910156,5.15625,0.394531,0.017578,-0.013672,-0.023437,0.250366,-0.413086,0.56366,0.670044,up
135246,-7.910156,5.15625,0.394531,0.033203,-0.009766,-0.033203,0.250366,-0.413086,0.56366,0.670044,up
135251,-7.867187,5.195312,0.433594,0.03125,-0.019531,-0.033203,0.250366,-0.413086,0.56366,0.670044,up
135257,-7.90625,5.15625,0.472656,0.03125,-0.019531,-0.033203,0.250732,-0.413086,0.563721,0.669922,up
135262,-7.90625,5.230469,0.394531,0.03125,-0.019531,-0.033203,0.250977,-0.413086,0.563599,0.669861,up
135267,-7.828125,5.195312,0.394531,0.03125,-0.019531,-0.033203,0.250977,-0.413086,0.563599,0.669861,up
135273,-7.867187,5.195312,0.394531,-0.009766,-0.037109,-0.054687,0.251221,-0.413086,0.563416,0.669922,up
135278,-7.910156,5.269531,0.394531,-0.009766,-0.037109,-0.054687,0.251404,-0.413086,0.563293,0.669983,up
135283,-7.867187,5.230469,0.433594,-0.009766,-0.037109,-0.054687,0.251526,-0.413086,0.563171,0.670044,up
135288,-7.828125,5.195312,0.394531,-0.052734,-0.070312,-0.060547,0.251526,-0.413086,0.563171,0.670044,up
135293,-7.828125,5.195312,0.394531,-0.052734,-0.070312,-0.060547,0.251831,-0.413025,0.562805,0.670288,up
135298,-7.871094,5.15625,0.433594,-0.082031,-0.087891,-0.056641,0.251831,-0.413025,0.562805,0.670288,up
135303,-7.832031,5.078125,0.394531,-0.082031,-0.087891,-0.056641,0.251953,-0.413025,0.5625,0.67041,up
135308,-7.828125,5.003906,0.394531,-0.091797,-0.087891,-0.070312,0.251953,-0.413025,0.5625,0.67041,up
135313,-7.828125,5.003906,0.394531,-0.091797,-0.087891,-0.070312,0.25238,-0.413025,0.561707,0.670959,up
135318,-7.792969,5.003906,0.320313,-0.091797,-0.087891,-0.070312,0.25238,-0.413025,0.561707,0.670959,up
135323,-7.789062,5.003906,0.359375,-0.091797,-0.103516,-0.099609,0.25238,-0.413025,0.561707,0.670959,up
135329,-7.722656,4.886719,0.28125,-0.091797,-0.103516,-0.099609,0.253052,-0.413086,0.56073,0.671509,up
135335,-7.71875,4.925781,0.242187,-0.091797,-0.103516,-0.099609,0.253296,-0.413086,0.560425,0.671631,up
135341,-7.640625,4.886719,0.242187,-0.078125,-0.087891,-0.089844,0.253479,-0.413147,0.56012,0.671814,up
135348,-7.527344,5.039062,0.242187,-0.052734,-0.087891,-0.082031,0.253845,-0.413147,0.559692,0.672058,up
135353,-7.5625,5.039062,0.203125,-0.080078,-0.050781,-0.054687,0.253845,-0.413147,0.559692,0.672058,up
135358,-7.566406,5.15625,0.011719,-0.080078,-0.050781,-0.054687,0.253967,-0.413208,0.559448,0.67218,up
135363,-7.644531,5.347656,-0.023437,-0.082031,-0.033203,-0.025391,0.253967,-0.413208,0.559448,0.67218,up
135368,-7.644531,5.347656,-0.023437,-0.080078,-0.029297,0.050781,0.254028,-0.413208,0.559021,0.672485,up
135373,-7.605469,5.460937,0.167969,-0.080078,-0.029297,0.050781,0.253723,-0.413086,0.558838,0.672791,up
135378,-7.605469,5.539062,0.167969,-0.080078,-0.029297,0.050781,0.253723,-0.413086,0.558838,0.672791,up
135383,-7.644531,5.539062,0.203125,-0.068359,-0.005859,0.15625,0.253723,-0.413086,0.558838,0.672791,up
135388,-7.71875,5.460937,0.242187,-0.068359,-0.005859,0.15625,0.253113,-0.41272,0.558899,0.673218,up
135393,-7.757812,5.421875,0.320313,-0.048828,-0.001953,0.294922,0.252625,-0.412415,0.559082,0.673462,up
135398,-7.789062,5.308594,0.320313,-0.048828,-0.001953,0.294922,0.252075,-0.412048,0.559265,0.673767,up
135404,-7.832031,5.078125,0.394531,-0.048828,-0.001953,0.294922,0.251099,-0.411133,0.559814,0.674194,up
135409,-7.832031,5.003906,0.472656,0.109375,-0.054687,0.326172,0.250671,-0.410461,0.560303,0.674316,up
135415,-7.90625,4.773437,0.511719,0.109375,-0.054687,0.326172,0.250366,-0.40979,0.560852,0.674438,up
135420,-7.910156,4.8125,0.472656,0.109375,-0.054687,0.326172,0.250183,-0.40918,0.561401,0.674377,up
135425,-7.90625,4.886719,0.433594,0.109375,-0.054687,0.326172,0.250122,-0.408508,0.562073,0.674255,up
135430,-7.949219,4.964844,0.359375,0.361328,-0.082031,0.236328,0.250122,-0.408508,0.562073,0.674255,up
135435,-7.949219,5.003906,0.359375,0.394531,-0.070312,0.191406,0.250122,-0.408508,0.562073,0.674255,up
135440,-7.90625,4.964844,0.28125,0.435547,-0.068359,0.169922,0.250122,-0.408508,0.562073,0.674255,up
135445,-7.871094,5.039062,0.28125,0.435547,-0.068359,0.169922,0.250122,-0.408508,0.562073,0.674255,up
135450,-7.792969,5.039062,0.359375,0.5,-0.078125,0.101563,0.250122,-0.408508,0.562073,0.674255,up
135455,-7.789062,5.195312,0.394531,0.519531,-0.09375,0.0625,0.250122,-0.408508,0.562073,0.674255,up
135460,-7.792969,5.195312,0.472656,0.519531,-0.09375,0.0625,0.252258,-0.404114,0.568054,0.671143,up
135465,-7.828125,5.195312,0.550781,0.523437,-0.140625,0.005859,0.252258,-0.404114,0.568054,0.671143,up
135470,-7.789062,5.195312,0.664062,0.503906,-0.169922,-0.023437,0.252258,-0.404114,0.568054,0.671143,up
135475,-7.792969,5.269531,0.703125,0.503906,-0.169922,-0.023437,0.252258,-0.404114,0.568054,0.671143,up
135480,-7.789062,5.347656,0.703125,0.408203,-0.248047,-0.080078,0.252258,-0.404114,0.568054,0.671143,up
135486,-7.832031,5.460937,0.703125,0.333984,-0.275391,-0.095703,0.252258,-0.404114,0.568054,0.671143,up
135492,-7.832031,5.460937,0.664062,0.333984,-0.275391,-0.095703,0.257202,-0.400696,0.571411,0.668457,up
135498,-7.792969,5.539062,0.742187,0.333984,-0.275391,-0.095703,0.257202,-0.400696,0.571411,0.668457,up
135503,-7.757812,5.539062,0.78125,0.072266,-0.419922,-0.148437,0.260071,-0.398987,0.57074,0.668884,up
135508,-7.683594,5.386719,0.816406,0.072266,-0.419922,-0.148437,0.260071,-0.398987,0.57074,0.668884,up
135513,-7.640625,5.308594,0.855469,0.072266,-0.419922,-0.148437,0.261047,-0.398438,0.570129,0.669373,up
135518,-7.640625,5.230469,0.894531,0.072266,-0.419922,-0.148437,0.262024,-0.397766,0.569397,0.669983,up
135524,-7.640625,5.15625,0.855469,-0.208984,-0.625,-0.179687,0.263977,-0.396423,0.567505,0.671631,up
135529,-7.605469,5.15625,0.972656,-0.208984,-0.625,-0.179687,0.264954,-0.395813,0.566467,0.672546,up
135534,-7.601562,5.078125,0.894531,-0.332031,-0.720703,-0.261719,0.264954,-0.395813,0.566467,0.672546,up
135539,-7.683594,5.039062,0.894531,-0.373047,-0.759766,-0.324219,0.266174,-0.395081,0.565063,0.673584,up
135545,-7.679687,4.847656,1.085938,-0.373047,-0.759766,-0.324219,0.268555,-0.393982,0.562378,0.675598,up
135550,-7.757812,4.773437,1.238281,-0.373047,-0.759766,-0.324219,0.270142,-0.393372,0.56073,0.676697,up
135555,-7.832031,4.847656,1.390625,-0.373047,-0.759766,-0.324219,0.272034,-0.392761,0.558838,0.677795,up
135562,-7.871094,4.847656,1.390625,-0.435547,-1.050781,-0.650391,0.272034,-0.392761,0.558838,0.677795,up
135568,-7.984375,5.078125,1.546875,-0.435547,-1.050781,-0.650391,0.278809,-0.39093,0.552246,0.681519,up
135573,-8.0625,5.230469,1.621094,-0.435547,-1.050781,-0.650391,0.278809,-0.39093,0.552246,0.681519,up
135578,-8.066406,5.308594,1.738281,-0.574219,-1.494141,-0.902344,0.278809,-0.39093,0.552246,0.681519,up
135583,-8.027344,5.386719,1.738281,-0.574219,-1.494141,-0.902344,0.284363,-0.389282,0.546875,0.684448,up
135588,-8.066406,5.421875,1.773438,-0.574219,-1.494141,-0.902344,0.287537,-0.388306,0.543762,0.686157,up
135594,-8.101563,5.386719,1.851563,-0.892578,-1.794922,-0.972656,0.287537,-0.388306,0.543762,0.686157,up
135599,-8.175781,5.386719,1.929688,-0.892578,-1.794922,-0.972656,0.297363,-0.384888,0.532715,0.692566,up
135605,-8.484375,5.347656,1.699219,-0.892578,-1.794922,-0.972656,0.300415,-0.383728,0.528748,0.694885,up
135610,-8.753906,4.582031,1.582031,-1.210938,-1.949219,-1.013672,0.300415,-0.383728,0.528748,0.694885,up
135615,-8.289063,4.425781,1.277344,-1.425781,-1.904297,-1.101563,0.300415,-0.383728,0.528748,0.694885,up
135620,-8.289063,4.425781,1.277344,-1.589844,-1.822266,-1.152344,0.300415,-0.383728,0.528748,0.694885,up
135625,-8.175781,5.078125,1.085938,-1.589844,-1.822266,-1.152344,0.300415,-0.383728,0.528748,0.694885,up
135630,-8.332031,5.5,1.199219,-1.646484,-1.851563,-1.171875,0.300415,-0.383728,0.528748,0.694885,up
135636,-8.488281,4.503906,2.082031,-1.671875,-1.992188,-1.216797,0.318726,-0.379089,0.49762,0.712097,up
135641,-8.59375,3.699219,2.386719,-1.671875,-1.992188,-1.216797,0.322021,-0.37854,0.491516,0.715149,up
135646,-8.75,3.625,2.578125,-1.867188,-2.072266,-1.65625,0.322021,-0.37854,0.491516,0.715149,up
135652,-8.910156,3.433594,2.695313,-1.884766,-2.144531,-1.865234,0.322021,-0.37854,0.491516,0.715149,up
135657,-9.398438,2.972656,3.15625,-1.884766,-2.144531,-1.865234,0.322021,-0.37854,0.491516,0.715149,up
135662,-9.597656,3.203125,3.347656,-1.884766,-2.144531,-1.865234,0.338989,-0.37793,0.463684,0.726135,up
135667,-9.785156,3.585938,3.5,-1.658203,-2.566406,-2.544922,0.338989,-0.37793,0.463684,0.726135,up
135673,-10.054688,4.390625,3.882813,-1.658203,-2.566406,-2.544922,0.351013,-0.377258,0.448181,0.730469,up
135679,-9.9375,4.8125,3.996094,-1.658203,-2.566406,-2.544922,0.365173,-0.375793,0.431335,0.734436,up
135684,-9.941406,4.925781,3.957031,-1.896484,-3.439453,-3.152344,0.365173,-0.375793,0.431335,0.734436,up
135689,-9.054688,4.964844,3.574219,-2.009766,-3.582031,-3.103516,0.373474,-0.374573,0.421082,0.736816,up
135695,-8.566406,4.199219,3.804688,-2.009766,-3.582031,-3.103516,0.387817,-0.371582,0.401855,0.741638,up
135700,-8.566406,4.199219,3.804688,-2.009766,-3.582031,-3.103516,0.387817,-0.371582,0.401855,0.741638,up
135706,-8.027344,3.316406,4.113281,-2.496094,-3.837891,-2.703125,0.400635,-0.367615,0.380493,0.748108,up
135711,-7.722656,2.167969,4.761719,-2.496094,-3.837891,-2.703125,0.400635,-0.367615,0.380493,0.748108,up
135717,-7.683594,1.441406,4.878906,-2.707031,-3.689453,-2.087891,0.410522,-0.363037,0.358948,0.755554,up
135723,-7.5625,0.289063,4.953125,-2.707031,-3.689453,-2.087891,0.410522,-0.363037,0.358948,0.755554,up
135728,-7.378906,0.175781,5.070312,-1.908203,-3.234375,-1.476563,0.410522,-0.363037,0.358948,0.755554,up
135733,-7.21875,0.558594,5.300781,-1.908203,-3.234375,-1.476563,0.422241,-0.355225,0.330322,0.765808,up
135739,-7.21875,0.902344,5.183594,-1.167969,-2.894531,-1.529297,0.422241,-0.355225,0.330322,0.765808,up
135744,-7.296875,1.402344,4.878906,-1.167969,-2.894531,-1.529297,0.434509,-0.345886,0.308777,0.772156,up
135750,-7.144531,2.820313,4.609375,-1.167969,-2.894531,-1.529297,0.439697,-0.34198,0.302612,0.773376,up
135755,-7.0625,2.933594,4.726562,-1.167969,-2.894531,-1.529297,0.444763,-0.338196,0.297424,0.77417,up
135760,-7.0625,2.933594,4.726562,-0.136719,-2.523438,-1.691406,0.449585,-0.334778,0.292969,0.774597,up
135767,-6.914062,2.050781,4.878906,-0.136719,-2.523438,-1.691406,0.454285,-0.331482,0.288574,0.774902,up
135772,-6.761719,1.554688,5.109375,-0.427734,-2.484375,-1.695313,0.454285,-0.331482,0.288574,0.774902,up
135777,-6.574219,1.132813,5.53125,-0.648437,-2.490234,-1.697266,0.454285,-0.331482,0.288574,0.774902,up
135782,-6.574219,1.132813,5.53125,-0.648437,-2.490234,-1.697266,0.468018,-0.322632,0.272583,0.776245,up
135787,-5.878906,0.328125,6.296875,-0.648437,-2.490234,-1.697266,0.468018,-0.322632,0.272583,0.776245,up
135793,-5.878906,0.328125,6.296875,-1.341797,-2.240234,-1.650391,0.475098,-0.319336,0.259705,0.77771,up
135798,-5.609375,0.175781,6.488281,-1.341797,-2.240234,-1.650391,0.475098,-0.319336,0.259705,0.77771,up
135803,-5.839844,0.328125,6.484375,-2.193359,-1.349609,-1.339844,0.475098,-0.319336,0.259705,0.77771,up
135808,-6.109375,0.480469,6.640625,-2.193359,-1.349609,-1.339844,0.481384,-0.320618,0.238159,0.780212,up
135814,-6.148437,0.636719,6.722656,-2.177734,-0.998047,-1.105469,0.483398,-0.323181,0.226013,0.781555,up
135819,-6.339844,0.789062,6.949219,-1.71875,-0.5,-1.050781,0.484314,-0.324829,0.220825,0.781799,up
135824,-6.835937,1.554688,6.949219,-1.71875,-0.5,-1.050781,0.484314,-0.324829,0.220825,0.781799,up
135829,-7.179687,1.402344,7.023437,-1.71875,-0.5,-1.050781,0.486572,-0.328491,0.21283,0.781006,up
135834,-7.527344,1.746094,7.214844,-1.71875,-0.5,-1.050781,0.486572,-0.328491,0.21283,0.781006,up
135839,-8.066406,1.554688,7.558594,-1.71875,-0.5,-1.050781,0.487915,-0.330383,0.210632,0.780029,up
135844,-7.832031,1.515625,8.359375,-0.492187,0.400391,-1.044922,0.490662,-0.334106,0.208557,0.777283,up
135849,-8.671875,1.441406,8.058594,0.035156,1.126953,-0.994141,0.490662,-0.334106,0.208557,0.777283,up
135854,-10.015625,2.359375,8.785156,0.035156,1.126953,-0.994141,0.492249,-0.336792,0.208862,0.775024,up
135859,-10.941406,2.320313,9.550781,0.035156,1.126953,-0.994141,0.493835,-0.342957,0.210388,0.770874,up
135864,-11.546875,2.472656,10.316406,-0.160156,2.115234,-0.460937,0.493835,-0.342957,0.210388,0.770874,up
135869,-12.050781,2.472656,10.125,-0.171875,2.560547,-0.119141,0.493774,-0.347595,0.211975,0.768372,up
135875,-13.078125,1.859375,10.242188,-0.171875,2.560547,-0.119141,0.491272,-0.357422,0.217224,0.764038,up
135880,-13.695313,2.246094,10.125,0.080078,3.457031,0.875,0.488159,-0.363647,0.221924,0.761719,up
135886,-15.613281,3.738281,10.203125,0.080078,3.457031,0.875,0.484253,-0.369507,0.227844,0.759644,up
135892,-16.5625,4.503906,9.628906,0.080078,3.457031,0.875,0.47876,-0.376221,0.236816,0.75708,up
135898,-17.871094,5.882812,7.90625,0.080078,3.457031,0.875,0.47876,-0.376221,0.236816,0.75708,up
135903,-17.871094,5.882812,7.90625,2.431641,7.5625,3.847656,0.463196,-0.391907,0.26355,0.749939,up
135908,-17.871094,5.882812,7.90625,3.396484,9.123047,5.011719,0.452209,-0.401001,0.282715,0.744812,up
135913,-22.195312,13.277344,2.769531,4.439453,10.716797,6.412109,0.438477,-0.410706,0.306519,0.738342,up
135919,-27.367187,22.507812,-1.019531,6.921875,13.066406,9.734375,0.438477,-0.410706,0.306519,0.738342,up
135924,-30.667969,27.105469,-3.472656,6.921875,13.066406,9.734375,0.376953,-0.435425,0.407104,0.708923,up
135929,-37.597656,37.140625,-9.523438,6.921875,13.066406,9.734375,0.376953,-0.435425,0.407104,0.708923,up
135934,-41.429687,42.007812,-12.09375,9.0625,14.623047,14.9375,0.344299,-0.440247,0.455566,0.692932,up
135939,-45.417969,44.265625,-13.855469,9.0625,14.623047,14.9375,0.314941,-0.44104,0.495361,0.678894,up
135944,-49.128906,42.695312,-16.957031,9.0625,14.623047,14.9375,0.279663,-0.438538,0.538147,0.663269,up
135949,-47.480469,39.9375,-17.875,9.0625,14.623047,14.9375,0.240051,-0.432068,0.579773,0.647766,up
135954,-45.0625,36.070312,-17.683594,3.414063,11.626953,20.326172,0.240051,-0.432068,0.579773,0.647766,up
135959,-43.148437,32.007812,-16.34375,3.414063,11.626953,20.326172,0.153503,-0.407349,0.649414,0.623535,up
135964,-40.96875,22.585937,-13.316406,3.414063,11.626953,20.326172,0.104004,-0.389709,0.677917,0.614624,up
135970,-38.214844,13.46875,-10.941406,-0.427734,10.986328,21.888672,0.056091,-0.371399,0.700073,0.6073,up
135975,-32.769531,4.621094,-8.835938,-0.427734,10.986328,21.888672,0.051636,0.323975,-0.738525,-0.58905,up
135980,-28.019531,-1.703125,-7.148437,0.347656,8.373047,21.070312,0.100891,0.296936,-0.753662,-0.577637,up
135986,-19.058594,-8.597656,-2.515625,0.347656,8.373047,21.070312,0.141785,0.271484,-0.766113,-0.565063,up
135991,-14.726563,-7.832031,0.472656,3.097656,6.945312,19.863281,0.141785,0.271484,-0.766113,-0.565063,up
135997,-11.355469,-5.722656,5.492187,5.792969,5.712891,18.710937,0.141785,0.271484,-0.766113,-0.565063,up
136002,-11.777344,-9.632813,23.1875,5.792969,5.712891,18.710937,0.141785,0.271484,-0.766113,-0.565063,up
136007,-11.625,-13.078125,23.996094,13.199219,6.642578,16.277344,0.141785,0.271484,-0.766113,-0.565063,up
136013,-11.777344,-6.488281,17.632812,15.099609,7.988281,14.308594,0.141785,0.271484,-0.766113,-0.565063,up
136018,-11.777344,-6.488281,17.632812,15.683594,8.0625,12.080078,0.330261,0.147888,-0.858093,-0.364319,up
136024,-23.382812,5.5,13.613281,15.683594,8.0625,12.080078,0.362305,0.146301,-0.877747,-0.277222,up
136029,-24.835937,7.570312,13.652344,15.683594,8.0625,12.080078,0.362305,0.146301,-0.877747,-0.277222,up
136034,-19.132812,4.695312,24.949219,15.220703,2.919922,4.523437,0.362305,0.146301,-0.877747,-0.277222,up
136039,-9.558594,5.960937,37.285156,15.220703,2.919922,4.523437,0.3703,0.15686,-0.893372,-0.200256,up
136044,-7.984375,8.984375,21.0,15.220703,2.919922,4.523437,0.36969,0.163879,-0.897949,-0.173523,up
136050,-11.929688,0.828125,5.914062,-2.253906,2.869141,-0.136719,0.379578,0.164062,-0.89325,-0.176208,up
136055,-7.867187,-7.140625,6.679687,-2.253906,2.869141,-0.136719,0.381165,0.159363,-0.889771,-0.194031,up
136060,-4.960937,-5.570312,7.976562,-2.253906,2.869141,-0.136719,0.380676,0.154785,-0.886475,-0.212769,up
136065,-5.152344,-5.417969,8.359375,-7.296875,-0.496094,-1.589844,0.380737,0.15033,-0.882202,-0.232727,up
136070,-4.539062,-4.652344,4.726562,-7.296875,-0.496094,-1.589844,0.380737,0.15033,-0.882202,-0.232727,up
136075,-4.117187,-3.921875,5.375,-7.296875,-0.496094,-1.589844,0.382446,0.14032,-0.873108,-0.267761,up
136081,-3.582031,-2.621094,6.722656,-11.570313,-1.837891,0.001953,0.382629,0.129761,-0.866882,-0.291992,up
136086,0.671875,-1.703125,11.238281,-11.570313,-1.837891,0.001953,0.382446,0.11554,-0.859314,-0.319275,up
136091,1.972656,-2.199219,12.503906,-11.570313,-1.837891,0.001953,0.383301,0.098572,-0.848938,-0.350281,up
136096,1.625,-0.246094,0.742187,-11.570313,-1.837891,0.001953,0.386963,0.083374,-0.836548,-0.378784,up
136102,0.59375,0.636719,-5.121094,-8.816406,1.505859,0.869141,0.392334,0.072754,-0.825439,-0.399353,up
136108,1.285156,1.746094,-3.167969,-4.861328,-0.023437,0.703125,0.392334,0.072754,-0.825439,-0.399353,up
136113,3.160156,1.976563,0.664062,-0.818359,-1.660156,0.287109,0.392334,0.072754,-0.825439,-0.399353,up
136119,4.5,1.402344,1.699219,1.683594,-2.109375,-0.134766,0.392334,0.072754,-0.825439,-0.399353,up
136124,4.765625,1.59375,1.125,2.859375,-1.650391,-0.271484,0.383606,0.061646,-0.826538,-0.407288,up
136129,4.804687,2.050781,-1.367188,2.859375,-1.650391,-0.271484,0.383606,0.061646,-0.826538,-0.407288,up
136134,5.1875,2.511719,-2.976563,2.859375,-1.650391,-0.271484,0.380859,0.066772,-0.832275,-0.397278,up
136140,5.347656,3.164063,-4.546875,6.9375,-0.064453,-0.816406,0.380859,0.066772,-0.832275,-0.397278,up
136145,4.960937,4.273437,-6.957031,6.9375,-0.064453,-0.816406,0.374146,0.088623,-0.850098,-0.359802,up
136150,4.769531,5.003906,-7.414062,6.9375,-0.064453,-0.816406,0.369568,0.095154,-0.856079,-0.348633,up
136155,5.304687,5.347656,-6.769531,3.15625,-2.5,-0.992187,0.369568,0.095154,-0.856079,-0.348633,up
136160,6.113281,5.613281,-4.546875,3.15625,-2.5,-0.992187,0.356384,0.101501,-0.865295,-0.337524,up
136166,7.378906,5.578125,-2.976563,3.15625,-2.5,-0.992187,0.351074,0.102112,-0.867065,-0.33844,up
136171,6.414062,5.421875,-5.234375,-1.880859,-0.292969,-0.960937,0.351074,0.102112,-0.867065,-0.33844,up
136176,6.417969,6.035156,-5.925781,-2.792969,-0.126953,-0.878906,0.348083,0.102173,-0.864441,-0.348022,up
136181,6.609375,6.839844,-5.503906,-2.792969,-0.126953,-0.878906,0.347595,0.10083,-0.86145,-0.35614,up
136186,6.800781,8.066406,-4.199219,-2.792969,-0.126953,-0.878906,0.347107,0.097656,-0.857239,-0.367554,up
136191,6.761719,8.179688,-4.007812,-5.839844,-0.447266,-0.46875,0.347107,0.097656,-0.857239,-0.367554,up
136196,6.648437,8.484375,-4.390625,-6.212891,-0.269531,-0.423828,0.347107,0.097656,-0.857239,-0.367554,up
136201,6.53125,8.410156,-5.3125,-6.212891,-0.269531,-0.423828,0.347534,0.085144,-0.841675,-0.404419,up
136207,6.265625,8.683594,-7.304687,-6.212891,-0.269531,-0.423828,0.347961,0.080811,-0.835327,-0.417786,up
136212,6.265625,8.601563,-7.648437,-3.708984,-0.380859,-0.546875,0.347778,0.078247,-0.831421,-0.426208,up
136218,6.226562,8.757813,-6.308594,-2.453125,-0.693359,-0.558594,0.347778,0.078247,-0.831421,-0.426208,up
136224,6.339844,8.945313,-5.425781,-1.222656,-0.859375,-0.554687,0.347778,0.078247,-0.831421,-0.426208,up
136230,6.53125,8.988281,-4.964844,-0.152344,-0.802734,-0.623047,0.340088,0.075317,-0.827637,-0.440125,up
136235,6.265625,8.832031,-4.851562,-0.152344,-0.802734,-0.623047,0.340088,0.075317,-0.827637,-0.440125,up
136240,6.1875,8.566406,-5.003906,-0.152344,-0.802734,-0.623047,0.335938,0.079102,-0.830811,-0.436584,up
136245,6.035156,8.449219,-5.160156,2.121094,-0.375,-0.65625,0.335938,0.079102,-0.830811,-0.436584,up
136250,5.84375,8.222656,-5.195312,2.279297,-0.382813,-0.580078,0.333923,0.081787,-0.833191,-0.433105,up
136255,5.726562,7.722656,-4.773437,2.279297,-0.382813,-0.580078,0.3302,0.086853,-0.838196,-0.425293,up
136260,5.613281,7.570312,-4.390625,1.943359,-0.4375,-0.349609,0.3302,0.086853,-0.838196,-0.425293,up
136265,5.535156,7.492187,-4.085937,1.505859,-0.416016,-0.255859,0.328247,0.089172,-0.840881,-0.421021,up
136270,5.382812,7.335937,-3.550781,0.927734,-0.375,-0.158203,0.326599,0.090881,-0.843018,-0.417664,up
136275,5.382812,7.335937,-3.550781,0.927734,-0.375,-0.158203,0.324341,0.092224,-0.845337,-0.414429,up
136280,5.34375,7.300781,-3.203125,0.927734,-0.375,-0.158203,0.324341,0.092224,-0.845337,-0.414429,up
136285,5.34375,7.335937,-3.28125,-0.318359,-0.191406,0.050781,0.32373,0.091187,-0.845032,-0.415649,up
136290,5.191406,7.261719,-3.703125,-0.318359,-0.191406,0.050781,0.323975,0.090027,-0.844177,-0.417419,up
136295,5.152344,7.1875,-3.855469,-0.318359,-0.191406,0.050781,0.324524,0.088257,-0.842957,-0.419922,up
136300,5.113281,7.074219,-3.933594,-0.318359,-0.191406,0.050781,0.324524,0.088257,-0.842957,-0.419922,up
136305,5.152344,6.914062,-3.933594,-1.259766,-0.080078,0.392578,0.325439,0.084595,-0.840759,-0.424316,up
136310,5.152344,6.769531,-3.972656,-1.259766,-0.080078,0.392578,0.325928,0.082886,-0.839905,-0.426086,up
136315,5.152344,6.691406,-3.894531,-0.498047,-0.132812,0.412109,0.325928,0.082886,-0.839905,-0.426086,up
136320,5.152344,6.652344,-3.855469,-0.498047,-0.132812,0.412109,0.326416,0.080078,-0.839172,-0.427612,up
136325,5.113281,6.6875,-3.855469,-0.498047,-0.132812,0.412109,0.326416,0.080078,-0.839172,-0.427612,up
136330,5.078125,6.691406,-3.777344,-0.498047,-0.132812,0.412109,0.326172,0.078552,-0.840088,-0.426208,up
136335,5.078125,6.691406,-3.777344,-0.498047,-0.132812,0.412109,0.326172,0.078552,-0.840088,-0.426208,up
136340,5.078125,6.648437,-3.742188,0.892578,-0.226562,0.132812,0.326172,0.078552,-0.840088,-0.426208,up
136346,5.078125,6.652344,-3.855469,0.892578,-0.226562,0.132812,0.324768,0.078796,-0.84314,-0.421204,up
136351,5.078125,6.570312,-3.855469,0.892578,-0.226562,0.132812,0.324158,0.079224,-0.84436,-0.419128,up
136356,5.113281,6.535156,-3.816406,0.708984,-0.248047,-0.015625,0.323425,0.079651,-0.845398,-0.417542,up
136362,5.152344,6.53125,-3.625,0.708984,-0.248047,-0.015625,0.322815,0.079956,-0.84613,-0.416504,up
136367,5.152344,6.574219,-3.625,0.708984,-0.248047,-0.015625,0.322144,0.080139,-0.846619,-0.415955,up
136372,5.113281,6.609375,-3.664063,-0.166016,-0.191406,-0.111328,0.322144,0.080139,-0.846619,-0.415955,up
136377,5.078125,6.648437,-3.703125,-0.480469,-0.154297,-0.115234,0.322144,0.080139,-0.846619,-0.415955,up
136382,5.078125,6.726562,-3.855469,-0.480469,-0.154297,-0.115234,0.322144,0.080139,-0.846619,-0.415955,up
136388,5.039062,6.726562,-3.855469,-0.832031,-0.126953,-0.101563,0.322144,0.080139,-0.846619,-0.415955,up
136393,5.039062,6.691406,-3.894531,-0.904297,-0.119141,-0.099609,0.322144,0.080139,-0.846619,-0.415955,up
136399,5.039062,6.726562,-3.816406,-0.904297,-0.119141,-0.099609,0.32019,0.077942,-0.843567,-0.424011,up
136405,4.960937,6.769531,-3.855469,-0.904297,-0.119141,-0.099609,0.319763,0.076843,-0.842102,-0.427429,up
136410,4.960937,6.765625,-3.894531,-0.904297,-0.119141,-0.099609,0.319763,0.076843,-0.842102,-0.427429,up
136415,4.960937,6.804687,-3.933594,-0.166016,-0.193359,-0.058594,0.319763,0.076843,-0.842102,-0.427429,up
136420,5.0,6.914062,-4.007812,-0.166016,-0.193359,-0.058594,0.319031,0.076172,-0.841492,-0.429321,up
136425,5.0,6.957031,-4.046875,0.167969,-0.230469,-0.074219,0.318481,0.07605,-0.841553,-0.429626,up
136430,5.0,7.03125,-4.085937,0.167969,-0.230469,-0.074219,0.317871,0.07605,-0.841797,-0.429565,up
136435,5.0,7.148437,-4.164062,0.167969,-0.230469,-0.074219,0.317261,0.076233,-0.842163,-0.42926,up
136441,5.039062,7.191406,-4.238281,0.298828,-0.246094,-0.097656,0.316711,0.076416,-0.84259,-0.428894,up
136446,5.078125,7.21875,-4.277344,0.240234,-0.248047,-0.097656,0.315979,0.076599,-0.843079,-0.428406,up
136451,5.078125,7.296875,-4.390625,0.240234,-0.248047,-0.097656,0.314575,0.076965,-0.843872,-0.427734,up
136456,5.152344,7.335937,-4.46875,0.240234,-0.248047,-0.097656,0.314026,0.076965,-0.844055,-0.427795,up
136461,5.113281,7.296875,-4.546875,-0.142578,-0.179687,-0.099609,0.313538,0.076965,-0.844116,-0.428101,up
136467,5.191406,7.257812,-4.546875,-0.142578,-0.179687,-0.099609,0.31311,0.076843,-0.843994,-0.42865,up
136473,5.152344,7.148437,-4.582031,-0.142578,-0.179687,-0.099609,0.312805,0.076721,-0.84375,-0.429443,up
136478,5.113281,7.113281,-4.546875,-0.357422,-0.072266,-0.091797,0.312805,0.076721,-0.84375,-0.429443,up
136483,5.113281,7.109375,-4.507812,-0.357422,-0.035156,-0.087891,0.312805,0.076721,-0.84375,-0.429443,up
136488,5.078125,7.148437,-4.46875,-0.302734,-0.013672,-0.080078,0.312805,0.076721,-0.84375,-0.429443,up
136494,4.960937,7.222656,-4.316406,-0.302734,-0.013672,-0.080078,0.312805,0.076721,-0.84375,-0.429443,up
136499,4.921875,7.261719,-4.238281,-0.302734,-0.013672,-0.080078,0.312256,0.076416,-0.842102,-0.433044,up
136504,4.886719,7.261719,-4.164062,0.052734,0.021484,-0.052734,0.312256,0.076416,-0.842102,-0.433044,up
136509,4.808594,7.261719,-3.972656,0.052734,0.021484,-0.052734,0.312256,0.076416,-0.842102,-0.433044,up
136514,4.769531,7.21875,-3.894531,0.052734,0.021484,-0.052734,0.312134,0.077087,-0.842407,-0.432434,up
136519,4.730469,7.109375,-3.816406,0.439453,-0.017578,-0.025391,0.312134,0.077087,-0.842407,-0.432434,up
136524,4.730469,7.074219,-3.816406,0.501953,-0.041016,-0.005859,0.312134,0.077087,-0.842407,-0.432434,up
136530,4.730469,7.03125,-3.816406,0.501953,-0.041016,-0.005859,0.31134,0.078552,-0.844482,-0.428711,up
136535,4.769531,7.152344,-3.855469,0.501953,-0.041016,-0.005859,0.31134,0.078552,-0.844482,-0.428711,up
136540,4.730469,7.152344,-3.933594,0.314453,-0.095703,-0.037109,0.31134,0.078552,-0.844482,-0.428711,up
136545,4.730469,7.261719,-4.085937,0.314453,-0.095703,-0.037109,0.310669,0.079102,-0.845459,-0.427124,up
136550,4.769531,7.300781,-4.125,0.314453,-0.095703,-0.037109,0.310364,0.079346,-0.845764,-0.426636,up
136556,4.808594,7.296875,-4.199219,0.035156,-0.068359,-0.091797,0.309875,0.079651,-0.845947,-0.426697,up
136561,4.730469,7.296875,-4.164062,-0.191406,-0.021484,-0.171875,0.309631,0.079834,-0.845764,-0.427124,up
136567,4.695312,7.148437,-4.199219,-0.191406,-0.021484,-0.171875,0.309448,0.080078,-0.845459,-0.427795,up
136572,4.65625,7.148437,-4.164062,-0.308594,0.005859,-0.253906,0.309448,0.080078,-0.845459,-0.427795,up
136577,4.65625,7.113281,-4.046875,-0.322266,0.015625,-0.296875,0.309448,0.080078,-0.845459,-0.427795,up
136582,4.65625,7.113281,-4.046875,-0.322266,0.03125,-0.333984,0.309448,0.080078,-0.845459,-0.427795,up
136588,4.539062,7.03125,-3.933594,-0.322266,0.03125,-0.333984,0.308533,0.081787,-0.84375,-0.431519,up
136593,4.578125,7.109375,-3.894531,-0.269531,0.037109,-0.384766,0.308533,0.081787,-0.84375,-0.431519,up
136598,4.464844,7.21875,-3.855469,-0.232422,0.037109,-0.408203,0.308533,0.081787,-0.84375,-0.431519,up
136603,4.503906,7.261719,-3.777344,-0.179687,0.017578,-0.414062,0.308533,0.081787,-0.84375,-0.431519,up
136608,4.503906,7.296875,-3.664063,-0.132812,-0.009766,-0.414062,0.308533,0.081787,-0.84375,-0.431519,up
