timestamp,ax,ay,az,gx,gy,gz,qw,qx,qy,qz,label
594893,-8.847656,3.011719,3.589844,0.158203,0.066406,0.142578,0.622498,-0.239075,0.516724,0.536987,up
594899,-8.886719,2.894531,3.550781,0.158203,0.066406,0.142578,0.62207,-0.238464,0.517456,0.537048,up
594904,-8.886719,2.78125,3.515625,0.144531,0.029297,0.142578,0.621948,-0.238098,0.517822,0.537048,up
594909,-8.804688,2.742188,3.515625,0.144531,0.029297,0.142578,0.621826,-0.237671,0.518127,0.537048,up
594914,-8.808594,2.664063,3.589844,0.144531,0.029297,0.142578,0.621765,-0.237244,0.518433,0.536987,up
594919,-8.804688,2.664063,3.515625,0.242187,-0.029297,0.107422,0.621765,-0.236694,0.518799,0.536865,up
594924,-8.808594,2.703125,3.476563,0.275391,-0.046875,0.097656,0.621826,-0.236084,0.519165,0.536743,up
594929,-8.691406,2.816406,3.476563,0.275391,-0.046875,0.097656,0.621948,-0.235474,0.51947,0.53656,up
594934,-8.648438,2.816406,3.4375,0.275391,-0.046875,0.097656,0.62207,-0.234924,0.519775,0.536316,up
594939,-8.617188,2.894531,3.4375,0.263672,-0.078125,0.083984,0.622253,-0.234192,0.520081,0.536133,up
594944,-8.539063,2.933594,3.4375,0.232422,-0.072266,0.087891,0.622375,-0.233582,0.520386,0.536011,up
594949,-8.578125,2.972656,3.359375,0.232422,-0.072266,0.087891,0.622437,-0.233154,0.520569,0.535889,up
594955,-8.617188,2.972656,3.398438,0.232422,-0.072266,0.087891,0.622498,-0.232605,0.520752,0.535889,up
594961,-8.652344,2.855469,3.398438,0.232422,-0.072266,0.087891,0.622498,-0.232178,0.520874,0.536011,up
594966,-8.578125,2.816406,3.398438,0.035156,-0.066406,0.136719,0.622498,-0.232178,0.520874,0.536011,up
594971,-8.617188,2.742188,3.4375,-0.005859,-0.066406,0.136719,0.622498,-0.232178,0.520874,0.536011,up
594977,-8.582031,2.742188,3.398438,-0.039063,-0.064453,0.132812,0.622498,-0.232178,0.520874,0.536011,up
594982,-8.542969,2.703125,3.398438,-0.041016,-0.060547,0.136719,0.622498,-0.232178,0.520874,0.536011,up
594988,-8.582031,2.703125,3.359375,-0.041016,-0.060547,0.136719,0.621948,-0.230957,0.520752,0.537231,up
594993,-8.621094,2.664063,3.398438,-0.023437,-0.056641,0.146484,0.621948,-0.230957,0.520752,0.537231,up
594998,-8.652344,2.625,3.4375,0.017578,-0.039063,0.150391,0.621948,-0.230957,0.520752,0.537231,up
595003,-8.617188,2.511719,3.398438,0.017578,-0.039063,0.150391,0.621582,-0.230225,0.520691,0.538086,up
595008,-8.617188,2.511719,3.398438,0.017578,-0.039063,0.150391,0.62146,-0.229919,0.520752,0.538269,up
595013,-8.621094,2.511719,3.4375,0.066406,-0.037109,0.119141,0.62146,-0.229919,0.520752,0.538269,up
595019,-8.582031,2.550781,3.398438,0.095703,-0.039063,0.117188,0.621216,-0.228943,0.521118,0.538574,up
595024,-8.542969,2.625,3.359375,0.095703,-0.039063,0.117188,0.621216,-0.228516,0.521301,0.538574,up
595029,-8.542969,2.625,3.359375,0.134766,-0.027344,0.097656,0.621216,-0.228516,0.521301,0.538574,up
595034,-8.582031,2.664063,3.359375,0.134766,-0.027344,0.097656,0.621155,-0.227783,0.521729,0.538574,up
595039,-8.542969,2.664063,3.398438,0.134766,-0.027344,0.097656,0.621155,-0.227478,0.521912,0.538574,up
595044,-8.542969,2.664063,3.359375,0.09375,-0.005859,0.113281,0.621033,-0.227112,0.522095,0.538635,up
595049,-8.582031,2.703125,3.359375,0.066406,0.001953,0.117188,0.620911,-0.226868,0.522278,0.538696,up
595054,-8.582031,2.664063,3.359375,0.066406,0.001953,0.117188,0.620789,-0.226624,0.5224,0.538818,up
595059,-8.542969,2.703125,3.359375,0.066406,0.001953,0.117188,0.620667,-0.22644,0.522583,0.53894,up
595064,-8.5,2.664063,3.4375,0.025391,0.0,0.132812,0.620483,-0.226196,0.522705,0.539124,up
595069,-8.542969,2.703125,3.398438,0.013672,0.005859,0.138672,0.6203,-0.226013,0.522766,0.539307,up
595074,-8.582031,2.664063,3.359375,0.013672,0.005859,0.138672,0.620117,-0.22583,0.522888,0.53949,up
595079,-8.617188,2.625,3.476563,0.013672,0.005859,0.138672,0.619934,-0.225586,0.52301,0.539734,up
595084,-8.617188,2.550781,3.4375,0.001953,0.009766,0.150391,0.619934,-0.225586,0.52301,0.539734,up
595089,-8.617188,2.550781,3.476563,0.001953,0.009766,0.150391,0.619507,-0.22522,0.523193,0.540161,up
595094,-8.582031,2.511719,3.4375,0.001953,0.009766,0.150391,0.619507,-0.22522,0.523193,0.540161,up
595099,-8.542969,2.550781,3.398438,0.001953,0.009766,0.150391,0.619141,-0.22467,0.523376,0.540588,up
595104,-8.503906,2.550781,3.359375,0.052734,-0.015625,0.15625,0.619141,-0.22467,0.523376,0.540588,up
595109,-8.421875,2.550781,3.324219,0.052734,-0.015625,0.15625,0.618958,-0.224426,0.523499,0.540833,up
595114,-8.425781,2.589844,3.324219,0.052734,-0.015625,0.15625,0.618591,-0.223816,0.523865,0.541138,up
595119,-8.464844,2.589844,3.285156,0.052734,-0.015625,0.15625,0.618408,-0.22345,0.524109,0.541321,up
595124,-8.503906,2.511719,3.285156,0.064453,0.029297,0.171875,0.618408,-0.22345,0.524109,0.541321,up
595129,-8.460938,2.320313,3.324219,0.064453,0.029297,0.171875,0.618164,-0.223145,0.524292,0.541504,up
595134,-8.460938,2.320313,3.359375,0.064453,0.029297,0.171875,0.617798,-0.222595,0.524719,0.541687,up
595139,-8.464844,2.28125,3.359375,0.064453,0.029297,0.171875,0.617798,-0.222595,0.524719,0.541687,up
595144,-8.421875,2.359375,3.359375,0.095703,0.019531,0.097656,0.617554,-0.222107,0.525208,0.541748,up
595149,-8.386719,2.472656,3.285156,0.095703,0.019531,0.097656,0.617493,-0.221863,0.525391,0.541687,up
595154,-8.386719,2.550781,3.324219,0.095703,0.019531,0.097656,0.617432,-0.221619,0.525635,0.541626,up
595159,-8.386719,2.625,3.324219,0.136719,0.033203,0.060547,0.617432,-0.221619,0.525635,0.541626,up
595164,-8.425781,2.703125,3.285156,0.136719,0.033203,0.060547,0.617371,-0.221313,0.52594,0.541504,up
595170,-8.5,2.703125,3.285156,0.136719,0.033203,0.060547,0.617249,-0.220947,0.526428,0.541382,up
595175,-8.5,2.703125,3.285156,0.058594,0.060547,0.0625,0.617126,-0.220825,0.526672,0.541321,up
595180,-8.503906,2.742188,3.324219,0.011719,0.0625,0.066406,0.616943,-0.220764,0.526855,0.541382,up
595185,-8.503906,2.664063,3.359375,0.011719,0.0625,0.066406,0.61676,-0.220764,0.526978,0.541443,up
595191,-8.464844,2.625,3.359375,0.011719,0.0625,0.066406,0.616577,-0.220825,0.5271,0.541504,up
595197,-8.464844,2.625,3.398438,-0.052734,0.064453,0.070312,0.616394,-0.220886,0.527161,0.541626,up
595203,-8.464844,2.625,3.359375,-0.091797,0.087891,0.066406,0.616394,-0.220886,0.527161,0.541626,up
595208,-8.542969,2.625,3.359375,-0.091797,0.087891,0.066406,0.615967,-0.22113,0.527283,0.541931,up
595214,-8.582031,2.589844,3.4375,-0.103516,0.076172,0.078125,0.615967,-0.22113,0.527283,0.541931,up
595219,-8.617188,2.550781,3.4375,-0.085937,0.078125,0.087891,0.615967,-0.22113,0.527283,0.541931,up
595224,-8.648438,2.511719,3.476563,-0.085937,0.078125,0.087891,0.615112,-0.221558,0.527466,0.542542,up
595229,-8.621094,2.550781,3.515625,-0.013672,0.058594,0.082031,0.614868,-0.221619,0.527527,0.542725,up
595234,-8.621094,2.589844,3.476563,-0.013672,0.058594,0.082031,0.614685,-0.221619,0.527649,0.542847,up
595240,-8.582031,2.589844,3.476563,-0.013672,0.058594,0.082031,0.614319,-0.221558,0.527954,0.542969,up
595245,-8.621094,2.664063,3.359375,0.064453,0.056641,0.076172,0.614197,-0.221436,0.528198,0.542969,up
595251,-8.582031,2.703125,3.398438,0.064453,0.056641,0.076172,0.614014,-0.221252,0.528381,0.542969,up
595256,-8.578125,2.703125,3.4375,0.091797,0.041016,0.082031,0.613953,-0.221069,0.528625,0.542969,up
595261,-8.617188,2.664063,3.476563,0.091797,0.041016,0.082031,0.613831,-0.220886,0.528809,0.542969,up
595267,-8.648438,2.664063,3.398438,0.076172,0.039063,0.085937,0.613831,-0.220886,0.528809,0.542969,up
595272,-8.648438,2.664063,3.398438,0.048828,0.039063,0.089844,0.613831,-0.220886,0.528809,0.542969,up
595278,-8.582031,2.664063,3.398438,0.048828,0.039063,0.089844,0.613403,-0.220459,0.529419,0.54303,up
595283,-8.582031,2.664063,3.324219,0.025391,0.042969,0.064453,0.613403,-0.220459,0.529419,0.54303,up
595289,-8.542969,2.664063,3.359375,0.025391,0.054687,0.054687,0.613403,-0.220459,0.529419,0.54303,up
595294,-8.542969,2.742188,3.324219,0.025391,0.054687,0.054687,0.612976,-0.220276,0.529846,0.543152,up
595299,-8.542969,2.742188,3.359375,0.037109,0.064453,0.046875,0.612732,-0.220215,0.530151,0.543152,up
595304,-8.582031,2.78125,3.359375,0.037109,0.064453,0.046875,0.612732,-0.220215,0.530151,0.543152,up
595309,-8.621094,2.78125,3.398438,0.039063,0.074219,0.042969,0.612427,-0.220215,0.530579,0.543091,up
595314,-8.648438,2.742188,3.359375,0.039063,0.074219,0.042969,0.612244,-0.220215,0.530762,0.543091,up
595319,-8.621094,2.703125,3.398438,0.039063,0.074219,0.042969,0.612244,-0.220215,0.530762,0.543091,up
595324,-8.621094,2.78125,3.398438,0.025391,0.078125,0.042969,0.611938,-0.220215,0.531128,0.543091,up
595330,-8.617188,2.816406,3.324219,0.025391,0.078125,0.042969,0.611755,-0.220215,0.531311,0.543091,up
595335,-8.617188,2.816406,3.324219,0.027344,0.076172,0.052734,0.611633,-0.220215,0.531494,0.543091,up
595340,-8.617188,2.816406,3.324219,0.035156,0.080078,0.058594,0.61145,-0.220154,0.531677,0.543091,up
595345,-8.617188,2.855469,3.359375,0.035156,0.080078,0.058594,0.611267,-0.220154,0.531921,0.543091,up
595350,-8.578125,2.855469,3.359375,0.035156,0.080078,0.058594,0.611145,-0.220154,0.532104,0.543091,up
595355,-8.652344,2.855469,3.359375,0.037109,0.072266,0.082031,0.610901,-0.220093,0.532288,0.543152,up
595361,-8.6875,2.894531,3.4375,0.037109,0.072266,0.082031,0.610718,-0.219971,0.532532,0.543152,up
595368,-8.730469,2.855469,3.476563,0.037109,0.072266,0.082031,0.610535,-0.21991,0.532715,0.543213,up
595374,-8.6875,2.855469,3.398438,0.039063,0.046875,0.09375,0.610535,-0.21991,0.532715,0.543213,up
595379,-8.691406,2.816406,3.4375,0.041016,0.046875,0.083984,0.610107,-0.219543,0.533264,0.543396,up
595385,-8.691406,2.855469,3.476563,0.041016,0.046875,0.083984,0.609985,-0.21936,0.533386,0.543396,up
595390,-8.691406,2.855469,3.476563,0.072266,0.019531,0.072266,0.609863,-0.219177,0.533569,0.543396,up
595395,-8.691406,2.855469,3.4375,0.064453,0.013672,0.068359,0.609802,-0.219055,0.533691,0.543457,up
595400,-8.617188,2.855469,3.398438,0.064453,0.013672,0.068359,0.609741,-0.218811,0.533875,0.543457,up
595405,-8.6875,2.894531,3.4375,0.064453,0.013672,0.068359,0.60968,-0.218689,0.533936,0.543457,up
595410,-8.648438,2.933594,3.398438,0.054687,-0.003906,0.037109,0.60968,-0.218689,0.533936,0.543457,up
595415,-8.648438,2.894531,3.398438,0.054687,-0.003906,0.037109,0.609619,-0.218445,0.534119,0.543396,up
595420,-8.578125,2.972656,3.359375,0.054687,-0.003906,0.037109,0.609619,-0.218323,0.534241,0.543396,up
595426,-8.617188,2.972656,3.359375,0.054687,-0.003906,0.037109,0.609558,-0.218201,0.534302,0.543457,up
595431,-8.617188,2.972656,3.398438,0.015625,0.0,0.035156,0.609497,-0.21814,0.534363,0.543457,up
595437,-8.652344,2.933594,3.4375,0.001953,-0.001953,0.041016,0.609497,-0.218079,0.534424,0.543518,up
595442,-8.617188,2.933594,3.4375,0.001953,-0.001953,0.041016,0.609436,-0.218018,0.534424,0.543579,up
595447,-8.621094,2.933594,3.398438,-0.005859,0.0,0.042969,0.609436,-0.218018,0.534424,0.543579,up
595452,-8.621094,2.894531,3.398438,-0.017578,0.003906,0.039063,0.609436,-0.218018,0.534424,0.543579,up
595457,-8.621094,2.894531,3.398438,-0.007813,0.001953,0.039063,0.609436,-0.218018,0.534424,0.543579,up
595463,-8.582031,2.933594,3.324219,-0.007813,0.001953,0.039063,0.609192,-0.217834,0.534485,0.543884,up
595469,-8.621094,2.933594,3.359375,0.013672,0.007813,0.048828,0.609192,-0.217834,0.534485,0.543884,up
595474,-8.582031,2.933594,3.359375,0.013672,0.007813,0.048828,0.609009,-0.217712,0.534546,0.544006,up
595479,-8.582031,2.972656,3.285156,0.013672,0.013672,0.052734,0.609009,-0.217712,0.534546,0.544006,up
595485,-8.542969,2.894531,3.359375,0.037109,0.017578,0.060547,0.608765,-0.217407,0.53479,0.544128,up
595490,-8.617188,2.972656,3.359375,0.037109,0.017578,0.060547,0.608704,-0.217285,0.534912,0.544189,up
595495,-8.617188,2.972656,3.398438,0.037109,0.017578,0.060547,0.608582,-0.217163,0.535034,0.544189,up
595500,-8.617188,2.972656,3.359375,0.068359,0.023437,0.082031,0.608582,-0.217163,0.535034,0.544189,up
595505,-8.652344,3.011719,3.359375,0.068359,0.023437,0.082031,0.608398,-0.216797,0.5354,0.54425,up
595510,-8.648438,3.011719,3.4375,0.068359,0.023437,0.082031,0.608398,-0.216797,0.5354,0.54425,up
595515,-8.617188,3.011719,3.359375,0.068359,0.023437,0.082031,0.608215,-0.216309,0.535767,0.54425,up
595520,-8.652344,3.011719,3.398438,0.095703,0.003906,0.119141,0.608093,-0.216064,0.536011,0.544312,up
595525,-8.652344,3.046875,3.359375,0.095703,0.001953,0.123047,0.607971,-0.215759,0.536194,0.544373,up
595530,-8.6875,3.011719,3.359375,0.095703,0.001953,0.123047,0.607849,-0.215454,0.536377,0.544434,up
595536,-8.578125,3.046875,3.324219,0.095703,0.001953,0.123047,0.607727,-0.215149,0.53656,0.544495,up
595541,-8.617188,3.011719,3.324219,0.105469,0.007813,0.117188,0.607605,-0.214783,0.536804,0.544556,up
595546,-8.578125,3.046875,3.324219,0.105469,0.007813,0.117188,0.607483,-0.214478,0.536987,0.544556,up
595552,-8.578125,3.085938,3.285156,0.105469,0.007813,0.117188,0.607422,-0.214233,0.537231,0.544556,up
595558,-8.617188,3.085938,3.285156,0.107422,0.017578,0.111328,0.6073,-0.213867,0.537476,0.544556,up
595563,-8.578125,3.125,3.285156,0.105469,0.017578,0.113281,0.6073,-0.213867,0.537476,0.544556,up
595568,-8.578125,3.164063,3.207031,0.105469,0.017578,0.113281,0.6073,-0.213867,0.537476,0.544556,up
595573,-8.652344,3.203125,3.207031,0.105469,0.017578,0.113281,0.606934,-0.213074,0.538086,0.544678,up
595578,-8.578125,3.238281,3.167969,0.076172,0.033203,0.115234,0.606934,-0.213074,0.538086,0.544678,up
595583,-8.617188,3.203125,3.207031,0.076172,0.033203,0.115234,0.606628,-0.212646,0.538513,0.5448,up
595589,-8.621094,3.25,3.207031,0.076172,0.033203,0.115234,0.606323,-0.212402,0.538757,0.544983,up
595594,-8.578125,3.25,3.171875,0.076172,0.033203,0.115234,0.606323,-0.212402,0.538757,0.544983,up
595600,-8.542969,3.289063,3.132813,0.017578,0.058594,0.162109,0.606323,-0.212402,0.538757,0.544983,up
595606,-8.542969,3.289063,3.132813,-0.003906,0.087891,0.175781,0.605835,-0.21228,0.538879,0.54541,up
595611,-8.582031,3.289063,3.132813,-0.013672,0.095703,0.199219,0.60553,-0.21228,0.539001,0.545654,up
595616,-8.542969,3.289063,3.09375,-0.013672,0.095703,0.199219,0.605286,-0.21228,0.539062,0.545898,up
595622,-8.621094,3.328125,3.132813,-0.013672,0.095703,0.199219,0.604919,-0.21228,0.539185,0.546143,up
595627,-8.648438,3.367188,3.09375,-0.003906,0.140625,0.253906,0.604919,-0.21228,0.539185,0.546143,up
595633,-8.691406,3.367188,3.09375,-0.007813,0.164062,0.271484,0.604919,-0.21228,0.539185,0.546143,up
595638,-8.691406,3.367188,3.09375,-0.007813,0.177734,0.279297,0.603638,-0.212219,0.539856,0.546997,up
595644,-8.769531,3.402344,3.054688,-0.007813,0.177734,0.279297,0.603088,-0.212158,0.5401,0.547302,up
595650,-8.765625,3.402344,3.09375,0.001953,0.201172,0.304688,0.603088,-0.212158,0.5401,0.547302,up
595655,-8.882813,3.441406,3.132813,0.001953,0.201172,0.304688,0.601807,-0.211914,0.540955,0.547974,up
595661,-8.921875,3.367188,3.132813,0.001953,0.201172,0.304688,0.600403,-0.21167,0.541931,0.548645,up
595666,-8.921875,3.367188,3.132813,0.033203,0.214844,0.302734,0.599609,-0.211487,0.54248,0.549011,up
595671,-8.882813,3.441406,3.207031,0.033203,0.214844,0.302734,0.598938,-0.211365,0.54303,0.549316,up
595676,-8.886719,3.402344,3.132813,0.033203,0.214844,0.302734,0.598389,-0.211243,0.543396,0.549561,up
595681,-8.847656,3.367188,3.132813,0.050781,0.179687,0.289063,0.597717,-0.21106,0.543945,0.549866,up
595686,-8.882813,3.402344,3.171875,0.064453,0.15625,0.294922,0.597107,-0.210815,0.544373,0.55011,up
595691,-8.808594,3.441406,3.09375,0.064453,0.15625,0.294922,0.596558,-0.21051,0.544861,0.550415,up
595696,-8.765625,3.480469,3.054688,0.064453,0.15625,0.294922,0.59613,-0.210205,0.545227,0.550659,up
595701,-8.726563,3.519531,3.054688,0.103516,0.091797,0.318359,0.595581,-0.209717,0.545654,0.550964,up
595706,-8.726563,3.558594,3.015625,0.103516,0.074219,0.333984,0.595093,-0.209229,0.546082,0.55127,up
595712,-8.652344,3.671875,2.902344,0.103516,0.074219,0.333984,0.594604,-0.208801,0.546448,0.551575,up
595717,-8.539063,3.671875,2.902344,0.097656,0.066406,0.369141,0.594116,-0.208252,0.546875,0.55188,up
595723,-8.503906,3.710938,2.863281,0.107422,0.060547,0.392578,0.594116,-0.208252,0.546875,0.55188,up
595729,-8.425781,3.785156,2.824219,0.099609,0.070312,0.408203,0.594116,-0.208252,0.546875,0.55188,up
595734,-8.34375,3.785156,2.824219,0.085937,0.078125,0.439453,0.594116,-0.208252,0.546875,0.55188,up
595739,-8.347656,3.863281,2.789063,0.060547,0.099609,0.462891,0.594116,-0.208252,0.546875,0.55188,up
595745,-8.265625,3.863281,2.710938,0.041016,0.121094,0.505859,0.594116,-0.208252,0.546875,0.55188,up
595750,-8.347656,3.863281,2.710938,0.041016,0.121094,0.505859,0.588989,-0.204224,0.550049,0.555725,up
595755,-8.34375,3.824219,2.75,-0.037109,0.212891,0.599609,0.588989,-0.204224,0.550049,0.555725,up
595760,-8.382813,3.824219,2.710938,-0.037109,0.212891,0.599609,0.588013,-0.203796,0.550537,0.556458,up
595765,-8.421875,3.671875,2.824219,-0.064453,0.232422,0.628906,0.588013,-0.203796,0.550537,0.556458,up
595770,-8.425781,3.59375,2.824219,-0.107422,0.273438,0.640625,0.585632,-0.202942,0.551636,0.558167,up
595775,-8.460938,3.519531,2.824219,-0.107422,0.273438,0.640625,0.584229,-0.202576,0.552246,0.559204,up
595780,-8.5,3.441406,2.863281,-0.107422,0.273438,0.640625,0.583008,-0.202271,0.552734,0.560059,up
595785,-8.460938,3.402344,2.824219,-0.107422,0.273438,0.640625,0.581604,-0.201904,0.553345,0.561035,up
595790,-8.421875,3.367188,2.863281,0.001953,0.234375,0.574219,0.580322,-0.201538,0.553894,0.561951,up
595795,-8.386719,3.328125,2.863281,0.001953,0.234375,0.574219,0.579163,-0.201172,0.554504,0.562683,up
595800,-8.386719,3.441406,2.941406,0.001953,0.234375,0.574219,0.578125,-0.200684,0.555054,0.563354,up
595805,-8.382813,3.441406,2.902344,0.001953,0.234375,0.574219,0.577209,-0.200256,0.555603,0.563904,up
595810,-8.386719,3.519531,2.789063,0.212891,0.195312,0.466797,0.577209,-0.200256,0.555603,0.563904,up
595815,-8.386719,3.59375,2.789063,0.212891,0.195312,0.466797,0.575317,-0.199036,0.557068,0.564819,up
595820,-8.304688,3.785156,2.902344,0.212891,0.195312,0.466797,0.574585,-0.198364,0.557861,0.565063,up
595825,-8.347656,3.863281,2.863281,0.279297,0.130859,0.429687,0.573914,-0.197632,0.558594,0.565247,up
595830,-8.265625,3.863281,2.789063,0.279297,0.130859,0.429687,0.573242,-0.196777,0.559448,0.56543,up
595835,-8.265625,3.902344,2.789063,0.28125,0.107422,0.429687,0.572632,-0.195984,0.560181,0.565613,up
595840,-8.265625,3.902344,2.789063,0.265625,0.103516,0.431641,0.572021,-0.19519,0.560913,0.565735,up
595845,-8.15625,4.054687,2.710938,0.265625,0.103516,0.431641,0.571472,-0.194397,0.561584,0.565918,up
595851,-8.117188,4.09375,2.671875,0.234375,0.113281,0.443359,0.570068,-0.192749,0.563049,0.566406,up
595856,-8.117188,4.132812,2.597656,0.175781,0.125,0.480469,0.569397,-0.192078,0.56366,0.566772,up
595861,-8.0,4.09375,2.597656,0.175781,0.125,0.480469,0.568542,-0.191223,0.564331,0.5672,up
595867,-8.0,4.171875,2.558594,0.175781,0.125,0.480469,0.56781,-0.190674,0.56488,0.567627,up
595872,-7.960937,4.132812,2.558594,0.089844,0.173828,0.546875,0.56781,-0.190674,0.56488,0.567627,up
595877,-7.964844,4.171875,2.558594,0.089844,0.173828,0.546875,0.56781,-0.190674,0.56488,0.567627,up
595882,-7.964844,4.171875,2.558594,0.080078,0.203125,0.603516,0.565918,-0.189331,0.566101,0.568726,up
595887,-7.964844,4.132812,2.597656,0.080078,0.203125,0.603516,0.565918,-0.189331,0.566101,0.568726,up
595892,-8.0,4.015625,2.558594,0.060547,0.224609,0.611328,0.565918,-0.189331,0.566101,0.568726,up
595897,-8.0,4.015625,2.558594,0.050781,0.244141,0.623047,0.562561,-0.187439,0.568115,0.570679,up
595903,-8.039063,3.980469,2.558594,0.050781,0.244141,0.623047,0.56012,-0.186218,0.569519,0.572083,up
595909,-8.042969,4.015625,2.597656,0.082031,0.261719,0.626953,0.56012,-0.186218,0.569519,0.572083,up
595915,-8.042969,3.980469,2.597656,0.082031,0.261719,0.626953,0.56012,-0.186218,0.569519,0.572083,up
595920,-8.039063,4.054687,2.558594,0.138672,0.25,0.623047,0.56012,-0.186218,0.569519,0.572083,up
595926,-8.0,4.015625,2.558594,0.179687,0.25,0.595703,0.554199,-0.182861,0.573547,0.574829,up
595931,-7.925781,4.132812,2.558594,0.179687,0.25,0.595703,0.553101,-0.182007,0.574524,0.575195,up
595936,-8.0,4.171875,2.558594,0.273438,0.240234,0.574219,0.552185,-0.181274,0.575378,0.5755,up
595941,-8.003906,4.246094,2.558594,0.296875,0.232422,0.554687,0.552185,-0.181274,0.575378,0.5755,up
595946,-8.003906,4.285156,2.558594,0.296875,0.232422,0.554687,0.550171,-0.179504,0.577332,0.575928,up
595951,-8.0,4.398437,2.558594,0.296875,0.232422,0.554687,0.549133,-0.178589,0.57843,0.576172,up
595956,-7.960937,4.4375,2.519531,0.339844,0.220703,0.535156,0.549133,-0.178589,0.57843,0.576172,up
595961,-7.964844,4.554687,2.519531,0.339844,0.220703,0.535156,0.54834,-0.177734,0.579346,0.576294,up
595967,-7.964844,4.589844,2.480469,0.339844,0.220703,0.535156,0.546692,-0.176147,0.581116,0.576538,up
595972,-7.960937,4.589844,2.519531,0.314453,0.226562,0.525391,0.545959,-0.175415,0.581909,0.57666,up
595977,-7.960937,4.589844,2.519531,0.287109,0.224609,0.525391,0.545166,-0.174683,0.582764,0.576782,up
595983,-7.960937,4.707031,2.519531,0.287109,0.224609,0.525391,0.544312,-0.174011,0.583557,0.576965,up
595989,-8.042969,4.746094,2.519531,0.259766,0.230469,0.525391,0.544312,-0.174011,0.583557,0.576965,up
595994,-8.003906,4.746094,2.519531,0.244141,0.21875,0.533203,0.544312,-0.174011,0.583557,0.576965,up
595999,-7.964844,4.667969,2.480469,0.228516,0.214844,0.53125,0.544312,-0.174011,0.583557,0.576965,up
596005,-7.960937,4.667969,2.519531,0.228516,0.214844,0.53125,0.544312,-0.174011,0.583557,0.576965,up
596010,-7.925781,4.667969,2.519531,0.201172,0.15625,0.529297,0.544312,-0.174011,0.583557,0.576965,up
596015,-7.882812,4.667969,2.519531,0.201172,0.15625,0.529297,0.538879,-0.169678,0.588196,0.578613,up
596020,-7.84375,4.667969,2.519531,0.205078,0.154297,0.527344,0.538879,-0.169678,0.588196,0.578613,up
596025,-7.882812,4.667969,2.519531,0.212891,0.160156,0.519531,0.538879,-0.169678,0.588196,0.578613,up
596030,-7.84375,4.628906,2.519531,0.21875,0.152344,0.519531,0.538879,-0.169678,0.588196,0.578613,up
596035,-7.84375,4.667969,2.519531,0.21875,0.152344,0.519531,0.535461,-0.166504,0.591003,0.579895,up
596041,-7.816406,4.707031,2.519531,0.244141,0.148437,0.484375,0.533997,-0.165039,0.592346,0.580261,up
596046,-7.8125,4.707031,2.480469,0.261719,0.134766,0.451172,0.533997,-0.165039,0.592346,0.580261,up
596051,-7.816406,4.707031,2.519531,0.271484,0.121094,0.423828,0.533264,-0.164185,0.593079,0.580444,up
596056,-7.777344,4.746094,2.480469,0.271484,0.121094,0.423828,0.532043,-0.162781,0.59436,0.580627,up
596061,-7.777344,4.746094,2.480469,0.271484,0.121094,0.423828,0.532043,-0.162781,0.59436,0.580627,up
596066,-7.816406,4.78125,2.441406,0.269531,0.136719,0.371094,0.530823,-0.161377,0.595764,0.58075,up
596071,-7.734375,4.78125,2.480469,0.246094,0.150391,0.335938,0.530823,-0.161377,0.595764,0.58075,up
596077,-7.734375,4.78125,2.480469,0.238281,0.150391,0.314453,0.529724,-0.160278,0.597046,0.58075,up
596082,-7.773437,4.78125,2.480469,0.222656,0.152344,0.298828,0.529114,-0.159668,0.597717,0.58075,up
596088,-7.738281,4.820312,2.441406,0.222656,0.152344,0.298828,0.528687,-0.159302,0.598206,0.58075,up
596093,-7.8125,4.859375,2.519531,0.222656,0.152344,0.298828,0.528687,-0.159302,0.598206,0.58075,up
596099,-7.816406,4.898437,2.480469,0.183594,0.144531,0.232422,0.528687,-0.159302,0.598206,0.58075,up
596104,-7.8125,4.972656,2.480469,0.175781,0.142578,0.208984,0.528687,-0.159302,0.598206,0.58075,up
596109,-7.816406,5.011719,2.519531,0.175781,0.142578,0.208984,0.526917,-0.157959,0.600281,0.580566,up
596114,-7.84375,5.089844,2.519531,0.175781,0.142578,0.208984,0.526917,-0.157959,0.600281,0.580566,up
596119,-7.84375,5.089844,2.519531,0.177734,0.107422,0.132812,0.526917,-0.157959,0.600281,0.580566,up
596124,-7.84375,5.089844,2.519531,0.160156,0.09375,0.115234,0.526917,-0.157959,0.600281,0.580566,up
596129,-7.84375,5.128906,2.519531,0.160156,0.09375,0.115234,0.526917,-0.157959,0.600281,0.580566,up
596135,-7.84375,5.128906,2.519531,0.160156,0.09375,0.115234,0.525757,-0.156799,0.602173,0.579956,up
596141,-7.847656,5.167969,2.480469,0.107422,0.033203,0.099609,0.525757,-0.156799,0.602173,0.579956,up
596146,-7.8125,5.167969,2.480469,0.107422,0.033203,0.099609,0.525391,-0.156189,0.602905,0.579773,up
596151,-7.847656,5.167969,2.441406,0.107422,0.033203,0.099609,0.525208,-0.156006,0.603027,0.579773,up
596156,-7.777344,5.167969,2.480469,0.107422,0.033203,0.099609,0.525208,-0.156006,0.603027,0.579773,up
596161,-7.773437,5.128906,2.519531,0.042969,0.025391,0.099609,0.524963,-0.155762,0.603271,0.579834,up
596166,-7.84375,5.203125,2.480469,0.042969,0.025391,0.099609,0.524963,-0.155762,0.603271,0.579834,up
596171,-7.886719,5.203125,2.519531,0.013672,0.03125,0.054687,0.524841,-0.155701,0.603333,0.579895,up
596176,-7.847656,5.167969,2.480469,0.013672,0.03125,0.054687,0.524719,-0.155701,0.603394,0.579956,up
596181,-7.816406,5.203125,2.441406,0.013672,0.03125,0.054687,0.524597,-0.15564,0.603516,0.579956,up
596186,-7.816406,5.203125,2.441406,0.011719,0.054687,0.015625,0.524597,-0.15564,0.603516,0.579956,up
596191,-7.816406,5.203125,2.441406,0.011719,0.054687,0.015625,0.524536,-0.155701,0.603577,0.579956,up
596196,-7.84375,5.128906,2.40625,0.056641,0.068359,0.0,0.524536,-0.155701,0.603577,0.579956,up
596202,-7.882812,5.203125,2.480469,0.056641,0.068359,0.0,0.524353,-0.155884,0.603943,0.579712,up
596207,-7.886719,5.167969,2.480469,0.082031,0.070312,-0.025391,0.524292,-0.155945,0.604126,0.579468,up
596212,-7.886719,5.167969,2.480469,0.082031,0.070312,-0.025391,0.524353,-0.156006,0.604309,0.579285,up
596217,-7.921875,5.167969,2.480469,0.072266,0.076172,-0.054687,0.524353,-0.156006,0.604309,0.579285,up
596222,-7.921875,5.167969,2.441406,0.072266,0.076172,-0.054687,0.524353,-0.15625,0.604553,0.578857,up
596227,-7.960937,5.203125,2.480469,0.074219,0.070312,-0.087891,0.524475,-0.156433,0.604736,0.578613,up
596232,-7.882812,5.203125,2.480469,0.097656,0.044922,-0.103516,0.524536,-0.156555,0.604858,0.578308,up
596238,-7.964844,5.242187,2.519531,0.113281,0.041016,-0.126953,0.524719,-0.156677,0.60498,0.578003,up
596243,-8.082031,5.320312,2.558594,0.113281,0.041016,-0.126953,0.524963,-0.156799,0.605103,0.577637,up
596249,-8.117188,5.28125,2.519531,0.09375,0.007813,-0.152344,0.524963,-0.156799,0.605103,0.577637,up
596254,-8.15625,5.433594,2.519531,0.072266,-0.001953,-0.173828,0.524963,-0.156799,0.605103,0.577637,up
596260,-8.15625,5.511719,2.480469,0.060547,-0.023437,-0.203125,0.524963,-0.156799,0.605103,0.577637,up
596266,-8.199219,5.550781,2.519531,0.037109,-0.041016,-0.248047,0.524963,-0.156799,0.605103,0.577637,up
596271,-8.304688,5.320312,2.558594,0.037109,-0.041016,-0.248047,0.526672,-0.157837,0.605103,0.575867,up
596276,-8.386719,5.203125,2.597656,0.037109,-0.041016,-0.248047,0.527161,-0.158142,0.604919,0.5755,up
596282,-8.195313,5.359375,2.597656,-0.001953,-0.166016,-0.326172,0.527161,-0.158142,0.604919,0.5755,up
596287,-8.15625,5.550781,2.558594,-0.001953,-0.166016,-0.326172,0.529175,-0.159058,0.603943,0.574402,up
596293,-8.230469,5.472656,2.328125,-0.001953,-0.166016,-0.326172,0.529785,-0.159424,0.603577,0.574158,up
596298,-8.121094,5.359375,2.441406,-0.146484,-0.160156,-0.361328,0.530518,-0.159912,0.603027,0.573914,up
596303,-8.0,5.28125,2.558594,-0.207031,-0.203125,-0.369141,0.530518,-0.159912,0.603027,0.573914,up
596308,-8.0,5.167969,2.597656,-0.205078,-0.238281,-0.386719,0.530518,-0.159912,0.603027,0.573914,up
596314,-8.039063,5.050781,2.519531,-0.205078,-0.238281,-0.386719,0.532959,-0.16156,0.600769,0.573486,up
596319,-8.003906,5.011719,2.519531,-0.246094,-0.246094,-0.419922,0.532959,-0.16156,0.600769,0.573486,up
596325,-8.078125,4.898437,2.519531,-0.253906,-0.244141,-0.435547,0.532959,-0.16156,0.600769,0.573486,up
596330,-8.078125,4.707031,2.480469,-0.253906,-0.244141,-0.435547,0.532959,-0.16156,0.600769,0.573486,up
596336,-8.042969,4.628906,2.558594,-0.232422,-0.285156,-0.478516,0.532959,-0.16156,0.600769,0.573486,up
596341,-8.003906,4.589844,2.558594,-0.210937,-0.310547,-0.513672,0.539001,-0.165283,0.595337,0.57251,up
596346,-7.960937,4.515625,2.597656,-0.210937,-0.310547,-0.513672,0.539001,-0.165283,0.595337,0.57251,up
596352,-8.0,4.515625,2.558594,-0.074219,-0.326172,-0.583984,0.540222,-0.165833,0.594421,0.572144,up
596357,-7.964844,4.515625,2.558594,-0.074219,-0.326172,-0.583984,0.542847,-0.16687,0.592773,0.571045,up
596362,-7.964844,4.515625,2.632813,-0.074219,-0.326172,-0.583984,0.544373,-0.167236,0.59198,0.570312,up
596367,-7.960937,4.515625,2.597656,-0.074219,-0.326172,-0.583984,0.545959,-0.16748,0.591248,0.569519,up
596372,-7.964844,4.554687,2.558594,0.140625,-0.429687,-0.59375,0.545959,-0.16748,0.591248,0.569519,up
596377,-7.960937,4.589844,2.558594,0.140625,-0.429687,-0.59375,0.54895,-0.167725,0.589905,0.567871,up
596382,-7.960937,4.628906,2.558594,0.140625,-0.429687,-0.59375,0.550415,-0.167725,0.589294,0.567139,up
596387,-7.925781,4.667969,2.558594,0.119141,-0.472656,-0.544922,0.552063,-0.167725,0.588501,0.566345,up
596392,-7.925781,4.667969,2.558594,0.105469,-0.480469,-0.519531,0.552063,-0.167725,0.588501,0.566345,up
596397,-7.925781,4.667969,2.558594,0.105469,-0.480469,-0.519531,0.554993,-0.167664,0.587036,0.565063,up
596403,-7.84375,4.589844,2.519531,0.105469,-0.480469,-0.519531,0.556396,-0.167603,0.586243,0.564453,up
596408,-7.847656,4.554687,2.519531,0.011719,-0.480469,-0.46875,0.5578,-0.167603,0.585388,0.563965,up
596413,-7.847656,4.554687,2.519531,-0.013672,-0.457031,-0.458984,0.559204,-0.167664,0.584534,0.563538,up
596418,-7.816406,4.515625,2.480469,-0.013672,-0.457031,-0.458984,0.560486,-0.167725,0.583679,0.56311,up
596423,-7.847656,4.4375,2.441406,-0.013672,-0.457031,-0.458984,0.561707,-0.167847,0.582825,0.562683,up
596430,-7.921875,4.4375,2.441406,-0.023437,-0.357422,-0.457031,0.561707,-0.167847,0.582825,0.562683,up
596436,-7.925781,4.398437,2.480469,-0.007813,-0.34375,-0.464844,0.561707,-0.167847,0.582825,0.562683,up
596441,-7.964844,4.398437,2.40625,0.003906,-0.322266,-0.480469,0.561707,-0.167847,0.582825,0.562683,up
596447,-8.0,4.4375,2.480469,0.005859,-0.310547,-0.490234,0.567627,-0.169128,0.579285,0.560059,up
596452,-8.0,4.324219,2.519531,0.005859,-0.310547,-0.490234,0.568787,-0.169434,0.578613,0.559448,up
596457,-8.078125,4.324219,2.519531,0.005859,-0.310547,-0.490234,0.569824,-0.169739,0.578064,0.558838,up
596462,-8.042969,4.285156,2.558594,0.003906,-0.300781,-0.546875,0.569824,-0.169739,0.578064,0.558838,up
596467,-8.082031,4.285156,2.558594,-0.011719,-0.3125,-0.554687,0.571106,-0.170166,0.577332,0.558167,up
596472,-8.078125,4.324219,2.558594,-0.011719,-0.3125,-0.554687,0.573547,-0.170898,0.575928,0.556885,up
596477,-8.039063,4.324219,2.558594,-0.011719,-0.3125,-0.554687,0.574768,-0.171387,0.575134,0.556335,up
596482,-8.042969,4.285156,2.558594,-0.113281,-0.339844,-0.5625,0.574768,-0.171387,0.575134,0.556335,up
596487,-8.003906,4.246094,2.558594,-0.113281,-0.339844,-0.5625,0.576111,-0.171875,0.574219,0.555786,up
596493,-8.003906,4.246094,2.558594,-0.113281,-0.339844,-0.5625,0.57843,-0.172852,0.572327,0.554932,up
596498,-8.003906,4.246094,2.558594,-0.185547,-0.402344,-0.509766,0.579651,-0.17334,0.571289,0.554565,up
596503,-8.003906,4.246094,2.558594,-0.183594,-0.423828,-0.474609,0.579651,-0.17334,0.571289,0.554565,up
596508,-8.0,4.246094,2.597656,-0.183594,-0.423828,-0.474609,0.580872,-0.173706,0.570251,0.554321,up
596513,-8.082031,4.4375,2.558594,-0.177734,-0.410156,-0.449219,0.582031,-0.174072,0.569153,0.554077,up
596518,-8.082031,4.4375,2.558594,-0.177734,-0.410156,-0.449219,0.582031,-0.174072,0.569153,0.554077,up
596524,-8.160156,4.589844,2.558594,-0.175781,-0.416016,-0.384766,0.585266,-0.174866,0.56604,0.553589,up
596529,-8.230469,4.628906,2.558594,-0.175781,-0.416016,-0.384766,0.586304,-0.174988,0.565063,0.553467,up
596535,-8.230469,4.628906,2.558594,-0.130859,-0.470703,-0.351563,0.586304,-0.174988,0.565063,0.553467,up
596541,-8.199219,4.667969,2.597656,-0.148437,-0.509766,-0.345703,0.586304,-0.174988,0.565063,0.553467,up
596546,-8.160156,4.628906,2.710938,-0.259766,-0.548828,-0.400391,0.586304,-0.174988,0.565063,0.553467,up
596551,-8.078125,4.554687,2.710938,-0.259766,-0.548828,-0.400391,0.590942,-0.175232,0.560425,0.553162,up
596557,-8.082031,4.476562,2.632813,-0.453125,-0.558594,-0.453125,0.590942,-0.175232,0.560425,0.553162,up
596562,-8.003906,4.324219,2.671875,-0.453125,-0.558594,-0.453125,0.593323,-0.175903,0.557434,0.553406,up
596567,-7.886719,4.207031,2.671875,-0.658203,-0.5625,-0.476562,0.594666,-0.176575,0.555542,0.553711,up
596572,-7.882812,4.09375,2.710938,-0.658203,-0.5625,-0.476562,0.595947,-0.177429,0.553528,0.554077,up
596577,-7.847656,4.015625,2.710938,-0.658203,-0.5625,-0.476562,0.597046,-0.178345,0.551514,0.554626,up
596582,-7.777344,3.824219,2.710938,-0.841797,-0.53125,-0.482422,0.598999,-0.180603,0.547424,0.555847,up
596587,-7.816406,3.710938,2.710938,-0.908203,-0.5,-0.490234,0.598999,-0.180603,0.547424,0.555847,up
596592,-7.8125,3.671875,2.75,-0.908203,-0.5,-0.490234,0.600037,-0.182007,0.544983,0.556641,up
596597,-7.84375,3.59375,2.75,-0.878906,-0.490234,-0.480469,0.601868,-0.184509,0.54071,0.557983,up
596603,-7.847656,3.480469,2.789063,-0.878906,-0.490234,-0.480469,0.602722,-0.185669,0.538818,0.558472,up
596608,-7.882812,3.441406,2.824219,-0.603516,-0.410156,-0.460937,0.602722,-0.185669,0.538818,0.558472,up
596613,-7.886719,3.402344,2.824219,-0.462891,-0.390625,-0.449219,0.602722,-0.185669,0.538818,0.558472,up
596618,-7.964844,3.441406,2.789063,-0.462891,-0.390625,-0.449219,0.605591,-0.188232,0.534058,0.559143,up
596623,-7.960937,3.441406,2.824219,-0.462891,-0.390625,-0.449219,0.606506,-0.188599,0.53302,0.55896,up
596628,-7.960937,3.441406,2.824219,0.017578,-0.308594,-0.402344,0.607544,-0.188843,0.532166,0.558533,up
596633,-8.042969,3.519531,2.863281,0.017578,-0.308594,-0.402344,0.608582,-0.188843,0.531616,0.557983,up
596638,-8.082031,3.632813,2.863281,0.017578,-0.308594,-0.402344,0.609436,-0.188721,0.531311,0.557373,up
596644,-8.121094,3.710938,2.902344,0.017578,-0.308594,-0.402344,0.610474,-0.188416,0.531189,0.556458,up
596650,-8.160156,3.75,2.863281,0.392578,-0.1875,-0.34375,0.610474,-0.188416,0.531189,0.556458,up
596656,-8.265625,3.980469,2.824219,0.392578,-0.1875,-0.34375,0.610474,-0.188416,0.531189,0.556458,up
596662,-8.304688,3.980469,2.824219,0.466797,-0.132812,-0.328125,0.610474,-0.188416,0.531189,0.556458,up
596667,-8.34375,4.054687,2.863281,0.478516,-0.123047,-0.324219,0.614746,-0.186279,0.532166,0.551514,up
596672,-8.421875,4.132812,2.902344,0.478516,-0.123047,-0.324219,0.61554,-0.185852,0.532471,0.550476,up
596677,-8.421875,4.171875,2.941406,0.478516,-0.123047,-0.324219,0.616333,-0.185486,0.532715,0.5495,up
596682,-8.464844,4.171875,2.941406,0.478516,-0.123047,-0.324219,0.616333,-0.185486,0.532715,0.5495,up
596687,-8.503906,4.171875,3.015625,0.333984,-0.105469,-0.298828,0.617737,-0.184937,0.53302,0.547791,up
596692,-8.5,4.207031,3.054688,0.333984,-0.105469,-0.298828,0.617737,-0.184937,0.53302,0.547791,up
596697,-8.5,4.171875,3.132813,0.333984,-0.105469,-0.298828,0.618469,-0.184692,0.533081,0.546997,up
596702,-8.503906,4.09375,3.09375,0.210937,-0.15625,-0.271484,0.619812,-0.184387,0.532898,0.545776,up
596707,-8.460938,4.054687,3.09375,0.210937,-0.15625,-0.271484,0.619812,-0.184387,0.532898,0.545776,up
596712,-8.5,3.980469,3.132813,0.021484,-0.210937,-0.240234,0.620422,-0.184326,0.532654,0.545288,up
596717,-8.464844,3.902344,3.132813,0.021484,-0.210937,-0.240234,0.621094,-0.184265,0.532288,0.544922,up
596722,-8.386719,3.824219,3.171875,0.021484,-0.210937,-0.240234,0.621643,-0.184326,0.53186,0.544678,up
596727,-8.425781,3.75,3.171875,-0.0625,-0.240234,-0.251953,0.622375,-0.184387,0.53125,0.544434,up
596732,-8.386719,3.75,3.132813,-0.0625,-0.240234,-0.251953,0.622925,-0.184509,0.530701,0.544312,up
596737,-8.304688,3.632813,3.132813,-0.160156,-0.232422,-0.244141,0.622925,-0.184509,0.530701,0.544312,up
596742,-8.304688,3.558594,3.132813,-0.160156,-0.232422,-0.244141,0.624146,-0.184875,0.529358,0.544128,up
596747,-8.304688,3.558594,3.132813,-0.160156,-0.232422,-0.244141,0.625244,-0.185486,0.527954,0.544006,up
596752,-8.304688,3.519531,3.207031,-0.160156,-0.232422,-0.244141,0.625244,-0.185486,0.527954,0.544006,up
596757,-8.269531,3.519531,3.171875,-0.169922,-0.167969,-0.248047,0.625244,-0.185486,0.527954,0.544006,up
596762,-8.269531,3.558594,3.171875,-0.169922,-0.167969,-0.248047,0.626221,-0.186096,0.526672,0.543884,up
596767,-8.347656,3.59375,3.285156,-0.169922,-0.167969,-0.248047,0.626709,-0.186462,0.526062,0.543823,up
596773,-8.304688,3.671875,3.324219,-0.117188,-0.136719,-0.230469,0.626709,-0.186462,0.526062,0.543823,up
596778,-8.386719,3.710938,3.246094,-0.117188,-0.136719,-0.230469,0.628052,-0.187439,0.524475,0.543396,up
596783,-8.382813,3.75,3.324219,-0.117188,-0.136719,-0.230469,0.628418,-0.187683,0.524048,0.543335,up
596788,-8.5,3.863281,3.515625,-0.154297,-0.150391,-0.214844,0.628906,-0.187988,0.523499,0.543213,up
596794,-8.539063,3.980469,3.628906,-0.154297,-0.150391,-0.214844,0.629272,-0.188354,0.522888,0.543213,up
596799,-8.578125,3.980469,3.746094,-0.154297,-0.150391,-0.214844,0.629639,-0.188721,0.522278,0.543274,up
596805,-8.503906,3.902344,3.746094,-0.398438,-0.201172,-0.214844,0.629639,-0.188721,0.522278,0.543274,up
596810,-8.542969,3.863281,3.785156,-0.507812,-0.214844,-0.210937,0.629639,-0.188721,0.522278,0.543274,up
596815,-8.542969,3.785156,3.820313,-0.507812,-0.214844,-0.210937,0.630676,-0.190979,0.518982,0.544434,up
596820,-8.539063,3.558594,3.898438,-0.507812,-0.214844,-0.210937,0.63092,-0.191833,0.517822,0.544983,up
596826,-8.539063,3.367188,3.898438,-0.806641,-0.251953,-0.199219,0.63092,-0.191833,0.517822,0.544983,up
596832,-8.421875,3.175781,4.011719,-0.878906,-0.28125,-0.214844,0.63092,-0.191833,0.517822,0.544983,up
596837,-8.421875,3.210938,4.011719,-0.927734,-0.298828,-0.208984,0.63092,-0.191833,0.517822,0.544983,up
596842,-8.464844,3.25,4.011719,-0.941406,-0.335938,-0.222656,0.63092,-0.191833,0.517822,0.544983,up
596847,-8.464844,3.175781,4.011719,-0.941406,-0.335938,-0.222656,0.632019,-0.198181,0.508972,0.549744,up
596852,-8.460938,3.289063,4.050781,-0.941406,-0.335938,-0.222656,0.632385,-0.199524,0.506958,0.550781,up
596857,-8.464844,3.328125,4.089844,-0.941406,-0.335938,-0.222656,0.63269,-0.200623,0.505127,0.551636,up
596862,-8.464844,3.328125,4.089844,-0.798828,-0.445312,-0.242187,0.633179,-0.20166,0.503174,0.552551,up
596867,-8.464844,3.328125,4.089844,-0.773437,-0.476562,-0.246094,0.633667,-0.202515,0.501282,0.553345,up
596872,-8.34375,3.402344,4.050781,-0.773437,-0.476562,-0.246094,0.634216,-0.203308,0.499329,0.554138,up
596877,-8.34375,3.402344,4.050781,-0.773437,-0.476562,-0.246094,0.634216,-0.203308,0.499329,0.554138,up
596882,-8.265625,3.367188,4.089844,-0.78125,-0.611328,-0.203125,0.635437,-0.204773,0.495361,0.555786,up
596887,-8.347656,3.25,4.167969,-0.78125,-0.611328,-0.203125,0.636108,-0.205444,0.493225,0.556702,up
596893,-8.269531,3.019531,4.242187,-0.78125,-0.611328,-0.203125,0.637329,-0.206665,0.488586,0.558899,up
596898,-8.195313,2.792969,4.242187,-0.78125,-0.611328,-0.203125,0.637329,-0.206665,0.488586,0.558899,up
596903,-8.160156,2.675781,4.320312,-0.917969,-0.716797,-0.136719,0.63855,-0.207947,0.483582,0.561401,up
596908,-8.039063,2.40625,4.394531,-0.917969,-0.716797,-0.136719,0.639099,-0.208557,0.481018,0.562744,up
596913,-8.003906,2.332031,4.394531,-0.917969,-0.716797,-0.136719,0.639709,-0.209167,0.478271,0.564148,up
596918,-8.039063,2.214844,4.320312,-0.917969,-0.716797,-0.136719,0.639709,-0.209167,0.478271,0.564148,up
596923,-7.964844,2.140625,4.359375,-0.867187,-0.734375,-0.128906,0.639709,-0.209167,0.478271,0.564148,up
596928,-7.960937,2.214844,4.394531,-0.867187,-0.734375,-0.128906,0.641602,-0.210449,0.471069,0.567566,up
596933,-7.960937,2.214844,4.359375,-0.544922,-0.693359,-0.164062,0.641602,-0.210449,0.471069,0.567566,up
596938,-7.921875,2.214844,4.320312,-0.544922,-0.693359,-0.164062,0.643066,-0.210632,0.467224,0.569031,up
596943,-7.960937,2.292969,4.28125,-0.544922,-0.693359,-0.164062,0.643799,-0.21051,0.465637,0.569519,up
596948,-7.925781,2.40625,4.472656,-0.544922,-0.693359,-0.164062,0.644714,-0.210388,0.463989,0.569885,up
596953,-8.003906,2.484375,4.511719,-0.246094,-0.582031,-0.242187,0.644714,-0.210388,0.463989,0.569885,up
596958,-7.960937,2.5625,4.585937,-0.246094,-0.582031,-0.242187,0.646423,-0.210083,0.461243,0.570312,up
596963,-8.042969,2.636719,4.664062,-0.207031,-0.572266,-0.267578,0.646423,-0.210083,0.461243,0.570312,up
596968,-8.042969,2.636719,4.703125,-0.207031,-0.572266,-0.267578,0.647339,-0.2099,0.4599,0.570435,up
596973,-7.964844,2.675781,4.742187,-0.267578,-0.554687,-0.255859,0.647339,-0.2099,0.4599,0.570435,up
596978,-8.042969,2.753906,4.78125,-0.267578,-0.554687,-0.255859,0.650024,-0.209595,0.455627,0.570923,up
596983,-8.121094,2.675781,4.816406,-0.267578,-0.554687,-0.255859,0.650757,-0.209656,0.454163,0.571228,up
596988,-8.160156,2.523438,4.972656,-0.267578,-0.554687,-0.255859,0.650757,-0.209656,0.454163,0.571228,up
596993,-8.15625,2.40625,5.085937,-0.476562,-0.617187,-0.253906,0.650757,-0.209656,0.454163,0.571228,up
596998,-8.160156,2.292969,5.164062,-0.476562,-0.617187,-0.253906,0.653137,-0.210144,0.448975,0.57251,up
597003,-8.121094,2.214844,5.125,-0.476562,-0.617187,-0.253906,0.653137,-0.210144,0.448975,0.57251,up
597008,-8.0,2.140625,5.164062,-0.542969,-0.705078,-0.304688,0.654053,-0.210388,0.446716,0.573059,up
597014,-7.886719,2.140625,5.085937,-0.542969,-0.705078,-0.304688,0.655884,-0.210754,0.442627,0.574036,up
597020,-7.8125,2.179688,5.125,-0.542969,-0.705078,-0.304688,0.656799,-0.210815,0.440735,0.574402,up
597026,-7.816406,2.214844,5.085937,-0.425781,-0.751953,-0.306641,0.656799,-0.210815,0.440735,0.574402,up
597031,-7.816406,2.253906,5.125,-0.390625,-0.75,-0.302734,0.656799,-0.210815,0.440735,0.574402,up
597037,-7.847656,2.140625,5.238281,-0.390625,-0.75,-0.302734,0.659912,-0.210571,0.434753,0.575439,up
597043,-7.8125,2.140625,5.238281,-0.400391,-0.714844,-0.320313,0.659912,-0.210571,0.434753,0.575439,up
597048,-7.886719,2.179688,5.238281,-0.400391,-0.714844,-0.320313,0.661987,-0.210449,0.430908,0.57605,up
597053,-7.960937,2.101563,5.507812,-0.425781,-0.736328,-0.339844,0.661987,-0.210449,0.430908,0.57605,up
597058,-8.0,2.0625,5.546875,-0.492187,-0.804687,-0.394531,0.664062,-0.210449,0.42688,0.576599,up
597063,-8.042969,2.0625,5.507812,-0.492187,-0.804687,-0.394531,0.666382,-0.210571,0.422363,0.577209,up
597068,-7.921875,2.023438,5.621094,-0.492187,-0.804687,-0.394531,0.666382,-0.210571,0.422363,0.577209,up
597073,-7.882812,1.988281,5.8125,-0.492187,-0.804687,-0.394531,0.669006,-0.210632,0.417114,0.578003,up
597078,-7.84375,1.832031,5.8125,-0.492187,-0.804687,-0.394531,0.669006,-0.210632,0.417114,0.578003,up
597083,-7.84375,1.832031,5.8125,-0.617187,-1.044922,-0.412109,0.670349,-0.210571,0.414368,0.57843,up
597088,-7.773437,1.335938,5.96875,-0.640625,-1.070313,-0.392578,0.671631,-0.21051,0.411621,0.578979,up
597093,-7.773437,1.335938,5.96875,-0.626953,-1.101563,-0.375,0.672913,-0.210388,0.408691,0.579529,up
597099,-7.773437,1.183594,6.042969,-0.626953,-1.101563,-0.375,0.674255,-0.210144,0.405823,0.580139,up
597105,-7.617187,1.027344,6.121094,-0.539062,-1.142578,-0.369141,0.677063,-0.209412,0.399963,0.581116,up
597110,-7.429687,1.335938,6.082031,-0.539062,-1.142578,-0.369141,0.678528,-0.208862,0.397339,0.581482,up
597116,-7.433594,1.105469,6.042969,-0.298828,-1.091797,-0.416016,0.678528,-0.208862,0.397339,0.581482,up
597121,-7.394531,1.105469,5.96875,-0.220703,-1.0625,-0.455078,0.678528,-0.208862,0.397339,0.581482,up
597126,-7.316406,1.410156,6.121094,-0.220703,-1.0625,-0.455078,0.683167,-0.206726,0.390076,0.581665,up
597131,-7.277344,1.601563,6.234375,-0.007813,-1.037109,-0.576172,0.683167,-0.206726,0.390076,0.581665,up
597137,-7.160156,1.679688,6.3125,0.017578,-1.025391,-0.660156,0.683167,-0.206726,0.390076,0.581665,up
597142,-7.039062,1.910156,6.121094,0.015625,-0.947266,-0.740234,0.683167,-0.206726,0.390076,0.581665,up
597147,-7.007812,2.023438,6.082031,-0.054687,-0.878906,-0.796875,0.683167,-0.206726,0.390076,0.581665,up
597152,-6.929687,1.910156,6.082031,-0.169922,-0.828125,-0.828125,0.683167,-0.206726,0.390076,0.581665,up
597157,-6.855469,1.910156,5.96875,-0.283203,-0.783203,-0.830078,0.683167,-0.206726,0.390076,0.581665,up
597163,-6.738281,1.949219,5.96875,-0.599609,-0.650391,-0.761719,0.683167,-0.206726,0.390076,0.581665,up
597168,-6.589844,1.796875,5.929687,-0.722656,-0.550781,-0.708984,0.697876,-0.204163,0.372986,0.576355,up
597173,-6.699219,1.640625,5.929687,-0.722656,-0.550781,-0.708984,0.699219,-0.205261,0.370422,0.575928,up
597178,-6.738281,1.296875,6.003906,-0.917969,-0.417969,-0.585937,0.700256,-0.206482,0.368103,0.575806,up
597183,-6.738281,1.296875,6.003906,-0.923828,-0.375,-0.558594,0.70105,-0.207886,0.365845,0.575745,up
597188,-7.011719,0.683594,6.3125,-0.923828,-0.375,-0.558594,0.701721,-0.209351,0.363647,0.575806,up
597194,-7.039062,0.644531,6.386719,-0.863281,-0.357422,-0.554687,0.703125,-0.212524,0.359131,0.575745,up
597200,-6.933594,0.683594,6.425781,-0.863281,-0.357422,-0.554687,0.703735,-0.213745,0.357483,0.575562,up
597205,-7.011719,0.835937,6.195312,-0.470703,-0.181641,-0.611328,0.70459,-0.215027,0.355896,0.575073,up
597211,-7.121094,0.953125,6.234375,-0.255859,-0.152344,-0.617187,0.70459,-0.215027,0.355896,0.575073,up
597216,-7.199219,1.257813,6.351562,-0.048828,-0.121094,-0.623047,0.70459,-0.215027,0.355896,0.575073,up
597221,-7.277344,1.488281,6.425781,0.15625,-0.089844,-0.617187,0.70459,-0.215027,0.355896,0.575073,up
597227,-7.273437,1.601563,6.542969,0.265625,-0.072266,-0.597656,0.70459,-0.215027,0.355896,0.575073,up
597233,-7.355469,1.679688,6.578125,0.324219,-0.060547,-0.564453,0.70459,-0.215027,0.355896,0.575073,up
597238,-7.460937,1.71875,6.503906,0.253906,-0.064453,-0.511719,0.710388,-0.216553,0.353516,0.568787,up
597243,-7.539062,1.832031,6.503906,0.253906,-0.064453,-0.511719,0.711304,-0.216431,0.353577,0.567627,up
597249,-7.5,1.796875,6.578125,0.173828,-0.119141,-0.486328,0.713074,-0.216309,0.353149,0.565674,up
597254,-7.394531,1.871094,6.578125,0.173828,-0.119141,-0.486328,0.713928,-0.216492,0.352539,0.564941,up
597259,-7.316406,1.832031,6.503906,0.173828,-0.119141,-0.486328,0.714417,-0.21698,0.351868,0.564575,up
597265,-7.273437,1.757813,6.542969,-0.474609,-0.101563,-0.310547,0.714844,-0.217896,0.35083,0.564331,up
597270,-7.277344,1.449219,6.3125,-0.474609,-0.101563,-0.310547,0.714966,-0.218994,0.349731,0.564392,up
597276,-7.199219,1.027344,6.386719,-0.474609,-0.101563,-0.310547,0.714966,-0.220093,0.348816,0.564514,up
597282,-7.234375,0.914062,6.464844,-0.679687,0.007813,-0.111328,0.714783,-0.221558,0.347656,0.564941,up
597288,-7.199219,0.835937,6.386719,-0.482422,0.064453,-0.007813,0.714783,-0.221558,0.347656,0.564941,up
597293,-7.316406,0.835937,6.503906,-0.482422,0.064453,-0.007813,0.714233,-0.223694,0.346191,0.565674,up
597298,-7.316406,0.914062,6.503906,-0.335938,0.105469,0.029297,0.714233,-0.223694,0.346191,0.565674,up
597304,-7.277344,1.066406,6.464844,-0.162109,0.158203,0.060547,0.713257,-0.225464,0.346008,0.566345,up
597309,-7.351562,1.296875,6.3125,-0.162109,0.158203,0.060547,0.712952,-0.225586,0.34668,0.566284,up
597314,-7.390625,1.375,6.3125,0.310547,0.306641,0.144531,0.712952,-0.225586,0.34668,0.566284,up
597319,-7.429687,1.566406,6.425781,0.310547,0.306641,0.144531,0.71228,-0.225159,0.348755,0.565979,up
597324,-7.582031,1.566406,6.503906,0.310547,0.306641,0.144531,0.711914,-0.224792,0.350037,0.565796,up
597329,-7.8125,1.566406,6.464844,0.310547,0.306641,0.144531,0.711426,-0.224426,0.351685,0.565552,up
597335,-7.886719,1.601563,6.425781,0.345703,0.464844,0.265625,0.710876,-0.224121,0.353149,0.56543,up
597340,-7.886719,1.566406,6.464844,0.345703,0.464844,0.265625,0.710266,-0.22406,0.354431,0.565369,up
597345,-8.0,1.566406,6.503906,0.345703,0.464844,0.265625,0.709595,-0.224121,0.355774,0.56543,up
597350,-8.121094,1.488281,6.503906,0.080078,0.496094,0.253906,0.709595,-0.224121,0.355774,0.56543,up
597356,-8.121094,1.601563,6.386719,0.0,0.5,0.240234,0.707947,-0.224792,0.358215,0.565613,up
597361,-8.0,1.566406,6.464844,0.0,0.5,0.240234,0.707275,-0.22522,0.35907,0.565796,up
597366,-7.925781,1.601563,6.542969,-0.123047,0.431641,0.214844,0.707275,-0.22522,0.35907,0.565796,up
597372,-7.964844,1.566406,6.464844,-0.185547,0.445312,0.214844,0.707275,-0.22522,0.35907,0.565796,up
597377,-7.960937,1.410156,6.386719,-0.230469,0.46875,0.214844,0.707275,-0.22522,0.35907,0.565796,up
597383,-8.042969,1.144531,6.3125,-0.230469,0.46875,0.214844,0.703979,-0.22821,0.361816,0.566956,up
597388,-7.8125,0.914062,6.425781,-0.210937,0.433594,0.253906,0.703979,-0.22821,0.361816,0.566956,up
597394,-7.734375,0.914062,6.503906,-0.171875,0.396484,0.285156,0.701355,-0.230164,0.36377,0.568176,up
597399,-7.660156,0.722656,6.351562,-0.171875,0.396484,0.285156,0.701355,-0.230164,0.36377,0.568176,up
597404,-7.617187,0.722656,6.234375,0.078125,0.464844,0.375,0.701355,-0.230164,0.36377,0.568176,up
597409,-7.621094,0.761719,6.160156,0.078125,0.464844,0.375,0.698486,-0.230957,0.367126,0.569275,up
597414,-7.460937,0.800781,6.121094,0.078125,0.464844,0.375,0.698486,-0.230957,0.367126,0.569275,up
597419,-7.390625,0.875,6.042969,0.078125,0.464844,0.375,0.696716,-0.230469,0.370239,0.56958,up
597424,-7.355469,1.027344,6.003906,0.59375,0.671875,0.492187,0.696716,-0.230469,0.370239,0.56958,up
597429,-7.3125,1.105469,5.851562,0.720703,0.761719,0.533203,0.695679,-0.22998,0.372498,0.56958,up
597434,-7.578125,1.335938,5.8125,0.720703,0.761719,0.533203,0.693604,-0.228638,0.377625,0.569275,up
597439,-7.738281,1.566406,5.851562,0.720703,0.761719,0.533203,0.693604,-0.228638,0.377625,0.569275,up
597444,-7.882812,1.910156,5.851562,0.955078,0.865234,0.599609,0.691223,-0.226562,0.384277,0.568542,up
597449,-8.265625,2.253906,5.96875,0.955078,0.865234,0.599609,0.691223,-0.226562,0.384277,0.568542,up
597454,-8.382813,2.523438,6.042969,0.955078,0.865234,0.599609,0.688904,-0.224304,0.390747,0.56781,up
597459,-8.503906,2.714844,6.042969,0.949219,0.824219,0.707031,0.688904,-0.224304,0.390747,0.56781,up
597464,-8.539063,2.828125,6.042969,0.949219,0.824219,0.707031,0.687561,-0.223083,0.394226,0.567505,up
597469,-8.539063,2.867188,6.042969,0.689453,0.689453,0.751953,0.687561,-0.223083,0.394226,0.567505,up
597474,-8.542969,2.714844,6.082031,0.689453,0.689453,0.751953,0.683411,-0.219971,0.402527,0.567932,up
597479,-8.503906,2.636719,6.003906,0.689453,0.689453,0.751953,0.681946,-0.219421,0.40448,0.568481,up
597484,-8.421875,2.332031,5.8125,0.134766,0.597656,0.871094,0.681946,-0.219421,0.40448,0.568481,up
597489,-8.421875,2.332031,5.8125,0.134766,0.597656,0.871094,0.678406,-0.218811,0.407898,0.570496,up
597494,-8.308594,1.949219,5.738281,0.134766,0.597656,0.871094,0.678406,-0.218811,0.407898,0.570496,up
597499,-8.160156,1.910156,5.660156,-0.169922,0.589844,0.992187,0.678406,-0.218811,0.407898,0.570496,up
597504,-8.160156,1.910156,5.660156,-0.169922,0.589844,0.992187,0.674377,-0.21875,0.410583,0.573364,up
597509,-7.882812,1.566406,5.390625,-0.169922,0.589844,0.992187,0.674377,-0.21875,0.410583,0.573364,up
597514,-7.816406,1.488281,5.238281,-0.162109,0.640625,1.009766,0.674377,-0.21875,0.410583,0.573364,up
597519,-7.816406,1.488281,5.238281,0.244141,0.902344,1.044922,0.674377,-0.21875,0.410583,0.573364,up
597525,-7.773437,1.105469,4.972656,0.244141,0.902344,1.044922,0.663025,-0.218628,0.420227,0.579651,up
597530,-7.886719,1.257813,4.855469,0.244141,0.902344,1.044922,0.663025,-0.218628,0.420227,0.579651,up
597535,-7.886719,1.257813,4.855469,1.150391,1.134766,1.083984,0.658569,-0.216675,0.427368,0.580261,up
597540,-7.925781,1.601563,4.894531,1.458984,1.207031,1.107422,0.656372,-0.215027,0.431885,0.580017,up
597546,-8.464844,2.5625,4.894531,1.458984,1.207031,1.107422,0.654236,-0.212952,0.436829,0.579468,up
597551,-8.578125,2.984375,4.703125,1.990234,1.3125,1.199219,0.654236,-0.212952,0.436829,0.579468,up
597556,-8.765625,3.480469,4.742187,2.164063,1.337891,1.263672,0.654236,-0.212952,0.436829,0.579468,up
597561,-8.921875,4.015625,4.78125,2.263672,1.365234,1.347656,0.647644,-0.204468,0.454163,0.576599,up
597567,-9.191406,4.820312,4.855469,2.263672,1.365234,1.347656,0.645264,-0.201172,0.460327,0.575562,up
597572,-9.230469,4.972656,4.816406,2.298828,1.421875,1.488281,0.645264,-0.201172,0.460327,0.575562,up
597578,-9.308594,5.128906,4.78125,2.173828,1.455078,1.560547,0.645264,-0.201172,0.460327,0.575562,up
597583,-9.414063,5.394531,4.703125,2.173828,1.455078,1.560547,0.645264,-0.201172,0.460327,0.575562,up
597588,-9.492188,5.585937,4.664062,1.791016,1.464844,1.710938,0.645264,-0.201172,0.460327,0.575562,up
597594,-9.574219,5.550781,4.664062,1.283203,1.435547,1.828125,0.645264,-0.201172,0.460327,0.575562,up
597599,-9.535156,5.816406,4.433594,1.037109,1.419922,1.890625,0.626343,-0.183228,0.495544,0.57312,up
597604,-9.535156,5.816406,4.433594,1.037109,1.419922,1.890625,0.622314,-0.181091,0.500427,0.573975,up
597609,-9.457031,5.742187,4.320312,0.798828,1.351563,1.962891,0.622314,-0.181091,0.500427,0.573975,up
597614,-9.457031,5.742187,4.320312,0.601562,1.306641,2.007813,0.614075,-0.177551,0.508667,0.576782,up
597619,-9.382813,5.472656,4.203125,0.601562,1.306641,2.007813,0.614075,-0.177551,0.508667,0.576782,up
597624,-9.457031,5.011719,4.050781,0.425781,1.291016,2.068359,0.605103,-0.174622,0.515686,0.580872,up
597629,-9.1875,4.554687,3.9375,0.425781,1.291016,2.068359,0.600525,-0.173401,0.518799,0.583191,up
597634,-9.152344,4.285156,3.898438,0.425781,1.291016,2.068359,0.595398,-0.172119,0.521973,0.585999,up
597639,-9.113281,4.015625,3.9375,0.425781,1.291016,2.068359,0.591187,-0.171082,0.524475,0.588379,up
597644,-8.925781,3.710938,3.898438,0.019531,1.138672,2.052734,0.586182,-0.169922,0.527344,0.591125,up
597649,-8.652344,3.402344,3.898438,0.019531,1.138672,2.052734,0.582031,-0.168945,0.529724,0.593384,up
597655,-8.652344,3.402344,3.859375,0.019531,1.138672,2.052734,0.572937,-0.166992,0.535156,0.5979,up
597660,-8.578125,3.441406,3.707031,0.353516,1.148438,1.75,0.572937,-0.166992,0.535156,0.5979,up
597665,-8.582031,4.132812,3.59375,0.353516,1.148438,1.75,0.568848,-0.165955,0.537964,0.599548,up
597671,-8.621094,4.78125,3.515625,0.353516,1.148438,1.75,0.561401,-0.163147,0.543945,0.601929,up
597676,-8.539063,5.011719,3.515625,0.957031,1.013672,1.621094,0.557922,-0.161255,0.547363,0.6026,up
597681,-8.621094,5.320312,3.476563,1.056641,0.998047,1.611328,0.554443,-0.159058,0.551025,0.603088,up
597686,-8.726563,5.703125,3.4375,1.101563,0.982422,1.607422,0.554443,-0.159058,0.551025,0.603088,up
597692,-8.769531,6.125,3.4375,1.101563,0.982422,1.607422,0.547729,-0.154541,0.558228,0.603699,up
597698,-8.847656,6.277344,3.398438,1.126953,0.925781,1.646484,0.547729,-0.154541,0.558228,0.603699,up
597703,-8.847656,6.277344,3.398438,1.060547,0.912109,1.667969,0.540955,-0.149658,0.56543,0.60437,up
597708,-8.769531,6.160156,3.285156,1.060547,0.912109,1.667969,0.540955,-0.149658,0.56543,0.60437,up
597713,-8.6875,6.085937,3.207031,0.923828,0.90625,1.683594,0.533875,-0.145081,0.57196,0.605652,up
597718,-8.6875,6.085937,3.207031,0.923828,0.90625,1.683594,0.533875,-0.145081,0.57196,0.605652,up
597724,-8.464844,5.664062,3.015625,0.400391,0.796875,1.730469,0.533875,-0.145081,0.57196,0.605652,up
597729,-8.464844,5.625,3.015625,0.130859,0.734375,1.697266,0.533875,-0.145081,0.57196,0.605652,up
597734,-8.421875,5.625,3.015625,0.076172,0.708984,1.677734,0.519348,-0.137756,0.581177,0.611145,up
597739,-8.34375,5.742187,2.863281,0.076172,0.708984,1.677734,0.515442,-0.136169,0.583008,0.613098,up
597744,-8.265625,5.894531,2.824219,0.076172,0.708984,1.677734,0.508545,-0.133301,0.585999,0.616638,up
597749,-8.226563,6.007812,2.789063,0.076172,0.708984,1.677734,0.508545,-0.133301,0.585999,0.616638,up
597754,-8.230469,6.046875,2.710938,0.140625,0.634766,1.599609,0.50177,-0.130188,0.589172,0.619812,up
597759,-8.195313,6.277344,2.597656,0.140625,0.634766,1.599609,0.50177,-0.130188,0.589172,0.619812,up
597764,-8.117188,6.390625,2.597656,0.4375,0.558594,1.570313,0.498474,-0.128418,0.590881,0.621216,up
597769,-8.078125,6.429687,2.597656,0.4375,0.558594,1.570313,0.495361,-0.126465,0.592651,0.622375,up
597775,-7.925781,6.429687,2.558594,0.490234,0.556641,1.564453,0.489014,-0.122253,0.596619,0.624512,up
597780,-7.960937,6.46875,2.480469,0.548828,0.574219,1.554688,0.489014,-0.122253,0.596619,0.624512,up
597785,-7.925781,6.507812,2.441406,0.525391,0.558594,1.556641,0.485901,-0.120178,0.598633,0.625427,up
597790,-7.84375,6.546875,2.40625,0.525391,0.558594,1.556641,0.479248,-0.115723,0.602783,0.62738,up
597795,-7.8125,6.660156,2.40625,0.525391,0.558594,1.556641,0.47644,-0.113953,0.60437,0.628296,up
597800,-7.738281,6.8125,2.40625,0.525391,0.558594,1.556641,0.473022,-0.111755,0.60614,0.629578,up
597805,-7.734375,6.773437,2.40625,0.248047,0.494141,1.564453,0.473022,-0.111755,0.60614,0.629578,up
597810,-7.695312,6.773437,2.441406,0.1875,0.488281,1.574219,0.469849,-0.109802,0.607605,0.630859,up
597815,-7.621094,6.929687,2.441406,0.1875,0.488281,1.574219,0.463745,-0.106262,0.610107,0.633545,up
597820,-7.660156,6.890625,2.441406,0.162109,0.462891,1.583984,0.463745,-0.106262,0.610107,0.633545,up
597825,-7.660156,6.890625,2.441406,0.162109,0.462891,1.583984,0.460388,-0.104248,0.61145,0.635071,up
597830,-7.617187,6.964844,2.441406,0.185547,0.423828,1.589844,0.460388,-0.104248,0.61145,0.635071,up
597835,-7.617187,6.964844,2.441406,0.216797,0.410156,1.59375,0.454224,-0.100403,0.61377,0.637878,up
597840,-7.539062,7.121094,2.480469,0.216797,0.410156,1.59375,0.454224,-0.100403,0.61377,0.637878,up
597845,-7.539062,7.121094,2.480469,0.267578,0.392578,1.599609,0.445007,-0.093933,0.617554,0.641663,up
597850,-7.355469,7.121094,2.480469,0.371094,0.339844,1.568359,0.445007,-0.093933,0.617554,0.641663,up
597855,-7.160156,7.277344,2.328125,0.371094,0.339844,1.568359,0.43866,-0.08905,0.620422,0.643982,up
597860,-7.121094,7.386719,2.289063,0.371094,0.339844,1.568359,0.436035,-0.086853,0.621643,0.644897,up
597865,-6.929687,7.578125,2.210938,0.365234,0.277344,1.576172,0.436035,-0.086853,0.621643,0.644897,up
597871,-6.851562,7.769531,2.097656,0.365234,0.277344,1.576172,0.430176,-0.082031,0.624146,0.647095,up
597876,-6.851562,7.769531,2.097656,0.230469,0.314453,1.572266,0.426758,-0.079468,0.625366,0.648437,up
597882,-6.816406,7.804687,2.097656,0.230469,0.314453,1.572266,0.424133,-0.077576,0.626221,0.649597,up
597887,-6.625,7.621094,1.984375,0.230469,0.314453,1.572266,0.420715,-0.075317,0.627136,0.651184,up
597893,-6.585937,7.503906,1.984375,0.011719,0.378906,1.556641,0.420715,-0.075317,0.627136,0.651184,up
597898,-6.546875,7.539062,2.019531,-0.011719,0.382813,1.544922,0.420715,-0.075317,0.627136,0.651184,up
597904,-6.394531,7.578125,2.136719,-0.025391,0.373047,1.542969,0.420715,-0.075317,0.627136,0.651184,up
597910,-6.277344,7.621094,2.175781,-0.025391,0.361328,1.558594,0.405273,-0.066223,0.630432,0.658752,up
597915,-6.277344,7.65625,2.097656,-0.025391,0.361328,1.558594,0.405273,-0.066223,0.630432,0.658752,up
597920,-6.164062,7.582031,2.058594,0.064453,0.375,1.601563,0.405273,-0.066223,0.630432,0.658752,up
597925,-6.046875,7.539062,2.175781,0.064453,0.375,1.601563,0.395569,-0.060364,0.632568,0.663147,up
597930,-5.972656,7.539062,2.25,0.203125,0.384766,1.615234,0.395569,-0.060364,0.632568,0.663147,up
597935,-5.933594,7.621094,2.25,0.203125,0.384766,1.615234,0.392029,-0.058105,0.633545,0.66449,up
597940,-5.933594,7.582031,2.210938,0.271484,0.369141,1.626953,0.385681,-0.053711,0.635559,0.666626,up
597946,-5.742187,7.695312,2.175781,0.271484,0.369141,1.626953,0.382507,-0.051392,0.636658,0.667603,up
597951,-5.742187,7.695312,2.175781,0.373047,0.316406,1.615234,0.378845,-0.048706,0.637939,0.66864,up
597956,-5.703125,8.0,1.984375,0.373047,0.316406,1.615234,0.375732,-0.046326,0.639099,0.669495,up
597961,-5.742187,8.117188,1.984375,0.373047,0.316406,1.615234,0.372986,-0.044189,0.640015,0.670288,up
597966,-5.742187,8.117188,1.984375,0.373047,0.316406,1.615234,0.372986,-0.044189,0.640015,0.670288,up
597971,-5.703125,8.152344,1.90625,0.349609,0.279297,1.59375,0.372986,-0.044189,0.640015,0.670288,up
597976,-5.589844,8.226563,1.945313,0.3125,0.255859,1.611328,0.366882,-0.039368,0.642029,0.672058,up
597981,-5.589844,8.226563,1.945313,0.3125,0.255859,1.611328,0.366882,-0.039368,0.642029,0.672058,up
597986,-5.4375,8.464844,1.828125,0.314453,0.244141,1.625,0.357361,-0.03186,0.644836,0.674866,up
597991,-5.4375,8.570313,1.714844,0.314453,0.244141,1.625,0.354248,-0.029297,0.645691,0.675781,up
597996,-5.320312,8.769531,1.601563,0.314453,0.244141,1.625,0.350891,-0.026611,0.646667,0.676819,up
598002,-5.128906,8.726563,1.445313,0.314453,0.244141,1.625,0.347778,-0.02417,0.647461,0.677673,up
598007,-5.128906,8.726563,1.445313,0.294922,0.306641,1.689453,0.347778,-0.02417,0.647461,0.677673,up
598013,-5.089844,8.925781,1.332031,0.328125,0.318359,1.689453,0.347778,-0.02417,0.647461,0.677673,up
598019,-5.054687,8.992188,1.371094,0.34375,0.339844,1.695313,0.347778,-0.02417,0.647461,0.677673,up
598024,-4.976562,9.113281,1.371094,0.355469,0.353516,1.689453,0.334229,-0.014282,0.651123,0.681274,up
598030,-4.859375,9.074219,1.371094,0.345703,0.369141,1.697266,0.334229,-0.014282,0.651123,0.681274,up
598035,-4.785156,9.070313,1.410156,0.345703,0.369141,1.697266,0.323425,-0.006775,0.653931,0.683899,up
598040,-4.707031,8.996094,1.410156,0.285156,0.359375,1.732422,0.323425,-0.006775,0.653931,0.683899,up
598045,-4.59375,8.808594,1.410156,0.285156,0.359375,1.732422,0.320129,-0.004517,0.654724,0.684692,up
598050,-4.441406,8.648438,1.410156,0.277344,0.359375,1.757813,0.320129,-0.004517,0.654724,0.684692,up
598055,-4.402344,8.730469,1.523438,0.326172,0.306641,1.775391,0.312866,0.000549,0.656311,0.686584,up
598060,-4.363281,8.804688,1.484375,0.326172,0.306641,1.775391,0.30896,0.003418,0.657166,0.6875,up
598066,-4.25,8.957031,1.445313,0.326172,0.306641,1.775391,0.301941,0.008728,0.658691,0.689148,up
598072,-4.171875,9.109375,1.371094,0.326172,0.306641,1.775391,0.298767,0.01123,0.659363,0.689819,up
598079,-4.132812,9.113281,1.332031,0.296875,0.224609,1.726563,0.298767,0.01123,0.659363,0.689819,up
598084,-4.132812,9.113281,1.332031,0.273438,0.216797,1.701172,0.291992,0.016602,0.660583,0.691406,up
598089,-4.019531,9.109375,1.179688,0.273438,0.216797,1.701172,0.291992,0.016602,0.660583,0.691406,up
598094,-4.019531,9.109375,1.179688,0.259766,0.203125,1.695313,0.285339,0.021973,0.661621,0.693054,up
598099,-3.941406,9.152344,1.179688,0.259766,0.203125,1.695313,0.285339,0.021973,0.661621,0.693054,up
598105,-3.710938,9.417969,1.0625,0.128906,0.207031,1.675781,0.285339,0.021973,0.661621,0.693054,up
598110,-3.710938,9.414063,1.023438,-0.001953,0.189453,1.664063,0.275574,0.029602,0.662537,0.695862,up
598115,-3.710938,9.453125,1.023438,-0.001953,0.189453,1.664063,0.272156,0.032166,0.662598,0.697021,up
598120,-3.636719,9.53125,1.0625,-0.070312,0.175781,1.701172,0.26886,0.034668,0.662598,0.698242,up
598126,-3.40625,9.457031,1.0625,-0.070312,0.175781,1.701172,0.262573,0.039429,0.662292,0.700623,up
598131,-3.289063,9.378906,1.0625,-0.136719,0.154297,1.728516,0.258972,0.042175,0.661987,0.702087,up
598136,-3.097656,9.191406,1.0625,-0.136719,0.154297,1.728516,0.258972,0.042175,0.661987,0.702087,up
598141,-3.097656,9.191406,1.0625,-0.144531,0.171875,1.748047,0.252502,0.047058,0.661316,0.704773,up
598147,-2.792969,8.921875,1.101563,-0.144531,0.171875,1.748047,0.249268,0.049438,0.661011,0.706055,up
598152,-2.714844,8.804688,1.0625,-0.136719,0.191406,1.736328,0.249268,0.049438,0.661011,0.706055,up
598158,-2.714844,8.730469,1.0625,-0.121094,0.195312,1.728516,0.249268,0.049438,0.661011,0.706055,up
598164,-2.679688,8.84375,1.101563,-0.105469,0.207031,1.712891,0.239014,0.056885,0.659973,0.709961,up
598170,-2.714844,8.992188,1.101563,-0.074219,0.201172,1.703125,0.239014,0.056885,0.659973,0.709961,up
598175,-2.792969,9.375,1.0625,-0.050781,0.189453,1.695313,0.239014,0.056885,0.659973,0.709961,up
598180,-2.792969,9.375,1.0625,-0.070312,0.154297,1.648438,0.229004,0.064087,0.659241,0.713379,up
598185,-2.640625,9.648438,1.023438,-0.070312,0.154297,1.648438,0.22583,0.066467,0.658936,0.714417,up
598191,-2.5625,9.652344,1.023438,-0.103516,0.128906,1.638672,0.21936,0.071411,0.658142,0.716675,up
598196,-2.292969,9.535156,0.949219,-0.103516,0.128906,1.638672,0.216309,0.073792,0.657593,0.717834,up
598201,-2.179688,9.417969,0.910156,-0.103516,0.128906,1.638672,0.213257,0.076172,0.656982,0.719055,up
598206,-2.101563,9.375,0.910156,-0.287109,0.107422,1.615234,0.213257,0.076172,0.656982,0.719055,up
598211,-1.835938,9.152344,0.949219,-0.287109,0.107422,1.615234,0.210022,0.078613,0.65625,0.720459,up
598216,-1.757813,8.957031,0.949219,-0.287109,0.107422,1.615234,0.203735,0.083313,0.654358,0.72345,up
598221,-1.644531,8.726563,1.023438,-0.287109,0.107422,1.615234,0.203735,0.083313,0.654358,0.72345,up
598226,-1.644531,8.726563,1.023438,-0.501953,0.136719,1.615234,0.200806,0.085327,0.653259,0.724976,up
598231,-1.605469,8.6875,1.0625,-0.525391,0.134766,1.632813,0.197998,0.087341,0.652161,0.726501,up
598236,-1.605469,8.6875,1.0625,-0.511719,0.128906,1.648438,0.194946,0.089478,0.65094,0.728149,up
598242,-1.453125,8.652344,1.140625,-0.480469,0.125,1.667969,0.194946,0.089478,0.65094,0.728149,up
598248,-1.222656,8.503906,1.179688,-0.367188,0.150391,1.732422,0.185364,0.096375,0.647522,0.732849,up
598255,-1.144531,8.460938,1.179688,-0.367188,0.150391,1.732422,0.185364,0.096375,0.647522,0.732849,up
598260,-1.070313,8.464844,1.140625,-0.128906,0.228516,1.771484,0.185364,0.096375,0.647522,0.732849,up
598265,-0.992187,8.460938,1.140625,0.009766,0.261719,1.787109,0.185364,0.096375,0.647522,0.732849,up
598270,-0.992187,8.460938,1.140625,0.242187,0.324219,1.792969,0.171021,0.105957,0.645264,0.737,up
598275,-0.992187,8.691406,1.214844,0.242187,0.324219,1.792969,0.167114,0.108398,0.645264,0.737549,up
598281,-0.992187,8.882813,1.179688,0.345703,0.318359,1.771484,0.167114,0.108398,0.645264,0.737549,up
598286,-0.992187,9.074219,1.253906,0.345703,0.318359,1.771484,0.155518,0.115601,0.645935,0.738403,up
598291,-0.953125,9.265625,1.214844,0.345703,0.318359,1.771484,0.151367,0.118347,0.646179,0.738586,up
598296,-0.878906,9.265625,1.179688,0.287109,0.224609,1.742188,0.151367,0.118347,0.646179,0.738586,up
598301,-0.761719,9.269531,1.214844,0.287109,0.224609,1.742188,0.144226,0.12323,0.646362,0.739075,up
598306,-0.648437,9.109375,1.253906,0.287109,0.224609,1.742188,0.140747,0.125671,0.646301,0.739441,up
598311,-0.570312,9.148438,1.179688,0.095703,0.15625,1.677734,0.140747,0.125671,0.646301,0.739441,up
598316,-0.457031,9.035156,1.101563,-0.005859,0.125,1.664063,0.137024,0.128296,0.646057,0.739868,up
598321,-0.339844,8.925781,1.101563,-0.005859,0.125,1.664063,0.130676,0.133057,0.645081,0.741028,up
598326,-0.148437,8.886719,1.0625,-0.005859,0.125,1.664063,0.127441,0.135437,0.644348,0.741821,up
598331,0.117188,8.535156,0.988281,-0.005859,0.125,1.664063,0.127441,0.135437,0.644348,0.741821,up
598336,0.234375,8.464844,0.949219,-0.166016,0.175781,1.677734,0.120789,0.140076,0.6427,0.743469,up
598341,0.347656,8.460938,1.023438,-0.166016,0.175781,1.677734,0.120789,0.140076,0.6427,0.743469,up
598346,0.347656,8.460938,1.023438,-0.044922,0.230469,1.714844,0.11731,0.142395,0.642029,0.744141,up
598352,0.386719,8.53125,1.0625,0.068359,0.277344,1.744141,0.11731,0.142395,0.642029,0.744141,up
598357,0.347656,8.691406,1.0625,0.347656,0.332031,1.775391,0.109863,0.147034,0.641235,0.745117,up
598362,0.347656,8.691406,1.0625,0.347656,0.332031,1.775391,0.109863,0.147034,0.641235,0.745117,up
598367,0.539062,8.730469,1.140625,0.449219,0.335938,1.796875,0.097839,0.154053,0.641663,0.744995,up
598372,0.730469,8.652344,1.179688,0.449219,0.335938,1.796875,0.097839,0.154053,0.641663,0.744995,up
598378,0.886719,8.648438,1.101563,0.449219,0.335938,1.796875,0.089478,0.158875,0.642578,0.744202,up
598383,0.960937,8.613281,1.101563,0.648437,0.361328,1.808594,0.085327,0.161255,0.643127,0.743713,up
598388,1.113281,8.535156,0.988281,0.667969,0.355469,1.783203,0.085327,0.161255,0.643127,0.743713,up
598394,1.113281,8.5,1.101563,0.623047,0.353516,1.773438,0.085327,0.161255,0.643127,0.743713,up
598400,1.304688,8.304688,1.101563,0.623047,0.353516,1.773438,0.085327,0.161255,0.643127,0.743713,up
598405,1.304688,8.386719,0.988281,0.509766,0.369141,1.71875,0.085327,0.161255,0.643127,0.743713,up
598411,1.496094,8.230469,1.023438,0.462891,0.355469,1.697266,0.085327,0.161255,0.643127,0.743713,up
598416,1.613281,8.078125,1.0625,0.462891,0.355469,1.697266,0.057312,0.176758,0.645447,0.740845,up
598421,1.652344,8.003906,1.140625,0.462891,0.355469,1.697266,0.057312,0.176758,0.645447,0.740845,up
598426,1.652344,8.0,1.0625,0.476562,0.380859,1.677734,0.057312,0.176758,0.645447,0.740845,up
598432,1.726563,8.117188,1.0625,0.476562,0.380859,1.677734,0.045593,0.182983,0.645935,0.739746,up
598437,1.765625,8.148438,1.0625,0.476562,0.380859,1.677734,0.041138,0.185242,0.646301,0.739136,up
598442,1.84375,8.347656,1.023438,0.689453,0.416016,1.724609,0.037354,0.187134,0.646667,0.738464,up
598447,1.957031,8.570313,0.871094,0.689453,0.416016,1.724609,0.032715,0.189453,0.647339,0.73761,up
598453,2.1875,8.535156,0.832031,0.689453,0.416016,1.724609,0.028748,0.191345,0.647888,0.736755,up
598459,2.300781,8.425781,0.796875,0.816406,0.474609,1.792969,0.028748,0.191345,0.647888,0.736755,up
598464,2.300781,8.425781,0.796875,0.818359,0.501953,1.822266,0.019958,0.195496,0.649231,0.734802,up
598469,2.378906,8.148438,0.796875,0.818359,0.501953,1.822266,0.019958,0.195496,0.649231,0.734802,up
598475,2.378906,8.148438,0.796875,0.824219,0.511719,1.830078,0.010742,0.199585,0.650513,0.732727,up
598480,2.492188,8.121094,0.910156,0.824219,0.511719,1.830078,0.010742,0.199585,0.650513,0.732727,up
598485,2.53125,8.121094,0.871094,0.791016,0.501953,1.814453,0.001587,0.203674,0.651611,0.730713,up
598490,2.761719,7.886719,0.871094,0.738281,0.482422,1.755859,0.001587,0.203674,0.651611,0.730713,up
598496,2.839844,7.738281,0.988281,0.652344,0.445312,1.738281,0.001587,0.203674,0.651611,0.730713,up
598501,2.953125,7.65625,1.0625,0.582031,0.423828,1.730469,0.001587,0.203674,0.651611,0.730713,up
598507,2.992188,7.582031,0.949219,0.509766,0.392578,1.685547,0.001587,0.203674,0.651611,0.730713,up
598512,3.066406,7.542969,0.988281,0.509766,0.392578,1.685547,0.023865,-0.216003,-0.652832,-0.725647,up
598517,3.144531,7.621094,1.023438,0.523437,0.316406,1.666016,0.027649,-0.218018,-0.652893,-0.724854,up
598522,3.144531,7.960937,0.988281,0.541016,0.28125,1.658203,0.027649,-0.218018,-0.652893,-0.724854,up
598527,3.144531,7.960937,0.988281,0.541016,0.28125,1.658203,0.03479,-0.222168,-0.652954,-0.723206,up
598533,3.183594,8.609375,0.757812,0.541016,0.28125,1.658203,0.038818,-0.22467,-0.653015,-0.722168,up
598538,3.296875,8.730469,0.605469,0.556641,0.132812,1.732422,0.042053,-0.226807,-0.653076,-0.721313,up
598543,3.488281,8.804688,0.527344,0.556641,0.132812,1.732422,0.045776,-0.229492,-0.653015,-0.720276,up
598548,3.605469,8.769531,0.527344,0.419922,0.017578,1.849609,0.045776,-0.229492,-0.653015,-0.720276,up
598553,3.644531,8.886719,0.414062,0.326172,-0.029297,1.921875,0.045776,-0.229492,-0.653015,-0.720276,up
598559,3.871094,8.847656,0.027344,0.326172,-0.029297,1.921875,0.05658,-0.238525,-0.651733,-0.717712,up
598565,3.910156,8.765625,-0.164062,0.072266,0.023437,2.011719,0.05658,-0.238525,-0.651733,-0.717712,up
598571,4.101562,8.53125,-0.238281,-0.283203,0.060547,2.134766,0.05658,-0.238525,-0.651733,-0.717712,up
598577,4.484375,7.695312,-0.277344,-0.283203,0.060547,2.134766,0.071411,-0.25177,-0.645874,-0.717163,up
598582,4.5625,7.34375,-0.164062,-0.283203,0.060547,2.134766,0.071411,-0.25177,-0.645874,-0.717163,up
598587,4.753906,7.003906,-0.046875,-0.574219,0.142578,2.216797,0.075317,-0.255249,-0.643494,-0.717651,up
598592,4.753906,7.003906,-0.046875,-0.574219,0.142578,2.216797,0.079163,-0.258606,-0.640991,-0.718323,up
598597,4.867187,6.050781,0.257813,-0.683594,0.296875,2.253906,0.079163,-0.258606,-0.640991,-0.718323,up
598602,4.867187,6.050781,0.257813,-0.603516,0.382813,2.294922,0.091797,-0.268005,-0.632935,-0.72052,up
598607,4.945312,5.667969,0.527344,-0.603516,0.382813,2.294922,0.096313,-0.270874,-0.630615,-0.720886,up
598612,5.136719,4.972656,0.71875,-0.603516,0.382813,2.294922,0.10144,-0.273743,-0.62854,-0.720947,up
598618,5.058594,5.164062,0.988281,-0.603516,0.382813,2.294922,0.106689,-0.276367,-0.627014,-0.720459,up
598623,4.984375,5.164062,1.101563,0.654297,0.507812,2.271484,0.111694,-0.278748,-0.626221,-0.719482,up
598628,5.136719,4.972656,1.410156,0.654297,0.507812,2.271484,0.117004,-0.281128,-0.626038,-0.717896,up
598634,5.289062,5.359375,1.371094,0.654297,0.507812,2.271484,0.122375,-0.283264,-0.626587,-0.715698,up
598639,5.328125,5.550781,1.332031,1.720703,0.46875,2.033203,0.122375,-0.283264,-0.626587,-0.715698,up
598644,5.367187,5.777344,1.292969,1.988281,0.394531,1.929688,0.122375,-0.283264,-0.626587,-0.715698,up
598649,5.519531,6.273437,1.179688,1.988281,0.394531,1.929688,0.138855,-0.288513,-0.631775,-0.705933,up
598655,5.558594,6.46875,1.0625,2.322266,0.214844,1.720703,0.138855,-0.288513,-0.631775,-0.705933,up
598660,5.636719,6.511719,0.988281,2.365234,0.126953,1.623047,0.138855,-0.288513,-0.631775,-0.705933,up
598666,5.636719,6.511719,0.988281,2.332031,0.083984,1.541016,0.153564,-0.29303,-0.640076,-0.69342,up
598671,5.710937,6.816406,0.640625,2.332031,0.083984,1.541016,0.153564,-0.29303,-0.640076,-0.69342,up
598676,5.671875,6.960937,0.527344,1.998047,0.052734,1.382813,0.153564,-0.29303,-0.640076,-0.69342,up
598681,5.671875,6.960937,0.527344,1.998047,0.052734,1.382813,0.153564,-0.29303,-0.640076,-0.69342,up
598686,5.980469,6.46875,0.296875,0.998047,-0.021484,1.162109,0.153564,-0.29303,-0.640076,-0.69342,up
598692,6.054687,6.234375,0.414062,0.998047,-0.021484,1.162109,0.171997,-0.300049,-0.650452,-0.67627,up
598697,6.136719,6.007812,0.449219,0.636719,-0.017578,1.089844,0.176697,-0.303101,-0.651062,-0.673096,up
598702,6.214844,5.703125,0.449219,0.033203,0.013672,0.908203,0.178406,-0.304504,-0.650635,-0.672363,up
598707,6.214844,5.550781,0.449219,0.033203,0.013672,0.908203,0.179749,-0.305908,-0.649841,-0.672119,up
598712,6.246094,5.394531,0.375,-0.333984,-0.039063,0.724609,0.179749,-0.305908,-0.649841,-0.672119,up
598717,6.242187,5.433594,0.449219,-0.386719,-0.064453,0.619141,0.180908,-0.307434,-0.648804,-0.67218,up
598722,6.285156,5.433594,0.335938,-0.386719,-0.064453,0.619141,0.182129,-0.309875,-0.646729,-0.672729,up
598727,6.320312,5.320312,0.296875,-0.386719,-0.064453,0.619141,0.182129,-0.309875,-0.646729,-0.672729,up
598732,6.398437,5.359375,0.222656,-0.287109,-0.074219,0.416016,0.182922,-0.311768,-0.645203,-0.673096,up
598737,6.363281,5.511719,0.066406,-0.287109,-0.074219,0.416016,0.183289,-0.312256,-0.644897,-0.673035,up
598742,6.320312,5.703125,-0.007813,-0.287109,-0.074219,0.416016,0.183594,-0.3125,-0.645081,-0.672668,up
598747,6.320312,5.777344,-0.085937,0.435547,-0.070312,0.042969,0.183594,-0.3125,-0.645081,-0.672668,up
598752,6.359375,5.933594,-0.046875,0.501953,-0.076172,-0.003906,0.18396,-0.312561,-0.645691,-0.671936,up
598757,6.246094,6.160156,0.027344,0.501953,-0.076172,-0.003906,0.184448,-0.312317,-0.6474,-0.670349,up
598762,6.242187,6.238281,-0.046875,0.501953,-0.076172,-0.003906,0.184448,-0.312317,-0.6474,-0.670349,up
598767,6.246094,6.3125,-0.125,0.445312,-0.033203,-0.091797,0.184448,-0.312317,-0.6474,-0.670349,up
598773,6.402344,6.390625,-0.199219,0.445312,-0.033203,-0.091797,0.184937,-0.311462,-0.649963,-0.668091,up
598779,6.324219,6.351562,-0.429687,0.445312,-0.033203,-0.091797,0.184998,-0.311096,-0.650513,-0.667664,up
598784,6.363281,6.507812,-0.507812,0.105469,0.068359,-0.125,0.184998,-0.311096,-0.650513,-0.667664,up
598790,6.402344,6.550781,-0.507812,0.013672,0.083984,-0.117188,0.184998,-0.311096,-0.650513,-0.667664,up
598796,6.363281,6.773437,-0.429687,0.013672,0.083984,-0.117188,0.184937,-0.309998,-0.651062,-0.667664,up
598801,6.363281,6.816406,-0.390625,-0.074219,0.101563,-0.09375,0.184937,-0.309998,-0.651062,-0.667664,up
598807,6.324219,6.933594,-0.355469,-0.080078,0.111328,-0.074219,0.184875,-0.309143,-0.650818,-0.668335,up
598812,6.210937,6.929687,-0.390625,-0.080078,0.111328,-0.074219,0.184998,-0.308777,-0.650818,-0.668457,up
598817,6.246094,7.0,-0.390625,0.181641,0.09375,-0.056641,0.184998,-0.308777,-0.650818,-0.668457,up
598822,6.210937,6.960937,-0.355469,0.181641,0.09375,-0.056641,0.185242,-0.308411,-0.651062,-0.668335,up
598827,6.210937,6.964844,-0.277344,0.386719,0.013672,-0.087891,0.185242,-0.308411,-0.651062,-0.668335,up
598832,6.210937,6.964844,-0.277344,0.386719,0.013672,-0.087891,0.18573,-0.307434,-0.652832,-0.666992,up
598837,6.285156,7.238281,-0.277344,0.386719,0.013672,-0.087891,0.18573,-0.307434,-0.652832,-0.666992,up
598842,6.246094,7.382812,-0.316406,0.486328,-0.097656,-0.183594,0.18573,-0.307434,-0.652832,-0.666992,up
598847,6.246094,7.765625,-0.46875,0.486328,-0.097656,-0.183594,0.185791,-0.306641,-0.654663,-0.665527,up
598852,6.246094,7.886719,-0.507812,0.486328,-0.097656,-0.183594,0.185303,-0.305908,-0.656738,-0.66394,up
598857,6.285156,7.886719,-0.582031,0.287109,-0.216797,-0.257813,0.185303,-0.305908,-0.656738,-0.66394,up
598862,6.363281,7.921875,-0.621094,0.287109,-0.216797,-0.257813,0.184814,-0.305664,-0.657532,-0.66333,up
