timestamp,ax,ay,az,gx,gy,gz,qw,qx,qy,qz,label
453423,-8.519531,4.378906,1.664063,0.15625,0.443359,0.279297,0.475159,-0.242371,0.607971,0.588074,up
453428,-8.476563,4.378906,1.585938,0.15625,0.443359,0.279297,0.475159,-0.242371,0.607971,0.588074,up
453433,-8.476563,4.417969,1.585938,0.160156,0.388672,0.228516,0.47345,-0.242432,0.60968,0.587646,up
453438,-8.519531,4.496094,1.585938,0.160156,0.388672,0.228516,0.47345,-0.242432,0.60968,0.587646,up
453443,-8.515625,4.53125,1.625,0.160156,0.388672,0.228516,0.472046,-0.242371,0.611267,0.587219,up
453448,-8.515625,4.53125,1.625,0.160156,0.388672,0.228516,0.472046,-0.242371,0.611267,0.587219,up
453453,-8.476563,4.570312,1.625,0.160156,0.289063,0.177734,0.470764,-0.24231,0.612671,0.586792,up
453458,-8.359375,4.609375,1.585938,0.160156,0.289063,0.177734,0.470764,-0.24231,0.612671,0.586792,up
453463,-8.363281,4.648437,1.511719,0.101563,0.214844,0.134766,0.470215,-0.24231,0.613281,0.586548,up
453468,-8.398438,4.6875,1.511719,0.101563,0.214844,0.134766,0.469727,-0.24231,0.61377,0.586426,up
453474,-8.324219,4.722656,1.472656,0.083984,0.1875,0.126953,0.469727,-0.24231,0.61377,0.586426,up
453479,-8.359375,4.722656,1.472656,0.083984,0.1875,0.126953,0.468445,-0.24231,0.61499,0.586182,up
453484,-8.363281,4.761719,1.433594,0.0,0.121094,0.099609,0.46814,-0.24231,0.615234,0.586182,up
453489,-8.285156,4.800781,1.472656,0.0,0.121094,0.099609,0.46814,-0.24231,0.615234,0.586182,up
453494,-8.253906,4.800781,1.433594,0.0,0.121094,0.099609,0.467468,-0.242432,0.61554,0.586365,up
453500,-8.25,4.761719,1.359375,0.0,0.121094,0.099609,0.467163,-0.242493,0.61554,0.586548,up
453505,-8.253906,4.839844,1.320313,-0.132812,0.072266,0.087891,0.466858,-0.242615,0.61554,0.586731,up
453510,-8.210938,4.839844,1.28125,-0.132812,0.072266,0.087891,0.466492,-0.242798,0.615479,0.587036,up
453515,-8.214844,4.761719,1.320313,-0.132812,0.072266,0.087891,0.466492,-0.242798,0.615479,0.587036,up
453521,-8.214844,4.722656,1.320313,-0.214844,0.083984,0.076172,0.466492,-0.242798,0.615479,0.587036,up
453527,-8.210938,4.6875,1.28125,-0.226562,0.091797,0.070312,0.466492,-0.242798,0.615479,0.587036,up
453533,-8.175781,4.609375,1.320313,-0.226562,0.091797,0.070312,0.466492,-0.242798,0.615479,0.587036,up
453538,-8.214844,4.570312,1.320313,-0.193359,0.109375,0.056641,0.466492,-0.242798,0.615479,0.587036,up
453543,-8.171875,4.570312,1.320313,-0.193359,0.109375,0.056641,0.464233,-0.244446,0.614624,0.58905,up
453548,-8.175781,4.609375,1.320313,-0.171875,0.109375,0.058594,0.464233,-0.244446,0.614624,0.58905,up
453553,-8.171875,4.648437,1.28125,-0.171875,0.109375,0.058594,0.463501,-0.244995,0.614441,0.589539,up
453559,-8.175781,4.6875,1.242188,-0.09375,0.123047,0.050781,0.463501,-0.244995,0.614441,0.589539,up
453564,-8.210938,4.722656,1.203125,-0.09375,0.123047,0.050781,0.462524,-0.245667,0.614502,0.590027,up
453569,-8.210938,4.761719,1.242188,-0.09375,0.123047,0.050781,0.462158,-0.24585,0.614624,0.590088,up
453574,-8.320313,4.761719,1.28125,-0.041016,0.148437,0.048828,0.462158,-0.24585,0.614624,0.590088,up
453579,-8.402344,4.839844,1.242188,-0.023437,0.146484,0.042969,0.461792,-0.246094,0.614807,0.590088,up
453584,-8.402344,4.839844,1.28125,-0.023437,0.146484,0.042969,0.461182,-0.24646,0.615112,0.590088,up
453589,-8.441406,4.839844,1.320313,-0.023437,0.146484,0.042969,0.460876,-0.246704,0.615295,0.590088,up
453594,-8.441406,4.800781,1.359375,-0.023437,0.146484,0.042969,0.460876,-0.246704,0.615295,0.590088,up
453599,-8.441406,4.800781,1.359375,-0.066406,0.136719,0.021484,0.460266,-0.247192,0.615479,0.590088,up
453604,-8.4375,4.878906,1.359375,-0.066406,0.136719,0.021484,0.459961,-0.247498,0.61554,0.590149,up
453609,-8.476563,4.878906,1.359375,-0.109375,0.130859,0.025391,0.459961,-0.247498,0.61554,0.590149,up
453614,-8.480469,4.914062,1.394531,-0.119141,0.123047,0.025391,0.459595,-0.247803,0.615601,0.590271,up
453619,-8.515625,4.914062,1.433594,-0.119141,0.123047,0.025391,0.458984,-0.248352,0.615601,0.590515,up
453624,-8.515625,4.914062,1.394531,-0.119141,0.123047,0.025391,0.458618,-0.248657,0.61554,0.590698,up
453629,-8.476563,4.878906,1.359375,-0.119141,0.123047,0.025391,0.458618,-0.248657,0.61554,0.590698,up
453634,-8.476563,4.878906,1.394531,-0.160156,0.109375,0.037109,0.457947,-0.249268,0.615417,0.591064,up
453639,-8.398438,4.800781,1.394531,-0.160156,0.109375,0.037109,0.457642,-0.249512,0.615356,0.591309,up
453644,-8.398438,4.800781,1.359375,-0.160156,0.109375,0.037109,0.457397,-0.249756,0.615295,0.591492,up
453649,-8.359375,4.800781,1.394531,-0.160156,0.109375,0.037109,0.457397,-0.249756,0.615295,0.591492,up
453654,-8.398438,4.800781,1.359375,-0.105469,0.078125,0.052734,0.456848,-0.250061,0.615295,0.591797,up
453659,-8.363281,4.839844,1.359375,-0.105469,0.078125,0.052734,0.456543,-0.250183,0.615295,0.591919,up
453664,-8.320313,4.914062,1.320313,-0.105469,0.078125,0.052734,0.456299,-0.250305,0.615356,0.592041,up
453669,-8.363281,4.914062,1.320313,-0.105469,0.078125,0.052734,0.456299,-0.250305,0.615356,0.592041,up
453674,-8.398438,4.914062,1.28125,-0.058594,0.070312,0.09375,0.456299,-0.250305,0.615356,0.592041,up
453679,-8.398438,4.953125,1.242188,-0.058594,0.070312,0.09375,0.455322,-0.250427,0.61554,0.592468,up
453684,-8.398438,4.953125,1.28125,-0.078125,0.089844,0.105469,0.455322,-0.250427,0.61554,0.592468,up
453689,-8.441406,4.992187,1.242188,-0.078125,0.089844,0.105469,0.455017,-0.250488,0.615601,0.59259,up
453695,-8.441406,4.992187,1.242188,-0.105469,0.101563,0.115234,0.454285,-0.250671,0.615784,0.593018,up
453700,-8.398438,4.992187,1.203125,-0.119141,0.099609,0.121094,0.453857,-0.250793,0.615784,0.593201,up
453705,-8.441406,5.03125,1.242188,-0.119141,0.099609,0.121094,0.45343,-0.250916,0.615845,0.593445,up
453711,-8.398438,5.03125,1.242188,-0.119141,0.099609,0.121094,0.452942,-0.251038,0.615845,0.59375,up
453716,-8.4375,4.992187,1.167969,-0.1875,0.125,0.140625,0.452942,-0.251038,0.615845,0.59375,up
453721,-8.398438,4.953125,1.203125,-0.203125,0.130859,0.148437,0.451843,-0.251465,0.615784,0.594482,up
453727,-8.402344,4.914062,1.167969,-0.214844,0.132812,0.148437,0.451843,-0.251465,0.615784,0.594482,up
453733,-8.363281,4.878906,1.242188,-0.214844,0.132812,0.148437,0.451843,-0.251465,0.615784,0.594482,up
453739,-8.402344,4.839844,1.242188,-0.228516,0.136719,0.169922,0.451843,-0.251465,0.615784,0.594482,up
453744,-8.4375,4.878906,1.203125,-0.228516,0.136719,0.169922,0.448914,-0.252502,0.615479,0.596558,up
453749,-8.4375,4.839844,1.28125,-0.228516,0.136719,0.169922,0.448242,-0.252747,0.615479,0.596985,up
453754,-8.480469,4.800781,1.28125,-0.228516,0.136719,0.169922,0.448242,-0.252747,0.615479,0.596985,up
453759,-8.398438,4.800781,1.28125,-0.177734,0.115234,0.173828,0.448242,-0.252747,0.615479,0.596985,up
453764,-8.402344,4.800781,1.320313,-0.177734,0.115234,0.173828,0.446533,-0.253174,0.615417,0.598206,up
453769,-8.359375,4.761719,1.320313,-0.177734,0.115234,0.173828,0.445984,-0.253235,0.615417,0.598511,up
453774,-8.359375,4.722656,1.320313,-0.177734,0.115234,0.173828,0.445984,-0.253235,0.615417,0.598511,up
453779,-8.363281,4.761719,1.28125,-0.105469,0.109375,0.171875,0.444946,-0.253296,0.615601,0.59906,up
453784,-8.363281,4.800781,1.320313,-0.105469,0.109375,0.171875,0.444946,-0.253296,0.615601,0.59906,up
453789,-8.359375,4.800781,1.28125,-0.037109,0.082031,0.15625,0.444946,-0.253296,0.615601,0.59906,up
453794,-8.320313,4.878906,1.242188,-0.037109,0.082031,0.15625,0.444092,-0.253235,0.615845,0.599487,up
453800,-8.28125,4.839844,1.320313,-0.037109,0.082031,0.15625,0.443298,-0.253052,0.616089,0.599854,up
453806,-8.285156,4.878906,1.28125,-0.037109,0.082031,0.15625,0.442993,-0.253052,0.61615,0.600037,up
453811,-8.324219,4.914062,1.28125,-0.083984,0.082031,0.132812,0.442566,-0.253052,0.616272,0.600281,up
453816,-8.285156,4.878906,1.28125,-0.09375,0.072266,0.123047,0.442566,-0.253052,0.616272,0.600281,up
453822,-8.253906,4.878906,1.320313,-0.09375,0.072266,0.123047,0.441895,-0.253113,0.616272,0.600708,up
453828,-8.25,4.839844,1.242188,-0.121094,0.080078,0.107422,0.441895,-0.253113,0.616272,0.600708,up
453834,-8.25,4.878906,1.28125,-0.126953,0.083984,0.103516,0.440796,-0.253418,0.616211,0.60144,up
453839,-8.25,4.878906,1.28125,-0.126953,0.083984,0.103516,0.44043,-0.25354,0.61615,0.601746,up
453844,-8.25,4.839844,1.242188,-0.126953,0.083984,0.103516,0.440125,-0.253601,0.616089,0.602051,up
453849,-8.25,4.839844,1.28125,-0.126953,0.083984,0.103516,0.440125,-0.253601,0.616089,0.602051,up
453854,-8.210938,4.761719,1.28125,-0.144531,0.064453,0.083984,0.440125,-0.253601,0.616089,0.602051,up
453859,-8.214844,4.722656,1.320313,-0.144531,0.064453,0.083984,0.439148,-0.254028,0.615784,0.602844,up
453864,-8.253906,4.722656,1.320313,-0.144531,0.064453,0.083984,0.439148,-0.254028,0.615784,0.602844,up
453869,-8.210938,4.761719,1.28125,-0.082031,0.023437,0.058594,0.439148,-0.254028,0.615784,0.602844,up
453875,-8.171875,4.800781,1.28125,-0.082031,0.023437,0.058594,0.438538,-0.25415,0.615662,0.603333,up
453881,-8.210938,4.839844,1.28125,-0.082031,0.023437,0.058594,0.438416,-0.25415,0.615662,0.603455,up
453886,-8.25,4.839844,1.242188,0.023437,-0.001953,0.035156,0.438416,-0.254089,0.615723,0.603455,up
453891,-8.253906,4.878906,1.320313,0.033203,-0.013672,0.037109,0.438354,-0.253967,0.615784,0.603455,up
453896,-8.175781,4.914062,1.320313,0.033203,-0.013672,0.037109,0.438354,-0.253845,0.615845,0.603455,up
453903,-8.210938,4.953125,1.320313,0.078125,-0.037109,0.035156,0.438354,-0.253845,0.615845,0.603455,up
453908,-8.210938,4.992187,1.320313,0.070312,-0.041016,0.027344,0.438354,-0.253845,0.615845,0.603455,up
453913,-8.253906,5.070312,1.320313,0.080078,-0.046875,0.037109,0.438354,-0.253845,0.615845,0.603455,up
453918,-8.253906,5.03125,1.28125,0.080078,-0.046875,0.037109,0.438599,-0.253113,0.616272,0.60321,up
453923,-8.285156,5.070312,1.28125,0.060547,-0.046875,0.029297,0.438599,-0.253113,0.616272,0.60321,up
453928,-8.285156,5.105469,1.28125,0.044922,-0.044922,0.027344,0.438599,-0.253113,0.616272,0.60321,up
453933,-8.28125,5.144531,1.28125,0.044922,-0.044922,0.027344,0.438599,-0.253113,0.616272,0.60321,up
453938,-8.28125,5.144531,1.28125,0.044922,-0.044922,0.027344,0.438721,-0.252502,0.616455,0.603149,up
453943,-8.28125,5.144531,1.28125,-0.017578,-0.029297,0.027344,0.438721,-0.252502,0.616455,0.603149,up
453949,-8.285156,5.105469,1.28125,-0.033203,-0.023437,0.037109,0.43866,-0.252319,0.616333,0.603394,up
453954,-8.285156,5.105469,1.28125,-0.033203,-0.023437,0.037109,0.43866,-0.252319,0.616333,0.603394,up
453959,-8.28125,5.144531,1.28125,-0.050781,-0.021484,0.048828,0.438477,-0.252197,0.616211,0.603699,up
453964,-8.285156,5.144531,1.320313,-0.050781,-0.021484,0.048828,0.438477,-0.252197,0.616211,0.603699,up
453969,-8.253906,5.144531,1.28125,-0.066406,-0.023437,0.074219,0.438477,-0.252197,0.616211,0.603699,up
453974,-8.214844,5.105469,1.320313,-0.066406,-0.023437,0.074219,0.438293,-0.252136,0.616028,0.604004,up
453980,-8.25,5.070312,1.359375,-0.078125,-0.033203,0.085937,0.437988,-0.251953,0.615845,0.604492,up
453985,-8.253906,4.953125,1.359375,-0.078125,-0.033203,0.085937,0.437866,-0.251892,0.615723,0.604736,up
453991,-8.253906,4.914062,1.359375,-0.082031,-0.068359,0.113281,0.437683,-0.251709,0.615601,0.605042,up
453996,-8.253906,4.914062,1.433594,-0.072266,-0.068359,0.119141,0.437561,-0.251526,0.615479,0.605347,up
454002,-8.171875,4.914062,1.394531,-0.072266,-0.068359,0.119141,0.437439,-0.251343,0.615417,0.60553,up
454007,-8.214844,4.953125,1.394531,0.019531,-0.078125,0.107422,0.437439,-0.251099,0.615417,0.605713,up
454013,-8.171875,4.992187,1.433594,0.0625,-0.097656,0.121094,0.437439,-0.251099,0.615417,0.605713,up
454019,-8.214844,5.03125,1.394531,0.085937,-0.101563,0.123047,0.437439,-0.251099,0.615417,0.605713,up
454024,-8.210938,5.070312,1.359375,0.138672,-0.103516,0.125,0.437439,-0.249878,0.615662,0.605896,up
454029,-8.210938,5.070312,1.359375,0.138672,-0.103516,0.125,0.4375,-0.24939,0.615845,0.605896,up
454035,-8.175781,5.144531,1.320313,0.158203,-0.107422,0.132812,0.4375,-0.24939,0.615845,0.605896,up
454040,-8.171875,5.144531,1.359375,0.158203,-0.107422,0.132812,0.437683,-0.247742,0.616516,0.605774,up
454045,-8.171875,5.105469,1.320313,0.177734,-0.103516,0.128906,0.437683,-0.247742,0.616516,0.605774,up
454050,-8.175781,5.144531,1.320313,0.169922,-0.097656,0.136719,0.437744,-0.247192,0.61676,0.605713,up
454055,-8.097656,5.183594,1.28125,0.169922,-0.097656,0.136719,0.437866,-0.246094,0.617249,0.605591,up
454060,-8.097656,5.183594,1.28125,0.126953,-0.082031,0.134766,0.437866,-0.246094,0.617249,0.605591,up
454065,-8.054688,5.144531,1.28125,0.103516,-0.080078,0.142578,0.437866,-0.245605,0.617493,0.60553,up
454071,-8.097656,5.144531,1.28125,0.103516,-0.080078,0.142578,0.437805,-0.244751,0.617798,0.605591,up
454077,-8.019531,5.105469,1.28125,0.103516,-0.080078,0.142578,0.437744,-0.244385,0.617859,0.605713,up
454083,-8.015625,5.144531,1.242188,0.041016,-0.060547,0.140625,0.437744,-0.244385,0.617859,0.605713,up
454088,-8.015625,5.144531,1.28125,0.017578,-0.056641,0.134766,0.437744,-0.244385,0.617859,0.605713,up
454094,-8.015625,5.183594,1.203125,0.017578,-0.056641,0.134766,0.437439,-0.243408,0.618103,0.606079,up
454099,-8.019531,5.105469,1.28125,0.001953,-0.042969,0.134766,0.437439,-0.243408,0.618103,0.606079,up
454105,-7.976562,5.144531,1.242188,-0.017578,-0.039063,0.126953,0.437439,-0.243408,0.618103,0.606079,up
454110,-8.019531,5.105469,1.242188,-0.017578,-0.039063,0.126953,0.43689,-0.242371,0.618225,0.606812,up
454115,-7.9375,5.144531,1.203125,-0.017578,-0.039063,0.126953,0.436707,-0.242126,0.618225,0.606995,up
454120,-7.9375,5.144531,1.242188,-0.017578,-0.039063,0.126953,0.436707,-0.242126,0.618225,0.606995,up
454125,-7.9375,5.183594,1.203125,0.0,-0.035156,0.134766,0.436707,-0.242126,0.618225,0.606995,up
454130,-7.9375,5.144531,1.242188,0.0,-0.035156,0.134766,0.436279,-0.241394,0.618347,0.607483,up
454135,-7.976562,5.183594,1.242188,-0.011719,-0.023437,0.140625,0.436279,-0.241394,0.618347,0.607483,up
454140,-8.015625,5.183594,1.28125,-0.03125,-0.009766,0.136719,0.436096,-0.24115,0.618408,0.607666,up
454145,-7.976562,5.144531,1.28125,-0.03125,-0.009766,0.136719,0.435669,-0.240784,0.618469,0.608032,up
454150,-8.054688,5.144531,1.203125,-0.03125,-0.009766,0.136719,0.435486,-0.240601,0.618469,0.608215,up
454155,-8.054688,5.183594,1.28125,-0.03125,-0.009766,0.136719,0.435486,-0.240601,0.618469,0.608215,up
454160,-8.019531,5.183594,1.320313,-0.041016,-0.007813,0.117188,0.435059,-0.240295,0.618469,0.608643,up
454165,-8.058594,5.222656,1.28125,-0.041016,-0.007813,0.117188,0.435059,-0.240295,0.618469,0.608643,up
454170,-8.015625,5.183594,1.28125,-0.0625,0.001953,0.119141,0.435059,-0.240295,0.618469,0.608643,up
454175,-7.980469,5.183594,1.320313,-0.0625,0.001953,0.119141,0.434631,-0.240051,0.618469,0.60907,up
454181,-7.941406,5.105469,1.242188,-0.0625,0.001953,0.119141,0.434265,-0.239868,0.618408,0.609497,up
454186,-7.980469,5.105469,1.28125,-0.0625,0.001953,0.119141,0.434265,-0.239868,0.618408,0.609497,up
454191,-7.980469,5.105469,1.28125,-0.056641,-0.005859,0.107422,0.434082,-0.239746,0.618408,0.60968,up
454196,-7.980469,5.144531,1.320313,-0.050781,-0.005859,0.101563,0.434082,-0.239746,0.618408,0.60968,up
454201,-7.980469,5.070312,1.28125,-0.033203,-0.005859,0.09375,0.434082,-0.239746,0.618408,0.60968,up
454206,-7.980469,5.070312,1.28125,-0.017578,-0.013672,0.076172,0.433594,-0.239441,0.618347,0.610168,up
454212,-7.980469,5.105469,1.242188,-0.017578,-0.013672,0.076172,0.433472,-0.239197,0.618408,0.610291,up
454217,-8.015625,5.144531,1.28125,-0.017578,-0.013672,0.076172,0.433472,-0.239075,0.618469,0.610229,up
454222,-8.058594,5.222656,1.28125,-0.017578,-0.013672,0.076172,0.433472,-0.239075,0.618469,0.610229,up
454227,-8.09375,5.261719,1.242188,0.095703,-0.001953,-0.021484,0.433472,-0.239075,0.618469,0.610229,up
454232,-8.132813,5.296875,1.203125,0.115234,-0.005859,-0.044922,0.433472,-0.239075,0.618469,0.610229,up
454237,-8.171875,5.335937,1.28125,0.115234,-0.005859,-0.044922,0.433472,-0.239075,0.618469,0.610229,up
454243,-8.171875,5.375,1.203125,0.109375,-0.011719,-0.076172,0.433472,-0.239075,0.618469,0.610229,up
454249,-8.253906,5.414062,1.203125,0.101563,-0.019531,-0.109375,0.433472,-0.239075,0.618469,0.610229,up
454254,-8.214844,5.453125,1.28125,0.101563,-0.019531,-0.109375,0.43457,-0.238831,0.619202,0.608826,up
454260,-8.214844,5.453125,1.242188,0.101563,-0.019531,-0.109375,0.435181,-0.239014,0.619141,0.608398,up
454265,-8.214844,5.488281,1.203125,0.101563,-0.019531,-0.109375,0.435181,-0.239014,0.619141,0.608398,up
454270,-8.171875,5.488281,1.203125,0.007813,-0.091797,-0.160156,0.435974,-0.239258,0.618774,0.608093,up
454275,-8.136719,5.453125,1.242188,0.007813,-0.091797,-0.160156,0.435974,-0.239258,0.618774,0.608093,up
454280,-8.171875,5.488281,1.28125,-0.082031,-0.136719,-0.193359,0.436462,-0.23938,0.618469,0.608032,up
454285,-8.136719,5.453125,1.28125,-0.082031,-0.136719,-0.193359,0.43689,-0.239563,0.618103,0.607971,up
454290,-8.097656,5.414062,1.242188,-0.082031,-0.136719,-0.193359,0.437378,-0.239746,0.617737,0.607971,up
454295,-8.015625,5.335937,1.242188,-0.082031,-0.136719,-0.193359,0.437866,-0.239929,0.617249,0.608032,up
454300,-8.058594,5.296875,1.242188,-0.15625,-0.195312,-0.201172,0.437866,-0.239929,0.617249,0.608032,up
454305,-8.058594,5.261719,1.242188,-0.15625,-0.195312,-0.201172,0.438904,-0.240295,0.61615,0.608276,up
454310,-7.9375,5.144531,1.242188,-0.15625,-0.195312,-0.201172,0.439392,-0.240479,0.615601,0.608398,up
454316,-7.9375,5.183594,1.242188,-0.117188,-0.220703,-0.177734,0.43988,-0.240662,0.615051,0.608521,up
454321,-7.902344,5.144531,1.242188,-0.117188,-0.220703,-0.177734,0.44104,-0.240784,0.613953,0.608765,up
454326,-7.859375,5.105469,1.203125,-0.052734,-0.21875,-0.148437,0.441589,-0.240784,0.613525,0.608826,up
454332,-7.863281,5.144531,1.203125,-0.052734,-0.21875,-0.148437,0.442017,-0.240723,0.613159,0.608826,up
454338,-7.902344,5.144531,1.203125,0.025391,-0.1875,-0.103516,0.442017,-0.240723,0.613159,0.608826,up
454343,-7.863281,5.183594,1.203125,0.058594,-0.166016,-0.089844,0.442017,-0.240723,0.613159,0.608826,up
454348,-7.863281,5.105469,1.128906,0.058594,-0.166016,-0.089844,0.443359,-0.240173,0.61261,0.608643,up
454354,-7.902344,5.105469,1.128906,0.138672,-0.128906,-0.058594,0.443359,-0.240173,0.61261,0.608643,up
454359,-7.9375,5.105469,1.128906,0.177734,-0.113281,-0.037109,0.443359,-0.240173,0.61261,0.608643,up
454365,-7.9375,5.070312,1.128906,0.216797,-0.064453,-0.019531,0.443359,-0.240173,0.61261,0.608643,up
454370,-7.902344,5.070312,1.128906,0.216797,-0.064453,-0.019531,0.444702,-0.239014,0.613037,0.607666,up
454376,-7.898437,5.070312,1.203125,0.228516,-0.046875,-0.011719,0.44519,-0.238403,0.613647,0.606995,up
454381,-7.898437,5.070312,1.203125,0.228516,-0.046875,-0.011719,0.445374,-0.238098,0.614014,0.606628,up
454387,-7.9375,5.105469,1.167969,0.228516,-0.046875,-0.011719,0.445496,-0.237793,0.61438,0.606262,up
454392,-7.941406,5.105469,1.203125,0.28125,0.0,0.017578,0.445618,-0.237427,0.614807,0.605835,up
454397,-7.898437,5.105469,1.242188,0.302734,-0.001953,0.037109,0.445618,-0.237427,0.614807,0.605835,up
454403,-8.015625,5.144531,1.203125,0.302734,-0.001953,0.037109,0.445923,-0.236633,0.615723,0.60498,up
454408,-8.015625,5.144531,1.242188,0.320313,0.003906,0.046875,0.445984,-0.236206,0.616272,0.604553,up
454413,-8.019531,5.105469,1.28125,0.333984,0.0,0.052734,0.445984,-0.236206,0.616272,0.604553,up
454418,-7.976562,5.105469,1.320313,0.349609,-0.011719,0.052734,0.445984,-0.236206,0.616272,0.604553,up
454424,-7.980469,5.105469,1.242188,0.353516,-0.011719,0.052734,0.445984,-0.236206,0.616272,0.604553,up
454429,-8.019531,5.105469,1.242188,0.361328,-0.015625,0.046875,0.445984,-0.236206,0.616272,0.604553,up
454435,-7.980469,5.144531,1.320313,0.361328,-0.025391,0.042969,0.445984,-0.236206,0.616272,0.604553,up
454440,-7.976562,5.144531,1.28125,0.361328,-0.025391,0.042969,0.44696,-0.233276,0.619507,0.601685,up
454445,-7.976562,5.183594,1.242188,0.367188,-0.044922,0.03125,0.44696,-0.233276,0.619507,0.601685,up
454451,-7.9375,5.183594,1.28125,0.355469,-0.056641,0.015625,0.447754,-0.23175,0.621033,0.600159,up
454457,-7.976562,5.261719,1.167969,0.355469,-0.056641,0.015625,0.447998,-0.231323,0.621399,0.599731,up
454462,-7.976562,5.261719,1.167969,0.259766,-0.068359,-0.023437,0.448303,-0.230896,0.621704,0.599304,up
454467,-7.976562,5.261719,1.167969,0.210937,-0.0625,-0.050781,0.448608,-0.230652,0.621948,0.598938,up
454473,-8.019531,5.296875,1.050781,0.210937,-0.0625,-0.050781,0.448914,-0.230408,0.622131,0.598633,up
454479,-8.097656,5.296875,0.976562,0.126953,-0.041016,-0.080078,0.448914,-0.230408,0.622131,0.598633,up
454484,-8.09375,5.335937,0.976562,0.107422,-0.017578,-0.09375,0.448914,-0.230408,0.622131,0.598633,up
454490,-8.253906,5.296875,0.976562,0.095703,0.021484,-0.099609,0.448914,-0.230408,0.622131,0.598633,up
454496,-8.363281,5.335937,0.976562,0.175781,0.097656,-0.078125,0.448914,-0.230408,0.622131,0.598633,up
454501,-8.476563,5.488281,1.011719,0.175781,0.097656,-0.078125,0.449951,-0.23053,0.623291,0.596619,up
454506,-8.632813,5.683594,1.011719,0.175781,0.097656,-0.078125,0.450073,-0.230469,0.623779,0.596008,up
454511,-8.980469,6.5625,1.050781,0.175781,0.097656,-0.078125,0.450317,-0.230286,0.624451,0.595215,up
454516,-9.167969,7.0625,1.128906,0.498047,-0.042969,-0.195312,0.450317,-0.230286,0.624451,0.595215,up
454521,-9.28125,7.558594,1.320313,0.464844,-0.173828,-0.294922,0.450806,-0.22998,0.625122,0.594238,up
454526,-9.285156,7.863281,1.394531,0.464844,-0.173828,-0.294922,0.452698,-0.229431,0.625671,0.592407,up
454531,-9.359375,8.210938,1.394531,0.464844,-0.173828,-0.294922,0.454041,-0.229431,0.625244,0.591858,up
454536,-9.207031,8.25,1.472656,-0.345703,-0.589844,-0.630859,0.454041,-0.229431,0.625244,0.591858,up
454541,-9.164063,8.25,1.550781,-0.802734,-0.746094,-0.707031,0.45575,-0.229797,0.624023,0.591736,up
454546,-8.976563,7.902344,1.625,-0.802734,-0.746094,-0.707031,0.458984,-0.231567,0.619385,0.593384,up
454551,-8.902344,7.519531,1.625,-0.802734,-0.746094,-0.707031,0.458984,-0.231567,0.619385,0.593384,up
454556,-8.742188,7.097656,1.550781,-1.873047,-0.931641,-0.78125,0.462097,-0.235596,0.610535,0.598511,up
454562,-8.398438,6.371094,1.585938,-1.873047,-0.931641,-0.78125,0.463257,-0.238281,0.604919,0.602234,up
454567,-8.253906,5.335937,1.933594,-1.873047,-0.931641,-0.78125,0.46405,-0.241089,0.599365,0.606079,up
454572,-8.136719,4.914062,1.933594,-3.320313,-0.931641,-0.691406,0.46405,-0.241089,0.599365,0.606079,up
454578,-8.019531,4.417969,1.933594,-3.394531,-0.855469,-0.652344,0.46405,-0.241089,0.599365,0.606079,up
454583,-7.859375,3.5,2.164063,-3.394531,-0.855469,-0.652344,0.46405,-0.241089,0.599365,0.606079,up
454588,-7.75,3.191406,2.277344,-3.066406,-0.722656,-0.541016,0.46405,-0.241089,0.599365,0.606079,up
454594,-7.710937,2.960938,2.355469,-2.677734,-0.646484,-0.490234,0.46405,-0.241089,0.599365,0.606079,up
454600,-7.632812,2.808594,2.546875,-2.113281,-0.533203,-0.433594,0.46405,-0.241089,0.599365,0.606079,up
454605,-7.636719,2.847656,2.546875,-1.400391,-0.410156,-0.380859,0.46405,-0.241089,0.599365,0.606079,up
454611,-7.59375,3.039063,2.546875,0.140625,-0.185547,-0.246094,0.46405,-0.241089,0.599365,0.606079,up
454616,-7.902344,3.574219,2.621094,0.140625,-0.185547,-0.246094,0.466064,-0.263672,0.556335,0.635437,up
454621,-7.753906,3.917969,2.621094,1.357422,-0.072266,-0.128906,0.467041,-0.263184,0.556763,0.634521,up
454626,-7.976562,4.496094,2.699219,1.357422,-0.072266,-0.128906,0.468201,-0.261902,0.55835,0.632812,up
454631,-8.285156,5.03125,2.546875,1.357422,-0.072266,-0.128906,0.469421,-0.260193,0.560669,0.630615,up
454636,-8.402344,5.222656,2.507813,1.357422,-0.072266,-0.128906,0.470703,-0.258057,0.563538,0.627869,up
454641,-8.398438,5.375,2.507813,2.019531,-0.115234,-0.017578,0.471924,-0.255981,0.566345,0.625305,up
454646,-8.480469,5.605469,2.546875,2.019531,-0.115234,-0.017578,0.474792,-0.251038,0.572144,0.619812,up
454651,-8.554688,5.875,2.621094,2.019531,-0.115234,-0.017578,0.474792,-0.251038,0.572144,0.619812,up
454656,-8.480469,5.875,2.660156,2.019531,-0.115234,-0.017578,0.4776,-0.246582,0.575989,0.615906,up
454661,-8.402344,5.835937,2.699219,0.4375,-0.419922,-0.009766,0.4776,-0.246582,0.575989,0.615906,up
454666,-8.363281,5.683594,2.699219,0.4375,-0.419922,-0.009766,0.479431,-0.244202,0.576416,0.615051,up
454671,-8.214844,5.183594,2.582031,0.4375,-0.419922,-0.009766,0.479431,-0.244202,0.576416,0.615051,up
454676,-8.097656,4.878906,2.429688,0.4375,-0.419922,-0.009766,0.479919,-0.244507,0.573181,0.617554,up
454681,-8.019531,4.609375,2.390625,0.4375,-0.419922,-0.009766,0.479919,-0.244507,0.573181,0.617554,up
454686,-7.941406,4.300781,2.355469,-1.501953,-0.507812,-0.052734,0.479919,-0.244507,0.573181,0.617554,up
454692,-7.710937,3.84375,2.390625,-1.501953,-0.507812,-0.052734,0.479675,-0.247314,0.565125,0.624023,up
454697,-7.710937,3.460938,2.429688,-1.542969,-0.464844,-0.105469,0.479492,-0.248657,0.561707,0.626648,up
454702,-7.714844,3.230469,2.390625,-1.396484,-0.449219,-0.146484,0.479431,-0.249939,0.558716,0.628906,up
454708,-7.710937,3.0,2.355469,-1.396484,-0.449219,-0.146484,0.479492,-0.250854,0.556396,0.630554,up
454713,-7.75,3.191406,2.46875,-1.396484,-0.449219,-0.146484,0.479797,-0.251709,0.554199,0.631897,up
454718,-7.859375,3.269531,2.582031,-0.482422,-0.419922,-0.292969,0.479797,-0.251709,0.554199,0.631897,up
454723,-7.828125,3.191406,2.621094,-0.173828,-0.433594,-0.357422,0.479797,-0.251709,0.554199,0.631897,up
454728,-7.898437,3.230469,2.699219,-0.173828,-0.433594,-0.357422,0.482422,-0.252319,0.550293,0.633057,up
454734,-8.054688,3.34375,2.699219,-0.173828,-0.433594,-0.357422,0.482422,-0.252319,0.550293,0.633057,up
454740,-8.136719,3.382813,2.699219,0.070312,-0.460937,-0.458984,0.482422,-0.252319,0.550293,0.633057,up
454745,-8.136719,3.34375,2.773438,0.021484,-0.498047,-0.505859,0.482422,-0.252319,0.550293,0.633057,up
454750,-8.132813,3.421875,2.890625,-0.037109,-0.527344,-0.548828,0.482422,-0.252319,0.550293,0.633057,up
454755,-8.132813,3.421875,2.890625,-0.125,-0.546875,-0.572266,0.482422,-0.252319,0.550293,0.633057,up
454760,-8.175781,3.535156,2.96875,-0.125,-0.546875,-0.572266,0.491211,-0.251892,0.544495,0.63147,up
454765,-8.171875,3.535156,2.929688,-0.125,-0.546875,-0.572266,0.492737,-0.252197,0.542786,0.631653,up
454770,-8.171875,3.535156,2.929688,-0.125,-0.546875,-0.572266,0.494202,-0.252686,0.540833,0.632019,up
454775,-8.171875,3.535156,2.929688,-0.691406,-0.683594,-0.595703,0.495605,-0.253235,0.538574,0.632568,up
454780,-8.019531,3.535156,2.96875,-0.691406,-0.683594,-0.595703,0.497009,-0.253845,0.536255,0.63324,up
454785,-8.09375,3.382813,2.96875,-0.691406,-0.683594,-0.595703,0.497009,-0.253845,0.536255,0.63324,up
454790,-8.09375,3.382813,2.96875,-0.75,-0.773437,-0.580078,0.5,-0.254761,0.531189,0.634766,up
454796,-8.25,3.230469,2.890625,-0.75,-0.773437,-0.580078,0.503357,-0.255005,0.526184,0.636169,up
454801,-8.132813,3.152344,2.851563,-0.75,-0.773437,-0.580078,0.503357,-0.255005,0.526184,0.636169,up
454806,-8.210938,3.34375,2.8125,-0.75,-0.773437,-0.580078,0.505371,-0.254944,0.523499,0.63678,up
454811,-8.253906,3.308594,2.890625,-0.488281,-1.175781,-0.75,0.505371,-0.254944,0.523499,0.63678,up
454816,-8.285156,3.269531,3.082031,-0.488281,-1.175781,-0.75,0.509888,-0.254456,0.518188,0.637756,up
454821,-8.25,3.308594,3.042969,-0.488281,-1.175781,-0.75,0.512451,-0.25415,0.51532,0.638184,up
454826,-8.324219,3.308594,2.929688,-0.488281,-1.175781,-0.75,0.515381,-0.253845,0.511963,0.638611,up
454832,-8.359375,3.421875,2.851563,-0.710937,-1.373047,-1.023438,0.521118,-0.253906,0.504883,0.639587,up
454838,-8.324219,3.113281,2.929688,-0.710937,-1.373047,-1.023438,0.524048,-0.254272,0.500916,0.640137,up
454843,-8.324219,3.113281,2.929688,-1.240234,-1.466797,-1.320313,0.527588,-0.255127,0.495789,0.64093,up
454848,-8.132813,2.847656,3.234375,-1.240234,-1.466797,-1.320313,0.530334,-0.256104,0.491394,0.641602,up
454854,-8.136719,2.65625,3.617188,-1.240234,-1.466797,-1.320313,0.533569,-0.257507,0.486084,0.642456,up
454859,-8.25,2.347656,3.734375,-1.720703,-1.419922,-1.666016,0.533569,-0.257507,0.486084,0.642456,up
454864,-8.324219,2.234375,3.769531,-1.802734,-1.363281,-1.777344,0.533569,-0.257507,0.486084,0.642456,up
454869,-8.519531,2.121094,3.769531,-1.8125,-1.320313,-1.900391,0.533569,-0.257507,0.486084,0.642456,up
454874,-8.636719,2.003906,3.847656,-1.8125,-1.320313,-1.900391,0.533569,-0.257507,0.486084,0.642456,up
454879,-8.667969,1.851563,4.15625,-1.703125,-1.453125,-2.103516,0.533569,-0.257507,0.486084,0.642456,up
454884,-8.554688,1.851563,4.421875,-1.607422,-1.580078,-2.1875,0.533569,-0.257507,0.486084,0.642456,up
454889,-8.554688,1.851563,4.421875,-1.5,-1.683594,-2.236328,0.559204,-0.273315,0.44397,0.644592,up
454894,-8.359375,1.925781,4.652344,-1.5,-1.683594,-2.236328,0.559204,-0.273315,0.44397,0.644592,up
454899,-8.324219,1.773438,4.652344,-1.246094,-1.847656,-2.259766,0.568481,-0.276428,0.431396,0.643677,up
454904,-8.324219,1.773438,4.652344,-1.246094,-1.847656,-2.259766,0.568481,-0.276428,0.431396,0.643677,up
454909,-7.898437,1.964844,4.539062,-1.125,-1.955078,-2.224609,0.578125,-0.278015,0.41925,0.642395,up
454914,-7.636719,1.851563,4.5,-1.125,-1.955078,-2.224609,0.578125,-0.278015,0.41925,0.642395,up
454920,-7.480469,1.964844,4.539062,-0.748047,-2.222656,-1.966797,0.578125,-0.278015,0.41925,0.642395,up
454926,-7.410156,2.082031,4.5,-0.748047,-2.222656,-1.966797,0.593201,-0.277344,0.401245,0.640442,up
454931,-7.210937,2.003906,4.421875,-0.773437,-2.236328,-1.761719,0.597778,-0.276611,0.39563,0.640015,up
454936,-7.171875,1.429688,4.421875,-0.773437,-2.236328,-1.761719,0.602234,-0.27594,0.389893,0.639648,up
454942,-7.175781,1.46875,4.230469,-0.798828,-2.216797,-1.751953,0.602234,-0.27594,0.389893,0.639648,up
454947,-7.097656,1.125,4.269531,-0.798828,-2.216797,-1.751953,0.615784,-0.274231,0.371338,0.638489,up
454952,-7.097656,0.855469,4.347656,-0.798828,-2.216797,-1.751953,0.61969,-0.274048,0.365601,0.638123,up
454957,-6.988281,0.96875,4.5,-1.138672,-2.109375,-1.955078,0.624207,-0.274109,0.358765,0.637573,up
454962,-6.828125,1.125,4.347656,-1.138672,-2.109375,-1.955078,0.624207,-0.274109,0.358765,0.637573,up
454968,-6.828125,1.125,4.347656,-1.138672,-2.109375,-1.955078,0.632324,-0.275208,0.345825,0.63623,up
454973,-6.828125,1.125,4.347656,-1.138672,-2.109375,-1.955078,0.632324,-0.275208,0.345825,0.63623,up
454978,-6.832031,1.125,4.460937,-1.496094,-1.738281,-2.097656,0.632324,-0.275208,0.345825,0.63623,up
454983,-7.09375,0.738281,4.574219,-1.648438,-1.65625,-2.111328,0.639648,-0.277954,0.332947,0.634644,up
454988,-7.09375,0.738281,4.574219,-1.648438,-1.65625,-2.111328,0.639648,-0.277954,0.332947,0.634644,up
454994,-6.832031,0.394531,4.957031,-1.878906,-1.623047,-2.089844,0.64978,-0.284241,0.311707,0.632324,up
454999,-6.644531,-0.0625,5.378906,-1.878906,-1.623047,-2.089844,0.65271,-0.286682,0.304626,0.631653,up
455004,-6.484375,-0.179687,5.496094,-2.166016,-1.408203,-1.955078,0.65271,-0.286682,0.304626,0.631653,up
455009,-6.488281,-0.257813,5.457031,-2.142578,-1.304688,-1.876953,0.65271,-0.286682,0.304626,0.631653,up
455014,-6.671875,-0.371094,5.457031,-2.119141,-1.238281,-1.773438,0.65271,-0.286682,0.304626,0.631653,up
455019,-6.910156,-0.601562,5.761719,-2.119141,-1.238281,-1.773438,0.65271,-0.286682,0.304626,0.631653,up
455024,-6.910156,-0.601562,5.761719,-1.992188,-1.0625,-1.572266,0.65271,-0.286682,0.304626,0.631653,up
455029,-7.367187,-0.714844,6.453125,-1.992188,-1.0625,-1.572266,0.65271,-0.286682,0.304626,0.631653,up
455035,-7.671875,-0.832031,7.066406,-1.587891,-0.994141,-1.474609,0.65271,-0.286682,0.304626,0.631653,up
455040,-7.710937,-0.484375,7.140625,-1.587891,-0.994141,-1.474609,0.669067,-0.307373,0.25415,0.627136,up
455045,-7.832031,-0.410156,7.179687,-1.224609,-0.78125,-1.466797,0.669067,-0.307373,0.25415,0.627136,up
455050,-7.832031,-0.410156,7.179687,-1.125,-0.664062,-1.460938,0.672668,-0.310913,0.245361,0.625,up
455055,-7.980469,-0.292969,7.140625,-1.125,-0.664062,-1.460938,0.672668,-0.310913,0.245361,0.625,up
455060,-7.980469,-0.292969,7.140625,-1.066406,-0.591797,-1.423828,0.676208,-0.314392,0.237671,0.622437,up
455065,-8.175781,-0.523437,7.332031,-1.066406,-0.591797,-1.423828,0.676208,-0.314392,0.237671,0.622437,up
455070,-8.175781,-0.523437,7.332031,-1.039063,-0.597656,-1.296875,0.67926,-0.317566,0.230408,0.620239,up
455076,-7.828125,-1.328125,8.101563,-1.039063,-0.597656,-1.296875,0.67926,-0.317566,0.230408,0.620239,up
455082,-7.671875,-1.445313,8.136719,-1.373047,-0.484375,-0.976562,0.67926,-0.317566,0.230408,0.620239,up
455087,-7.597656,-1.367188,8.105469,-1.373047,-0.484375,-0.976562,0.682861,-0.325439,0.215454,0.617554,up
455092,-7.75,-1.367188,8.0625,-1.373047,-0.484375,-0.976562,0.682861,-0.325439,0.215454,0.617554,up
455097,-7.789062,-1.480469,8.132813,-1.460938,-0.378906,-0.705078,0.683228,-0.328003,0.211426,0.617187,up
455102,-7.902344,-1.597656,8.289063,-1.460938,-0.378906,-0.705078,0.68335,-0.330322,0.207886,0.617004,up
455107,-7.941406,-1.597656,8.445313,-1.460938,-0.378906,-0.705078,0.683411,-0.334351,0.20166,0.616821,up
455112,-7.980469,-1.519531,8.789063,-1.460938,-0.378906,-0.705078,0.683411,-0.334351,0.20166,0.616821,up
455117,-7.980469,-1.558594,9.019531,-1.460938,-0.378906,-0.705078,0.683533,-0.337891,0.196411,0.616455,up
455122,-8.019531,-1.40625,9.09375,-1.460938,-0.378906,-0.705078,0.683533,-0.337891,0.196411,0.616455,up
455127,-8.09375,-1.328125,9.175781,-1.460938,-0.378906,-0.705078,0.683655,-0.339233,0.194641,0.61615,up
455132,-8.058594,-1.289063,9.25,-0.515625,0.09375,-0.351563,0.683716,-0.341553,0.192871,0.615356,up
455137,-8.09375,-1.367188,9.363281,-0.259766,0.359375,-0.095703,0.683716,-0.341553,0.192871,0.615356,up
455142,-8.363281,-1.863281,9.820313,-0.259766,0.359375,-0.095703,0.683594,-0.342712,0.192749,0.614929,up
455148,-8.25,-2.054688,9.941406,-0.259766,0.359375,-0.095703,0.682678,-0.344727,0.193909,0.61438,up
455153,-8.441406,-1.902344,9.941406,-0.027344,0.869141,0.347656,0.681763,-0.346008,0.195496,0.614197,up
455158,-8.785156,-2.054688,10.015625,0.056641,1.060547,0.466797,0.680664,-0.347351,0.197571,0.614075,up
455164,-9.472656,-1.519531,9.976563,0.056641,1.060547,0.466797,0.679504,-0.34845,0.199951,0.613892,up
455169,-9.742188,-1.058594,9.941406,0.441406,1.382813,0.693359,0.678162,-0.349609,0.203247,0.613647,up
455175,-10.011719,-0.640625,10.019531,0.607422,1.533203,0.853516,0.678162,-0.349609,0.203247,0.613647,up
455180,-10.625,-0.410156,9.863281,0.775391,1.720703,1.017578,0.678162,-0.349609,0.203247,0.613647,up
455186,-10.894531,-0.21875,9.707031,1.0,1.933594,1.191406,0.678162,-0.349609,0.203247,0.613647,up
455191,-11.351563,-0.0625,9.707031,1.232422,2.109375,1.386719,0.678162,-0.349609,0.203247,0.613647,up
455196,-11.964844,-0.101563,10.09375,1.46875,2.279297,1.582031,0.678162,-0.349609,0.203247,0.613647,up
455201,-12.308594,-0.179687,10.09375,1.671875,2.480469,1.769531,0.678162,-0.349609,0.203247,0.613647,up
455206,-12.726563,0.011719,9.976563,1.671875,2.480469,1.769531,0.663147,-0.352844,0.247314,0.612,up
455211,-12.726563,0.011719,9.976563,2.0,3.082031,2.142578,0.659912,-0.352783,0.256836,0.611633,up
455216,-13.613281,-0.027344,9.480469,2.085938,3.378906,2.318359,0.659912,-0.352783,0.256836,0.611633,up
455221,-13.613281,-0.027344,9.480469,2.181641,3.632813,2.505859,0.651917,-0.353149,0.278503,0.610535,up
455226,-14.222656,0.355469,9.25,2.181641,3.632813,2.505859,0.651917,-0.353149,0.278503,0.610535,up
455232,-14.222656,0.355469,9.25,2.550781,4.195312,3.023438,0.642151,-0.353394,0.302917,0.609131,up
455237,-16.027344,2.464844,7.945312,3.099609,4.865234,3.707031,0.636108,-0.353271,0.317139,0.608276,up
455242,-16.5625,3.191406,7.332031,3.380859,5.279297,4.117187,0.629639,-0.352844,0.33197,0.6073,up
455247,-17.214844,3.691406,6.757812,3.380859,5.279297,4.117187,0.621643,-0.352112,0.349548,0.606079,up
455252,-17.214844,3.691406,6.757812,3.380859,5.279297,4.117187,0.613953,-0.351135,0.365723,0.60498,up
455257,-19.167969,5.488281,5.6875,3.380859,5.279297,4.117187,0.613953,-0.351135,0.365723,0.60498,up
455262,-20.355469,6.449219,5.148437,4.009766,6.060547,5.082031,0.613953,-0.351135,0.365723,0.60498,up
455267,-20.355469,6.449219,5.148437,4.814453,6.685547,6.125,0.582397,-0.344421,0.426575,0.60022,up
455272,-24.601562,7.941406,4.0,5.244141,6.931641,6.546875,0.582397,-0.344421,0.426575,0.60022,up
455277,-25.910156,9.511719,2.546875,5.244141,6.931641,6.546875,0.55603,-0.335388,0.473206,0.595337,up
455282,-26.792969,11.199219,2.355469,5.244141,6.931641,6.546875,0.540771,-0.32843,0.498962,0.592224,up
455288,-27.324219,12.195313,2.238281,6.25,6.257812,7.578125,0.512573,-0.311035,0.545166,0.585999,up
455294,-26.097656,14.1875,1.167969,6.25,6.257812,7.578125,0.498718,-0.300903,0.566467,0.582947,up
455299,-25.679687,14.492188,0.667969,5.945312,5.265625,8.261719,0.498718,-0.300903,0.566467,0.582947,up
455304,-25.027344,14.03125,0.054687,5.464844,5.091797,8.578125,0.46759,-0.277405,0.608643,0.577881,up
455309,-24.261719,13.457031,-0.824219,5.464844,5.091797,8.578125,0.46759,-0.277405,0.608643,0.577881,up
455314,-23.335937,13.34375,-1.554688,4.896484,4.943359,8.945313,0.450867,-0.26532,0.627625,0.576538,up
455319,-23.335937,13.34375,-1.554688,4.896484,4.943359,8.945313,0.432373,-0.252441,0.645996,0.576233,up
455325,-23.335937,13.34375,-1.554688,3.574219,4.830078,9.845703,0.392578,-0.226746,0.677734,0.578918,up
455330,-23.335937,13.34375,-1.554688,2.152344,5.091797,10.773438,0.369507,-0.213196,0.692322,0.58197,up
455335,-17.597656,10.890625,-2.394531,2.152344,5.091797,10.773438,0.369507,-0.213196,0.692322,0.58197,up
455340,-17.175781,10.433594,-2.664063,0.957031,5.5625,11.484375,0.369507,-0.213196,0.692322,0.58197,up
455345,-16.144531,9.320313,-3.277344,0.957031,5.5625,11.484375,0.369507,-0.213196,0.692322,0.58197,up
455351,-16.144531,9.320313,-3.277344,0.957031,5.5625,11.484375,0.263977,-0.160889,0.737122,0.600891,up
455357,-15.527344,9.820313,-3.46875,-0.185547,6.082031,12.462891,0.233398,-0.147034,0.745667,0.606506,up
455362,-15.527344,9.820313,-3.46875,-0.019531,5.974609,12.892578,0.203125,-0.13269,0.753174,0.61145,up
455367,-15.90625,10.316406,-3.199219,-0.019531,5.974609,12.892578,0.203125,-0.13269,0.753174,0.61145,up
455372,-15.90625,10.316406,-3.199219,0.605469,5.779297,13.564453,0.139954,-0.099609,0.767029,0.618164,up
455378,-16.789062,4.761719,-3.621094,0.605469,5.779297,13.564453,0.073425,-0.062927,0.777771,0.621033,up
455383,-15.183594,4.378906,-2.167969,0.605469,5.779297,13.564453,0.037781,-0.041687,0.781982,0.620789,up
455388,-14.992188,3.574219,-0.941406,1.496094,4.798828,14.363281,0.037781,-0.041687,0.781982,0.620789,up
455393,-14.992188,3.574219,-0.941406,1.496094,4.798828,14.363281,0.008606,-0.02301,0.785034,0.618958,up
455398,-15.105469,0.855469,1.550781,2.001953,4.810547,14.302734,0.021362,0.003235,-0.787964,-0.615295,up
455403,-15.105469,0.855469,1.550781,2.40625,5.013672,14.166016,0.052551,-0.016907,-0.790649,-0.609741,up
455408,-14.152344,-0.257813,1.816406,2.40625,5.013672,14.166016,0.083679,-0.036255,-0.792603,-0.602905,up
455413,-14.152344,-0.257813,1.816406,2.431641,5.039062,13.412109,0.144348,-0.073425,-0.793335,-0.586853,up
455419,-10.777344,-4.507812,2.738281,2.654297,4.445312,12.292969,0.171875,-0.090515,-0.792664,-0.577881,up
455425,-6.90625,-6.992187,5.800781,2.654297,4.445312,12.292969,0.202026,-0.108582,-0.791809,-0.56604,up
455430,-7.0625,-7.648437,7.867187,2.654297,4.445312,12.292969,0.224609,-0.120544,-0.791504,-0.555481,up
455435,-5.414062,-9.296875,10.742188,2.654297,4.445312,12.292969,0.224609,-0.120544,-0.791504,-0.555481,up
455440,-5.414062,-9.296875,10.742188,5.503906,5.816406,8.767578,0.249573,-0.13092,-0.791626,-0.542114,up
455445,-4.6875,-8.453125,10.824219,5.503906,5.816406,8.767578,0.249573,-0.13092,-0.791626,-0.542114,up
455450,-6.179687,-5.234375,10.359375,5.648437,5.068359,6.935547,0.321838,-0.146912,-0.792358,-0.496948,up
455455,-7.328125,-6.195312,14.226563,5.648437,5.068359,6.935547,0.34082,-0.149231,-0.79303,-0.482361,up
455461,-7.023437,-5.773437,15.492188,5.582031,3.650391,4.994141,0.34082,-0.149231,-0.79303,-0.482361,up
455467,-6.410156,-5.65625,16.140625,5.427734,3.285156,4.035156,0.34082,-0.149231,-0.79303,-0.482361,up
455472,-6.410156,-5.65625,16.140625,5.068359,3.060547,3.095703,0.383606,-0.148987,-0.797302,-0.441528,up
455477,-5.605469,-4.621094,14.308594,5.068359,3.060547,3.095703,0.383606,-0.148987,-0.797302,-0.441528,up
455482,-5.605469,-4.621094,14.308594,4.478516,2.742188,2.242188,0.402405,-0.143616,-0.799988,-0.421204,up
455487,-5.070312,-3.625,11.246094,4.478516,2.742188,2.242188,0.407715,-0.141418,-0.80127,-0.414429,up
455492,-2.65625,-2.976563,9.980469,4.478516,2.742188,2.242188,0.410156,-0.140747,-0.802246,-0.410278,up
455497,-0.050781,-2.171875,8.136719,4.478516,2.742188,2.242188,0.410156,-0.140747,-0.802246,-0.410278,up
455502,0.675781,-2.363281,6.378906,-3.423828,-1.347656,-0.089844,0.410156,-0.140747,-0.802246,-0.410278,up
455507,2.402344,-1.789063,3.882813,-3.423828,-1.347656,-0.089844,0.404419,-0.148682,-0.800232,-0.417053,up
455512,3.246094,-1.480469,3.195313,-4.552734,-1.621094,-0.275391,0.404419,-0.148682,-0.800232,-0.417053,up
455517,3.972656,-1.136719,2.582031,-5.560547,-1.748047,-0.453125,0.404419,-0.148682,-0.800232,-0.417053,up
455522,4.550781,-0.832031,2.046875,-5.560547,-1.748047,-0.453125,0.386963,-0.166931,-0.789246,-0.446655,up
455527,5.199219,-0.484375,0.132812,-5.560547,-1.748047,-0.453125,0.386963,-0.166931,-0.789246,-0.446655,up
455532,5.351562,0.050781,-1.132813,-5.560547,-1.748047,-0.453125,0.372742,-0.180298,-0.776978,-0.474182,up
455537,5.542969,0.585937,-2.320313,-5.560547,-1.748047,-0.453125,0.366272,-0.185608,-0.770752,-0.487183,up
455542,6.082031,1.316406,-4.082031,-5.560547,-1.748047,-0.453125,0.359009,-0.190918,-0.763855,-0.50116,up
455548,6.425781,2.042969,-4.542969,-5.515625,-1.253906,-1.296875,0.345642,-0.19873,-0.753479,-0.522766,up
455553,6.425781,2.042969,-4.542969,-5.515625,-1.253906,-1.296875,0.345642,-0.19873,-0.753479,-0.522766,up
455558,6.582031,2.695313,-4.578125,-3.148438,-1.216797,-1.232422,0.345642,-0.19873,-0.753479,-0.522766,up
455563,6.582031,2.695313,-4.578125,-1.777344,-1.123047,-1.193359,0.334717,-0.202454,-0.748657,-0.535217,up
455568,7.386719,4.992187,-4.425781,-1.777344,-1.123047,-1.193359,0.334717,-0.202454,-0.748657,-0.535217,up
455573,7.417969,6.027344,-4.464844,0.533203,-0.90625,-1.125,0.324341,-0.200012,-0.752563,-0.537048,up
455578,7.6875,7.671875,-4.386719,0.533203,-0.90625,-1.125,0.324341,-0.200012,-0.752563,-0.537048,up
455583,7.765625,7.976562,-4.503906,2.388672,-0.732422,-1.103516,0.321777,-0.19751,-0.756287,-0.534363,up
455588,7.839844,8.097656,-4.617187,2.388672,-0.732422,-1.103516,0.319824,-0.19458,-0.760376,-0.530701,up
455593,7.957031,8.097656,-5.078125,2.388672,-0.732422,-1.103516,0.318176,-0.191345,-0.764893,-0.526367,up
455598,7.957031,8.25,-5.230469,2.388672,-0.732422,-1.103516,0.316711,-0.187683,-0.769897,-0.52124,up
455603,7.992187,8.515625,-5.230469,2.470703,-0.898437,-0.955078,0.31543,-0.184631,-0.774231,-0.516724,up
455609,8.03125,8.597656,-5.15625,1.888672,-1.009766,-0.896484,0.313538,-0.181396,-0.779175,-0.511597,up
455614,8.1875,8.597656,-4.695312,1.888672,-1.009766,-0.896484,0.308777,-0.177551,-0.786194,-0.505005,up
455619,8.261719,8.558594,-4.234375,1.888672,-1.009766,-0.896484,0.306213,-0.176941,-0.787964,-0.503967,up
455624,8.300781,8.398438,-3.929688,-0.548828,-0.763672,-0.626953,0.303223,-0.17688,-0.788818,-0.504517,up
455630,8.109375,7.980469,-4.3125,-0.548828,-0.763672,-0.626953,0.301025,-0.177002,-0.788574,-0.506104,up
455636,7.730469,7.671875,-4.578125,-0.548828,-0.763672,-0.626953,0.29895,-0.177246,-0.787659,-0.508728,up
455642,7.953125,7.40625,-4.3125,-1.654297,-0.310547,-0.501953,0.29895,-0.177246,-0.787659,-0.508728,up
455648,7.492187,7.328125,-3.738281,-1.648438,-0.189453,-0.478516,0.29895,-0.177246,-0.787659,-0.508728,up
455654,7.152344,7.175781,-3.546875,-1.648438,-0.189453,-0.478516,0.290894,-0.179382,-0.780823,-0.522949,up
455659,6.882812,7.476562,-3.429688,-1.015625,-0.183594,-0.623047,0.289185,-0.17926,-0.779724,-0.525574,up
455664,6.578125,7.0625,-3.238281,-1.015625,-0.183594,-0.623047,0.287659,-0.178955,-0.779175,-0.527344,up
455669,6.882812,6.988281,-2.777344,-0.207031,-0.253906,-0.638672,0.28595,-0.178284,-0.779114,-0.528625,up
455675,6.195312,7.0625,-2.011719,-0.207031,-0.253906,-0.638672,0.284729,-0.177185,-0.779663,-0.52887,up
455680,5.925781,7.210937,-2.128906,0.759766,-0.085937,-0.636719,0.284729,-0.177185,-0.779663,-0.52887,up
455686,5.8125,7.289062,-2.242188,1.001953,-0.126953,-0.619141,0.284729,-0.177185,-0.779663,-0.52887,up
455691,5.8125,7.449219,-2.203125,1.001953,-0.126953,-0.619141,0.284729,-0.177185,-0.779663,-0.52887,up
455696,5.847656,7.515625,-2.167969,1.169922,-0.320313,-0.558594,0.284729,-0.177185,-0.779663,-0.52887,up
455702,5.964844,7.597656,-2.089844,1.125,-0.390625,-0.529297,0.284729,-0.177185,-0.779663,-0.52887,up
455708,6.039062,7.828125,-2.089844,1.125,-0.390625,-0.529297,0.278259,-0.166748,-0.791687,-0.5177,up
455713,6.039062,7.898437,-2.203125,1.125,-0.390625,-0.529297,0.278259,-0.166748,-0.791687,-0.5177,up
455718,5.964844,7.976562,-2.203125,0.527344,-0.357422,-0.375,0.276184,-0.165344,-0.793884,-0.51593,up
455723,6.003906,7.828125,-2.625,0.527344,-0.357422,-0.375,0.276184,-0.165344,-0.793884,-0.51593,up
455728,5.964844,7.75,-2.894531,0.527344,-0.357422,-0.375,0.273987,-0.164917,-0.794189,-0.516724,up
455733,5.925781,7.714844,-3.125,0.527344,-0.357422,-0.375,0.273987,-0.164917,-0.794189,-0.516724,up
455738,5.964844,7.632812,-3.238281,-0.601562,-0.246094,-0.294922,0.271606,-0.1651,-0.793335,-0.519226,up
455743,6.117187,7.519531,-3.199219,-0.601562,-0.246094,-0.294922,0.271606,-0.1651,-0.793335,-0.519226,up
455748,6.15625,7.449219,-3.199219,-0.601562,-0.246094,-0.294922,0.270325,-0.165283,-0.792725,-0.520752,up
455753,6.15625,7.449219,-3.199219,-0.730469,-0.242187,-0.318359,0.269043,-0.165466,-0.792053,-0.522339,up
455758,6.195312,7.449219,-3.238281,-0.671875,-0.195312,-0.328125,0.267822,-0.165527,-0.791443,-0.523926,up
455763,6.195312,7.449219,-3.238281,-0.572266,-0.166016,-0.328125,0.266724,-0.165527,-0.790894,-0.525269,up
455769,6.195312,7.328125,-3.582031,-0.572266,-0.166016,-0.328125,0.265747,-0.165344,-0.790466,-0.526489,up
455774,6.195312,7.328125,-3.582031,-0.121094,-0.099609,-0.308594,0.264893,-0.165161,-0.790222,-0.527344,up
455780,6.195312,7.328125,-3.582031,0.013672,-0.066406,-0.294922,0.26355,-0.164307,-0.790283,-0.528198,up
455785,6.308594,7.25,-3.429688,0.013672,-0.066406,-0.294922,0.263062,-0.163757,-0.790527,-0.528259,up
455791,6.269531,7.210937,-3.429688,0.228516,0.007813,-0.279297,0.262695,-0.163025,-0.790894,-0.528137,up
455797,6.195312,7.253906,-3.390625,0.228516,0.007813,-0.279297,0.26239,-0.162109,-0.791443,-0.527771,up
455803,6.195312,7.289062,-3.277344,0.369141,0.056641,-0.248047,0.26239,-0.162109,-0.791443,-0.527771,up
455808,6.117187,7.292969,-3.164063,0.369141,0.056641,-0.248047,0.262146,-0.160583,-0.792419,-0.526855,up
455814,6.003906,7.289062,-2.894531,0.361328,0.046875,-0.238281,0.262146,-0.160583,-0.792419,-0.526855,up
455819,5.925781,7.210937,-2.816406,0.361328,0.046875,-0.238281,0.26178,-0.158142,-0.794067,-0.525269,up
455825,5.847656,7.214844,-2.855469,0.253906,0.058594,-0.201172,0.261658,-0.15741,-0.794495,-0.524902,up
455830,5.773437,7.210937,-2.816406,0.185547,0.027344,-0.203125,0.261475,-0.156738,-0.794861,-0.524658,up
455836,5.617187,7.136719,-2.664063,0.185547,0.027344,-0.203125,0.26123,-0.15625,-0.795105,-0.524536,up
455841,5.695312,7.175781,-2.664063,0.027344,-0.015625,-0.236328,0.26123,-0.15625,-0.795105,-0.524536,up
455847,5.617187,7.171875,-2.703125,-0.050781,-0.035156,-0.271484,0.260437,-0.155212,-0.79541,-0.52478,up
455853,5.617187,7.0625,-2.742188,-0.132812,-0.064453,-0.304688,0.260437,-0.155212,-0.79541,-0.52478,up
455858,5.617187,7.027344,-2.664063,-0.232422,-0.107422,-0.333984,0.260437,-0.155212,-0.79541,-0.52478,up
455863,5.617187,7.027344,-2.703125,-0.232422,-0.107422,-0.333984,0.258362,-0.153809,-0.795349,-0.526306,up
455869,5.617187,7.066406,-2.816406,-0.236328,-0.115234,-0.330078,0.258362,-0.153809,-0.795349,-0.526306,up
455874,5.582031,7.097656,-2.855469,-0.224609,-0.105469,-0.335938,0.255981,-0.152588,-0.795105,-0.528198,up
455879,5.582031,7.175781,-2.933594,-0.158203,-0.126953,-0.324219,0.255981,-0.152588,-0.795105,-0.528198,up
455884,5.617187,7.328125,-2.972656,-0.158203,-0.126953,-0.324219,0.255127,-0.1521,-0.795044,-0.528809,up
455890,5.617187,7.328125,-2.972656,-0.0625,-0.113281,-0.283203,0.253723,-0.151367,-0.795166,-0.529541,up
455895,5.582031,7.40625,-3.085938,0.009766,-0.087891,-0.261719,0.253052,-0.150879,-0.795349,-0.529785,up
455901,5.542969,7.410156,-3.199219,0.009766,-0.087891,-0.261719,0.252563,-0.150513,-0.795471,-0.529846,up
455906,5.542969,7.449219,-3.164063,0.009766,-0.087891,-0.261719,0.252136,-0.150024,-0.795776,-0.529785,up
455912,5.542969,7.476562,-3.164063,0.009766,-0.087891,-0.261719,0.252136,-0.150024,-0.795776,-0.529785,up
455917,5.503906,7.519531,-3.164063,0.181641,-0.021484,-0.181641,0.252136,-0.150024,-0.795776,-0.529785,up
455922,5.503906,7.59375,-3.125,0.177734,-0.009766,-0.169922,0.252136,-0.150024,-0.795776,-0.529785,up
455927,5.425781,7.714844,-3.164063,0.177734,-0.009766,-0.169922,0.252136,-0.150024,-0.795776,-0.529785,up
455933,5.351562,7.710937,-3.085938,0.177734,-0.009766,-0.169922,0.251038,-0.147644,-0.797241,-0.528809,up
455938,5.390625,7.675781,-3.046875,0.078125,0.058594,-0.175781,0.251038,-0.147644,-0.797241,-0.528809,up
455944,5.425781,7.671875,-2.933594,0.078125,0.058594,-0.175781,0.250793,-0.146606,-0.797546,-0.528748,up
455949,5.425781,7.632812,-2.816406,-0.013672,0.003906,-0.189453,0.250549,-0.146179,-0.797668,-0.528809,up
455954,5.390625,7.519531,-2.855469,-0.013672,0.003906,-0.189453,0.25,-0.145325,-0.797729,-0.529114,up
455959,5.464844,7.515625,-2.816406,-0.013672,0.003906,-0.189453,0.25,-0.145325,-0.797729,-0.529114,up
455964,5.425781,7.480469,-2.777344,-0.072266,-0.041016,-0.183594,0.249634,-0.144897,-0.797791,-0.529358,up
455969,5.425781,7.476562,-2.816406,-0.072266,-0.041016,-0.183594,0.248901,-0.144348,-0.797791,-0.529907,up
455974,5.464844,7.515625,-2.855469,-0.056641,-0.046875,-0.162109,0.248901,-0.144348,-0.797791,-0.529907,up
455979,5.390625,7.476562,-2.855469,-0.056641,-0.046875,-0.162109,0.248169,-0.143799,-0.797791,-0.530273,up
455984,5.425781,7.476562,-2.855469,-0.056641,-0.046875,-0.162109,0.247803,-0.143555,-0.797913,-0.530457,up
455989,5.390625,7.515625,-2.894531,-0.056641,-0.046875,-0.162109,0.247803,-0.143555,-0.797913,-0.530457,up
455994,5.351562,7.554687,-2.855469,0.021484,-0.076172,-0.123047,0.247803,-0.143555,-0.797913,-0.530457,up
455999,5.351562,7.597656,-2.816406,0.021484,-0.076172,-0.123047,0.247131,-0.14325,-0.798157,-0.530457,up
456004,5.3125,7.597656,-2.816406,0.130859,-0.085937,-0.066406,0.246765,-0.143066,-0.798401,-0.530334,up
456009,5.390625,7.597656,-2.894531,0.130859,-0.085937,-0.066406,0.246521,-0.143005,-0.798584,-0.53009,up
456015,5.390625,7.554687,-2.933594,0.130859,-0.085937,-0.066406,0.246155,-0.1427,-0.799072,-0.529602,up
456021,5.425781,7.519531,-2.972656,0.130859,-0.085937,-0.066406,0.245911,-0.142578,-0.799377,-0.529297,up
456027,5.425781,7.59375,-3.046875,0.115234,-0.068359,-0.072266,0.245911,-0.142578,-0.799377,-0.529297,up
456032,5.351562,7.828125,-3.164063,0.097656,-0.072266,-0.083984,0.245911,-0.142578,-0.799377,-0.529297,up
456038,5.351562,7.902344,-3.164063,0.052734,-0.082031,-0.087891,0.245911,-0.142578,-0.799377,-0.529297,up
456043,5.390625,7.9375,-3.199219,-0.005859,-0.103516,-0.099609,0.245911,-0.142578,-0.799377,-0.529297,up
456049,5.425781,7.859375,-3.238281,-0.070312,-0.09375,-0.105469,0.245911,-0.142578,-0.799377,-0.529297,up
456055,5.425781,7.753906,-3.238281,-0.1875,-0.076172,-0.117188,0.245911,-0.142578,-0.799377,-0.529297,up
456060,5.464844,7.675781,-3.238281,-0.1875,-0.076172,-0.117188,0.243347,-0.141846,-0.799805,-0.530029,up
456065,5.464844,7.597656,-3.199219,-0.1875,-0.076172,-0.117188,0.242859,-0.141785,-0.799622,-0.530579,up
456070,5.464844,7.636719,-3.199219,-0.1875,-0.076172,-0.117188,0.242493,-0.141663,-0.799438,-0.531067,up
456075,5.464844,7.632812,-3.238281,-0.236328,-0.066406,-0.171875,0.241943,-0.141541,-0.799194,-0.531677,up
456081,5.425781,7.636719,-3.125,-0.236328,-0.066406,-0.171875,0.241516,-0.141418,-0.799011,-0.532166,up
456086,5.425781,7.597656,-3.085938,-0.236328,-0.066406,-0.171875,0.241028,-0.141235,-0.798828,-0.532776,up
456092,5.390625,7.515625,-3.007813,-0.236328,-0.066406,-0.171875,0.240601,-0.141052,-0.798645,-0.533264,up
456098,5.390625,7.367187,-2.972656,-0.201172,-0.019531,-0.191406,0.240601,-0.141052,-0.798645,-0.533264,up
456104,5.351562,7.328125,-2.894531,-0.169922,-0.033203,-0.199219,0.240601,-0.141052,-0.798645,-0.533264,up
456109,5.351562,7.253906,-2.816406,-0.107422,-0.011719,-0.205078,0.239441,-0.140198,-0.798157,-0.534729,up
456114,5.273437,7.210937,-2.816406,-0.107422,-0.011719,-0.205078,0.239014,-0.139893,-0.798096,-0.535095,up
456119,5.234375,7.371094,-2.777344,-0.107422,-0.011719,-0.205078,0.238708,-0.139526,-0.798035,-0.5354,up
456124,5.234375,7.445312,-2.777344,-0.107422,-0.011719,-0.205078,0.238342,-0.13916,-0.798035,-0.535767,up
456129,5.199219,7.515625,-2.742188,-0.048828,-0.03125,-0.175781,0.238037,-0.138855,-0.797974,-0.53595,up
