timestamp,ax,ay,az,gx,gy,gz,qw,qx,qy,qz,label
33530,-6.0,6.863281,4.023437,0.013672,0.015625,0.039063,0.405701,-0.128601,0.53186,0.732117,up
33535,-6.035156,6.863281,4.023437,0.025391,0.015625,0.052734,0.405701,-0.128601,0.53186,0.732117,up
33540,-6.0,6.820312,4.023437,0.023437,0.021484,0.046875,0.405701,-0.128601,0.53186,0.732117,up
33545,-6.074219,6.824219,3.984375,0.023437,0.021484,0.046875,0.405701,-0.128601,0.53186,0.732117,up
33550,-6.035156,6.746094,3.984375,0.007813,0.033203,0.064453,0.405701,-0.128601,0.53186,0.732117,up
33556,-6.035156,6.746094,3.984375,0.003906,0.035156,0.058594,0.405701,-0.128601,0.53186,0.732117,up
33561,-6.035156,6.675781,3.984375,0.003906,0.035156,0.058594,0.404602,-0.128296,0.532593,0.732239,up
33567,-6.035156,6.675781,4.023437,-0.005859,0.027344,0.058594,0.404602,-0.128296,0.532593,0.732239,up
33573,-6.074219,6.671875,3.984375,0.0,0.025391,0.046875,0.404602,-0.128296,0.532593,0.732239,up
33578,-6.113281,6.632812,3.949219,0.005859,0.023437,0.046875,0.404602,-0.128296,0.532593,0.732239,up
33583,-6.113281,6.675781,3.949219,0.027344,0.017578,0.015625,0.404053,-0.128174,0.532959,0.7323,up
33588,-6.074219,6.714844,3.984375,0.027344,0.017578,0.015625,0.403992,-0.128174,0.53302,0.7323,up
33593,-6.074219,6.714844,4.023437,0.060547,0.011719,-0.009766,0.403931,-0.128113,0.533142,0.732239,up
33599,-6.074219,6.714844,4.023437,0.070312,0.003906,-0.005859,0.403931,-0.128052,0.533447,0.731995,up
33604,-6.113281,6.785156,3.984375,0.064453,0.003906,-0.029297,0.403992,-0.128052,0.53363,0.731873,up
33610,-6.074219,6.859375,4.023437,0.064453,0.003906,-0.029297,0.404053,-0.127991,0.533752,0.73175,up
33615,-6.113281,6.820312,4.023437,0.064453,0.003906,-0.029297,0.404114,-0.12793,0.533875,0.731628,up
33621,-6.074219,6.824219,3.984375,0.021484,-0.021484,-0.03125,0.404114,-0.12793,0.533875,0.731628,up
33627,-6.113281,6.785156,4.023437,-0.001953,-0.023437,-0.03125,0.404236,-0.12793,0.533936,0.731506,up
33633,-6.074219,6.785156,4.0625,-0.023437,-0.017578,-0.035156,0.404236,-0.12793,0.533936,0.731506,up
33638,-6.074219,6.78125,4.023437,-0.064453,-0.023437,-0.025391,0.404358,-0.12793,0.533875,0.731506,up
33643,-6.035156,6.742187,4.0625,-0.064453,-0.023437,-0.025391,0.404419,-0.127991,0.533752,0.731567,up
33648,-6.113281,6.710937,3.984375,-0.064453,-0.023437,-0.025391,0.404419,-0.128052,0.53363,0.731628,up
33653,-6.074219,6.714844,4.023437,-0.064453,-0.023437,-0.025391,0.404419,-0.128174,0.533325,0.731812,up
33658,-6.035156,6.746094,3.984375,-0.064453,-0.023437,-0.025391,0.404419,-0.128174,0.533264,0.731873,up
33663,-6.035156,6.710937,3.984375,-0.064453,-0.023437,-0.025391,0.404419,-0.128174,0.533264,0.731873,up
33668,-5.960937,6.632812,3.984375,-0.042969,-0.003906,0.013672,0.404419,-0.128174,0.533264,0.731873,up
33673,-5.960937,6.59375,3.984375,-0.042969,-0.003906,0.013672,0.404358,-0.128235,0.533203,0.731995,up
33678,-5.960937,6.632812,3.984375,-0.042969,-0.003906,0.013672,0.404297,-0.128235,0.533203,0.731995,up
33684,-5.960937,6.632812,3.949219,0.046875,0.021484,0.005859,0.404297,-0.128235,0.533203,0.731995,up
33689,-5.921875,6.636719,3.984375,0.046875,0.021484,0.005859,0.404175,-0.128174,0.533508,0.731812,up
33695,-5.921875,6.671875,3.949219,0.046875,0.021484,0.005859,0.404114,-0.128113,0.533691,0.731689,up
33700,-5.921875,6.714844,3.984375,0.089844,0.033203,0.0,0.404114,-0.128113,0.533936,0.731567,up
33705,-5.960937,6.746094,4.023437,0.089844,0.033203,0.0,0.404053,-0.128113,0.53418,0.731445,up
33712,-6.0,6.820312,4.023437,0.089844,0.033203,0.0,0.404053,-0.128113,0.53418,0.731445,up
33717,-6.0,6.863281,4.023437,0.085937,0.048828,-0.007813,0.404053,-0.128113,0.53418,0.731445,up
33723,-6.074219,6.898437,4.023437,0.070312,0.046875,-0.013672,0.404053,-0.128113,0.53418,0.731445,up
33728,-6.035156,6.902344,4.023437,0.070312,0.046875,-0.013672,0.403931,-0.128174,0.535034,0.730835,up
33733,-6.035156,6.859375,4.101562,0.046875,0.037109,0.005859,0.403931,-0.128174,0.535034,0.730835,up
33738,-6.074219,6.902344,4.0625,0.046875,0.037109,0.005859,0.403809,-0.128174,0.5354,0.730652,up
33744,-6.074219,6.863281,4.0625,0.046875,0.037109,0.005859,0.403687,-0.128235,0.535645,0.73053,up
33749,-6.074219,6.902344,4.0625,0.021484,0.027344,0.013672,0.403625,-0.128235,0.535767,0.730469,up
33754,-6.074219,6.9375,4.0625,0.021484,0.027344,0.013672,0.403564,-0.128296,0.535828,0.730469,up
33759,-6.113281,6.902344,4.023437,0.021484,0.027344,0.013672,0.403503,-0.128296,0.53595,0.730408,up
33765,-6.113281,6.9375,4.023437,0.021484,0.027344,0.013672,0.403442,-0.128235,0.536011,0.730408,up
33770,-6.074219,6.902344,4.0625,0.025391,0.015625,0.009766,0.403381,-0.128235,0.536133,0.730347,up
33775,-6.113281,6.902344,4.023437,0.025391,0.015625,0.009766,0.40332,-0.128235,0.536194,0.730286,up
33781,-6.113281,6.941406,4.0625,0.025391,0.015625,0.009766,0.40332,-0.128235,0.536255,0.730286,up
33788,-6.074219,6.941406,3.984375,0.013672,0.019531,-0.005859,0.40332,-0.128235,0.536255,0.730286,up
33794,-6.152344,6.902344,4.023437,0.015625,0.017578,-0.005859,0.403259,-0.128235,0.536499,0.730164,up
33799,-6.113281,6.863281,4.023437,0.019531,-0.005859,-0.009766,0.403259,-0.128235,0.536499,0.730164,up
33804,-6.074219,6.898437,4.023437,0.019531,-0.001953,-0.019531,0.403259,-0.128235,0.53656,0.730103,up
33809,-6.113281,6.863281,4.023437,0.019531,-0.001953,-0.019531,0.40332,-0.128235,0.536621,0.730042,up
33814,-6.113281,6.859375,4.0625,0.015625,-0.003906,-0.029297,0.40332,-0.128296,0.536621,0.72998,up
33819,-6.074219,6.898437,4.023437,0.015625,-0.003906,-0.029297,0.403381,-0.128235,0.536682,0.729919,up
33824,-6.113281,6.898437,4.0625,0.037109,-0.011719,-0.023437,0.403381,-0.128235,0.536682,0.729919,up
33829,-6.113281,6.980469,4.0625,0.037109,-0.011719,-0.023437,0.403442,-0.128235,0.536743,0.729858,up
33834,-6.074219,6.980469,4.023437,0.037109,-0.011719,-0.023437,0.403564,-0.128174,0.536926,0.729675,up
33839,-6.113281,6.980469,4.0625,0.039063,-0.029297,-0.017578,0.403564,-0.128174,0.536926,0.729675,up
33844,-6.152344,6.980469,4.0625,0.046875,-0.03125,-0.007813,0.403625,-0.128113,0.536987,0.729614,up
33849,-6.113281,6.9375,4.023437,0.046875,-0.03125,-0.007813,0.403748,-0.12793,0.537109,0.729492,up
33854,-6.074219,6.980469,4.023437,0.046875,-0.03125,-0.007813,0.403809,-0.127808,0.53717,0.729431,up
33859,-6.035156,6.9375,4.023437,0.03125,-0.048828,-0.001953,0.403809,-0.127808,0.53717,0.729431,up
33864,-6.035156,6.9375,3.984375,0.03125,-0.048828,-0.001953,0.40387,-0.127686,0.53717,0.72937,up
33870,-6.0,6.902344,3.984375,0.03125,-0.048828,-0.001953,0.403931,-0.127502,0.537231,0.72937,up
33875,-6.0,6.902344,3.949219,-0.005859,-0.033203,0.005859,0.403992,-0.12738,0.537231,0.72937,up
33880,-6.0,6.902344,3.984375,-0.013672,-0.035156,0.007813,0.403992,-0.12738,0.537231,0.72937,up
33885,-6.0,6.898437,3.910156,-0.013672,-0.035156,0.007813,0.404053,-0.127258,0.53717,0.729431,up
33891,-6.0,6.902344,3.984375,-0.013672,-0.035156,0.007813,0.404053,-0.127258,0.53717,0.729431,up
33897,-6.0,6.941406,3.910156,-0.005859,-0.023437,-0.001953,0.404053,-0.127258,0.53717,0.729431,up
33902,-6.0,6.9375,3.949219,-0.025391,-0.015625,0.0,0.404053,-0.127258,0.53717,0.729431,up
33908,-6.0,6.898437,3.910156,-0.025391,-0.015625,0.0,0.404053,-0.127258,0.53717,0.729431,up
33913,-6.0,6.902344,3.949219,-0.001953,-0.017578,-0.001953,0.404053,-0.127258,0.53717,0.729431,up
33919,-5.960937,6.902344,3.949219,0.003906,-0.009766,-0.007813,0.404053,-0.127258,0.53717,0.729431,up
33924,-5.960937,6.898437,3.910156,0.003906,-0.009766,-0.007813,0.404114,-0.127075,0.537048,0.729431,up
33929,-5.960937,6.863281,3.984375,0.015625,-0.009766,-0.013672,0.404114,-0.127075,0.537048,0.729431,up
33934,-6.0,6.902344,3.984375,0.015625,-0.009766,-0.013672,0.404175,-0.127075,0.537109,0.729431,up
33940,-6.0,6.9375,3.984375,0.015625,-0.009766,-0.013672,0.404236,-0.127014,0.537109,0.72937,up
33946,-6.074219,6.980469,3.984375,0.015625,-0.009766,-0.013672,0.404297,-0.127014,0.537109,0.729309,up
33951,-6.074219,6.980469,3.949219,0.0,-0.017578,-0.019531,0.404297,-0.127014,0.537109,0.729309,up
33957,-6.035156,6.9375,3.949219,-0.005859,-0.025391,-0.011719,0.404297,-0.127014,0.537109,0.729309,up
33963,-6.0,6.9375,3.984375,-0.009766,-0.03125,-0.013672,0.404297,-0.127014,0.537109,0.729309,up
33969,-6.035156,6.902344,3.984375,-0.021484,-0.035156,-0.007813,0.404297,-0.127014,0.537109,0.729309,up
33974,-6.0,6.902344,3.984375,-0.021484,-0.035156,-0.007813,0.404541,-0.126892,0.536987,0.729309,up
33979,-6.035156,6.902344,3.949219,-0.021484,-0.037109,-0.009766,0.404602,-0.12677,0.536865,0.72937,up
33984,-6.035156,6.902344,3.949219,-0.021484,-0.037109,-0.009766,0.404602,-0.12677,0.536865,0.72937,up
33989,-6.0,6.863281,4.023437,-0.023437,-0.044922,-0.007813,0.404724,-0.126709,0.536743,0.729431,up
33995,-5.960937,6.902344,3.984375,-0.013672,-0.033203,-0.003906,0.404785,-0.126648,0.536682,0.729431,up
34000,-5.960937,6.902344,3.949219,-0.013672,-0.033203,-0.003906,0.404785,-0.126587,0.536682,0.729431,up
34005,-5.960937,6.902344,3.984375,-0.015625,-0.021484,-0.003906,0.404785,-0.126587,0.536682,0.729431,up
34010,-5.960937,6.902344,3.984375,-0.009766,-0.029297,0.0,0.404846,-0.126526,0.53656,0.729492,up
34015,-5.960937,6.863281,3.949219,-0.007813,-0.017578,0.005859,0.404846,-0.126465,0.53656,0.729492,up
34021,-5.921875,6.859375,3.949219,-0.007813,-0.017578,0.005859,0.404907,-0.126404,0.536499,0.729553,up
34026,-5.921875,6.859375,3.949219,-0.017578,-0.011719,0.001953,0.404907,-0.126404,0.536499,0.729553,up
34031,-5.921875,6.824219,3.949219,-0.017578,-0.011719,0.001953,0.404846,-0.126404,0.536499,0.729614,up
34036,-6.0,6.863281,3.949219,-0.017578,-0.011719,0.001953,0.404846,-0.126404,0.536438,0.729614,up
34042,-5.960937,6.902344,3.949219,-0.009766,-0.005859,0.001953,0.404846,-0.126404,0.536438,0.729614,up
34047,-6.0,6.9375,3.949219,-0.017578,-0.009766,0.005859,0.404785,-0.12616,0.536316,0.729797,up
34053,-6.0,6.976562,3.949219,-0.017578,-0.009766,0.005859,0.404724,-0.126038,0.536255,0.729858,up
34059,-6.035156,7.019531,3.949219,-0.013672,-0.001953,0.013672,0.404724,-0.126038,0.536255,0.729858,up
34065,-6.074219,6.9375,3.910156,-0.009766,-0.009766,0.025391,0.404724,-0.126038,0.536255,0.729858,up
34071,-6.035156,6.820312,3.949219,-0.009766,-0.009766,0.025391,0.404419,-0.125427,0.536072,0.730286,up
34076,-6.035156,6.820312,3.949219,-0.005859,-0.03125,0.023437,0.404358,-0.125244,0.536011,0.730408,up
34081,-6.035156,6.820312,3.949219,-0.005859,-0.03125,0.023437,0.404297,-0.125061,0.53595,0.73053,up
34087,-6.0,6.863281,3.949219,-0.005859,-0.03125,0.023437,0.404297,-0.124878,0.53595,0.730591,up
34093,-6.035156,6.941406,3.910156,0.003906,-0.007813,0.013672,0.404297,-0.124878,0.53595,0.730591,up
34098,-6.0,6.9375,3.949219,0.015625,-0.011719,0.017578,0.404297,-0.124878,0.53595,0.730591,up
34103,-6.0,6.9375,3.949219,0.019531,-0.017578,0.03125,0.404297,-0.124878,0.53595,0.730591,up
34109,-6.035156,6.859375,3.910156,0.007813,-0.001953,0.021484,0.404297,-0.124878,0.53595,0.730591,up
34114,-6.035156,6.863281,3.949219,-0.003906,-0.007813,0.017578,0.403992,-0.124146,0.53595,0.730835,up
34119,-6.035156,6.820312,3.949219,-0.003906,-0.007813,0.017578,0.403931,-0.124023,0.53595,0.730896,up
34124,-6.035156,6.785156,3.984375,-0.003906,-0.007813,0.017578,0.403809,-0.12384,0.535889,0.731079,up
34129,-6.0,6.746094,3.984375,-0.003906,-0.007813,0.017578,0.403809,-0.12384,0.535889,0.731079,up
34134,-6.035156,6.785156,3.984375,-0.007813,-0.013672,0.019531,0.403809,-0.12384,0.535889,0.731079,up
34140,-6.035156,6.785156,3.949219,-0.015625,0.001953,0.015625,0.403809,-0.12384,0.535889,0.731079,up
34146,-6.035156,6.746094,3.984375,-0.015625,0.001953,0.015625,0.403564,-0.123413,0.535706,0.731384,up
34151,-6.0,6.785156,3.984375,-0.023437,0.0,0.019531,0.403503,-0.123352,0.535645,0.731506,up
34157,-6.0,6.746094,3.949219,-0.03125,0.003906,0.017578,0.403503,-0.123352,0.535645,0.731506,up
34163,-6.0,6.746094,3.984375,-0.027344,0.015625,0.011719,0.403503,-0.123352,0.535645,0.731506,up
34168,-6.0,6.710937,3.984375,-0.019531,0.013672,0.023437,0.403503,-0.123352,0.535645,0.731506,up
34174,-5.960937,6.632812,4.023437,-0.013672,0.015625,0.023437,0.403503,-0.123352,0.535645,0.731506,up
34179,-5.960937,6.632812,4.023437,0.001953,0.003906,0.023437,0.403503,-0.123352,0.535645,0.731506,up
34184,-5.960937,6.597656,4.0625,0.001953,0.003906,0.023437,0.402954,-0.122986,0.535461,0.731934,up
34190,-5.960937,6.597656,4.0625,0.005859,0.009766,0.017578,0.402954,-0.122986,0.535461,0.731934,up
34195,-5.921875,6.636719,4.023437,0.005859,0.009766,0.017578,0.402771,-0.122803,0.535522,0.732056,up
34201,-5.921875,6.632812,4.0625,0.005859,0.009766,0.017578,0.40271,-0.122742,0.535522,0.732117,up
34206,-5.921875,6.632812,4.101562,0.021484,0.003906,0.007813,0.40271,-0.122742,0.535522,0.732117,up
34212,-5.921875,6.636719,4.023437,0.027344,-0.005859,0.007813,0.40271,-0.122742,0.535522,0.732117,up
34217,-5.921875,6.671875,4.023437,0.023437,-0.007813,0.007813,0.402588,-0.122437,0.535645,0.732117,up
34222,-5.921875,6.671875,4.023437,0.023437,-0.011719,0.003906,0.402588,-0.122437,0.535645,0.732117,up
34228,-5.960937,6.671875,4.101562,0.023437,-0.015625,-0.005859,0.402588,-0.122437,0.535645,0.732117,up
34233,-5.921875,6.714844,4.023437,0.023437,-0.015625,-0.005859,0.402588,-0.122131,0.535645,0.732178,up
34239,-5.921875,6.742187,3.984375,0.013672,-0.005859,-0.009766,0.402588,-0.122131,0.535645,0.732178,up
34244,-5.921875,6.714844,4.023437,0.003906,-0.013672,-0.005859,0.402588,-0.122131,0.535645,0.732178,up
34249,-5.882812,6.746094,4.023437,0.003906,-0.013672,-0.005859,0.402649,-0.121948,0.535645,0.732178,up
34254,-5.882812,6.746094,4.023437,0.003906,-0.013672,-0.005859,0.402649,-0.121887,0.535583,0.732239,up
34259,-5.84375,6.714844,4.0625,-0.011719,0.005859,0.001953,0.402649,-0.121887,0.535583,0.732239,up
34264,-5.882812,6.714844,4.0625,-0.011719,0.005859,0.001953,0.402649,-0.121826,0.535522,0.7323,up
34270,-5.882812,6.710937,4.023437,-0.011719,0.005859,0.001953,0.402588,-0.121765,0.535461,0.732361,up
34275,-5.921875,6.742187,4.023437,-0.011719,0.005859,0.001953,0.402588,-0.121765,0.535461,0.732361,up
34280,-5.882812,6.714844,4.0625,0.003906,0.015625,0.001953,0.402588,-0.121765,0.535461,0.732361,up
34285,-5.921875,6.742187,4.023437,0.003906,0.015625,0.001953,0.402466,-0.121704,0.535461,0.732422,up
34290,-5.960937,6.785156,4.023437,0.035156,0.005859,-0.007813,0.402466,-0.121704,0.535461,0.732422,up
34295,-5.921875,6.824219,4.023437,0.048828,0.001953,-0.011719,0.402466,-0.121643,0.535461,0.732422,up
34301,-5.960937,6.902344,4.023437,0.048828,0.001953,-0.011719,0.402527,-0.121521,0.535583,0.732361,up
34306,-6.0,6.976562,4.023437,0.048828,0.001953,-0.011719,0.402588,-0.12146,0.535645,0.7323,up
34312,-6.0,6.976562,4.023437,0.060547,-0.011719,-0.019531,0.402649,-0.121399,0.535706,0.732239,up
34317,-6.035156,6.976562,4.023437,0.044922,-0.015625,-0.017578,0.40271,-0.121277,0.535767,0.732178,up
34322,-6.035156,7.058594,3.984375,0.044922,-0.015625,-0.017578,0.40271,-0.121216,0.535828,0.732117,up
34328,-6.035156,7.058594,4.023437,0.029297,-0.021484,-0.019531,0.40271,-0.121216,0.535828,0.732117,up
34333,-6.074219,7.054687,4.023437,0.013672,-0.021484,-0.009766,0.40271,-0.121216,0.535828,0.732117,up
34338,-6.074219,7.097656,3.984375,0.001953,-0.029297,-0.019531,0.40271,-0.121216,0.535828,0.732117,up
34343,-6.113281,7.128906,3.984375,-0.021484,-0.029297,-0.011719,0.40271,-0.121216,0.535828,0.732117,up
34348,-6.074219,7.125,3.984375,-0.035156,-0.027344,-0.015625,0.40271,-0.121216,0.535828,0.732117,up
34353,-6.035156,7.167969,3.984375,-0.042969,-0.03125,-0.003906,0.40271,-0.121216,0.535828,0.732117,up
34358,-6.113281,7.167969,3.984375,-0.060547,-0.037109,-0.001953,0.40271,-0.121216,0.535828,0.732117,up
34364,-6.074219,7.125,3.949219,-0.060547,-0.037109,-0.001953,0.403137,-0.120789,0.535095,0.732483,up
34370,-6.035156,7.167969,3.949219,-0.089844,-0.041016,0.023437,0.403137,-0.120789,0.535095,0.732483,up
34375,-6.035156,7.246094,3.949219,-0.089844,-0.041016,0.023437,0.403076,-0.120728,0.534668,0.732849,up
34381,-6.035156,7.285156,3.984375,-0.101563,-0.033203,0.027344,0.403015,-0.120667,0.53418,0.733215,up
34386,-6.0,7.285156,3.984375,-0.128906,-0.035156,0.060547,0.402954,-0.120605,0.533936,0.733521,up
34391,-6.074219,7.359375,3.949219,-0.128906,-0.035156,0.060547,0.402771,-0.120544,0.53363,0.733826,up
34396,-6.035156,7.476562,3.949219,-0.128906,-0.035156,0.060547,0.402649,-0.120483,0.533325,0.734131,up
34401,-6.074219,7.625,3.949219,-0.128906,-0.035156,0.060547,0.402405,-0.120361,0.532959,0.734558,up
34407,-6.113281,7.585937,3.910156,-0.232422,-0.044922,0.164062,0.402161,-0.1203,0.532593,0.734924,up
34412,-6.226562,7.398437,3.871094,-0.232422,-0.044922,0.164062,0.401794,-0.120178,0.532104,0.735474,up
34417,-6.226562,7.242187,3.871094,-0.322266,-0.056641,0.222656,0.401367,-0.120117,0.531555,0.736145,up
34423,-6.113281,7.167969,3.949219,-0.369141,-0.091797,0.230469,0.401367,-0.120117,0.531555,0.736145,up
34428,-6.152344,7.015625,4.0625,-0.412109,-0.113281,0.232422,0.401367,-0.120117,0.531555,0.736145,up
34433,-6.074219,6.976562,4.0625,-0.425781,-0.111328,0.230469,0.400085,-0.11969,0.529297,0.738525,up
34438,-6.113281,6.902344,4.023437,-0.4375,-0.082031,0.220703,0.400085,-0.11969,0.529297,0.738525,up
34443,-6.074219,6.78125,3.984375,-0.414062,-0.070312,0.203125,0.400085,-0.11969,0.529297,0.738525,up
34448,-5.960937,6.78125,4.101562,-0.414062,-0.070312,0.203125,0.400085,-0.11969,0.529297,0.738525,up
34454,-5.921875,6.78125,4.140625,-0.414062,-0.070312,0.203125,0.398499,-0.119446,0.526184,0.741699,up
34460,-5.882812,6.820312,4.140625,-0.257813,-0.087891,0.167969,0.397888,-0.119141,0.525085,0.742798,up
34465,-5.921875,6.859375,4.140625,-0.257813,-0.087891,0.167969,0.397644,-0.118958,0.524719,0.743225,up
34470,-5.921875,6.9375,4.101562,-0.119141,-0.052734,0.164062,0.397644,-0.118958,0.524719,0.743225,up
34475,-5.882812,6.941406,4.101562,-0.119141,-0.052734,0.164062,0.397339,-0.118774,0.524414,0.743652,up
34480,-5.84375,6.941406,4.101562,-0.074219,-0.048828,0.181641,0.397339,-0.118774,0.524414,0.743652,up
34485,-5.84375,6.941406,4.101562,-0.074219,-0.048828,0.181641,0.396423,-0.11792,0.524048,0.744568,up
34490,-5.84375,6.9375,4.140625,-0.074219,-0.048828,0.181641,0.396423,-0.11792,0.524048,0.744568,up
34495,-5.804687,6.941406,4.140625,-0.070312,-0.041016,0.21875,0.396423,-0.11792,0.524048,0.744568,up
34500,-5.769531,6.902344,4.140625,-0.070312,-0.041016,0.21875,0.395752,-0.117249,0.523865,0.745117,up
34505,-5.769531,6.820312,4.175781,-0.070312,-0.041016,0.21875,0.395325,-0.116943,0.523682,0.745544,up
34510,-5.769531,6.710937,4.175781,-0.166016,-0.011719,0.226562,0.395325,-0.116943,0.523682,0.745544,up
34515,-5.769531,6.558594,4.140625,-0.166016,-0.011719,0.226562,0.394409,-0.116394,0.523254,0.746399,up
34520,-5.691406,6.402344,4.214844,-0.166016,-0.011719,0.226562,0.393921,-0.116272,0.52301,0.746826,up
34525,-5.652344,6.363281,4.175781,-0.148437,-0.001953,0.166016,0.393555,-0.116089,0.522766,0.747253,up
34530,-5.652344,6.324219,4.214844,-0.148437,-0.001953,0.166016,0.393127,-0.115967,0.522461,0.747681,up
34535,-5.613281,6.324219,4.253906,-0.148437,-0.001953,0.166016,0.392578,-0.115845,0.522156,0.74823,up
34540,-5.613281,6.398437,4.214844,0.017578,0.033203,0.054687,0.392578,-0.115845,0.522156,0.74823,up
34545,-5.652344,6.554687,4.214844,0.017578,0.033203,0.054687,0.392395,-0.115784,0.522156,0.748291,up
34550,-5.652344,6.59375,4.175781,0.070312,0.039063,0.042969,0.392151,-0.115601,0.522522,0.74823,up
34555,-5.691406,6.714844,4.175781,0.130859,0.037109,0.007813,0.392151,-0.115601,0.522522,0.74823,up
34561,-5.730469,6.863281,4.214844,0.128906,0.039063,0.001953,0.39209,-0.11554,0.522766,0.748047,up
34566,-5.730469,6.820312,4.214844,0.128906,0.039063,0.001953,0.392029,-0.115356,0.523315,0.747742,up
34572,-5.730469,6.902344,4.253906,0.128906,0.039063,0.001953,0.392029,-0.115295,0.52356,0.74762,up
34577,-5.730469,6.785156,4.253906,0.128906,0.039063,0.001953,0.391968,-0.115295,0.523682,0.747559,up
34584,-5.730469,6.785156,4.332031,-0.005859,0.003906,-0.007813,0.391968,-0.115295,0.523682,0.747559,up
34589,-5.691406,6.742187,4.367187,-0.0625,0.005859,-0.013672,0.391968,-0.115295,0.523682,0.747559,up
34595,-5.691406,6.710937,4.332031,-0.15625,-0.001953,-0.011719,0.391968,-0.115295,0.523682,0.747559,up
34600,-5.691406,6.710937,4.332031,-0.15625,-0.001953,-0.011719,0.391968,-0.11554,0.523193,0.747864,up
34606,-5.691406,6.675781,4.292969,-0.171875,-0.011719,-0.015625,0.391907,-0.115784,0.522522,0.748291,up
34611,-5.691406,6.632812,4.332031,-0.171875,-0.011719,-0.015625,0.391907,-0.115967,0.522217,0.748535,up
34617,-5.691406,6.675781,4.332031,-0.171875,-0.011719,-0.015625,0.391846,-0.116089,0.521912,0.748718,up
34622,-5.691406,6.671875,4.367187,-0.080078,-0.015625,-0.007813,0.391846,-0.11615,0.521729,0.74884,up
34627,-5.730469,6.671875,4.367187,-0.044922,-0.015625,-0.007813,0.391846,-0.11615,0.521729,0.74884,up
34633,-5.652344,6.675781,4.367187,-0.044922,-0.015625,-0.007813,0.391907,-0.11615,0.521484,0.748962,up
34638,-5.730469,6.671875,4.40625,0.015625,-0.009766,-0.005859,0.391907,-0.11615,0.521484,0.748962,up
34643,-5.769531,6.710937,4.40625,0.033203,-0.005859,0.0,0.391907,-0.11615,0.521484,0.748962,up
34648,-5.769531,6.742187,4.445312,0.033203,-0.005859,0.0,0.391907,-0.11615,0.521484,0.748962,up
34654,-5.804687,6.785156,4.445312,0.046875,-0.005859,0.005859,0.391907,-0.11615,0.521484,0.748962,up
34659,-5.804687,6.78125,4.484375,0.027344,-0.001953,0.013672,0.391907,-0.11615,0.521484,0.748962,up
34664,-5.84375,6.78125,4.445312,0.027344,-0.001953,0.013672,0.391907,-0.115723,0.52179,0.74884,up
34669,-5.84375,6.785156,4.484375,0.027344,-0.001953,0.013672,0.391907,-0.115723,0.52179,0.74884,up
34674,-5.882812,6.824219,4.445312,0.027344,-0.001953,0.013672,0.391785,-0.115601,0.52179,0.748962,up
34679,-5.84375,6.746094,4.484375,-0.027344,-0.001953,0.039063,0.391785,-0.115601,0.52179,0.748962,up
34684,-5.84375,6.746094,4.484375,-0.027344,-0.001953,0.039063,0.391602,-0.11554,0.521667,0.749084,up
34689,-5.84375,6.710937,4.484375,-0.027344,-0.001953,0.039063,0.391479,-0.115417,0.521667,0.749207,up
34694,-5.84375,6.785156,4.523437,-0.001953,-0.015625,0.060547,0.391479,-0.115417,0.521667,0.749207,up
34699,-5.84375,6.746094,4.484375,0.023437,-0.019531,0.072266,0.391479,-0.115417,0.521667,0.749207,up
34704,-5.84375,6.785156,4.523437,0.023437,-0.019531,0.072266,0.391479,-0.115417,0.521667,0.749207,up
34710,-5.84375,6.78125,4.5625,0.023437,-0.019531,0.072266,0.391052,-0.114746,0.52179,0.749451,up
34715,-5.84375,6.746094,4.523437,0.105469,-0.066406,0.111328,0.391052,-0.114746,0.52179,0.749451,up
34720,-5.769531,6.820312,4.484375,0.105469,-0.066406,0.111328,0.390869,-0.114075,0.522034,0.749451,up
34725,-5.804687,6.859375,4.484375,0.105469,-0.066406,0.111328,0.390747,-0.113647,0.522217,0.749451,up
34731,-5.769531,6.859375,4.445312,0.128906,-0.099609,0.15625,0.390747,-0.113647,0.522217,0.749451,up
34736,-5.769531,6.902344,4.40625,0.128906,-0.099609,0.15625,0.390381,-0.112061,0.522766,0.749512,up
34741,-5.769531,6.898437,4.445312,0.128906,-0.099609,0.15625,0.390259,-0.111511,0.522949,0.749512,up
34746,-5.804687,6.859375,4.484375,0.130859,-0.148437,0.183594,0.390259,-0.111511,0.522949,0.749512,up
34751,-5.769531,6.820312,4.484375,0.146484,-0.160156,0.1875,0.390137,-0.11084,0.523071,0.749573,up
34756,-5.769531,6.859375,4.445312,0.146484,-0.160156,0.1875,0.389893,-0.109436,0.523437,0.749695,up
34761,-5.769531,6.898437,4.445312,0.146484,-0.160156,0.1875,0.389832,-0.108704,0.523621,0.749695,up
34766,-5.769531,6.941406,4.445312,0.193359,-0.197266,0.181641,0.389832,-0.108704,0.523621,0.749695,up
34771,-5.730469,7.015625,4.40625,0.193359,-0.197266,0.181641,0.389832,-0.107788,0.523804,0.749695,up
34776,-5.691406,7.054687,4.367187,0.193359,-0.197266,0.181641,0.389771,-0.10614,0.524231,0.749695,up
34781,-5.691406,7.097656,4.40625,0.212891,-0.234375,0.193359,0.389771,-0.10614,0.524231,0.749695,up
34786,-5.652344,7.128906,4.367187,0.216797,-0.236328,0.203125,0.389771,-0.105164,0.524475,0.749634,up
34791,-5.652344,7.164062,4.332031,0.216797,-0.236328,0.203125,0.389709,-0.103333,0.524902,0.749634,up
34796,-5.613281,7.164062,4.292969,0.216797,-0.236328,0.203125,0.389709,-0.102417,0.525085,0.749634,up
34801,-5.652344,7.164062,4.332031,0.216797,-0.236328,0.203125,0.389709,-0.102417,0.525085,0.749634,up
34806,-5.613281,7.242187,4.292969,0.191406,-0.257813,0.226562,0.389587,-0.100403,0.525391,0.749695,up
34811,-5.652344,7.28125,4.332031,0.191406,-0.257813,0.226562,0.389526,-0.099426,0.525513,0.749817,up
34816,-5.652344,7.320312,4.40625,0.140625,-0.294922,0.263672,0.389526,-0.099426,0.525513,0.749817,up
34821,-5.652344,7.320312,4.40625,0.126953,-0.304688,0.291016,0.389465,-0.098389,0.525574,0.749939,up
34826,-5.578125,7.363281,4.523437,0.126953,-0.304688,0.291016,0.389404,-0.09729,0.525574,0.750122,up
34831,-5.578125,7.402344,4.523437,0.126953,-0.304688,0.291016,0.389099,-0.09491,0.525574,0.750549,up
34836,-5.613281,7.398437,4.445312,0.126953,-0.304688,0.291016,0.389099,-0.09491,0.525574,0.750549,up
34841,-5.652344,7.441406,4.445312,0.128906,-0.345703,0.388672,0.388611,-0.092346,0.525574,0.75116,up
34846,-5.613281,7.441406,4.445312,0.128906,-0.345703,0.388672,0.388611,-0.092346,0.525574,0.75116,up
34851,-5.613281,7.4375,4.40625,0.144531,-0.373047,0.501953,0.388245,-0.091003,0.525574,0.751465,up
34856,-5.578125,7.4375,4.367187,0.144531,-0.373047,0.501953,0.38739,-0.087952,0.525635,0.752258,up
34861,-5.578125,7.402344,4.367187,0.144531,-0.373047,0.501953,0.386902,-0.086487,0.525635,0.752686,up
34866,-5.460937,7.398437,4.332031,0.144531,-0.373047,0.501953,0.386353,-0.0849,0.525635,0.753174,up
34871,-5.460937,7.359375,4.332031,0.138672,-0.384766,0.607422,0.386353,-0.0849,0.525635,0.753174,up
34876,-5.421875,7.320312,4.253906,0.138672,-0.384766,0.607422,0.385132,-0.081604,0.525696,0.754089,up
34881,-5.386719,7.285156,4.332031,0.128906,-0.349609,0.615234,0.38446,-0.079956,0.525696,0.754639,up
34886,-5.421875,7.167969,4.253906,0.126953,-0.341797,0.597656,0.38446,-0.079956,0.525696,0.754639,up
34891,-5.386719,6.902344,4.292969,0.152344,-0.341797,0.564453,0.383728,-0.078247,0.525757,0.755127,up
34896,-5.347656,6.941406,4.367187,0.152344,-0.341797,0.564453,0.383118,-0.07666,0.525818,0.755554,up
34901,-5.269531,6.898437,4.445312,0.152344,-0.341797,0.564453,0.38208,-0.073792,0.526062,0.756165,up
34906,-5.269531,6.9375,4.367187,0.257813,-0.265625,0.425781,0.38208,-0.073792,0.526062,0.756165,up
34911,-5.230469,7.019531,4.292969,0.257813,-0.265625,0.425781,0.381592,-0.072327,0.526367,0.756409,up
34916,-5.195312,7.167969,4.332031,0.341797,-0.236328,0.355469,0.381592,-0.072327,0.526367,0.756409,up
34922,-5.195312,7.363281,4.445312,0.341797,-0.236328,0.355469,0.380615,-0.068665,0.527588,0.756348,up
34927,-5.230469,7.4375,4.445312,0.384766,-0.199219,0.296875,0.380371,-0.067383,0.528259,0.756165,up
34932,-5.230469,7.546875,4.332031,0.384766,-0.199219,0.296875,0.380127,-0.066223,0.528809,0.755981,up
34937,-5.195312,7.589844,4.332031,0.376953,-0.216797,0.287109,0.380127,-0.066223,0.528809,0.755981,up
34942,-5.195312,7.625,4.367187,0.376953,-0.216797,0.287109,0.3797,-0.063965,0.529907,0.755615,up
34947,-5.15625,7.664062,4.332031,0.320313,-0.238281,0.287109,0.379517,-0.062744,0.530396,0.755432,up
34952,-5.078125,7.664062,4.332031,0.320313,-0.238281,0.287109,0.379333,-0.061584,0.530762,0.755371,up
34957,-5.039062,7.664062,4.332031,0.320313,-0.238281,0.287109,0.37915,-0.060547,0.531006,0.755371,up
34963,-5.039062,7.664062,4.332031,0.320313,-0.238281,0.287109,0.378967,-0.059387,0.531128,0.755493,up
34968,-5.003906,7.546875,4.292969,0.072266,-0.287109,0.320313,0.378784,-0.058411,0.531067,0.755676,up
34974,-4.964844,7.511719,4.292969,0.072266,-0.287109,0.320313,0.37854,-0.057312,0.530945,0.755981,up
34980,-4.925781,7.480469,4.214844,0.009766,-0.3125,0.320313,0.37854,-0.057312,0.530945,0.755981,up
34985,-4.925781,7.398437,4.214844,0.0,-0.318359,0.3125,0.37854,-0.057312,0.530945,0.755981,up
34990,-4.847656,7.285156,4.292969,0.005859,-0.333984,0.294922,0.37854,-0.057312,0.530945,0.755981,up
34996,-4.8125,7.167969,4.292969,0.003906,-0.34375,0.279297,0.37854,-0.057312,0.530945,0.755981,up
35001,-4.773437,7.097656,4.292969,0.074219,-0.333984,0.197266,0.37854,-0.057312,0.530945,0.755981,up
35006,-4.65625,7.097656,4.292969,0.074219,-0.333984,0.197266,0.37793,-0.051086,0.529541,0.757751,up
35011,-4.65625,7.097656,4.292969,0.074219,-0.333984,0.197266,0.378235,-0.049194,0.529358,0.757812,up
35016,-4.617187,7.164062,4.332031,0.074219,-0.333984,0.197266,0.378235,-0.049194,0.529358,0.757812,up
35021,-4.617187,7.242187,4.332031,0.25,-0.291016,0.052734,0.378235,-0.049194,0.529358,0.757812,up
35026,-4.542969,7.320312,4.292969,0.25,-0.291016,0.052734,0.378723,-0.047363,0.529602,0.757507,up
35031,-4.503906,7.402344,4.253906,0.25,-0.291016,0.052734,0.379089,-0.046448,0.529846,0.757263,up
35036,-4.503906,7.4375,4.253906,0.292969,-0.263672,0.025391,0.379089,-0.046448,0.529846,0.757263,up
35042,-4.503906,7.476562,4.292969,0.294922,-0.253906,0.015625,0.380066,-0.044006,0.530762,0.756287,up
35048,-4.617187,7.507812,4.292969,0.294922,-0.253906,0.015625,0.38031,-0.043274,0.531006,0.755981,up
35055,-4.617187,7.507812,4.332031,0.212891,-0.228516,0.050781,0.38031,-0.043274,0.531006,0.755981,up
35060,-4.65625,7.550781,4.332031,0.175781,-0.224609,0.066406,0.38031,-0.043274,0.531006,0.755981,up
35066,-4.695312,7.476562,4.292969,0.142578,-0.230469,0.082031,0.381104,-0.040466,0.531494,0.755371,up
35071,-4.695312,7.476562,4.332031,0.142578,-0.230469,0.082031,0.381104,-0.040466,0.531494,0.755371,up
35076,-4.695312,7.476562,4.332031,0.105469,-0.285156,0.134766,0.381104,-0.040466,0.531494,0.755371,up
35081,-4.734375,7.511719,4.367187,0.105469,-0.285156,0.134766,0.381348,-0.03894,0.531433,0.755371,up
35086,-4.734375,7.476562,4.40625,0.105469,-0.285156,0.134766,0.38147,-0.038025,0.531433,0.755371,up
35092,-4.695312,7.476562,4.445312,0.210937,-0.361328,0.166016,0.38147,-0.038025,0.531433,0.755371,up
35097,-4.695312,7.4375,4.445312,0.210937,-0.361328,0.166016,0.382019,-0.03479,0.531555,0.755188,up
35103,-4.617187,7.476562,4.484375,0.210937,-0.361328,0.166016,0.382019,-0.03479,0.531555,0.755188,up
35108,-4.582031,7.476562,4.445312,0.314453,-0.390625,0.167969,0.382202,-0.03363,0.531738,0.755005,up
35113,-4.582031,7.476562,4.445312,0.314453,-0.390625,0.167969,0.382446,-0.03241,0.531982,0.754761,up
35118,-4.425781,7.550781,4.332031,0.384766,-0.388672,0.146484,0.382751,-0.031067,0.532349,0.754395,up
35123,-4.425781,7.550781,4.332031,0.384766,-0.388672,0.146484,0.382751,-0.031067,0.532349,0.754395,up
35129,-4.390625,7.625,4.253906,0.431641,-0.365234,0.113281,0.383606,-0.027283,0.533691,0.753174,up
35134,-4.425781,7.664062,4.214844,0.410156,-0.326172,0.080078,0.383606,-0.027283,0.533691,0.753174,up
35139,-4.351562,7.742187,4.140625,0.410156,-0.326172,0.080078,0.384216,-0.025024,0.534607,0.752319,up
35144,-4.351562,7.78125,4.175781,0.359375,-0.283203,0.0625,0.384216,-0.025024,0.534607,0.752319,up
35150,-4.351562,7.824219,4.175781,0.324219,-0.267578,0.0625,0.384216,-0.025024,0.534607,0.752319,up
35155,-4.3125,7.78125,4.175781,0.324219,-0.267578,0.0625,0.38501,-0.022217,0.535767,0.75116,up
35161,-4.3125,7.820312,4.0625,0.324219,-0.267578,0.0625,0.38501,-0.022217,0.535767,0.75116,up
35167,-4.3125,7.785156,4.101562,0.246094,-0.208984,0.060547,0.38562,-0.019958,0.53656,0.750366,up
35172,-4.390625,7.859375,4.0625,0.246094,-0.208984,0.060547,0.385742,-0.019287,0.536804,0.750122,up
35177,-4.425781,7.824219,4.101562,0.234375,-0.183594,0.072266,0.385864,-0.018616,0.537109,0.749878,up
35182,-4.425781,7.898437,4.101562,0.234375,-0.179687,0.082031,0.385864,-0.018616,0.537109,0.749878,up
35187,-4.464844,7.902344,4.101562,0.234375,-0.179687,0.082031,0.385986,-0.017883,0.537415,0.749634,up
35192,-4.464844,7.902344,4.101562,0.238281,-0.177734,0.076172,0.386169,-0.016541,0.537903,0.749146,up
35197,-4.503906,7.929687,4.0625,0.242187,-0.183594,0.072266,0.386169,-0.016541,0.537903,0.749146,up
35202,-4.464844,7.929687,4.0625,0.242187,-0.183594,0.072266,0.386292,-0.015869,0.538208,0.748901,up
35207,-4.542969,7.929687,4.0625,0.246094,-0.173828,0.052734,0.386292,-0.015869,0.538208,0.748901,up
35213,-4.503906,7.863281,4.0625,0.246094,-0.173828,0.052734,0.386719,-0.013977,0.539062,0.748108,up
35218,-4.503906,7.863281,4.0625,0.263672,-0.138672,-0.009766,0.386902,-0.013428,0.539429,0.747742,up
35223,-4.464844,7.785156,4.0625,0.263672,-0.138672,-0.009766,0.387207,-0.012939,0.539795,0.747375,up
35229,-4.503906,7.785156,4.101562,0.263672,-0.138672,-0.009766,0.387451,-0.012451,0.5401,0.747009,up
35234,-4.425781,7.820312,4.023437,0.287109,-0.208984,-0.076172,0.387451,-0.012451,0.5401,0.747009,up
35240,-4.390625,7.859375,4.0625,0.304688,-0.248047,-0.083984,0.387451,-0.012451,0.5401,0.747009,up
35245,-4.390625,7.859375,4.101562,0.316406,-0.275391,-0.09375,0.387451,-0.012451,0.5401,0.747009,up
35250,-4.3125,8.007813,4.0625,0.330078,-0.273438,-0.099609,0.387451,-0.012451,0.5401,0.747009,up
35255,-4.3125,7.933594,3.984375,0.330078,-0.273438,-0.099609,0.389954,-0.009216,0.541809,0.744507,up
35261,-4.351562,7.972656,3.910156,0.341797,-0.259766,-0.119141,0.389954,-0.009216,0.541809,0.744507,up
35266,-4.273437,7.972656,3.949219,0.341797,-0.259766,-0.119141,0.391113,-0.007874,0.542542,0.743347,up
35271,-4.273437,7.933594,3.910156,0.341797,-0.259766,-0.119141,0.391785,-0.007202,0.542908,0.742798,up
35277,-4.273437,7.824219,3.871094,0.259766,-0.236328,-0.179687,0.391785,-0.007202,0.542908,0.742798,up
35282,-4.351562,7.863281,3.757813,0.259766,-0.236328,-0.179687,0.393738,-0.005737,0.543701,0.74115,up
35287,-4.351562,7.820312,3.601563,0.216797,-0.183594,-0.191406,0.393738,-0.005737,0.543701,0.74115,up
35292,-4.351562,7.824219,3.640625,0.189453,-0.160156,-0.197266,0.394409,-0.005371,0.543945,0.740601,up
35297,-4.3125,7.898437,3.566406,0.189453,-0.160156,-0.197266,0.395569,-0.004944,0.544373,0.739746,up
35302,-4.351562,7.820312,3.601563,0.189453,-0.160156,-0.197266,0.396057,-0.004822,0.544556,0.739319,up
35307,-4.464844,7.898437,3.566406,0.189453,-0.160156,-0.197266,0.396057,-0.004822,0.544556,0.739319,up
35312,-4.464844,7.929687,3.601563,0.199219,-0.119141,-0.205078,0.396057,-0.004822,0.544556,0.739319,up
35317,-4.542969,7.820312,3.71875,0.199219,-0.119141,-0.205078,0.397644,-0.004395,0.545288,0.737915,up
35322,-4.464844,8.007813,3.71875,0.199219,-0.119141,-0.205078,0.397644,-0.004395,0.545288,0.737915,up
35327,-4.464844,7.933594,3.679688,0.292969,-0.119141,-0.208984,0.398254,-0.004211,0.545654,0.737305,up
35333,-4.425781,8.011719,3.71875,0.292969,-0.119141,-0.208984,0.399353,-0.003723,0.546509,0.736145,up
35339,-4.351562,8.089844,3.679688,0.292969,-0.119141,-0.208984,0.399902,-0.003357,0.546936,0.735474,up
35344,-4.273437,8.046875,3.871094,0.292969,-0.119141,-0.208984,0.400513,-0.002869,0.547363,0.734802,up
35349,-4.199219,8.011719,3.871094,0.369141,-0.222656,-0.199219,0.401184,-0.00238,0.547852,0.734131,up
35354,-4.121094,8.007813,3.832031,0.369141,-0.222656,-0.199219,0.401855,-0.001892,0.548279,0.733398,up
35360,-4.042969,7.972656,3.910156,0.287109,-0.197266,-0.21875,0.401855,-0.001892,0.548279,0.733398,up
35365,-4.121094,7.972656,3.871094,0.230469,-0.162109,-0.236328,0.401855,-0.001892,0.548279,0.733398,up
35370,-4.121094,7.972656,3.832031,0.154297,-0.109375,-0.261719,0.401855,-0.001892,0.548279,0.733398,up
35375,-4.199219,7.898437,3.71875,0.154297,-0.109375,-0.261719,0.40448,-0.001221,0.549255,0.731262,up
35381,-4.273437,7.898437,3.601563,-0.017578,0.033203,-0.298828,0.40448,-0.001221,0.549255,0.731262,up
35387,-4.3125,7.824219,3.566406,-0.074219,0.105469,-0.308594,0.40448,-0.001221,0.549255,0.731262,up
35392,-4.351562,7.859375,3.640625,-0.074219,0.105469,-0.308594,0.405884,-0.00293,0.549255,0.730469,up
35397,-4.351562,7.902344,3.601563,-0.144531,0.253906,-0.306641,0.406189,-0.003845,0.549194,0.730347,up
35402,-4.390625,7.933594,3.601563,-0.144531,0.253906,-0.306641,0.406433,-0.004822,0.549133,0.730225,up
35407,-4.542969,7.820312,3.71875,-0.117188,0.294922,-0.296875,0.406433,-0.004822,0.549133,0.730225,up
35412,-4.503906,7.902344,3.757813,-0.117188,0.294922,-0.296875,0.406738,-0.006958,0.549255,0.729919,up
35417,-4.503906,7.929687,3.871094,-0.117188,0.294922,-0.296875,0.40686,-0.008118,0.5495,0.729675,up
35422,-4.582031,7.898437,3.949219,0.021484,0.332031,-0.300781,0.407043,-0.010071,0.550232,0.729065,up
35427,-4.617187,7.863281,3.949219,0.021484,0.332031,-0.300781,0.407043,-0.010986,0.55072,0.728638,up
35432,-4.695312,7.824219,3.984375,0.021484,0.332031,-0.300781,0.407043,-0.010986,0.55072,0.728638,up
35437,-4.734375,7.820312,4.023437,0.148437,0.361328,-0.283203,0.407043,-0.010986,0.55072,0.728638,up
35442,-4.734375,7.863281,4.140625,0.189453,0.3125,-0.283203,0.407227,-0.013428,0.552612,0.727051,up
35447,-4.773437,7.824219,4.332031,0.189453,0.3125,-0.283203,0.407227,-0.013428,0.552612,0.727051,up
35452,-4.8125,7.78125,4.40625,0.214844,0.212891,-0.294922,0.40741,-0.014099,0.553345,0.726379,up
35457,-4.925781,7.746094,4.40625,0.214844,0.212891,-0.294922,0.407654,-0.014709,0.553955,0.725769,up
35463,-4.964844,7.785156,4.292969,0.214844,0.212891,-0.294922,0.408264,-0.015808,0.555054,0.724609,up
35468,-4.964844,7.820312,4.292969,0.158203,0.146484,-0.335938,0.40863,-0.016479,0.555542,0.723938,up
35473,-4.964844,7.820312,4.332031,0.136719,0.128906,-0.339844,0.409058,-0.017029,0.555969,0.723389,up
35479,-5.003906,7.902344,4.214844,0.136719,0.128906,-0.339844,0.409485,-0.017578,0.556274,0.7229,up
35485,-4.964844,8.007813,4.253906,0.136719,0.128906,-0.339844,0.409973,-0.018127,0.55658,0.722351,up
35490,-5.078125,8.011719,4.214844,0.105469,0.082031,-0.365234,0.409973,-0.018127,0.55658,0.722351,up
35495,-5.230469,8.011719,4.023437,0.091797,0.087891,-0.361328,0.409973,-0.018127,0.55658,0.722351,up
35500,-5.078125,7.625,3.71875,0.091797,0.087891,-0.361328,0.409973,-0.018127,0.55658,0.722351,up
35505,-5.003906,7.972656,3.792969,0.0,0.105469,-0.378906,0.409973,-0.018127,0.55658,0.722351,up
35510,-4.964844,8.3125,3.792969,-0.005859,0.117188,-0.390625,0.409973,-0.018127,0.55658,0.722351,up
35516,-4.964844,8.316406,3.949219,-0.005859,0.117188,-0.390625,0.413147,-0.022095,0.557617,0.719666,up
35522,-4.964844,8.050781,4.292969,-0.005859,0.117188,-0.390625,0.414246,-0.023621,0.557556,0.719055,up
35527,-5.039062,7.898437,4.292969,-0.005859,0.117188,-0.390625,0.414246,-0.023621,0.557556,0.719055,up
35532,-5.117187,7.707031,4.175781,-0.128906,0.068359,-0.378906,0.415344,-0.025208,0.55719,0.718628,up
35537,-5.15625,7.589844,4.140625,-0.128906,0.068359,-0.378906,0.415344,-0.025208,0.55719,0.718628,up
35543,-5.230469,7.507812,4.175781,-0.203125,0.021484,-0.402344,0.415955,-0.026123,0.556885,0.718445,up
35548,-5.230469,7.511719,4.292969,-0.203125,0.021484,-0.402344,0.417358,-0.027771,0.556091,0.71814,up
35554,-5.308594,7.589844,4.367187,-0.203125,0.021484,-0.402344,0.41803,-0.028503,0.555786,0.717957,up
35559,-5.269531,7.667969,4.367187,-0.121094,-0.023437,-0.425781,0.418823,-0.029236,0.555481,0.717712,up
35564,-5.308594,7.742187,4.292969,-0.083984,-0.029297,-0.419922,0.418823,-0.029236,0.555481,0.717712,up
35569,-5.269531,7.78125,4.253906,-0.033203,-0.046875,-0.412109,0.418823,-0.029236,0.555481,0.717712,up
35574,-5.347656,7.785156,4.253906,-0.033203,-0.046875,-0.412109,0.421265,-0.030884,0.554932,0.716675,up
35580,-5.347656,7.78125,4.175781,-0.033203,-0.046875,-0.412109,0.422058,-0.03125,0.554932,0.716187,up
35587,-5.386719,7.742187,4.140625,0.117188,-0.103516,-0.402344,0.422058,-0.03125,0.554932,0.716187,up
35593,-5.460937,7.585937,4.101562,0.119141,-0.099609,-0.412109,0.424805,-0.032104,0.555115,0.714417,up
35598,-5.460937,7.589844,4.023437,0.111328,-0.115234,-0.433594,0.424805,-0.032104,0.555115,0.714417,up
35603,-5.460937,7.589844,4.023437,0.111328,-0.115234,-0.433594,0.42572,-0.032349,0.555176,0.713806,up
35608,-5.386719,7.707031,4.101562,0.095703,-0.134766,-0.457031,0.426636,-0.032593,0.555176,0.713257,up
35613,-5.386719,7.707031,4.101562,0.0625,-0.142578,-0.474609,0.427673,-0.032959,0.555115,0.712646,up
35618,-5.386719,7.707031,4.101562,0.0625,-0.142578,-0.474609,0.42981,-0.033752,0.554871,0.711487,up
35623,-5.386719,7.707031,4.101562,0.0625,-0.142578,-0.474609,0.42981,-0.033752,0.554871,0.711487,up
35628,-5.421875,7.863281,3.871094,-0.001953,-0.111328,-0.509766,0.431946,-0.034729,0.554565,0.710449,up
35634,-5.421875,7.929687,3.832031,-0.035156,-0.115234,-0.490234,0.433044,-0.035339,0.554321,0.7099,up
35639,-5.5,8.011719,3.757813,-0.035156,-0.115234,-0.490234,0.434021,-0.035767,0.554077,0.709473,up
35644,-5.539062,7.933594,3.757813,-0.035156,-0.115234,-0.490234,0.434998,-0.036255,0.553772,0.709045,up
35649,-5.5,7.78125,3.832031,-0.035156,-0.115234,-0.490234,0.434998,-0.036255,0.553772,0.709045,up
35655,-5.460937,7.742187,3.871094,-0.117188,-0.144531,-0.474609,0.434998,-0.036255,0.553772,0.709045,up
35660,-5.460937,7.585937,3.910156,-0.150391,-0.138672,-0.480469,0.43811,-0.037842,0.552612,0.708008,up
35665,-5.460937,7.589844,3.949219,-0.175781,-0.142578,-0.501953,0.43811,-0.037842,0.552612,0.708008,up
35671,-5.460937,7.585937,3.871094,-0.1875,-0.142578,-0.507812,0.43811,-0.037842,0.552612,0.708008,up
35677,-5.460937,7.507812,3.910156,-0.212891,-0.134766,-0.507812,0.43811,-0.037842,0.552612,0.708008,up
35682,-5.386719,7.546875,3.871094,-0.222656,-0.136719,-0.509766,0.43811,-0.037842,0.552612,0.708008,up
35688,-5.460937,7.585937,3.910156,-0.232422,-0.150391,-0.486328,0.43811,-0.037842,0.552612,0.708008,up
35693,-5.421875,7.589844,3.910156,-0.255859,-0.140625,-0.474609,0.444458,-0.04187,0.549194,0.706421,up
35698,-5.460937,7.480469,3.910156,-0.255859,-0.140625,-0.474609,0.446533,-0.043213,0.547913,0.706116,up
35703,-5.460937,7.363281,3.949219,-0.259766,-0.15625,-0.4375,0.446533,-0.043213,0.547913,0.706116,up
35708,-5.460937,7.285156,3.949219,-0.259766,-0.15625,-0.4375,0.447632,-0.043945,0.547119,0.705933,up
35713,-5.5,7.09375,3.984375,-0.257813,-0.162109,-0.423828,0.447632,-0.043945,0.547119,0.705933,up
35719,-5.5,7.09375,3.984375,-0.203125,-0.171875,-0.402344,0.450317,-0.045593,0.545166,0.705627,up
35724,-5.460937,7.019531,4.023437,-0.175781,-0.167969,-0.398438,0.451355,-0.046082,0.544556,0.705444,up
35730,-5.460937,7.019531,4.023437,-0.175781,-0.167969,-0.398438,0.452148,-0.046448,0.544128,0.705261,up
35736,-5.539062,7.128906,4.023437,-0.175781,-0.167969,-0.398438,0.453125,-0.046814,0.543579,0.704956,up
35742,-5.539062,7.167969,3.984375,-0.074219,-0.177734,-0.367188,0.453125,-0.046814,0.543579,0.704956,up
35748,-5.539062,7.246094,4.023437,-0.041016,-0.183594,-0.351563,0.455688,-0.047485,0.542542,0.704041,up
35753,-5.578125,7.246094,3.984375,-0.041016,-0.183594,-0.351563,0.456482,-0.047668,0.542297,0.703735,up
35758,-5.578125,7.246094,3.949219,-0.041016,-0.183594,-0.351563,0.457275,-0.047791,0.542053,0.70343,up
35763,-5.613281,7.207031,3.949219,-0.041016,-0.183594,-0.351563,0.457275,-0.047791,0.542053,0.70343,up
35768,-5.613281,7.128906,3.949219,-0.013672,-0.171875,-0.271484,0.45874,-0.047974,0.541504,0.702881,up
35773,-5.578125,7.097656,3.910156,-0.013672,-0.171875,-0.271484,0.459473,-0.048096,0.541199,0.702637,up
35778,-5.539062,7.058594,3.949219,-0.033203,-0.152344,-0.25,0.459473,-0.048096,0.541199,0.702637,up
35783,-5.539062,7.019531,3.949219,-0.033203,-0.140625,-0.261719,0.460022,-0.048157,0.540955,0.702393,up
35789,-5.613281,6.9375,3.949219,-0.033203,-0.140625,-0.261719,0.461365,-0.048462,0.540466,0.701904,up
35794,-5.613281,6.863281,3.949219,-0.037109,-0.119141,-0.271484,0.462097,-0.048706,0.540161,0.70166,up
35799,-5.578125,6.820312,3.949219,-0.011719,-0.115234,-0.289063,0.462097,-0.048706,0.540161,0.70166,up
35804,-5.578125,6.785156,4.023437,-0.011719,-0.115234,-0.289063,0.463379,-0.049072,0.539795,0.70105,up
35809,-5.578125,6.785156,4.023437,-0.011719,-0.115234,-0.289063,0.463989,-0.049255,0.539673,0.700745,up
35815,-5.613281,6.902344,4.023437,-0.011719,-0.115234,-0.289063,0.464783,-0.049561,0.539612,0.700256,up
35820,-5.613281,6.976562,4.023437,0.070312,-0.076172,-0.361328,0.465454,-0.049805,0.539551,0.699829,up
35826,-5.652344,7.054687,4.0625,0.070312,-0.076172,-0.361328,0.466187,-0.050049,0.539612,0.69928,up
35832,-5.691406,7.128906,4.101562,0.097656,-0.076172,-0.375,0.466187,-0.050049,0.539612,0.69928,up
35837,-5.769531,7.097656,4.101562,0.080078,-0.070312,-0.378906,0.466187,-0.050049,0.539612,0.69928,up
35843,-5.804687,7.09375,4.0625,0.048828,-0.070312,-0.375,0.466187,-0.050049,0.539612,0.69928,up
35848,-5.84375,7.125,4.0625,-0.033203,-0.085937,-0.371094,0.469299,-0.05127,0.539551,0.697205,up
35853,-5.804687,7.058594,4.101562,-0.033203,-0.085937,-0.371094,0.470093,-0.051697,0.539307,0.696716,up
35858,-5.804687,7.058594,4.101562,-0.128906,-0.099609,-0.361328,0.470886,-0.052124,0.539062,0.696411,up
35864,-5.804687,7.019531,4.101562,-0.128906,-0.099609,-0.361328,0.47229,-0.052979,0.53833,0.695923,up
35869,-5.804687,7.019531,4.101562,-0.191406,-0.113281,-0.341797,0.473083,-0.053528,0.537781,0.69574,up
35875,-5.804687,7.019531,4.101562,-0.191406,-0.113281,-0.341797,0.473816,-0.054077,0.537231,0.695618,up
35880,-5.769531,7.015625,4.0625,-0.191406,-0.113281,-0.341797,0.474426,-0.054565,0.536743,0.695557,up
35886,-5.730469,6.980469,3.984375,-0.257813,-0.09375,-0.3125,0.474426,-0.054565,0.536743,0.695557,up
35891,-5.730469,6.941406,4.023437,-0.275391,-0.089844,-0.296875,0.474426,-0.054565,0.536743,0.695557,up
35896,-5.730469,6.898437,4.023437,-0.283203,-0.076172,-0.285156,0.474426,-0.054565,0.536743,0.695557,up
35901,-5.691406,6.820312,4.101562,-0.283203,-0.076172,-0.285156,0.474426,-0.054565,0.536743,0.695557,up
35906,-5.691406,6.785156,4.0625,-0.283203,-0.054687,-0.273438,0.474426,-0.054565,0.536743,0.695557,up
35911,-5.652344,6.785156,4.140625,-0.287109,-0.033203,-0.255859,0.474426,-0.054565,0.536743,0.695557,up
35917,-5.613281,6.710937,4.140625,-0.287109,-0.033203,-0.255859,0.478271,-0.058777,0.532532,0.695862,up
35922,-5.613281,6.714844,4.101562,-0.314453,0.0,-0.222656,0.478271,-0.058777,0.532532,0.695862,up
35928,-5.578125,6.671875,4.101562,-0.332031,0.029297,-0.201172,0.479126,-0.060852,0.530823,0.696411,up
35933,-5.578125,6.59375,4.140625,-0.332031,0.029297,-0.201172,0.479126,-0.060852,0.530823,0.696411,up
35938,-5.613281,6.59375,4.140625,-0.332031,0.029297,-0.201172,0.479248,-0.062378,0.529846,0.696899,up
35943,-5.578125,6.597656,4.101562,-0.332031,0.029297,-0.201172,0.479248,-0.062378,0.529846,0.696899,up
35948,-5.5,6.597656,4.101562,-0.322266,0.195312,-0.070312,0.478882,-0.064026,0.529175,0.697571,up
35953,-5.539062,6.632812,3.984375,-0.322266,0.195312,-0.070312,0.478882,-0.064026,0.529175,0.697571,up
35958,-5.539062,6.59375,3.949219,-0.322266,0.195312,-0.070312,0.478455,-0.06488,0.529053,0.697876,up
35963,-5.539062,6.597656,3.910156,-0.185547,0.4375,0.054687,0.478455,-0.06488,0.529053,0.697876,up
35968,-5.5,6.671875,3.910156,-0.185547,0.4375,0.054687,0.477234,-0.066711,0.529175,0.698425,up
35973,-5.5,6.78125,3.910156,-0.185547,0.4375,0.054687,0.476501,-0.067688,0.52948,0.698608,up
35978,-5.539062,6.824219,3.832031,-0.185547,0.4375,0.054687,0.475647,-0.068665,0.529907,0.698792,up
35984,-5.578125,6.859375,3.792969,-0.082031,0.630859,0.095703,0.473633,-0.070801,0.531128,0.698975,up
35989,-5.652344,7.097656,3.757813,-0.082031,0.630859,0.095703,0.472473,-0.072021,0.53186,0.699097,up
35994,-5.691406,7.128906,3.832031,-0.121094,0.806641,0.130859,0.47113,-0.073425,0.532654,0.699219,up
35999,-5.730469,7.246094,3.71875,-0.121094,0.806641,0.130859,0.469849,-0.074707,0.533325,0.699402,up
36004,-5.921875,7.058594,3.71875,-0.121094,0.806641,0.130859,0.468201,-0.076416,0.534119,0.699768,up
36010,-6.0,6.359375,3.910156,-0.121094,0.806641,0.130859,0.466797,-0.078003,0.534668,0.700134,up
36015,-6.0,6.175781,4.023437,-0.386719,0.921875,0.169922,0.466797,-0.078003,0.534668,0.700134,up
36022,-6.0,5.980469,4.101562,-0.421875,0.925781,0.146484,0.466797,-0.078003,0.534668,0.700134,up
36028,-5.964844,5.75,4.214844,-0.421875,0.925781,0.146484,0.466797,-0.078003,0.534668,0.700134,up
36033,-5.921875,5.789062,4.292969,-0.349609,0.945312,0.074219,0.466797,-0.078003,0.534668,0.700134,up
36038,-5.84375,5.980469,4.332031,-0.099609,0.912109,0.029297,0.466797,-0.078003,0.534668,0.700134,up
36043,-5.769531,6.359375,4.253906,-0.099609,0.912109,0.029297,0.457703,-0.089233,0.53772,0.702454,up
36048,-5.804687,6.558594,4.214844,-0.099609,0.912109,0.029297,0.456421,-0.09082,0.538696,0.702271,up
36054,-5.769531,6.671875,4.101562,0.207031,0.927734,0.025391,0.453918,-0.093628,0.541565,0.701355,up
36059,-5.730469,6.78125,3.984375,0.416016,0.894531,0.03125,0.452698,-0.094788,0.543274,0.700684,up
36064,-5.84375,6.824219,3.910156,0.416016,0.894531,0.03125,0.452698,-0.094788,0.543274,0.700684,up
36069,-5.84375,6.824219,3.910156,0.474609,0.871094,0.023437,0.451599,-0.095703,0.544983,0.699951,up
36074,-5.882812,6.859375,3.871094,0.474609,0.871094,0.023437,0.4505,-0.09668,0.546814,0.699036,up
36079,-6.152344,7.015625,3.71875,0.480469,0.839844,-0.048828,0.449524,-0.097656,0.548584,0.698181,up
36084,-6.152344,7.015625,3.71875,0.480469,0.839844,-0.048828,0.449524,-0.097656,0.548584,0.698181,up
36089,-6.304687,6.976562,3.757813,0.320313,0.777344,-0.167969,0.447205,-0.101196,0.55304,0.695618,up
36094,-6.726562,7.324219,3.757813,0.320313,0.777344,-0.167969,0.446655,-0.103027,0.554077,0.694946,up
36099,-6.839844,7.476562,3.679688,0.320313,0.777344,-0.167969,0.446289,-0.104736,0.554626,0.694458,up
36104,-6.957031,7.667969,3.566406,-0.267578,0.669922,-0.548828,0.446289,-0.104736,0.554626,0.694458,up
36109,-7.070312,7.785156,3.566406,-0.412109,0.582031,-0.671875,0.446106,-0.107056,0.554993,0.693909,up
36114,-7.300781,7.207031,3.792969,-0.412109,0.582031,-0.671875,0.446594,-0.111694,0.554443,0.693298,up
36119,-7.453125,7.207031,3.871094,-0.412109,0.582031,-0.671875,0.447388,-0.114258,0.55365,0.693054,up
36124,-7.574219,7.511719,3.910156,-0.714844,0.183594,-1.169922,0.447388,-0.114258,0.55365,0.693054,up
36129,-7.683594,7.746094,3.832031,-0.804687,0.0,-1.431641,0.448792,-0.117126,0.552307,0.692688,up
36134,-7.796875,8.246094,3.910156,-0.804687,0.0,-1.431641,0.453003,-0.12262,0.548828,0.691772,up
36139,-7.722656,8.546875,3.910156,-1.142578,-0.376953,-1.929688,0.453003,-0.12262,0.548828,0.691772,up
36144,-7.683594,8.507813,3.871094,-1.373047,-0.527344,-2.152344,0.456299,-0.125854,0.546021,0.691223,up
36149,-7.683594,8.203125,3.871094,-1.373047,-0.527344,-2.152344,0.460327,-0.129578,0.542419,0.690735,up
36154,-7.605469,8.390625,3.871094,-1.373047,-0.527344,-2.152344,0.469604,-0.137512,0.533203,0.690125,up
36159,-7.683594,8.585938,3.832031,-1.373047,-0.527344,-2.152344,0.469604,-0.137512,0.533203,0.690125,up
36164,-7.796875,8.734375,3.792969,-2.179688,-1.089844,-2.833984,0.479919,-0.145813,0.521912,0.690002,up
36169,-7.914062,9.8125,3.601563,-2.179688,-1.089844,-2.833984,0.486084,-0.151062,0.514343,0.690125,up
36174,-8.066406,10.082031,3.335938,-2.179688,-1.089844,-2.833984,0.49292,-0.157166,0.505432,0.690552,up
36179,-8.144531,10.195313,3.066406,-2.179688,-1.089844,-2.833984,0.49292,-0.157166,0.505432,0.690552,up
36184,-8.335938,9.816406,2.953125,-3.814453,-1.445313,-3.615234,0.505798,-0.170593,0.485718,0.6922,up
36190,-8.640625,9.011719,3.066406,-3.814453,-1.445313,-3.615234,0.512756,-0.179077,0.473267,0.693604,up
36195,-9.140625,8.28125,3.027344,-3.814453,-1.445313,-3.615234,0.518799,-0.187256,0.461243,0.695007,up
36200,-9.140625,8.28125,3.027344,-5.310547,-1.314453,-3.978516,0.524231,-0.195374,0.449646,0.696289,up
36205,-9.636719,6.785156,3.296875,-5.310547,-1.314453,-3.978516,0.524231,-0.195374,0.449646,0.696289,up
36210,-9.636719,6.785156,3.296875,-5.310547,-1.314453,-3.978516,0.524231,-0.195374,0.449646,0.696289,up
36215,-9.671875,6.863281,3.640625,-5.337891,-1.308594,-4.173828,0.524231,-0.195374,0.449646,0.696289,up
36220,-9.671875,6.863281,3.640625,-5.080078,-1.0625,-4.394531,0.54718,-0.2323,0.397705,0.698853,up
36225,-10.289063,6.59375,3.757813,-5.001953,-1.001953,-4.417969,0.55304,-0.241943,0.384583,0.698364,up
36231,-10.75,6.632812,4.332031,-5.001953,-1.001953,-4.417969,0.558533,-0.25116,0.37207,0.69751,up
36238,-10.78125,6.554687,4.445312,-4.679687,-0.876953,-4.273437,0.558533,-0.25116,0.37207,0.69751,up
36243,-10.78125,6.554687,4.445312,-4.509766,-0.806641,-4.107422,0.568909,-0.269104,0.347534,0.695068,up
36248,-10.941406,6.171875,4.597656,-4.509766,-0.806641,-4.107422,0.568909,-0.269104,0.347534,0.695068,up
36253,-10.941406,6.171875,4.597656,-4.353516,-0.699219,-3.550781,0.577332,-0.2854,0.324951,0.692566,up
36258,-10.785156,4.984375,4.980469,-4.353516,-0.699219,-3.550781,0.580627,-0.293396,0.313782,0.69165,up
36263,-10.636719,3.492188,5.671875,-4.353516,-0.699219,-3.550781,0.582947,-0.30072,0.303528,0.69104,up
36268,-10.25,2.074219,6.246094,-4.353516,-0.699219,-3.550781,0.582947,-0.30072,0.303528,0.69104,up
36274,-10.09375,1.347656,6.589844,-3.523438,-0.078125,-1.183594,0.582947,-0.30072,0.303528,0.69104,up
36279,-9.792969,0.578125,7.089844,-3.523438,-0.078125,-1.183594,0.584961,-0.320435,0.277283,0.691528,up
36284,-9.90625,0.234375,7.28125,-3.142578,0.123047,-0.611328,0.581787,-0.33075,0.26593,0.693848,up
36289,-10.019531,0.082031,7.320312,-2.146484,0.474609,0.628906,0.581787,-0.33075,0.26593,0.693848,up
36294,-10.59375,-0.1875,7.703125,-2.146484,0.474609,0.628906,0.578674,-0.335144,0.262207,0.69574,up
36300,-10.824219,-0.261719,7.855469,-2.146484,0.474609,0.628906,0.57135,-0.339661,0.26062,0.700195,up
36305,-11.132813,-0.109375,8.085938,-0.382813,0.619141,2.474609,0.566101,-0.340332,0.26239,0.70343,up
36311,-11.902344,0.503906,8.507813,-0.382813,0.619141,2.474609,0.560547,-0.339783,0.265442,0.707031,up
36317,-12.628906,1.078125,8.699219,-0.382813,0.619141,2.474609,0.554993,-0.338318,0.269287,0.710632,up
36323,-13.085938,1.691406,8.773438,0.808594,0.566406,4.251953,0.554993,-0.338318,0.269287,0.710632,up
36328,-13.316406,2.113281,8.925781,1.056641,0.529297,4.878906,0.554993,-0.338318,0.269287,0.710632,up
36333,-13.511719,2.609375,9.121094,1.357422,0.431641,6.173828,0.554993,-0.338318,0.269287,0.710632,up
36339,-13.582031,2.992188,8.925781,1.357422,0.431641,6.173828,0.521545,-0.322815,0.295593,0.732361,up
36344,-13.582031,2.992188,8.925781,1.369141,0.453125,6.849609,0.510437,-0.317017,0.303833,0.739319,up
36349,-13.738281,3.53125,8.734375,1.357422,0.466797,7.574219,0.510437,-0.317017,0.303833,0.739319,up
36354,-13.738281,3.53125,8.734375,1.392578,0.453125,8.341797,0.483337,-0.303406,0.322021,0.755432,up
36360,-14.617188,3.683594,8.46875,1.392578,0.453125,8.341797,0.46759,-0.29541,0.331665,0.764221,up
36366,-14.503906,3.339844,8.238281,1.638672,0.394531,9.972656,0.430481,-0.276062,0.353394,0.783325,up
36371,-14.195313,3.949219,7.472656,1.638672,0.394531,9.972656,0.409058,-0.264343,0.365845,0.79303,up
36377,-14.078125,4.371094,7.472656,2.837891,0.302734,12.191406,0.409058,-0.264343,0.365845,0.79303,up
36382,-14.078125,4.371094,7.472656,3.537109,0.142578,12.828125,0.36377,-0.237183,0.393005,0.810547,up
36387,-13.738281,4.792969,7.625,4.314453,-0.017578,13.455078,0.338501,-0.220276,0.408997,0.818298,up
36392,-13.738281,4.792969,7.625,4.314453,-0.017578,13.455078,0.338501,-0.220276,0.408997,0.818298,up
36398,-13.738281,4.792969,7.625,5.039062,-0.130859,14.052734,0.286499,-0.182556,0.443298,0.829529,up
36404,-13.738281,4.792969,7.625,6.103516,-0.037109,15.042969,0.257568,-0.161133,0.462219,0.833069,up
36409,-12.046875,5.789062,4.597656,6.103516,-0.037109,15.042969,0.228455,-0.139587,0.480957,0.834839,up
36415,-11.625,5.980469,3.832031,6.583984,0.335938,15.785156,0.162781,-0.093384,0.519287,0.83374,up
36420,-10.976563,4.066406,2.414063,6.583984,0.335938,15.785156,0.132385,-0.073547,0.534363,0.831543,up
36425,-9.910156,2.839844,2.070313,6.583984,0.335938,15.785156,0.0979,-0.051819,0.549561,0.828064,up
36430,-7.683594,2.726563,1.609375,6.583984,0.335938,15.785156,0.065186,-0.030945,0.562744,0.823486,up
36435,-6.613281,3.183594,1.265625,5.419922,0.955078,15.025391,0.029968,-0.008362,0.575989,0.816895,up
36440,-6.574219,3.453125,3.105469,5.476562,0.841797,14.304688,0.001465,0.009644,0.586182,0.81012,up
36445,-2.933594,-0.609375,7.285156,5.476562,0.841797,14.304688,0.03241,-0.030273,-0.597778,-0.800476,up
36450,-1.859375,-1.757813,6.746094,5.060547,2.111328,12.941406,0.060547,-0.045471,-0.606384,-0.791565,up
36456,-2.015625,-0.300781,4.210937,5.060547,2.111328,12.941406,0.089111,-0.059387,-0.613953,-0.782043,up
36461,-2.433594,1.730469,2.957031,5.060547,2.111328,12.941406,0.114441,-0.071228,-0.620117,-0.772827,up
36468,-2.015625,2.074219,3.828125,4.404297,1.970703,10.958984,0.114441,-0.071228,-0.620117,-0.772827,up
36473,-1.171875,2.226563,5.636719,4.214844,1.585938,10.146484,0.114441,-0.071228,-0.620117,-0.772827,up
36479,-0.636719,3.148438,8.085938,4.214844,1.585938,10.146484,0.186523,-0.106384,-0.63623,-0.741028,up
36485,-0.75,2.953125,7.46875,3.974609,1.285156,7.308594,0.186523,-0.106384,-0.63623,-0.741028,up
36490,-1.054688,1.996094,6.898437,3.974609,1.285156,7.308594,0.239014,-0.131226,-0.649536,-0.709717,up
36495,-0.710937,1.0,6.863281,3.974609,1.285156,7.308594,0.250854,-0.13678,-0.652893,-0.701477,up
36501,0.015625,-0.300781,7.429687,3.974609,1.285156,7.308594,0.26123,-0.141846,-0.65625,-0.693542,up
36506,0.207031,-0.492187,7.164062,2.369141,0.248047,2.785156,0.268677,-0.145264,-0.659302,-0.687073,up
36511,1.011719,-0.300781,5.980469,2.369141,0.248047,2.785156,0.273071,-0.147217,-0.66156,-0.682678,up
36517,1.777344,0.464844,5.402344,2.369141,0.248047,2.785156,0.275513,-0.148865,-0.662842,-0.680115,up
36523,2.160156,0.925781,4.980469,-0.671875,-0.296875,0.330078,0.275513,-0.148865,-0.662842,-0.680115,up
36528,2.621094,1.078125,4.332031,-1.615234,-0.324219,-0.144531,0.275513,-0.148865,-0.662842,-0.680115,up
36534,3.234375,1.996094,3.679688,-1.615234,-0.324219,-0.144531,0.27063,-0.154785,-0.653381,-0.68988,up
36539,3.421875,2.34375,3.335938,-1.615234,-0.324219,-0.144531,0.27063,-0.154785,-0.653381,-0.68988,up
36544,3.578125,2.878906,3.105469,-3.646484,-0.298828,-0.955078,0.263489,-0.157532,-0.642029,-0.702515,up
36549,3.726563,2.761719,3.179688,-3.646484,-0.298828,-0.955078,0.263489,-0.157532,-0.642029,-0.702515,up
36554,3.847656,2.535156,3.144531,-3.646484,-0.298828,-0.955078,0.259705,-0.15863,-0.636169,-0.708984,up
36559,3.847656,2.535156,3.027344,-3.320313,-0.111328,-1.193359,0.259705,-0.15863,-0.636169,-0.708984,up
36565,3.804688,2.570313,2.953125,-2.738281,-0.027344,-1.160156,0.249207,-0.159241,-0.621582,-0.725403,up
36570,3.847656,2.992188,3.066406,-2.738281,-0.027344,-1.160156,0.246216,-0.158691,-0.618774,-0.728882,up
36575,3.84375,3.339844,3.179688,-0.626953,-0.208984,-0.933594,0.246216,-0.158691,-0.618774,-0.728882,up
36580,3.921875,3.722656,3.335938,-0.626953,-0.208984,-0.933594,0.241699,-0.157288,-0.617493,-0.731812,up
36585,4.039062,4.183594,3.21875,-0.626953,-0.208984,-0.933594,0.239929,-0.156677,-0.618347,-0.731812,up
36590,4.0,5.332031,2.835938,-0.626953,-0.208984,-0.933594,0.238159,-0.155945,-0.6203,-0.730896,up
36595,4.039062,5.871094,2.644531,1.248047,-0.570312,-0.517578,0.238159,-0.155945,-0.6203,-0.730896,up
36600,4.039062,6.441406,2.53125,1.248047,-0.570312,-0.517578,0.235474,-0.154907,-0.62561,-0.727417,up
36606,4.382812,8.125,1.6875,1.248047,-0.570312,-0.517578,0.234192,-0.154541,-0.62915,-0.724854,up
36611,4.460937,8.585938,1.382813,1.673828,-0.769531,-0.322266,0.234192,-0.154541,-0.62915,-0.724854,up
36616,4.574219,9.011719,1.035156,1.587891,-0.794922,-0.292969,0.234192,-0.154541,-0.62915,-0.724854,up
36621,4.613281,9.316406,0.691406,1.373047,-0.792969,-0.269531,0.234192,-0.154541,-0.62915,-0.724854,up
36627,4.917969,9.816406,0.195312,1.373047,-0.792969,-0.269531,0.234192,-0.154541,-0.62915,-0.724854,up
36632,5.074219,10.0,0.078125,0.783203,-0.792969,-0.240234,0.234192,-0.154541,-0.62915,-0.724854,up
36637,5.226562,10.117188,-0.074219,0.490234,-0.751953,-0.259766,0.234192,-0.154541,-0.62915,-0.724854,up
36643,5.492187,10.273438,-0.152344,0.490234,-0.751953,-0.259766,0.224854,-0.15625,-0.6474,-0.711243,up
36649,5.570312,10.238281,-0.152344,-0.074219,-0.556641,-0.332031,0.224854,-0.15625,-0.6474,-0.711243,up
36654,5.648437,10.199219,-0.113281,-0.074219,-0.556641,-0.332031,0.221741,-0.157349,-0.648621,-0.710876,up
36660,5.648437,10.160156,-0.074219,-0.074219,-0.556641,-0.332031,0.220032,-0.157776,-0.648926,-0.71106,up
36665,5.648437,10.078125,0.039063,-0.080078,-0.412109,-0.40625,0.220032,-0.157776,-0.648926,-0.71106,up
36670,5.609375,10.0,0.15625,-0.080078,-0.412109,-0.40625,0.217041,-0.158203,-0.649353,-0.711487,up
36675,5.53125,9.855469,0.460937,-0.080078,-0.412109,-0.40625,0.214294,-0.158142,-0.650024,-0.711731,up
36680,5.492187,9.816406,0.652344,-0.080078,-0.412109,-0.40625,0.213013,-0.158081,-0.650513,-0.71167,up
36685,5.417969,9.734375,0.804687,-0.080078,-0.412109,-0.40625,0.213013,-0.158081,-0.650513,-0.71167,up
36690,5.417969,9.738281,0.960937,0.224609,-0.412109,-0.365234,0.210449,-0.158081,-0.652039,-0.71106,up
36695,5.226562,9.503906,1.113281,0.224609,-0.412109,-0.365234,0.20929,-0.158264,-0.652832,-0.710632,up
36700,5.1875,9.355469,1.191406,0.224609,-0.412109,-0.365234,0.208069,-0.15863,-0.653625,-0.710144,up
36705,5.1875,9.277344,1.226563,0.224609,-0.412109,-0.365234,0.208069,-0.15863,-0.653625,-0.710144,up
36710,5.148437,9.121094,1.304688,0.160156,-0.611328,-0.136719,0.205627,-0.160095,-0.655029,-0.709229,up
36715,5.074219,8.96875,1.304688,0.160156,-0.611328,-0.136719,0.205627,-0.160095,-0.655029,-0.709229,up
36720,5.109375,8.855469,1.34375,0.003906,-0.800781,0.019531,0.204224,-0.161255,-0.655579,-0.708862,up
36725,5.074219,8.734375,1.382813,-0.029297,-0.835937,0.066406,0.203064,-0.162415,-0.656006,-0.708557,up
36730,5.074219,8.628906,1.152344,-0.029297,-0.835937,0.066406,0.20166,-0.164062,-0.656433,-0.708191,up
36735,5.035156,8.546875,1.074219,-0.021484,-0.890625,0.134766,0.200378,-0.165588,-0.656738,-0.707886,up
36740,4.996094,8.507813,1.035156,-0.021484,-0.890625,0.134766,0.199097,-0.167358,-0.657043,-0.70752,up
36746,4.957031,8.429688,0.730469,-0.021484,-0.890625,0.134766,0.196594,-0.170959,-0.657898,-0.706604,up
36752,4.917969,8.511719,0.195312,-0.021484,-0.890625,0.134766,0.195618,-0.172546,-0.658386,-0.706055,up
36759,4.957031,8.550781,0.039063,0.21875,-0.794922,0.177734,0.195618,-0.172546,-0.658386,-0.706055,up
36764,5.109375,8.628906,-0.152344,0.318359,-0.759766,0.162109,0.195618,-0.172546,-0.658386,-0.706055,up
36769,5.109375,8.628906,-0.226562,0.376953,-0.695312,0.126953,0.195618,-0.172546,-0.658386,-0.706055,up
36774,5.1875,8.667969,-0.304688,0.376953,-0.695312,0.126953,0.192078,-0.17804,-0.661743,-0.702515,up
36779,5.148437,8.667969,-0.34375,0.429687,-0.507812,0.058594,0.192078,-0.17804,-0.661743,-0.702515,up
36784,5.148437,8.734375,-0.382813,0.412109,-0.408203,0.003906,0.192078,-0.17804,-0.661743,-0.702515,up
36789,5.074219,8.773438,-0.34375,0.412109,-0.408203,0.003906,0.192078,-0.17804,-0.661743,-0.702515,up
36794,5.074219,8.8125,-0.304688,0.412109,-0.408203,0.003906,0.189941,-0.180115,-0.665222,-0.69928,up
36800,5.035156,8.8125,-0.152344,0.230469,-0.222656,-0.087891,0.189026,-0.180298,-0.66626,-0.698425,up
36805,5.035156,8.851563,-0.152344,0.050781,-0.119141,-0.136719,0.189026,-0.180298,-0.66626,-0.698425,up
36810,4.996094,8.628906,-0.074219,0.050781,-0.119141,-0.136719,0.188599,-0.180237,-0.666565,-0.698303,up
36815,4.996094,8.625,0.039063,-0.033203,-0.097656,-0.152344,0.187561,-0.180054,-0.666687,-0.698486,up
36820,4.996094,8.550781,0.117188,-0.033203,-0.097656,-0.152344,0.187561,-0.180054,-0.666687,-0.698486,up
36825,4.996094,8.546875,0.230469,-0.115234,-0.09375,-0.179687,0.186462,-0.179749,-0.666565,-0.698975,up
36830,4.917969,8.585938,0.308594,-0.115234,-0.09375,-0.179687,0.186462,-0.179749,-0.666565,-0.698975,up
36835,4.917969,8.546875,0.386719,-0.111328,-0.095703,-0.201172,0.185303,-0.179443,-0.666443,-0.699524,up
36840,4.84375,8.546875,0.421875,-0.111328,-0.095703,-0.201172,0.185303,-0.179443,-0.666443,-0.699524,up
36845,4.84375,8.546875,0.421875,0.039063,-0.117188,-0.179687,0.185303,-0.179443,-0.666443,-0.699524,up
36850,4.804687,8.550781,0.421875,0.039063,-0.117188,-0.179687,0.184143,-0.179138,-0.666626,-0.699707,up
36855,4.84375,8.46875,0.5,0.039063,-0.117188,-0.179687,0.183594,-0.179016,-0.66687,-0.699646,up
36860,4.804687,8.511719,0.5,0.039063,-0.117188,-0.179687,0.183105,-0.178833,-0.667236,-0.699524,up
36866,4.804687,8.589844,0.539062,0.177734,-0.162109,-0.162109,0.182617,-0.178711,-0.667603,-0.699341,up
36871,4.765625,8.546875,0.5,0.177734,-0.162109,-0.162109,0.18158,-0.178467,-0.668518,-0.698792,up
36877,4.691406,8.628906,0.5,0.177734,-0.162109,-0.162109,0.181091,-0.178406,-0.668945,-0.698547,up
36882,4.652344,8.664063,0.5,0.175781,-0.177734,-0.142578,0.181091,-0.178406,-0.668945,-0.698547,up
36887,4.613281,8.625,0.5,0.162109,-0.177734,-0.142578,0.181091,-0.178406,-0.668945,-0.698547,up
36892,4.613281,8.695313,0.460937,0.132812,-0.171875,-0.146484,0.181091,-0.178406,-0.668945,-0.698547,up
36898,4.613281,8.699219,0.421875,0.132812,-0.171875,-0.146484,0.181091,-0.178406,-0.668945,-0.698547,up
36904,4.613281,8.773438,0.386719,0.085937,-0.160156,-0.154297,0.181091,-0.178406,-0.668945,-0.698547,up
36909,4.652344,8.773438,0.386719,0.0625,-0.154297,-0.173828,0.181091,-0.178406,-0.668945,-0.698547,up
36915,4.574219,8.890625,0.308594,0.0625,-0.154297,-0.173828,0.181091,-0.178406,-0.668945,-0.698547,up
36920,4.574219,8.929688,0.269531,0.029297,-0.136719,-0.220703,0.181091,-0.178406,-0.668945,-0.698547,up
36925,4.5,9.011719,0.230469,0.023437,-0.128906,-0.230469,0.175476,-0.177368,-0.671936,-0.697327,up
36930,4.535156,9.046875,0.347656,0.023437,-0.128906,-0.230469,0.175476,-0.177368,-0.671936,-0.697327,up
36936,4.535156,9.011719,0.347656,-0.009766,-0.126953,-0.251953,0.174805,-0.177124,-0.672119,-0.697388,up
36941,4.535156,8.929688,0.347656,-0.009766,-0.126953,-0.251953,0.173401,-0.176697,-0.672424,-0.697571,up
36946,4.535156,8.816406,0.421875,-0.009766,-0.126953,-0.251953,0.172668,-0.176453,-0.672485,-0.697693,up
36951,4.535156,8.816406,0.421875,-0.009766,-0.126953,-0.251953,0.172058,-0.17627,-0.672546,-0.697876,up
36956,4.535156,8.777344,0.460937,-0.0625,-0.126953,-0.234375,0.171265,-0.176025,-0.672607,-0.697998,up
36961,4.5,8.8125,0.460937,-0.0625,-0.126953,-0.234375,0.170715,-0.175903,-0.672668,-0.698181,up
36966,4.460937,8.894531,0.5,-0.0625,-0.126953,-0.234375,0.170044,-0.175781,-0.672729,-0.698303,up
36971,4.460937,8.894531,0.539062,-0.0625,-0.126953,-0.234375,0.169434,-0.175781,-0.672791,-0.698425,up
36976,4.460937,8.851563,0.539062,-0.005859,-0.175781,-0.123047,0.169434,-0.175781,-0.672791,-0.698425,up
36981,4.460937,8.851563,0.539062,-0.005859,-0.175781,-0.123047,0.168335,-0.175842,-0.672974,-0.698425,up
36986,4.460937,8.8125,0.539062,-0.005859,-0.175781,-0.123047,0.167908,-0.175964,-0.673157,-0.698364,up
36991,4.460937,8.777344,0.460937,0.091797,-0.197266,-0.037109,0.167419,-0.176208,-0.673401,-0.698181,up
36996,4.460937,8.734375,0.421875,0.091797,-0.197266,-0.037109,0.167053,-0.176392,-0.673645,-0.697998,up
37001,4.5,8.773438,0.347656,0.152344,-0.189453,-0.013672,0.166748,-0.176575,-0.67395,-0.697754,up
37007,4.535156,8.894531,0.269531,0.152344,-0.189453,-0.013672,0.166443,-0.176758,-0.674316,-0.697388,up
37012,4.460937,9.011719,0.195312,0.207031,-0.175781,0.003906,0.166443,-0.176758,-0.674316,-0.697388,up
37017,4.5,9.007813,0.15625,0.208984,-0.164062,0.017578,0.166443,-0.176758,-0.674316,-0.697388,up
37022,4.535156,9.050781,0.15625,0.208984,-0.164062,0.017578,0.165771,-0.177307,-0.675537,-0.696228,up
37028,4.574219,9.011719,0.117188,0.208984,-0.164062,0.017578,0.165588,-0.17749,-0.675964,-0.695801,up
37034,4.574219,8.96875,0.195312,0.177734,-0.136719,0.017578,0.165588,-0.17749,-0.675964,-0.695801,up
37039,4.574219,8.929688,0.117188,0.146484,-0.115234,0.003906,0.165588,-0.17749,-0.675964,-0.695801,up
37044,4.574219,8.972656,0.117188,0.119141,-0.105469,0.003906,0.165588,-0.17749,-0.675964,-0.695801,up
37049,4.613281,8.894531,0.15625,0.074219,-0.095703,-0.011719,0.165588,-0.17749,-0.675964,-0.695801,up
37055,4.613281,8.894531,0.15625,0.074219,-0.095703,-0.011719,0.164734,-0.177979,-0.677246,-0.694641,up
37060,4.574219,8.855469,0.15625,0.074219,-0.095703,-0.011719,0.16449,-0.17804,-0.677307,-0.694641,up
37065,4.574219,8.777344,0.195312,0.074219,-0.095703,-0.011719,0.164185,-0.17804,-0.677368,-0.694641,up
37071,4.574219,8.777344,0.230469,-0.044922,-0.082031,-0.056641,0.163635,-0.178101,-0.677307,-0.694824,up
37076,4.613281,8.699219,0.230469,-0.044922,-0.082031,-0.056641,0.163269,-0.178101,-0.677307,-0.694885,up
37081,4.613281,8.699219,0.230469,-0.044922,-0.082031,-0.056641,0.162964,-0.178101,-0.677246,-0.695007,up
37086,4.613281,8.734375,0.230469,-0.044922,-0.082031,-0.056641,0.162964,-0.178101,-0.677246,-0.695007,up
37091,4.613281,8.667969,0.230469,-0.044922,-0.089844,-0.089844,0.162231,-0.17804,-0.677246,-0.69519,up
37096,4.613281,8.734375,0.195312,-0.044922,-0.089844,-0.089844,0.161804,-0.177979,-0.677246,-0.695312,up
37101,4.613281,8.816406,0.230469,-0.044922,-0.089844,-0.089844,0.161499,-0.177917,-0.677246,-0.695374,up
37106,4.574219,8.777344,0.230469,-0.007813,-0.099609,-0.103516,0.161499,-0.177917,-0.677246,-0.695374,up
37111,4.535156,8.773438,0.230469,-0.007813,-0.099609,-0.103516,0.160767,-0.177795,-0.677368,-0.695496,up
37116,4.574219,8.777344,0.230469,-0.003906,-0.091797,-0.107422,0.160767,-0.177795,-0.677368,-0.695496,up
37121,4.574219,8.777344,0.230469,-0.003906,-0.091797,-0.107422,0.160034,-0.177673,-0.67749,-0.695557,up
37126,4.535156,8.773438,0.230469,-0.003906,-0.091797,-0.107422,0.160034,-0.177673,-0.67749,-0.695557,up
37131,4.535156,8.695313,0.269531,-0.007813,-0.097656,-0.105469,0.15918,-0.177612,-0.677673,-0.695618,up
37136,4.535156,8.777344,0.269531,-0.007813,-0.097656,-0.105469,0.15918,-0.177612,-0.677673,-0.695618,up
37141,4.535156,8.773438,0.195312,-0.019531,-0.076172,-0.103516,0.15918,-0.177612,-0.677673,-0.695618,up
37147,4.460937,8.855469,0.195312,-0.019531,-0.076172,-0.103516,0.158203,-0.177368,-0.677734,-0.695801,up
37153,4.460937,8.855469,0.195312,-0.019531,-0.076172,-0.103516,0.157776,-0.177307,-0.677795,-0.695862,up
37158,4.421875,8.929688,0.269531,0.007813,-0.078125,-0.105469,0.157471,-0.177185,-0.677856,-0.695923,up
