timestamp,ax,ay,az,gx,gy,gz,qw,qx,qy,qz,label
319906,-8.621094,4.066406,-0.199219,0.050781,0.158203,0.056641,0.536743,-0.17572,0.695679,0.443909,up
319912,-8.652344,4.140625,-0.277344,0.050781,0.158203,0.056641,0.536743,-0.175232,0.696106,0.44342,up
319918,-8.648438,4.21875,-0.238281,0.0625,0.164062,0.033203,0.536743,-0.175232,0.696106,0.44342,up
319923,-8.730469,4.257812,-0.164062,0.0625,0.171875,0.023437,0.536743,-0.175232,0.696106,0.44342,up
319929,-8.691406,4.292969,-0.238281,0.052734,0.171875,0.013672,0.536743,-0.175232,0.696106,0.44342,up
319934,-8.691406,4.257812,-0.277344,0.052734,0.171875,0.013672,0.536682,-0.173584,0.697876,0.441345,up
319939,-8.652344,4.292969,-0.199219,0.023437,0.154297,0.005859,0.536682,-0.173584,0.697876,0.441345,up
319944,-8.6875,4.332031,-0.199219,0.023437,0.154297,0.005859,0.536682,-0.172974,0.698669,0.440369,up
319950,-8.648438,4.292969,-0.238281,0.023437,0.154297,0.005859,0.536682,-0.172424,0.699341,0.439575,up
319955,-8.691406,4.292969,-0.238281,-0.029297,0.144531,-0.001953,0.53656,-0.172302,0.699646,0.439209,up
319960,-8.691406,4.292969,-0.277344,-0.029297,0.144531,-0.001953,0.53656,-0.172119,0.69989,0.438904,up
319965,-8.6875,4.332031,-0.199219,-0.058594,0.134766,-0.009766,0.536499,-0.171936,0.700134,0.43866,up
319971,-8.648438,4.410156,-0.277344,-0.058594,0.134766,-0.009766,0.536499,-0.171814,0.700317,0.438416,up
319976,-8.621094,4.410156,-0.238281,-0.078125,0.132812,-0.001953,0.536438,-0.171692,0.700562,0.438171,up
319981,-8.617188,4.449219,-0.277344,-0.095703,0.130859,0.003906,0.536438,-0.171692,0.700562,0.438171,up
319986,-8.617188,4.332031,-0.316406,-0.095703,0.130859,0.003906,0.536438,-0.171692,0.700562,0.438171,up
319992,-8.617188,4.292969,-0.390625,-0.121094,0.142578,0.009766,0.536438,-0.171692,0.700562,0.438171,up
319997,-8.617188,4.257812,-0.429687,-0.142578,0.154297,0.015625,0.536438,-0.171692,0.700562,0.438171,up
320002,-8.582031,4.332031,-0.507812,-0.148437,0.140625,0.019531,0.536438,-0.171692,0.700562,0.438171,up
320008,-8.5,4.410156,-0.429687,-0.150391,0.138672,0.029297,0.536438,-0.171692,0.700562,0.438171,up
320013,-8.5,4.484375,-0.46875,-0.166016,0.158203,0.029297,0.536438,-0.171692,0.700562,0.438171,up
320019,-8.578125,4.449219,-0.507812,-0.166016,0.158203,0.029297,0.5354,-0.171326,0.701843,0.437561,up
320025,-8.617188,4.292969,-0.546875,-0.166016,0.158203,0.029297,0.534668,-0.171509,0.702209,0.437744,up
320030,-8.652344,4.140625,-0.621094,-0.220703,0.226562,0.078125,0.534668,-0.171509,0.702209,0.437744,up
320035,-8.691406,4.066406,-0.546875,-0.220703,0.226562,0.078125,0.534241,-0.171631,0.702393,0.437988,up
320041,-8.6875,4.066406,-0.46875,-0.220703,0.226562,0.078125,0.533447,-0.171814,0.702759,0.438232,up
320046,-8.726563,4.140625,-0.46875,-0.183594,0.228516,0.050781,0.533081,-0.171936,0.702942,0.438354,up
320051,-8.726563,4.179687,-0.46875,-0.167969,0.238281,0.037109,0.533081,-0.171936,0.702942,0.438354,up
320057,-8.730469,4.21875,-0.507812,-0.167969,0.238281,0.037109,0.533081,-0.171936,0.702942,0.438354,up
320062,-8.808594,4.179687,-0.46875,-0.085937,0.228516,0.023437,0.533081,-0.171936,0.702942,0.438354,up
320068,-8.726563,4.140625,-0.46875,-0.054687,0.216797,0.021484,0.533081,-0.171936,0.702942,0.438354,up
320073,-8.6875,4.140625,-0.46875,-0.054687,0.216797,0.021484,0.531433,-0.172302,0.704346,0.437927,up
320078,-8.691406,4.140625,-0.390625,-0.054687,0.216797,0.021484,0.531433,-0.172302,0.704346,0.437927,up
320083,-8.652344,4.21875,-0.429687,-0.054687,0.216797,0.021484,0.531067,-0.17218,0.705017,0.437378,up
320088,-8.652344,4.21875,-0.429687,0.033203,0.179687,-0.017578,0.531067,-0.17218,0.705017,0.437378,up
320093,-8.582031,4.21875,-0.46875,0.033203,0.179687,-0.017578,0.530762,-0.172058,0.705688,0.436707,up
320098,-8.578125,4.292969,-0.429687,0.023437,0.15625,-0.013672,0.530762,-0.172058,0.705688,0.436707,up
320103,-8.578125,4.332031,-0.429687,0.005859,0.150391,-0.017578,0.530762,-0.172058,0.705688,0.436707,up
320108,-8.503906,4.332031,-0.46875,0.0,0.142578,-0.005859,0.530762,-0.172058,0.705688,0.436707,up
320113,-8.542969,4.292969,-0.507812,0.0,0.142578,-0.005859,0.530762,-0.172058,0.705688,0.436707,up
320118,-8.503906,4.257812,-0.507812,0.0,0.142578,-0.005859,0.53009,-0.171814,0.70697,0.435486,up
320123,-8.503906,4.257812,-0.507812,-0.072266,0.128906,0.007813,0.53009,-0.171814,0.70697,0.435486,up
320128,-8.503906,4.257812,-0.582031,-0.091797,0.130859,0.015625,0.53009,-0.171814,0.70697,0.435486,up
320133,-8.5,4.371094,-0.546875,-0.091797,0.130859,0.015625,0.53009,-0.171814,0.70697,0.435486,up
320139,-8.503906,4.410156,-0.582031,-0.091797,0.130859,0.015625,0.529419,-0.171875,0.707581,0.435303,up
320145,-8.582031,4.21875,-0.660156,-0.148437,0.154297,0.03125,0.529419,-0.171875,0.707581,0.435303,up
320150,-8.582031,4.101562,-0.738281,-0.152344,0.140625,0.046875,0.528931,-0.172058,0.707825,0.435486,up
320155,-8.539063,4.066406,-0.660156,-0.152344,0.140625,0.046875,0.528625,-0.17218,0.707947,0.435608,up
320160,-8.503906,4.027344,-0.660156,-0.152344,0.140625,0.046875,0.528198,-0.172241,0.70813,0.43573,up
320165,-8.460938,4.027344,-0.546875,-0.078125,0.144531,0.015625,0.528198,-0.172241,0.70813,0.43573,up
320170,-8.382813,4.066406,-0.660156,-0.041016,0.158203,0.005859,0.528015,-0.172302,0.708313,0.43573,up
320175,-8.421875,4.179687,-0.699219,-0.041016,0.158203,0.005859,0.527588,-0.172302,0.70874,0.435425,up
320180,-8.421875,4.257812,-0.660156,-0.041016,0.158203,0.005859,0.527588,-0.172302,0.70874,0.435425,up
320185,-8.464844,4.292969,-0.660156,0.064453,0.169922,0.007813,0.527405,-0.172302,0.709045,0.435181,up
320190,-8.542969,4.257812,-0.621094,0.064453,0.169922,0.007813,0.527283,-0.172241,0.709351,0.434875,up
320195,-8.617188,4.257812,-0.699219,0.115234,0.160156,0.009766,0.527039,-0.172058,0.709778,0.43457,up
320201,-8.648438,4.257812,-0.738281,0.115234,0.160156,0.009766,0.526794,-0.171692,0.71051,0.433777,up
320207,-8.582031,4.332031,-0.621094,0.115234,0.160156,0.009766,0.526794,-0.171448,0.710876,0.433289,up
320214,-8.621094,4.371094,-0.621094,0.136719,0.105469,-0.025391,0.526794,-0.171448,0.710876,0.433289,up
320219,-8.6875,4.449219,-0.660156,0.125,0.117188,-0.041016,0.526794,-0.171448,0.710876,0.433289,up
320224,-8.6875,4.484375,-0.738281,0.125,0.117188,-0.041016,0.526733,-0.170959,0.711853,0.431946,up
320229,-8.652344,4.523437,-0.738281,0.070312,0.109375,-0.041016,0.526733,-0.170959,0.711853,0.431946,up
320235,-8.652344,4.523437,-0.660156,0.046875,0.097656,-0.039063,0.526672,-0.170715,0.712585,0.430908,up
320240,-8.621094,4.640625,-0.773437,0.046875,0.097656,-0.039063,0.526611,-0.170715,0.712769,0.430725,up
320245,-8.648438,4.601562,-0.738281,0.046875,0.097656,-0.039063,0.52655,-0.170715,0.712891,0.430542,up
320250,-8.621094,4.640625,-0.773437,0.046875,0.097656,-0.039063,0.52655,-0.170715,0.712891,0.430542,up
320255,-8.648438,4.640625,-0.773437,-0.066406,0.113281,0.003906,0.52655,-0.170715,0.712891,0.430542,up
320260,-8.648438,4.5625,-0.851562,-0.107422,0.117188,0.027344,0.526245,-0.170776,0.713196,0.430481,up
320265,-8.730469,4.523437,-0.890625,-0.107422,0.117188,0.027344,0.525818,-0.170898,0.713379,0.430542,up
320270,-8.648438,4.332031,-0.851562,-0.107422,0.117188,0.027344,0.525818,-0.170898,0.713379,0.430542,up
320275,-8.648438,4.371094,-0.851562,-0.107422,0.117188,0.027344,0.525574,-0.170898,0.713501,0.430664,up
320280,-8.621094,4.332031,-0.851562,-0.046875,0.119141,0.050781,0.525391,-0.170837,0.713623,0.430725,up
320285,-8.542969,4.332031,-0.851562,-0.046875,0.119141,0.050781,0.525146,-0.170837,0.713806,0.430725,up
320291,-8.582031,4.332031,-0.851562,-0.046875,0.119141,0.050781,0.524719,-0.170715,0.714233,0.430603,up
320297,-8.542969,4.332031,-0.8125,-0.046875,0.119141,0.050781,0.524536,-0.170532,0.714478,0.430481,up
320304,-8.464844,4.371094,-0.8125,0.074219,0.152344,0.0625,0.524536,-0.170532,0.714478,0.430481,up
320309,-8.503906,4.332031,-0.851562,0.111328,0.160156,0.072266,0.524536,-0.170532,0.714478,0.430481,up
320314,-8.464844,4.332031,-0.8125,0.142578,0.171875,0.074219,0.524536,-0.170532,0.714478,0.430481,up
320319,-8.464844,4.332031,-0.738281,0.142578,0.171875,0.074219,0.523499,-0.169617,0.716125,0.429382,up
320325,-8.421875,4.371094,-0.738281,0.173828,0.183594,0.080078,0.523499,-0.169617,0.716125,0.429382,up
320331,-8.382813,4.257812,-0.699219,0.173828,0.183594,0.080078,0.522705,-0.168701,0.71759,0.428223,up
320336,-8.382813,4.292969,-0.699219,0.162109,0.173828,0.087891,0.5224,-0.168335,0.71814,0.427856,up
320341,-8.347656,4.257812,-0.660156,0.146484,0.181641,0.089844,0.5224,-0.168335,0.71814,0.427856,up
320346,-8.308594,4.21875,-0.699219,0.146484,0.181641,0.089844,0.521851,-0.167786,0.719055,0.427246,up
320352,-8.304688,4.21875,-0.738281,0.146484,0.181641,0.089844,0.521545,-0.167542,0.719421,0.427002,up
320357,-8.34375,4.21875,-0.773437,0.078125,0.169922,0.083984,0.52124,-0.167358,0.719849,0.426819,up
320362,-8.382813,4.21875,-0.773437,0.068359,0.164062,0.083984,0.52124,-0.167358,0.719849,0.426819,up
320367,-8.382813,4.179687,-0.738281,0.068359,0.164062,0.083984,0.52063,-0.166992,0.72052,0.426453,up
320372,-8.382813,4.179687,-0.851562,0.068359,0.164062,0.083984,0.52063,-0.166992,0.72052,0.426453,up
320378,-8.34375,4.179687,-0.8125,0.044922,0.128906,0.058594,0.52063,-0.166992,0.72052,0.426453,up
320383,-8.386719,4.140625,-0.890625,0.044922,0.128906,0.058594,0.52063,-0.166992,0.72052,0.426453,up
320389,-8.460938,4.140625,-0.851562,0.048828,0.103516,0.027344,0.52063,-0.166992,0.72052,0.426453,up
320394,-8.425781,4.101562,-0.890625,0.046875,0.089844,0.003906,0.52063,-0.166992,0.72052,0.426453,up
320399,-8.460938,4.179687,-0.851562,0.046875,0.089844,0.003906,0.519653,-0.166199,0.722046,0.425415,up
320404,-8.5,4.257812,-0.890625,0.046875,0.089844,0.003906,0.519653,-0.166199,0.722046,0.425415,up
320409,-8.539063,4.257812,-0.890625,0.046875,0.060547,-0.058594,0.519653,-0.166199,0.722046,0.425415,up
320414,-8.582031,4.332031,-0.964844,0.033203,0.050781,-0.080078,0.519653,-0.166199,0.722046,0.425415,up
320419,-8.621094,4.371094,-0.964844,0.033203,0.050781,-0.080078,0.519775,-0.166138,0.722656,0.424316,up
320424,-8.648438,4.410156,-0.964844,0.025391,0.039063,-0.099609,0.519775,-0.166138,0.722656,0.424316,up
320429,-8.648438,4.449219,-0.929687,-0.003906,0.025391,-0.103516,0.519775,-0.166138,0.722656,0.424316,up
320434,-8.6875,4.449219,-1.003906,-0.035156,0.021484,-0.113281,0.519775,-0.166138,0.722656,0.424316,up
320440,-8.6875,4.449219,-1.082031,-0.035156,0.021484,-0.113281,0.520325,-0.166748,0.722717,0.423279,up
320445,-8.726563,4.484375,-1.042969,-0.035156,0.021484,-0.113281,0.520325,-0.166748,0.722717,0.423279,up
320450,-8.652344,4.449219,-1.082031,-0.091797,0.005859,-0.105469,0.520569,-0.167114,0.722534,0.423157,up
320455,-8.6875,4.449219,-1.082031,-0.091797,0.005859,-0.105469,0.520569,-0.167114,0.722534,0.423157,up
320460,-8.726563,4.484375,-1.121094,-0.091797,0.005859,-0.105469,0.520691,-0.167297,0.722412,0.423096,up
320465,-8.652344,4.484375,-1.082031,-0.105469,0.005859,-0.083984,0.520691,-0.167297,0.722412,0.423096,up
320471,-8.6875,4.484375,-1.121094,-0.105469,0.003906,-0.072266,0.520691,-0.167297,0.722412,0.423096,up
320476,-8.652344,4.523437,-1.121094,-0.105469,0.003906,-0.072266,0.520996,-0.167969,0.722046,0.423157,up
320481,-8.652344,4.523437,-1.082031,-0.060547,0.023437,-0.023437,0.520996,-0.167969,0.722046,0.423157,up
320486,-8.652344,4.523437,-1.160156,-0.060547,0.023437,-0.023437,0.520996,-0.16803,0.721985,0.423157,up
320491,-8.6875,4.484375,-1.082031,-0.060547,0.023437,-0.023437,0.520935,-0.16803,0.722046,0.423096,up
320496,-8.652344,4.523437,-1.121094,-0.060547,0.023437,-0.023437,0.520874,-0.167969,0.722107,0.423096,up
320501,-8.652344,4.523437,-1.082031,-0.029297,0.072266,0.039063,0.520874,-0.167969,0.722107,0.423096,up
320506,-8.6875,4.523437,-1.082031,-0.029297,0.072266,0.039063,0.52063,-0.167847,0.722351,0.423096,up
320512,-8.648438,4.601562,-1.121094,-0.029297,0.072266,0.039063,0.520447,-0.167725,0.722473,0.423096,up
320517,-8.621094,4.601562,-1.082031,-0.017578,0.103516,0.095703,0.520447,-0.167725,0.722473,0.423096,up
320522,-8.6875,4.640625,-1.082031,-0.025391,0.113281,0.105469,0.520447,-0.167725,0.722473,0.423096,up
320527,-8.652344,4.640625,-1.121094,-0.025391,0.113281,0.105469,0.519653,-0.167297,0.723083,0.423218,up
320533,-8.617188,4.675781,-1.082031,-0.025391,0.113281,0.105469,0.519348,-0.167114,0.723267,0.42334,up
320538,-8.648438,4.714844,-1.082031,-0.042969,0.136719,0.169922,0.519348,-0.167114,0.723267,0.42334,up
320544,-8.621094,4.753906,-1.082031,-0.042969,0.136719,0.169922,0.518494,-0.166687,0.723755,0.423706,up
320549,-8.621094,4.714844,-1.121094,-0.042969,0.136719,0.169922,0.518127,-0.166504,0.723999,0.423889,up
320554,-8.617188,4.675781,-1.082031,-0.080078,0.154297,0.226562,0.518127,-0.166504,0.723999,0.423889,up
320559,-8.578125,4.640625,-1.121094,-0.078125,0.158203,0.242187,0.518127,-0.166504,0.723999,0.423889,up
320564,-8.578125,4.640625,-1.082031,-0.078125,0.158203,0.242187,0.516541,-0.16571,0.724731,0.424866,up
320570,-8.578125,4.484375,-1.121094,-0.078125,0.158203,0.242187,0.516541,-0.16571,0.724731,0.424866,up
320576,-8.5,4.484375,-1.121094,-0.095703,0.154297,0.279297,0.514832,-0.164795,0.725403,0.426086,up
320581,-8.503906,4.410156,-1.082031,-0.095703,0.154297,0.279297,0.514282,-0.16449,0.725647,0.426453,up
320586,-8.503906,4.410156,-1.121094,-0.095703,0.154297,0.279297,0.513733,-0.164124,0.725891,0.426819,up
320591,-8.464844,4.410156,-1.082031,-0.095703,0.154297,0.279297,0.513733,-0.164124,0.725891,0.426819,up
320596,-8.464844,4.410156,-1.042969,-0.050781,0.146484,0.277344,0.512695,-0.163391,0.72644,0.42749,up
320601,-8.425781,4.449219,-1.042969,-0.050781,0.146484,0.277344,0.512207,-0.162964,0.726746,0.427734,up
320606,-8.425781,4.449219,-1.121094,-0.050781,0.146484,0.277344,0.511658,-0.162537,0.727051,0.427979,up
320611,-8.425781,4.484375,-1.121094,-0.050781,0.146484,0.277344,0.511658,-0.162537,0.727051,0.427979,up
320616,-8.382813,4.523437,-1.082031,0.013672,0.136719,0.269531,0.511658,-0.162537,0.727051,0.427979,up
320621,-8.386719,4.601562,-1.160156,0.013672,0.136719,0.269531,0.510193,-0.161133,0.728088,0.428589,up
320626,-8.386719,4.601562,-1.121094,0.013672,0.136719,0.269531,0.509766,-0.160706,0.728333,0.428711,up
320631,-8.34375,4.640625,-1.121094,0.013672,0.136719,0.269531,0.509766,-0.160706,0.728333,0.428711,up
320636,-8.34375,4.640625,-1.121094,0.025391,0.105469,0.275391,0.509766,-0.160706,0.728333,0.428711,up
320641,-8.347656,4.601562,-1.121094,0.025391,0.105469,0.275391,0.508423,-0.15918,0.729248,0.429382,up
320646,-8.308594,4.640625,-1.121094,-0.023437,0.083984,0.277344,0.508423,-0.15918,0.729248,0.429382,up
320651,-8.269531,4.640625,-1.160156,-0.023437,0.083984,0.277344,0.508057,-0.158691,0.729431,0.429626,up
320656,-8.269531,4.675781,-1.121094,-0.023437,0.083984,0.277344,0.507629,-0.158203,0.729675,0.429993,up
320661,-8.269531,4.640625,-1.121094,-0.082031,0.074219,0.287109,0.507141,-0.157715,0.729858,0.43042,up
320666,-8.308594,4.640625,-1.160156,-0.082031,0.074219,0.287109,0.506714,-0.157288,0.72998,0.430786,up
320671,-8.34375,4.640625,-1.160156,-0.082031,0.074219,0.287109,0.506287,-0.15686,0.730103,0.431213,up
320676,-8.347656,4.601562,-1.121094,-0.121094,0.050781,0.279297,0.505859,-0.156494,0.730225,0.431702,up
320681,-8.265625,4.5625,-1.121094,-0.121094,0.050781,0.279297,0.505432,-0.156067,0.730286,0.432251,up
320686,-8.265625,4.5625,-1.121094,-0.121094,0.050781,0.279297,0.505066,-0.155701,0.730347,0.432739,up
320691,-8.304688,4.5625,-1.121094,-0.130859,0.029297,0.267578,0.505066,-0.155701,0.730347,0.432739,up
320696,-8.269531,4.523437,-1.121094,-0.130859,0.029297,0.267578,0.504395,-0.154968,0.730408,0.433716,up
320701,-8.308594,4.523437,-1.160156,-0.117188,0.009766,0.244141,0.504028,-0.154602,0.730408,0.434265,up
320706,-8.308594,4.523437,-1.121094,-0.117188,0.009766,0.244141,0.503723,-0.154236,0.730408,0.434753,up
320711,-8.308594,4.523437,-1.160156,-0.117188,0.009766,0.244141,0.503174,-0.153564,0.730408,0.435547,up
320716,-8.347656,4.5625,-1.121094,-0.117188,0.009766,0.244141,0.503174,-0.153564,0.730408,0.435547,up
320721,-8.347656,4.5625,-1.121094,-0.083984,-0.005859,0.189453,0.503174,-0.153564,0.730408,0.435547,up
320726,-8.347656,4.5625,-1.082031,-0.083984,-0.005859,0.189453,0.502747,-0.152832,0.730408,0.436279,up
320731,-8.421875,4.601562,-1.160156,-0.083984,-0.005859,0.189453,0.502563,-0.152527,0.730408,0.436646,up
320736,-8.382813,4.640625,-1.121094,-0.076172,-0.019531,0.148437,0.502441,-0.152222,0.730408,0.436951,up
320741,-8.464844,4.601562,-1.121094,-0.076172,-0.019531,0.148437,0.502319,-0.151978,0.730347,0.437256,up
320746,-8.460938,4.640625,-1.121094,-0.076172,-0.019531,0.148437,0.502197,-0.151733,0.730347,0.4375,up
320752,-8.460938,4.640625,-1.160156,-0.068359,-0.019531,0.09375,0.502197,-0.151733,0.730347,0.4375,up
320757,-8.425781,4.675781,-1.121094,-0.068359,-0.019531,0.09375,0.501953,-0.151184,0.730225,0.438171,up
320762,-8.464844,4.753906,-1.121094,-0.068359,-0.019531,0.09375,0.501892,-0.151001,0.730164,0.438416,up
320767,-8.464844,4.714844,-1.160156,-0.068359,-0.019531,0.09375,0.501892,-0.15094,0.730103,0.438538,up
320772,-8.503906,4.753906,-1.160156,-0.064453,-0.021484,0.046875,0.501892,-0.150818,0.72998,0.438721,up
320777,-8.503906,4.792969,-1.121094,-0.064453,-0.021484,0.046875,0.501892,-0.150757,0.729919,0.438843,up
320782,-8.503906,4.832031,-1.121094,-0.064453,-0.021484,0.046875,0.501892,-0.150696,0.729858,0.438965,up
320787,-8.503906,4.792969,-1.082031,-0.058594,-0.021484,0.023437,0.501892,-0.150635,0.729797,0.439087,up
320792,-8.503906,4.832031,-1.082031,-0.058594,-0.021484,0.023437,0.501892,-0.150635,0.729736,0.439209,up
320797,-8.578125,4.90625,-1.082031,-0.058594,-0.021484,0.023437,0.501892,-0.150574,0.729675,0.439331,up
320803,-8.648438,4.945312,-1.082031,-0.058594,-0.021484,0.023437,0.501892,-0.150574,0.729614,0.439392,up
320808,-8.648438,4.945312,-1.082031,-0.052734,-0.001953,0.009766,0.501892,-0.150574,0.729553,0.439514,up
320813,-8.652344,5.023437,-1.003906,-0.052734,-0.001953,0.009766,0.501892,-0.150574,0.729553,0.439575,up
320820,-8.652344,5.023437,-1.003906,-0.052734,-0.001953,0.009766,0.501892,-0.150513,0.729492,0.439697,up
320826,-8.652344,5.0625,-0.929687,-0.056641,-0.009766,0.013672,0.501892,-0.150513,0.729492,0.439697,up
320831,-8.617188,5.023437,-0.964844,-0.056641,-0.005859,0.011719,0.501892,-0.150452,0.729309,0.439941,up
320836,-8.578125,4.984375,-0.964844,-0.056641,-0.005859,0.011719,0.501892,-0.150452,0.729309,0.439941,up
320841,-8.539063,4.945312,-0.929687,-0.056641,-0.005859,0.011719,0.501892,-0.150391,0.729309,0.440002,up
320846,-8.503906,4.945312,-0.964844,-0.054687,-0.015625,0.027344,0.501892,-0.150391,0.729309,0.440002,up
320852,-8.460938,4.90625,-0.964844,-0.050781,-0.013672,0.048828,0.501892,-0.150391,0.729309,0.440002,up
320857,-8.425781,4.871094,-0.929687,-0.050781,-0.013672,0.048828,0.501831,-0.150085,0.729065,0.440491,up
320862,-8.382813,4.871094,-0.890625,-0.050781,-0.013672,0.048828,0.501831,-0.149963,0.729065,0.440613,up
320867,-8.464844,4.90625,-0.929687,-0.015625,-0.021484,0.058594,0.501831,-0.149963,0.729065,0.440613,up
320872,-8.382813,4.871094,-0.929687,-0.015625,-0.021484,0.058594,0.501831,-0.149658,0.729065,0.440735,up
320878,-8.386719,4.90625,-0.929687,-0.015625,-0.021484,0.058594,0.501831,-0.149414,0.729065,0.440796,up
320883,-8.347656,4.90625,-0.929687,0.033203,-0.023437,0.060547,0.501831,-0.14917,0.729126,0.440796,up
320888,-8.347656,4.90625,-0.929687,0.058594,-0.035156,0.060547,0.501831,-0.148926,0.729187,0.440796,up
320894,-8.386719,4.90625,-0.929687,0.058594,-0.035156,0.060547,0.501892,-0.148621,0.729248,0.440735,up
320901,-8.382813,4.90625,-0.964844,0.085937,-0.037109,0.064453,0.501892,-0.148621,0.729248,0.440735,up
320907,-8.34375,4.90625,-0.964844,0.091797,-0.041016,0.058594,0.502075,-0.147705,0.729492,0.44043,up
320913,-8.382813,4.945312,-0.929687,0.091797,-0.041016,0.058594,0.502136,-0.1474,0.729553,0.440369,up
320918,-8.382813,4.945312,-0.929687,0.087891,-0.048828,0.064453,0.502197,-0.147034,0.729675,0.440247,up
320923,-8.308594,4.945312,-0.890625,0.087891,-0.048828,0.064453,0.502258,-0.146667,0.729736,0.440186,up
320929,-8.308594,4.945312,-0.890625,0.087891,-0.048828,0.064453,0.502319,-0.146423,0.729736,0.440063,up
320934,-8.308594,4.945312,-0.890625,0.060547,-0.066406,0.046875,0.502319,-0.146423,0.729736,0.440063,up
320939,-8.308594,4.984375,-0.851562,0.052734,-0.070312,0.046875,0.502319,-0.146423,0.729736,0.440063,up
320945,-8.269531,4.945312,-0.890625,0.042969,-0.076172,0.035156,0.502319,-0.146423,0.729736,0.440063,up
320950,-8.269531,4.945312,-0.929687,0.046875,-0.083984,0.039063,0.502319,-0.146423,0.729736,0.440063,up
320955,-8.304688,5.023437,-0.890625,0.027344,-0.078125,0.029297,0.502319,-0.146423,0.729736,0.440063,up
320961,-8.238281,4.984375,-0.929687,0.027344,-0.078125,0.029297,0.503113,-0.144897,0.729614,0.43988,up
320966,-8.238281,4.945312,-0.964844,0.027344,-0.078125,0.029297,0.503296,-0.144653,0.729614,0.43988,up
320971,-8.238281,4.984375,-0.929687,0.027344,-0.078125,0.029297,0.503479,-0.144409,0.729553,0.439819,up
320977,-8.160156,4.984375,-0.929687,0.037109,-0.087891,0.025391,0.503784,-0.143982,0.729431,0.439758,up
320982,-8.234375,4.945312,-0.890625,0.037109,-0.087891,0.025391,0.503967,-0.143738,0.729431,0.439697,up
320987,-8.199219,4.945312,-0.890625,0.037109,-0.087891,0.025391,0.50415,-0.143433,0.72937,0.439636,up
320992,-8.195313,4.984375,-0.929687,0.060547,-0.082031,0.027344,0.50415,-0.143433,0.72937,0.439636,up
320997,-8.238281,4.984375,-0.929687,0.060547,-0.082031,0.027344,0.504333,-0.143188,0.72937,0.439514,up
321002,-8.234375,5.023437,-0.964844,0.082031,-0.082031,0.017578,0.504456,-0.142944,0.72937,0.439453,up
321007,-8.234375,4.984375,-0.964844,0.082031,-0.082031,0.017578,0.504822,-0.142395,0.72937,0.439209,up
321012,-8.195313,5.023437,-0.929687,0.082031,-0.082031,0.017578,0.505005,-0.142029,0.72937,0.439026,up
321017,-8.195313,5.023437,-0.929687,0.082031,-0.082031,0.017578,0.505127,-0.141785,0.729431,0.438904,up
321022,-8.195313,5.023437,-0.929687,0.082031,-0.082031,0.017578,0.50531,-0.141418,0.729492,0.438721,up
321027,-8.234375,5.0625,-0.929687,0.082031,-0.082031,0.017578,0.50531,-0.141418,0.729492,0.438721,up
321032,-8.265625,5.023437,-0.929687,0.126953,-0.074219,0.039063,0.505615,-0.140686,0.729614,0.438416,up
321037,-8.234375,5.0625,-0.929687,0.126953,-0.074219,0.039063,0.505798,-0.14032,0.729736,0.438171,up
321042,-8.308594,5.097656,-0.929687,0.134766,-0.080078,0.054687,0.505798,-0.14032,0.729736,0.438171,up
321048,-8.269531,5.097656,-0.890625,0.134766,-0.080078,0.054687,0.506104,-0.139526,0.729858,0.437805,up
321053,-8.308594,5.136719,-0.929687,0.134766,-0.080078,0.054687,0.506226,-0.13916,0.72998,0.437622,up
321059,-8.308594,5.136719,-0.929687,0.134766,-0.080078,0.054687,0.506409,-0.138733,0.730042,0.437378,up
321064,-8.308594,5.136719,-0.929687,0.144531,-0.091797,0.052734,0.506409,-0.138733,0.730042,0.437378,up
321070,-8.269531,5.136719,-0.929687,0.128906,-0.095703,0.064453,0.506409,-0.138733,0.730042,0.437378,up
321076,-8.308594,5.136719,-0.890625,0.126953,-0.097656,0.058594,0.506409,-0.138733,0.730042,0.437378,up
321081,-8.238281,5.097656,-0.964844,0.123047,-0.09375,0.064453,0.506409,-0.138733,0.730042,0.437378,up
321087,-8.269531,5.097656,-0.929687,0.117188,-0.097656,0.072266,0.506409,-0.138733,0.730042,0.437378,up
321092,-8.234375,5.097656,-0.929687,0.117188,-0.097656,0.072266,0.507568,-0.135742,0.730408,0.43634,up
321097,-8.234375,5.097656,-0.929687,0.121094,-0.103516,0.076172,0.507568,-0.135742,0.730408,0.43634,up
321102,-8.234375,5.097656,-0.929687,0.121094,-0.103516,0.076172,0.507751,-0.135254,0.730469,0.436218,up
321107,-8.234375,5.0625,-0.890625,0.134766,-0.107422,0.078125,0.507751,-0.135254,0.730469,0.436218,up
321113,-8.234375,5.0625,-0.929687,0.130859,-0.111328,0.083984,0.508118,-0.134399,0.73053,0.435974,up
321118,-8.234375,5.097656,-0.890625,0.130859,-0.111328,0.083984,0.508484,-0.133362,0.730652,0.43573,up
321124,-8.234375,5.097656,-0.890625,0.130859,-0.111328,0.083984,0.508667,-0.132874,0.730652,0.435608,up
321129,-8.195313,5.097656,-0.851562,0.130859,-0.111328,0.083984,0.50885,-0.132324,0.730713,0.435425,up
321134,-8.265625,5.097656,-0.851562,0.162109,-0.117188,0.083984,0.50885,-0.132324,0.730713,0.435425,up
321140,-8.234375,5.097656,-0.890625,0.15625,-0.119141,0.089844,0.50885,-0.132324,0.730713,0.435425,up
321145,-8.238281,5.0625,-0.851562,0.15625,-0.119141,0.089844,0.509399,-0.130737,0.730896,0.434937,up
321150,-8.234375,5.0625,-0.890625,0.144531,-0.125,0.09375,0.509399,-0.130737,0.730896,0.434937,up
321156,-8.234375,5.0625,-0.929687,0.136719,-0.126953,0.082031,0.509399,-0.130737,0.730896,0.434937,up
321162,-8.199219,5.023437,-0.851562,0.130859,-0.130859,0.076172,0.510193,-0.128723,0.731018,0.434387,up
321167,-8.199219,5.0625,-0.929687,0.111328,-0.132812,0.074219,0.510193,-0.128723,0.731018,0.434387,up
321172,-8.195313,5.023437,-0.890625,0.111328,-0.132812,0.074219,0.510437,-0.128296,0.731018,0.434326,up
321177,-8.15625,5.023437,-0.964844,0.105469,-0.130859,0.0625,0.510437,-0.128296,0.731018,0.434326,up
321182,-8.199219,5.0625,-0.929687,0.105469,-0.130859,0.0625,0.510864,-0.12738,0.730957,0.434143,up
321187,-8.160156,5.023437,-0.929687,0.105469,-0.130859,0.0625,0.511108,-0.126831,0.730957,0.434021,up
321193,-8.160156,4.984375,-0.929687,0.123047,-0.136719,0.066406,0.511597,-0.125916,0.730957,0.433777,up
321198,-8.117188,5.023437,-0.964844,0.123047,-0.136719,0.066406,0.511841,-0.125427,0.730957,0.433655,up
321204,-8.117188,5.023437,-0.964844,0.123047,-0.136719,0.066406,0.512085,-0.124939,0.730957,0.433472,up
321209,-8.117188,5.023437,-0.964844,0.167969,-0.154297,0.078125,0.512329,-0.12439,0.730957,0.433289,up
321214,-8.078125,5.023437,-0.964844,0.167969,-0.154297,0.078125,0.512573,-0.12384,0.731018,0.433105,up
321219,-8.042969,5.0625,-1.003906,0.167969,-0.154297,0.078125,0.512573,-0.12384,0.731018,0.433105,up
321225,-8.039063,5.023437,-1.003906,0.179687,-0.144531,0.076172,0.512573,-0.12384,0.731018,0.433105,up
321231,-8.0,5.023437,-1.042969,0.173828,-0.144531,0.072266,0.512573,-0.12384,0.731018,0.433105,up
321237,-8.0,5.023437,-1.042969,0.177734,-0.134766,0.070312,0.512573,-0.12384,0.731018,0.433105,up
321242,-8.0,5.023437,-1.042969,0.177734,-0.134766,0.070312,0.513794,-0.121094,0.731201,0.432068,up
321247,-8.0,5.023437,-1.042969,0.160156,-0.119141,0.0625,0.513794,-0.121094,0.731201,0.432068,up
321252,-8.0,4.984375,-1.042969,0.160156,-0.119141,0.0625,0.514282,-0.120056,0.731262,0.431702,up
321257,-8.0,5.023437,-1.042969,0.154297,-0.105469,0.058594,0.514465,-0.119568,0.731323,0.431519,up
321263,-8.042969,5.0625,-1.121094,0.164062,-0.107422,0.0625,0.514832,-0.118652,0.731445,0.431091,up
321268,-8.039063,5.023437,-1.042969,0.164062,-0.107422,0.0625,0.515015,-0.118225,0.731506,0.430908,up
321273,-8.082031,5.097656,-1.042969,0.164062,-0.107422,0.0625,0.515198,-0.117737,0.731628,0.430603,up
321279,-8.121094,5.097656,-1.042969,0.179687,-0.064453,0.039063,0.51532,-0.11731,0.73175,0.430359,up
321284,-8.15625,5.175781,-1.042969,0.179687,-0.064453,0.039063,0.515442,-0.116882,0.731873,0.430054,up
321289,-8.160156,5.214844,-1.042969,0.1875,-0.060547,0.039063,0.515442,-0.116882,0.731873,0.430054,up
321294,-8.195313,5.253906,-1.042969,0.1875,-0.060547,0.039063,0.515747,-0.116089,0.732178,0.429504,up
321299,-8.238281,5.253906,-1.042969,0.179687,-0.0625,0.039063,0.515747,-0.116089,0.732178,0.429504,up
321304,-8.238281,5.253906,-0.964844,0.169922,-0.058594,0.033203,0.515747,-0.116089,0.732178,0.429504,up
321309,-8.238281,5.253906,-1.003906,0.169922,-0.058594,0.033203,0.516113,-0.114929,0.732544,0.428711,up
321315,-8.265625,5.253906,-1.042969,0.169922,-0.058594,0.033203,0.516113,-0.114929,0.732544,0.428711,up
321320,-8.265625,5.214844,-1.003906,0.117188,-0.074219,0.048828,0.516113,-0.114929,0.732544,0.428711,up
321325,-8.265625,5.214844,-1.003906,0.113281,-0.082031,0.046875,0.516113,-0.114929,0.732544,0.428711,up
321330,-8.304688,5.214844,-1.003906,0.113281,-0.082031,0.046875,0.516663,-0.113525,0.732788,0.42804,up
321336,-8.308594,5.175781,-1.042969,0.083984,-0.089844,0.046875,0.516663,-0.113525,0.732788,0.42804,up
321342,-8.308594,5.175781,-1.003906,0.082031,-0.099609,0.050781,0.516663,-0.113525,0.732788,0.42804,up
321347,-8.34375,5.175781,-1.042969,0.082031,-0.099609,0.050781,0.517334,-0.112183,0.732727,0.427673,up
321352,-8.34375,5.175781,-1.003906,0.082031,-0.099609,0.050781,0.517334,-0.112183,0.732727,0.427673,up
321358,-8.34375,5.175781,-1.003906,0.103516,-0.109375,0.039063,0.517334,-0.112183,0.732727,0.427673,up
321363,-8.34375,5.175781,-1.042969,0.107422,-0.115234,0.048828,0.5177,-0.111511,0.732727,0.427429,up
321368,-8.308594,5.175781,-1.042969,0.107422,-0.115234,0.048828,0.518066,-0.110779,0.732666,0.427246,up
321373,-8.34375,5.140625,-1.082031,0.107422,-0.115234,0.048828,0.518066,-0.110779,0.732666,0.427246,up
321378,-8.308594,5.175781,-1.003906,0.128906,-0.121094,0.052734,0.518066,-0.110779,0.732666,0.427246,up
321384,-8.308594,5.140625,-1.082031,0.128906,-0.121094,0.052734,0.518677,-0.109558,0.732605,0.42688,up
321389,-8.308594,5.140625,-1.082031,0.132812,-0.140625,0.0625,0.518921,-0.10907,0.732605,0.426758,up
321394,-8.308594,5.175781,-1.082031,0.132812,-0.140625,0.0625,0.519165,-0.108582,0.732605,0.426636,up
321400,-8.269531,5.175781,-1.042969,0.132812,-0.140625,0.0625,0.519348,-0.108154,0.732544,0.426514,up
321405,-8.269531,5.175781,-1.082031,0.126953,-0.140625,0.076172,0.519348,-0.108154,0.732544,0.426514,up
321411,-8.269531,5.175781,-1.082031,0.123047,-0.146484,0.083984,0.519348,-0.108154,0.732544,0.426514,up
321416,-8.226563,5.140625,-1.082031,0.126953,-0.138672,0.080078,0.519348,-0.108154,0.732544,0.426514,up
321421,-8.226563,5.140625,-1.042969,0.126953,-0.140625,0.085937,0.519348,-0.108154,0.732544,0.426514,up
321426,-8.199219,5.140625,-1.082031,0.130859,-0.138672,0.085937,0.519348,-0.108154,0.732544,0.426514,up
321431,-8.195313,5.101562,-1.042969,0.125,-0.134766,0.09375,0.519348,-0.108154,0.732544,0.426514,up
321436,-8.195313,5.0625,-1.042969,0.125,-0.134766,0.09375,0.519348,-0.108154,0.732544,0.426514,up
321442,-8.160156,5.0625,-1.003906,0.125,-0.134766,0.09375,0.520935,-0.104187,0.732422,0.425842,up
321448,-8.15625,5.023437,-0.964844,0.136719,-0.123047,0.109375,0.520935,-0.104187,0.732422,0.425842,up
321453,-8.15625,5.023437,-1.003906,0.134766,-0.115234,0.107422,0.521362,-0.102722,0.732483,0.425598,up
321458,-8.117188,4.984375,-1.042969,0.134766,-0.115234,0.107422,0.521362,-0.102722,0.732483,0.425598,up
321463,-8.15625,4.949219,-0.964844,0.144531,-0.117188,0.107422,0.521362,-0.102722,0.732483,0.425598,up
321468,-8.121094,4.984375,-0.929687,0.144531,-0.117188,0.107422,0.521729,-0.101135,0.732605,0.425293,up
321473,-8.117188,4.949219,-0.964844,0.144531,-0.117188,0.107422,0.521851,-0.100586,0.732666,0.425171,up
321478,-8.117188,4.949219,-0.964844,0.144531,-0.117188,0.107422,0.521851,-0.100586,0.732666,0.425171,up
321483,-8.082031,4.949219,-0.929687,0.150391,-0.119141,0.107422,0.521851,-0.100586,0.732666,0.425171,up
321488,-8.082031,4.949219,-0.929687,0.150391,-0.119141,0.107422,0.522278,-0.098999,0.732727,0.424927,up
321493,-8.078125,4.949219,-0.964844,0.150391,-0.119141,0.107422,0.5224,-0.09845,0.732788,0.424805,up
321498,-8.042969,4.910156,-0.964844,0.150391,-0.119141,0.107422,0.5224,-0.09845,0.732788,0.424805,up
321503,-8.039063,4.949219,-0.964844,0.148437,-0.125,0.099609,0.5224,-0.09845,0.732788,0.424805,up
321508,-8.082031,4.871094,-0.964844,0.148437,-0.125,0.099609,0.522827,-0.096863,0.732849,0.424438,up
321513,-8.042969,4.910156,-1.003906,0.148437,-0.125,0.099609,0.522827,-0.096863,0.732849,0.424438,up
321518,-8.042969,4.910156,-0.964844,0.130859,-0.117188,0.087891,0.522827,-0.096863,0.732849,0.424438,up
321524,-8.0,4.949219,-1.003906,0.130859,-0.117188,0.087891,0.523315,-0.095337,0.73291,0.424133,up
321530,-8.003906,4.910156,-1.003906,0.130859,-0.117188,0.087891,0.523437,-0.094849,0.732971,0.424011,up
321535,-8.039063,4.949219,-0.964844,0.130859,-0.119141,0.070312,0.523621,-0.09436,0.732971,0.423889,up
321540,-8.042969,4.910156,-1.003906,0.130859,-0.119141,0.070312,0.523804,-0.093872,0.732971,0.423767,up
321545,-8.0,4.949219,-1.042969,0.130859,-0.119141,0.070312,0.523804,-0.093872,0.732971,0.423767,up
321550,-8.0,4.949219,-1.003906,0.107422,-0.125,0.070312,0.523804,-0.093872,0.732971,0.423767,up
321555,-7.960937,4.910156,-1.082031,0.103516,-0.128906,0.060547,0.523804,-0.093872,0.732971,0.423767,up
321560,-7.964844,4.949219,-1.121094,0.099609,-0.126953,0.048828,0.523804,-0.093872,0.732971,0.423767,up
321565,-7.964844,4.949219,-1.121094,0.097656,-0.128906,0.054687,0.523804,-0.093872,0.732971,0.423767,up
321571,-7.960937,4.949219,-1.15625,0.083984,-0.132812,0.046875,0.524902,-0.091553,0.732788,0.423279,up
321576,-7.960937,4.984375,-1.15625,0.080078,-0.130859,0.033203,0.524902,-0.091553,0.732788,0.423279,up
321581,-7.964844,4.984375,-1.195313,0.080078,-0.130859,0.033203,0.524902,-0.091553,0.732788,0.423279,up
321587,-7.960937,5.023437,-1.234375,0.080078,-0.130859,0.033203,0.525574,-0.090576,0.732544,0.422974,up
321593,-7.964844,5.023437,-1.195313,0.0625,-0.125,0.019531,0.525574,-0.090576,0.732544,0.422974,up
321599,-7.925781,4.984375,-1.234375,0.0625,-0.125,0.019531,0.526245,-0.089722,0.7323,0.422791,up
321604,-7.960937,5.023437,-1.234375,0.058594,-0.111328,0.007813,0.526489,-0.089478,0.732239,0.422668,up
321610,-8.003906,5.101562,-1.195313,0.058594,-0.111328,0.007813,0.526672,-0.089294,0.732117,0.422607,up
321615,-8.003906,5.101562,-1.195313,0.058594,-0.111328,0.007813,0.526917,-0.089111,0.732056,0.422546,up
321621,-8.003906,5.0625,-1.195313,0.058594,-0.111328,0.007813,0.526917,-0.089111,0.732056,0.422546,up
321627,-8.082031,5.101562,-1.195313,-0.029297,-0.089844,-0.042969,0.526917,-0.089111,0.732056,0.422546,up
321632,-8.078125,5.101562,-1.15625,-0.042969,-0.089844,-0.054687,0.526917,-0.089111,0.732056,0.422546,up
321638,-8.117188,5.101562,-1.15625,-0.072266,-0.089844,-0.070312,0.527954,-0.089233,0.731201,0.422668,up
321643,-8.078125,5.140625,-1.121094,-0.072266,-0.089844,-0.070312,0.527954,-0.089233,0.731201,0.422668,up
321648,-8.078125,5.140625,-1.121094,-0.162109,-0.082031,-0.089844,0.527954,-0.089233,0.731201,0.422668,up
321654,-8.082031,5.101562,-1.082031,-0.162109,-0.082031,-0.089844,0.528564,-0.089966,0.730347,0.423157,up
321659,-8.082031,5.0625,-1.082031,-0.207031,-0.080078,-0.09375,0.528809,-0.090332,0.730042,0.423462,up
321665,-8.078125,5.023437,-1.082031,-0.207031,-0.080078,-0.09375,0.528992,-0.090698,0.729675,0.423706,up
321670,-8.082031,5.0625,-1.042969,-0.207031,-0.080078,-0.09375,0.529114,-0.091003,0.72937,0.42395,up
321677,-8.039063,4.984375,-0.964844,-0.197266,-0.060547,-0.085937,0.529114,-0.091003,0.72937,0.42395,up
321683,-8.039063,4.984375,-0.964844,-0.185547,-0.046875,-0.078125,0.529541,-0.09198,0.728516,0.424683,up
321688,-8.039063,4.984375,-0.964844,-0.185547,-0.046875,-0.078125,0.529541,-0.09198,0.728516,0.424683,up
321693,-8.082031,4.949219,-0.929687,-0.091797,-0.005859,-0.052734,0.529541,-0.09198,0.728516,0.424683,up
321698,-8.078125,4.910156,-0.929687,-0.091797,-0.005859,-0.052734,0.529724,-0.092468,0.72821,0.424988,up
321703,-8.082031,4.949219,-0.890625,-0.091797,-0.005859,-0.052734,0.529724,-0.092651,0.728088,0.425049,up
321708,-8.078125,4.949219,-0.8125,-0.091797,-0.005859,-0.052734,0.529724,-0.092773,0.728088,0.424988,up
321713,-8.082031,4.949219,-0.734375,-0.091797,-0.005859,-0.052734,0.529663,-0.092896,0.728149,0.424927,up
321719,-8.082031,4.984375,-0.773437,0.060547,0.0625,-0.017578,0.529541,-0.092896,0.728455,0.424622,up
321724,-8.121094,4.984375,-0.699219,0.060547,0.0625,-0.017578,0.529419,-0.092834,0.728699,0.424377,up
321729,-8.121094,5.023437,-0.699219,0.060547,0.0625,-0.017578,0.529297,-0.092773,0.728943,0.424072,up
321734,-8.121094,5.0625,-0.660156,0.154297,0.099609,0.0,0.529114,-0.092712,0.729309,0.423767,up
321739,-8.15625,5.140625,-0.542969,0.154297,0.099609,0.0,0.528992,-0.092529,0.729614,0.423462,up
321744,-8.199219,5.175781,-0.542969,0.154297,0.099609,0.0,0.52887,-0.092346,0.729919,0.423096,up
321749,-8.195313,5.214844,-0.46875,0.205078,0.068359,0.033203,0.528748,-0.092102,0.730286,0.422729,up
321755,-8.195313,5.253906,-0.46875,0.205078,0.068359,0.033203,0.528625,-0.091797,0.73053,0.422424,up
321760,-8.265625,5.292969,-0.46875,0.205078,0.068359,0.033203,0.528503,-0.091492,0.730835,0.422119,up
321765,-8.269531,5.253906,-0.429687,0.205078,0.068359,0.033203,0.528442,-0.091064,0.731079,0.421875,up
321771,-8.265625,5.253906,-0.46875,0.169922,-0.003906,0.095703,0.528381,-0.090698,0.731323,0.421631,up
321776,-8.265625,5.253906,-0.507812,0.166016,-0.033203,0.109375,0.528381,-0.090698,0.731323,0.421631,up
321781,-8.304688,5.253906,-0.507812,0.152344,-0.052734,0.109375,0.528381,-0.090698,0.731323,0.421631,up
321786,-8.304688,5.253906,-0.46875,0.154297,-0.070312,0.111328,0.528381,-0.090698,0.731323,0.421631,up
321792,-8.265625,5.292969,-0.507812,0.158203,-0.089844,0.113281,0.528381,-0.090698,0.731323,0.421631,up
321798,-8.230469,5.332031,-0.542969,0.164062,-0.097656,0.103516,0.528381,-0.090698,0.731323,0.421631,up
321804,-8.226563,5.367187,-0.542969,0.179687,-0.113281,0.09375,0.528381,-0.090698,0.731323,0.421631,up
321809,-8.269531,5.367187,-0.507812,0.179687,-0.113281,0.09375,0.528809,-0.087097,0.732056,0.420532,up
321814,-8.269531,5.40625,-0.582031,0.191406,-0.115234,0.089844,0.529114,-0.08606,0.732239,0.420105,up
321819,-8.226563,5.40625,-0.582031,0.191406,-0.115234,0.089844,0.529297,-0.085449,0.7323,0.419861,up
321824,-8.226563,5.40625,-0.582031,0.191406,-0.123047,0.070312,0.529297,-0.085449,0.7323,0.419861,up
321829,-8.195313,5.445312,-0.582031,0.191406,-0.123047,0.070312,0.529663,-0.084412,0.732422,0.419373,up
321834,-8.226563,5.484375,-0.582031,0.191406,-0.123047,0.070312,0.529846,-0.083862,0.732483,0.419128,up
321839,-8.226563,5.523437,-0.542969,0.158203,-0.128906,0.058594,0.529846,-0.083862,0.732483,0.419128,up
321844,-8.226563,5.558594,-0.542969,0.158203,-0.128906,0.058594,0.530273,-0.082886,0.732544,0.418762,up
321849,-8.230469,5.597656,-0.507812,0.125,-0.158203,0.076172,0.530273,-0.082886,0.732544,0.418762,up
321854,-8.269531,5.636719,-0.390625,0.125,-0.158203,0.076172,0.530701,-0.08197,0.732422,0.418518,up
321859,-8.269531,5.636719,-0.429687,0.078125,-0.199219,0.101563,0.531006,-0.081421,0.7323,0.418518,up
321864,-8.269531,5.597656,-0.429687,0.078125,-0.199219,0.101563,0.531311,-0.080872,0.732117,0.418579,up
321869,-8.265625,5.597656,-0.351563,0.078125,-0.199219,0.101563,0.531311,-0.080872,0.732117,0.418579,up
321874,-8.269531,5.558594,-0.351563,0.005859,-0.289063,0.15625,0.531311,-0.080872,0.732117,0.418579,up
321879,-8.304688,5.523437,-0.390625,0.005859,-0.289063,0.15625,0.53241,-0.079041,0.73114,0.419189,up
321884,-8.265625,5.484375,-0.390625,0.005859,-0.289063,0.15625,0.53241,-0.079041,0.73114,0.419189,up
321889,-8.308594,5.484375,-0.351563,0.005859,-0.289063,0.15625,0.532837,-0.078308,0.730713,0.419495,up
321894,-8.265625,5.523437,-0.316406,-0.009766,-0.398438,0.212891,0.533813,-0.076782,0.729858,0.420105,up
321899,-8.308594,5.558594,-0.351563,0.029297,-0.443359,0.214844,0.533813,-0.076782,0.729858,0.420105,up
321904,-8.347656,5.597656,-0.351563,0.052734,-0.476562,0.214844,0.534424,-0.075806,0.729309,0.420471,up
321909,-8.347656,5.714844,-0.351563,0.052734,-0.476562,0.214844,0.535645,-0.073914,0.728271,0.421021,up
321914,-8.308594,5.789062,-0.351563,0.056641,-0.539062,0.207031,0.535645,-0.073914,0.728271,0.421021,up
321919,-8.304688,5.753906,-0.351563,0.039063,-0.556641,0.191406,0.536499,-0.072815,0.7276,0.421265,up
321924,-8.308594,5.867187,-0.277344,0.039063,-0.556641,0.191406,0.538025,-0.070862,0.726318,0.421814,up
321929,-8.304688,5.945312,-0.277344,-0.03125,-0.599609,0.177734,0.538025,-0.070862,0.726318,0.421814,up
321934,-8.304688,6.019531,-0.316406,-0.03125,-0.599609,0.177734,0.539001,-0.069824,0.725525,0.42218,up
321939,-8.304688,6.136719,-0.238281,-0.083984,-0.626953,0.175781,0.539001,-0.069824,0.725525,0.42218,up
321944,-8.304688,6.136719,-0.238281,-0.191406,-0.724609,0.169922,0.540894,-0.068054,0.723694,0.423157,up
321949,-8.265625,6.136719,-0.085937,-0.257813,-0.775391,0.185547,0.541992,-0.067139,0.722534,0.423828,up
321954,-8.265625,6.136719,-0.085937,-0.257813,-0.775391,0.185547,0.544128,-0.065613,0.720154,0.425415,up
321959,-8.308594,6.058594,-0.007813,-0.257813,-0.775391,0.185547,0.545349,-0.064819,0.718689,0.426514,up
321964,-8.347656,5.945312,-0.007813,-0.257813,-0.775391,0.185547,0.54657,-0.064026,0.71698,0.427917,up
321969,-8.308594,5.789062,0.03125,-0.257813,-0.775391,0.185547,0.54657,-0.064026,0.71698,0.427917,up
321974,-8.308594,5.636719,0.066406,-0.548828,-0.910156,0.330078,0.548828,-0.062439,0.713562,0.430969,up
321979,-8.308594,5.367187,0.144531,-0.548828,-0.910156,0.330078,0.550049,-0.061523,0.711609,0.432739,up
321984,-8.304688,5.253906,0.183594,-0.548828,-0.910156,0.330078,0.550049,-0.061523,0.711609,0.432739,up
321989,-8.308594,5.175781,0.183594,-0.546875,-0.992187,0.402344,0.550049,-0.061523,0.711609,0.432739,up
321994,-8.269531,4.910156,0.222656,-0.546875,-0.992187,0.402344,0.552429,-0.05957,0.707825,0.436157,up
321999,-8.34375,4.71875,0.261719,-0.402344,-1.068359,0.337891,0.553833,-0.05835,0.70575,0.437927,up
322004,-8.269531,4.640625,0.335938,-0.402344,-1.068359,0.337891,0.555298,-0.057129,0.703796,0.439392,up
322009,-8.269531,4.640625,0.375,-0.191406,-1.183594,0.185547,0.556763,-0.055908,0.702026,0.440552,up
322015,-8.195313,4.792969,0.527344,-0.191406,-1.183594,0.185547,0.558533,-0.054565,0.700134,0.441467,up
322020,-8.199219,5.140625,0.644531,-0.058594,-1.228516,0.080078,0.560303,-0.053284,0.698486,0.441956,up
322025,-8.199219,5.140625,0.644531,0.072266,-1.269531,-0.029297,0.562439,-0.051819,0.696777,0.442139,up
322031,-8.039063,5.828125,0.871094,0.072266,-1.269531,-0.029297,0.567261,-0.048889,0.69342,0.441589,up
322036,-8.0,6.289062,0.835937,0.072266,-1.269531,-0.029297,0.569763,-0.047607,0.691772,0.44104,up
322041,-8.003906,6.441406,0.757812,0.15625,-1.320313,-0.283203,0.569763,-0.047607,0.691772,0.44104,up
322047,-8.003906,6.441406,0.71875,0.0625,-1.361328,-0.265625,0.569763,-0.047607,0.691772,0.44104,up
322052,-7.886719,6.328125,0.757812,0.0625,-1.361328,-0.265625,0.577698,-0.044067,0.686218,0.439819,up
322058,-7.84375,6.136719,0.835937,-0.279297,-1.453125,-0.136719,0.577698,-0.044067,0.686218,0.439819,up
322064,-7.886719,5.714844,0.796875,-0.689453,-1.478516,-0.001953,0.577698,-0.044067,0.686218,0.439819,up
322069,-8.082031,4.679687,0.949219,-0.689453,-1.478516,-0.001953,0.585449,-0.041382,0.678528,0.441772,up
322075,-8.003906,4.488281,1.101563,-0.888672,-1.677734,0.017578,0.585449,-0.041382,0.678528,0.441772,up
322080,-8.003906,4.527344,1.371094,-0.888672,-1.677734,0.017578,0.593506,-0.039551,0.668396,0.446594,up
322085,-8.082031,4.410156,1.832031,-0.888672,-1.677734,0.017578,0.596741,-0.039063,0.664551,0.44812,up
322090,-8.078125,4.335937,1.867188,-0.888672,-1.677734,0.017578,0.599548,-0.038879,0.661316,0.449097,up
322096,-8.226563,4.21875,1.90625,-0.746094,-1.841797,-0.591797,0.603516,-0.038818,0.657166,0.44989,up
322101,-8.347656,4.144531,2.136719,-0.746094,-1.841797,-0.591797,0.606689,-0.038818,0.654053,0.450073,up
322107,-8.464844,4.566406,2.40625,-0.746094,-1.841797,-0.591797,0.611023,-0.038879,0.65033,0.449768,up
322112,-8.464844,4.910156,2.441406,-0.324219,-2.101563,-1.210938,0.611023,-0.038879,0.65033,0.449768,up
322118,-8.503906,5.140625,2.328125,-0.248047,-2.125,-1.412109,0.611023,-0.038879,0.65033,0.449768,up
322124,-8.765625,4.949219,2.058594,-0.291016,-2.271484,-1.677734,0.611023,-0.038879,0.65033,0.449768,up
322129,-8.964844,4.910156,2.136719,-0.291016,-2.271484,-1.677734,0.630737,-0.039978,0.635254,0.443848,up
322134,-8.964844,4.910156,2.136719,-0.375,-2.496094,-1.740234,0.636597,-0.040588,0.630798,0.441772,up
322139,-9.347656,5.675781,2.710938,-0.460937,-2.710938,-1.794922,0.642517,-0.041138,0.626099,0.43988,up
322144,-9.347656,5.675781,2.710938,-0.648437,-2.865234,-1.863281,0.648743,-0.041748,0.62085,0.43811,up
322150,-9.53125,5.789062,2.789063,-1.253906,-3.125,-2.150391,0.655212,-0.042847,0.615051,0.436523,up
322155,-10.339844,4.949219,2.636719,-1.253906,-3.125,-2.150391,0.670166,-0.046753,0.600525,0.433655,up
322160,-10.992188,5.484375,3.285156,-1.253906,-3.125,-2.150391,0.677429,-0.048706,0.593018,0.432495,up
322165,-10.957031,6.171875,3.4375,-1.253906,-3.125,-2.150391,0.686768,-0.051575,0.582886,0.431152,up
322170,-10.839844,6.785156,3.171875,-2.347656,-4.222656,-2.958984,0.686768,-0.051575,0.582886,0.431152,up
322175,-10.453125,6.480469,2.480469,-2.347656,-4.222656,-2.958984,0.704468,-0.059143,0.562378,0.428833,up
322180,-10.375,5.828125,2.558594,-2.347656,-4.222656,-2.958984,0.712952,-0.063721,0.551819,0.427979,up
322185,-9.878906,5.523437,2.636719,-3.5,-4.789062,-3.417969,0.723267,-0.069824,0.538086,0.427185,up
322191,-9.109375,5.367187,2.710938,-3.5,-4.789062,-3.417969,0.731873,-0.075256,0.526001,0.426636,up
322196,-7.582031,5.332031,2.75,-3.5,-4.789062,-3.417969,0.731873,-0.075256,0.526001,0.426636,up
322201,-7.582031,5.332031,2.75,-3.904297,-4.818359,-3.494141,0.741028,-0.081604,0.512512,0.426086,up
322206,-6.089844,4.601562,2.636719,-3.904297,-4.818359,-3.494141,0.758118,-0.096008,0.484558,0.425659,up
322212,-4.253906,2.457031,2.136719,-3.904297,-4.818359,-3.494141,0.76532,-0.10376,0.471313,0.425964,up
322218,-3.980469,1.921875,2.367188,-4.369141,-3.664063,-2.654297,0.76532,-0.10376,0.471313,0.425964,up
322223,-3.9375,1.117188,2.710938,-4.199219,-3.363281,-2.203125,0.76532,-0.10376,0.471313,0.425964,up
322229,-4.664062,0.390625,3.859375,-3.859375,-2.994141,-1.8125,0.76532,-0.10376,0.471313,0.425964,up
322234,-4.664062,0.390625,3.859375,-3.400391,-2.599609,-1.552734,0.785156,-0.131409,0.42511,0.430786,up
322240,-5.324219,0.390625,4.28125,-3.400391,-2.599609,-1.552734,0.788208,-0.136536,0.416626,0.431885,up
322245,-5.324219,0.390625,4.28125,-2.326172,-1.759766,-1.46875,0.793518,-0.144897,0.403503,0.431885,up
322251,-7.660156,2.191406,4.972656,-2.326172,-1.759766,-1.46875,0.796204,-0.147705,0.398926,0.430176,up
322256,-7.542969,3.605469,5.125,-0.287109,-1.103516,-1.976563,0.796204,-0.147705,0.398926,0.430176,up
322261,-7.738281,4.566406,5.203125,0.216797,-0.978516,-1.984375,0.796204,-0.147705,0.398926,0.430176,up
322267,-8.226563,4.757812,5.355469,0.515625,-0.970703,-1.943359,0.796204,-0.147705,0.398926,0.430176,up
322272,-8.464844,5.023437,5.699219,0.515625,-0.970703,-1.943359,0.808777,-0.150085,0.387878,0.415771,up
322277,-8.542969,4.679687,5.929687,0.675781,-1.099609,-1.572266,0.808777,-0.150085,0.387878,0.415771,up
322282,-8.84375,4.027344,6.199219,0.371094,-1.089844,-1.339844,0.808777,-0.150085,0.387878,0.415771,up
322287,-8.421875,3.070313,7.0,0.371094,-1.089844,-1.339844,0.808777,-0.150085,0.387878,0.415771,up
322292,-8.269531,2.382813,7.195312,-0.724609,-1.021484,-0.912109,0.808777,-0.150085,0.387878,0.415771,up
322298,-8.226563,2.035156,7.421875,-1.314453,-0.898437,-0.751953,0.808777,-0.150085,0.387878,0.415771,up
322304,-7.960937,1.652344,7.039062,-1.929688,-0.683594,-0.591797,0.808777,-0.150085,0.387878,0.415771,up
322309,-7.964844,1.769531,6.695312,-1.929688,-0.683594,-0.591797,0.821228,-0.158203,0.367737,0.406555,up
322315,-7.816406,1.960938,6.65625,-2.779297,-0.083984,-0.121094,0.821228,-0.158203,0.367737,0.406555,up
322320,-7.964844,2.648438,7.039062,-2.779297,-0.083984,-0.121094,0.82019,-0.168945,0.361145,0.410278,up
322325,-8.425781,2.839844,7.347656,-2.490234,0.648437,0.283203,0.818909,-0.17511,0.358215,0.412842,up
322330,-9.230469,2.726563,7.539062,-2.490234,0.648437,0.283203,0.817078,-0.18103,0.356384,0.415527,up
322335,-9.230469,2.726563,7.539062,-2.490234,0.648437,0.283203,0.814819,-0.186279,0.356018,0.417847,up
322340,-11.71875,1.921875,7.347656,-1.638672,1.597656,0.599609,0.8125,-0.19043,0.356934,0.419678,up
322345,-11.71875,1.921875,7.347656,-1.148438,1.958984,0.640625,0.809631,-0.194519,0.359375,0.421326,up
322350,-12.140625,1.921875,7.308594,-1.148438,1.958984,0.640625,0.803467,-0.201233,0.367493,0.422974,up
322355,-12.371094,2.152344,7.460937,-1.148438,1.958984,0.640625,0.799988,-0.204468,0.37323,0.423035,up
322360,-14.019531,2.609375,7.269531,-1.148438,1.958984,0.640625,0.799988,-0.204468,0.37323,0.423035,up
322365,-15.085938,2.839844,6.925781,-0.269531,4.626953,0.775391,0.795471,-0.208435,0.381042,0.422607,up
322371,-16.351562,3.261719,6.65625,-0.269531,4.626953,0.775391,0.784851,-0.217285,0.398987,0.421448,up
322376,-20.03125,4.949219,7.460937,-0.269531,4.626953,0.775391,0.777771,-0.222168,0.410156,0.421204,up
322381,-22.484375,5.980469,7.652344,-0.269531,4.626953,0.775391,0.767334,-0.228149,0.426147,0.421448,up
322386,-25.472656,7.246094,7.5,0.085937,8.789063,3.367188,0.755371,-0.233521,0.443359,0.422302,up
322392,-28.957031,8.28125,7.039062,0.085937,8.789063,3.367188,0.741882,-0.23822,0.46167,0.42395,up
322397,-34.507812,10.808594,5.621094,0.085937,8.789063,3.367188,0.741882,-0.23822,0.46167,0.42395,up
322402,-34.507812,10.808594,5.621094,0.310547,10.703125,5.953125,0.70343,-0.245117,0.508545,0.431763,up
322407,-40.644531,17.207031,1.867188,0.310547,10.703125,5.953125,0.70343,-0.245117,0.508545,0.431763,up
322413,-41.9375,23.183594,-2.535156,2.716797,11.964844,11.265625,0.70343,-0.245117,0.508545,0.431763,up
322418,-41.832031,25.402344,-4.492187,3.929688,11.726563,13.173828,0.70343,-0.245117,0.508545,0.431763,up
322423,-41.25,26.820312,-5.679687,4.929687,11.162109,14.962891,0.70343,-0.245117,0.508545,0.431763,up
322429,-39.988281,27.511719,-6.40625,4.929687,11.162109,14.962891,0.559082,-0.194092,0.654846,0.469971,up
322435,-36.886719,26.667969,-7.9375,4.929687,11.162109,14.962891,0.486755,-0.142395,0.710205,0.48822,up
322440,-35.65625,25.480469,-9.050781,4.929687,11.162109,14.962891,0.486755,-0.142395,0.710205,0.48822,up
322445,-34.851562,23.21875,-10.082031,5.179687,9.851563,19.544922,0.403748,-0.082703,0.756897,0.507263,up
322450,-32.792969,19.65625,-12.113281,5.179687,9.851563,19.544922,0.403748,-0.082703,0.756897,0.507263,up
322455,-32.132812,17.246094,-12.804688,2.996094,8.771484,19.472656,0.403748,-0.082703,0.756897,0.507263,up
322460,-31.40625,12.496094,-12.035156,2.996094,8.771484,19.472656,0.314148,-0.019714,0.790039,0.526123,up
322466,-26.273437,3.605469,-9.96875,2.996094,8.771484,19.472656,0.229675,0.034607,0.805664,0.544922,up
322471,-24.664062,-0.109375,-8.664063,2.996094,8.771484,19.472656,0.190491,0.057129,0.808167,0.554321,up
322476,-24.164062,-1.832031,-7.058594,-0.892578,8.757813,17.638672,0.144043,0.08252,0.807922,0.56543,up
322482,-22.789062,-5.894531,-3.226563,-0.892578,8.757813,17.638672,0.100952,0.105652,0.804993,0.575012,up
322487,-22.175781,-14.398438,0.144531,-0.892578,8.757813,17.638672,0.063354,0.124878,0.800415,0.582825,up
322492,-21.410156,-13.746094,0.988281,-2.085938,8.511719,15.958984,0.02356,0.144165,0.793335,0.591003,up
322498,-20.839844,-11.179688,2.558594,-1.775391,7.730469,15.736328,0.02356,0.144165,0.793335,0.591003,up
322504,-21.371094,-12.480469,9.835938,-0.904297,6.824219,14.927734,0.02356,0.144165,0.793335,0.591003,up
322510,-19.796875,-13.058594,15.621094,0.291016,6.041016,13.666016,0.02356,0.144165,0.793335,0.591003,up
322515,-17.121094,-13.058594,22.320312,4.900391,5.445312,10.333984,0.02356,0.144165,0.793335,0.591003,up
322520,-15.164063,-14.320313,24.3125,6.763672,5.671875,8.341797,0.147339,-0.228943,-0.75769,-0.593079,up
322525,-16.085937,-10.453125,21.980469,6.763672,5.671875,8.341797,0.17572,-0.236328,-0.758667,-0.581116,up
322530,-17.121094,-6.316406,21.253906,8.429688,3.384766,4.898437,0.202209,-0.239868,-0.762451,-0.565857,up
322535,-18.726562,-2.945313,20.671875,8.429688,3.384766,4.898437,0.22113,-0.240845,-0.767761,-0.551025,up
322540,-18.726562,-2.945313,20.671875,8.429688,3.384766,4.898437,0.249023,-0.239502,-0.782654,-0.5177,up
322545,-17.15625,-0.414062,19.835937,8.429688,3.384766,4.898437,0.249023,-0.239502,-0.782654,-0.5177,up
322550,-14.707031,-0.453125,20.5625,6.150391,-0.263672,1.5625,0.249023,-0.239502,-0.782654,-0.5177,up
322555,-9.996094,-4.398437,19.257812,3.917969,-0.992187,0.859375,0.249023,-0.239502,-0.782654,-0.5177,up
322560,-9.996094,-4.398437,19.257812,3.917969,-0.992187,0.859375,0.256592,-0.242554,-0.799805,-0.485474,up
322565,-8.386719,-9.417969,13.207031,3.917969,-0.992187,0.859375,0.256592,-0.242554,-0.799805,-0.485474,up
322570,-6.242187,-10.796875,12.214844,-5.917969,-3.441406,-0.503906,0.256592,-0.242554,-0.799805,-0.485474,up
322576,-2.753906,-10.074219,8.917969,-5.917969,-3.441406,-0.503906,0.227783,-0.260742,-0.787231,-0.510315,up
322581,-1.335938,-9.269531,7.078125,-8.226563,-3.826172,-0.96875,0.21344,-0.268494,-0.779724,-0.523804,up
322587,1.613281,-7.34375,4.472656,-8.226563,-3.826172,-0.96875,0.198608,-0.276306,-0.770447,-0.539124,up
322592,2.53125,-6.390625,3.324219,-11.574219,-3.599609,-0.949219,0.18457,-0.283752,-0.759705,-0.555298,up
322598,3.835938,-4.972656,-1.003906,-11.574219,-3.599609,-0.949219,0.167908,-0.291931,-0.744812,-0.57605,up
322604,4.179687,-4.285156,-3.761719,-11.210938,-2.46875,-1.363281,0.167908,-0.291931,-0.744812,-0.57605,up
322610,6.09375,-1.757813,-7.253906,-9.164063,-2.214844,-1.666016,0.167908,-0.291931,-0.744812,-0.57605,up
322616,6.9375,-0.070312,-6.9375,-6.474609,-2.265625,-1.861328,0.113831,-0.307556,-0.700562,-0.633789,up
322621,7.625,1.652344,-5.832031,-0.898437,-1.998047,-2.171875,0.104919,-0.307922,-0.69928,-0.636536,up
322626,7.972656,3.683594,-4.988281,0.824219,-1.359375,-2.337891,0.104919,-0.307922,-0.69928,-0.636536,up
322631,7.933594,6.902344,-5.601562,0.824219,-1.359375,-2.337891,0.093811,-0.304016,-0.705383,-0.633423,up
322637,7.589844,9.507813,-6.328125,0.824219,-1.359375,-2.337891,0.090576,-0.299866,-0.710937,-0.629639,up
322643,7.28125,10.460938,-7.058594,3.474609,0.212891,-2.667969,0.090576,-0.299866,-0.710937,-0.629639,up
322648,6.824219,11.460938,-8.703125,3.904297,0.376953,-2.816406,0.090576,-0.299866,-0.710937,-0.629639,up
322654,6.9375,11.765625,-9.085938,3.845703,0.109375,-2.943359,0.090576,-0.299866,-0.710937,-0.629639,up
322660,7.167969,12.074219,-8.703125,2.560547,-1.003906,-2.9375,0.090576,-0.299866,-0.710937,-0.629639,up
322665,7.472656,12.496094,-6.480469,2.560547,-1.003906,-2.9375,0.080139,-0.270691,-0.747986,-0.600708,up
322670,7.472656,12.496094,-6.480469,0.873047,-1.011719,-2.792969,0.074951,-0.266296,-0.75354,-0.596313,up
322675,7.398437,13.453125,-5.027344,0.873047,-1.011719,-2.792969,0.06958,-0.26239,-0.757629,-0.593567,up
322681,7.128906,13.761719,-4.644531,-0.216797,-0.685547,-2.652344,0.058533,-0.25415,-0.760864,-0.594177,up
322687,5.671875,13.71875,-4.527344,-0.216797,-0.685547,-2.652344,0.053894,-0.250305,-0.759949,-0.597412,up
322692,5.671875,13.71875,-4.527344,-2.759766,0.009766,-1.902344,0.049072,-0.246582,-0.757629,-0.602295,up
322697,4.90625,13.375,-3.496094,-2.759766,0.009766,-1.902344,0.044617,-0.243652,-0.754272,-0.608032,up
322702,4.601562,13.144531,-3.109375,-2.759766,0.009766,-1.902344,0.0401,-0.24115,-0.75,-0.614563,up
322707,4.101562,12.496094,-2.652344,-2.759766,0.009766,-1.902344,0.0401,-0.24115,-0.75,-0.614563,up
322712,3.910156,12.035156,-2.5,-2.294922,0.005859,-0.791016,0.0401,-0.24115,-0.75,-0.614563,up
322719,3.71875,11.6875,-2.382813,-1.371094,0.023437,-0.556641,0.0401,-0.24115,-0.75,-0.614563,up
322724,3.488281,11.382813,-2.117188,-1.371094,0.023437,-0.556641,0.0401,-0.24115,-0.75,-0.614563,up
322729,3.414063,11.269531,-2.0,-1.371094,0.023437,-0.556641,0.029968,-0.235352,-0.739746,-0.6297,up
322734,3.453125,11.078125,-1.769531,1.228516,0.029297,0.048828,0.029968,-0.235352,-0.739746,-0.6297,up
322739,3.414063,10.542969,-1.886719,1.228516,0.029297,0.048828,0.031555,-0.235168,-0.743591,-0.625122,up
322744,3.414063,10.316406,-2.0,1.228516,0.029297,0.048828,0.033203,-0.235291,-0.746338,-0.621704,up
322749,3.414063,10.117188,-2.039063,2.408203,0.203125,0.451172,0.033203,-0.235291,-0.746338,-0.621704,up
322754,3.375,9.925781,-2.117188,2.572266,0.242187,0.525391,0.033203,-0.235291,-0.746338,-0.621704,up
322760,3.375,9.539063,-2.152344,2.572266,0.242187,0.525391,0.043518,-0.236633,-0.760254,-0.603455,up
322765,3.375,9.351563,-1.886719,2.572266,0.242187,0.525391,0.043518,-0.236633,-0.760254,-0.603455,up
322770,3.375,9.160156,-1.695313,1.78125,0.216797,0.630859,0.048279,-0.237854,-0.764954,-0.596558,up
322775,3.335938,8.734375,-1.65625,1.78125,0.216797,0.630859,0.048279,-0.237854,-0.764954,-0.596558,up
322780,3.335938,8.585938,-1.695313,1.78125,0.216797,0.630859,0.050293,-0.238464,-0.766174,-0.594666,up
322786,3.296875,8.324219,-1.617188,-0.222656,0.271484,0.441406,0.050293,-0.238464,-0.766174,-0.594666,up
322791,3.261719,8.085938,-1.578125,-0.222656,0.271484,0.441406,0.053833,-0.239807,-0.765503,-0.594666,up
322797,3.222656,7.902344,-1.65625,-0.222656,0.271484,0.441406,0.054382,-0.240051,-0.764526,-0.595764,up
322802,3.261719,7.902344,-1.65625,-0.669922,0.189453,0.146484,0.054626,-0.240173,-0.763428,-0.597107,up
322808,3.296875,7.902344,-1.65625,-0.636719,0.130859,0.037109,0.054626,-0.240173,-0.763428,-0.597107,up
322813,3.335938,7.972656,-1.695313,-0.636719,0.130859,0.037109,0.054382,-0.23999,-0.761597,-0.599548,up
322819,3.453125,7.96875,-1.65625,-0.386719,0.015625,-0.167969,0.054382,-0.23999,-0.761597,-0.599548,up
322824,3.488281,7.96875,-1.65625,-0.210937,-0.037109,-0.25,0.054382,-0.23999,-0.761597,-0.599548,up
322830,3.605469,7.9375,-1.65625,-0.058594,-0.082031,-0.320313,0.054382,-0.23999,-0.761597,-0.599548,up
322836,3.679688,8.011719,-1.695313,0.037109,-0.128906,-0.378906,0.051086,-0.237793,-0.761292,-0.601013,up
322841,3.679688,8.089844,-1.695313,0.152344,-0.203125,-0.419922,0.051086,-0.237793,-0.761292,-0.601013,up
322846,3.71875,8.128906,-1.769531,0.152344,-0.203125,-0.419922,0.050049,-0.237183,-0.761841,-0.600708,up
322851,3.757813,8.128906,-1.769531,0.152344,-0.203125,-0.419922,0.048035,-0.236328,-0.762695,-0.600098,up
322856,3.757813,8.164063,-1.730469,-0.105469,-0.275391,-0.386719,0.048035,-0.236328,-0.762695,-0.600098,up
322861,3.757813,8.242188,-1.886719,-0.205078,-0.271484,-0.357422,0.046692,-0.235901,-0.762939,-0.600037,up
322867,3.757813,8.242188,-1.886719,-0.318359,-0.263672,-0.355469,0.044312,-0.235352,-0.762878,-0.600525,up
322872,3.757813,8.707031,-2.308594,-0.398438,-0.25,-0.337891,0.042908,-0.235046,-0.762573,-0.601135,up
322878,3.71875,9.089844,-2.613281,-0.398438,-0.25,-0.337891,0.041809,-0.234802,-0.762207,-0.601746,up
322884,3.796875,9.234375,-2.765625,-0.460937,-0.197266,-0.320313,0.041809,-0.234802,-0.762207,-0.601746,up
322889,3.796875,9.351563,-2.84375,-0.433594,-0.171875,-0.3125,0.041809,-0.234802,-0.762207,-0.601746,up
322894,3.835938,9.390625,-2.882813,-0.369141,-0.148437,-0.308594,0.041809,-0.234802,-0.762207,-0.601746,up
322900,3.796875,9.433594,-2.917969,-0.369141,-0.148437,-0.308594,0.037476,-0.233521,-0.760681,-0.604553,up
322906,3.835938,9.472656,-2.996094,-0.369141,-0.148437,-0.308594,0.035828,-0.232666,-0.760376,-0.605286,up
322911,3.796875,9.507813,-2.996094,-0.369141,-0.148437,-0.308594,0.035828,-0.232666,-0.760376,-0.605286,up
322916,3.835938,9.578125,-2.957031,-0.0625,-0.044922,-0.283203,0.034607,-0.231689,-0.760559,-0.60553,up
322921,3.757813,9.578125,-2.917969,-0.0625,-0.044922,-0.283203,0.034607,-0.231689,-0.760559,-0.60553,up
322926,3.796875,9.542969,-2.84375,0.025391,0.056641,-0.207031,0.034241,-0.231201,-0.760742,-0.60553,up
322931,3.796875,9.542969,-2.882813,0.025391,0.056641,-0.207031,0.033752,-0.230164,-0.761047,-0.60553,up
322936,3.757813,9.390625,-2.726563,0.025391,0.056641,-0.207031,0.033752,-0.230164,-0.761047,-0.60553,up
322941,3.71875,9.351563,-2.691406,0.025391,0.056641,-0.207031,0.033691,-0.229248,-0.761292,-0.605591,up
322946,3.71875,9.277344,-2.574219,0.025391,0.056641,-0.207031,0.033691,-0.229248,-0.761292,-0.605591,up
322951,3.679688,9.195313,-2.535156,0.003906,0.195312,-0.033203,0.033691,-0.229248,-0.761292,-0.605591,up
322957,3.566406,9.3125,-2.460938,0.003906,0.195312,-0.033203,0.034363,-0.228149,-0.761414,-0.605835,up
322963,3.414063,9.234375,-2.152344,0.003906,0.195312,-0.033203,0.034729,-0.227844,-0.761475,-0.605835,up
322970,3.375,9.199219,-2.0,0.082031,0.158203,0.037109,0.034729,-0.227844,-0.761475,-0.605835,up
322975,3.183594,9.050781,-1.921875,0.105469,0.154297,0.058594,0.034729,-0.227844,-0.761475,-0.605835,up
322981,3.105469,9.007813,-1.808594,0.138672,0.111328,0.080078,0.034729,-0.227844,-0.761475,-0.605835,up
322986,3.03125,8.972656,-1.769531,0.138672,0.111328,0.080078,0.036255,-0.227234,-0.762024,-0.605286,up
322991,2.992188,9.011719,-1.617188,0.15625,0.072266,0.074219,0.036255,-0.227234,-0.762024,-0.605286,up
322996,2.992188,9.011719,-1.617188,0.152344,0.003906,0.035156,0.036865,-0.227173,-0.762451,-0.604736,up
323001,2.875,9.234375,-1.617188,0.152344,0.003906,0.035156,0.036987,-0.227173,-0.762634,-0.604492,up
323006,2.839844,9.3125,-1.65625,0.113281,-0.03125,0.011719,0.036987,-0.227234,-0.763,-0.604004,up
323011,2.839844,9.394531,-1.769531,-0.041016,-0.072266,-0.050781,0.036987,-0.227234,-0.763,-0.604004,up
323016,2.839844,9.472656,-1.847656,-0.136719,-0.09375,-0.082031,0.037659,-0.226074,-0.763428,-0.603882,up
323021,2.914063,9.46875,-1.847656,-0.136719,-0.09375,-0.082031,0.038086,-0.224915,-0.763672,-0.603943,up
323026,2.953125,9.351563,-1.886719,-0.136719,-0.09375,-0.082031,0.038452,-0.223816,-0.763794,-0.604187,up
323031,2.953125,9.3125,-1.921875,-0.136719,-0.09375,-0.082031,0.038635,-0.222656,-0.763794,-0.604614,up
323036,2.953125,9.316406,-1.960938,-0.136719,-0.09375,-0.082031,0.038757,-0.221497,-0.763672,-0.605225,up
323042,2.953125,9.273438,-1.960938,-0.439453,-0.080078,-0.197266,0.038818,-0.219055,-0.763123,-0.60675,up
323047,2.992188,9.195313,-1.921875,-0.439453,-0.080078,-0.197266,0.038879,-0.217773,-0.762817,-0.607544,up
323052,2.992188,9.125,-1.886719,-0.439453,-0.080078,-0.197266,0.038879,-0.216553,-0.762512,-0.608398,up
323057,2.992188,9.125,-1.847656,-0.482422,-0.027344,-0.1875,0.038818,-0.215271,-0.762085,-0.609436,up
323062,2.953125,9.050781,-1.886719,-0.482422,-0.027344,-0.1875,0.038818,-0.215271,-0.762085,-0.609436,up
323067,2.953125,9.050781,-1.847656,-0.482422,-0.027344,-0.1875,0.039063,-0.212891,-0.761414,-0.611023,up
323072,2.914063,9.085938,-1.847656,-0.318359,-0.003906,-0.150391,0.039063,-0.212891,-0.761414,-0.611023,up
323078,2.914063,9.238281,-1.847656,-0.318359,-0.003906,-0.150391,0.03949,-0.210754,-0.761169,-0.612122,up
323083,2.875,9.355469,-1.769531,-0.318359,-0.003906,-0.150391,0.039734,-0.209717,-0.761108,-0.612549,up
323089,2.875,9.621094,-1.730469,-0.318359,-0.003906,-0.150391,0.039917,-0.20874,-0.761108,-0.612854,up
323094,2.875,9.695313,-1.695313,-0.134766,-0.089844,-0.074219,0.039917,-0.20874,-0.761108,-0.612854,up
323099,2.875,9.777344,-1.730469,-0.132812,-0.126953,-0.03125,0.039917,-0.20874,-0.761108,-0.612854,up
323104,2.875,9.699219,-1.808594,-0.132812,-0.126953,-0.03125,0.040466,-0.206665,-0.761169,-0.613403,up
323110,2.953125,9.621094,-1.886719,-0.226562,-0.199219,0.025391,0.040466,-0.206665,-0.761169,-0.613403,up
323115,2.953125,9.542969,-1.921875,-0.285156,-0.238281,0.048828,0.040466,-0.206665,-0.761169,-0.613403,up
323121,2.992188,9.390625,-2.039063,-0.357422,-0.257813,0.070312,0.040466,-0.206665,-0.761169,-0.613403,up
323126,3.070313,9.3125,-2.117188,-0.414062,-0.275391,0.078125,0.040466,-0.206665,-0.761169,-0.613403,up
323131,3.03125,9.238281,-2.191406,-0.445312,-0.28125,0.089844,0.040466,-0.206665,-0.761169,-0.613403,up
323136,3.03125,9.15625,-2.308594,-0.462891,-0.287109,0.095703,0.040466,-0.206665,-0.761169,-0.613403,up
323141,3.03125,9.15625,-2.382813,-0.462891,-0.287109,0.095703,0.039795,-0.205872,-0.758545,-0.616943,up
323147,3.070313,9.125,-2.308594,-0.388672,-0.269531,0.111328,0.039795,-0.205872,-0.758545,-0.616943,up
323152,3.03125,9.011719,-2.34375,-0.388672,-0.269531,0.111328,0.039429,-0.206055,-0.75708,-0.618713,up
323157,3.03125,8.972656,-2.382813,-0.388672,-0.269531,0.111328,0.03949,-0.206055,-0.756775,-0.61908,up
323162,3.03125,8.8125,-2.421875,-0.208984,-0.208984,0.142578,0.039551,-0.206177,-0.75647,-0.619385,up
323167,3.105469,8.738281,-2.382813,-0.208984,-0.208984,0.142578,0.039673,-0.206177,-0.756287,-0.619629,up
323172,3.070313,8.738281,-2.382813,-0.111328,-0.164062,0.132812,0.039856,-0.206116,-0.756226,-0.61969,up
323178,2.992188,8.734375,-2.34375,-0.111328,-0.164062,0.132812,0.0401,-0.206055,-0.756165,-0.619751,up
323183,2.992188,8.773438,-2.34375,-0.082031,-0.152344,0.121094,0.0401,-0.206055,-0.756165,-0.619751,up
323188,2.992188,8.734375,-2.269531,-0.09375,-0.140625,0.111328,0.0401,-0.206055,-0.756165,-0.619751,up
323193,2.953125,8.734375,-2.269531,-0.09375,-0.140625,0.111328,0.040771,-0.205872,-0.756042,-0.619995,up
323199,2.953125,8.703125,-2.230469,-0.09375,-0.140625,0.111328,0.040771,-0.205872,-0.756042,-0.619995,up
