timestamp,ax,ay,az,gx,gy,gz,qw,qx,qy,qz,label
33887,8.21875,4.351562,2.292969,-0.160156,0.001953,-0.353516,0.394775,0.622314,-0.034363,0.674988,down
33892,8.179688,4.234375,2.214844,-0.160156,0.001953,-0.353516,0.394775,0.622314,-0.034363,0.674988,down
33897,8.21875,4.234375,2.175781,-0.222656,0.019531,-0.349609,0.394775,0.622314,-0.034363,0.674988,down
33902,8.21875,4.273437,2.175781,-0.222656,0.019531,-0.349609,0.397522,0.621582,-0.033691,0.674133,down
33907,8.183594,4.273437,2.140625,-0.222656,0.019531,-0.349609,0.397522,0.621582,-0.033691,0.674133,down
33912,8.148438,4.234375,2.175781,-0.191406,0.058594,-0.371094,0.39856,0.621277,-0.033386,0.673828,down
33917,8.109375,4.195312,2.214844,-0.191406,0.058594,-0.371094,0.399475,0.621033,-0.033081,0.673584,down
33922,8.03125,4.195312,2.292969,-0.191406,0.058594,-0.371094,0.40033,0.620728,-0.032715,0.673279,down
33928,7.957031,4.234375,2.367188,-0.099609,0.111328,-0.410156,0.40033,0.620728,-0.032715,0.673279,down
33933,7.839844,4.234375,2.40625,-0.099609,0.111328,-0.410156,0.402954,0.619873,-0.030945,0.672607,down
33939,7.613281,4.234375,2.484375,-0.099609,0.111328,-0.410156,0.403625,0.619629,-0.030212,0.672485,down
33944,7.570312,4.234375,2.523438,0.003906,0.179687,-0.457031,0.404419,0.619324,-0.029297,0.672302,down
33949,7.53125,4.195312,2.523438,0.015625,0.191406,-0.476562,0.404419,0.619324,-0.029297,0.672302,down
33955,7.53125,4.195312,2.523438,0.015625,0.191406,-0.476562,0.406067,0.618713,-0.027222,0.671997,down
33960,7.574219,4.121094,2.523438,0.015625,0.191406,-0.476562,0.406067,0.618713,-0.027222,0.671997,down
33966,7.574219,4.121094,2.523438,0.015625,0.191406,-0.476562,0.407593,0.618103,-0.025208,0.671692,down
33971,7.574219,4.121094,2.523438,-0.015625,0.21875,-0.521484,0.408447,0.617737,-0.02417,0.67157,down
33976,7.648437,4.160156,2.523438,-0.052734,0.21875,-0.53125,0.409363,0.617371,-0.023132,0.671387,down
33981,7.574219,4.234375,2.445313,-0.052734,0.21875,-0.53125,0.409363,0.617371,-0.023132,0.671387,down
33987,7.574219,4.234375,2.445313,-0.097656,0.224609,-0.537109,0.411438,0.616455,-0.021362,0.670959,down
33992,7.570312,4.351562,2.332031,-0.210937,0.197266,-0.560547,0.414001,0.615417,-0.019897,0.670471,down
33997,7.570312,4.390625,2.367188,-0.273438,0.169922,-0.587891,0.414001,0.615417,-0.019897,0.670471,down
34002,7.53125,4.390625,2.445313,-0.273438,0.169922,-0.587891,0.415527,0.614746,-0.019165,0.670105,down
34007,7.492187,4.351562,2.484375,-0.244141,0.207031,-0.626953,0.415527,0.614746,-0.019165,0.670105,down
34012,7.226562,4.273437,2.523438,-0.244141,0.207031,-0.626953,0.418213,0.613647,-0.017761,0.669495,down
34017,7.109375,4.3125,2.523438,-0.244141,0.207031,-0.626953,0.4198,0.612976,-0.016785,0.669128,down
34023,7.035156,4.273437,2.523438,-0.109375,0.283203,-0.669922,0.4198,0.612976,-0.016785,0.669128,down
34028,7.152344,4.3125,2.597656,-0.109375,0.283203,-0.669922,0.423584,0.611206,-0.01355,0.668457,down
34033,7.1875,4.3125,2.597656,-0.109375,0.283203,-0.669922,0.424927,0.610596,-0.012146,0.668152,down
34038,7.1875,4.390625,2.558594,-0.09375,0.320313,-0.714844,0.424927,0.610596,-0.012146,0.668152,down
34043,7.152344,4.464844,2.597656,-0.09375,0.320313,-0.714844,0.42749,0.609375,-0.009583,0.667725,down
34049,7.191406,4.542969,2.523438,-0.09375,0.320313,-0.714844,0.428833,0.608765,-0.008301,0.667419,down
34054,7.226562,4.617187,2.523438,-0.125,0.285156,-0.763672,0.430237,0.608093,-0.007019,0.667114,down
34059,7.269531,4.65625,2.523438,-0.126953,0.257813,-0.777344,0.430237,0.608093,-0.007019,0.667114,down
34064,7.347656,4.695312,2.484375,-0.126953,0.244141,-0.787109,0.430237,0.608093,-0.007019,0.667114,down
34070,7.414062,4.773437,2.445313,-0.126953,0.244141,-0.787109,0.434692,0.606384,-0.003052,0.665833,down
34076,7.453125,4.808594,2.445313,-0.148437,0.207031,-0.828125,0.434692,0.606384,-0.003052,0.665833,down
34081,7.496094,4.886719,2.445313,-0.152344,0.183594,-0.835937,0.434692,0.606384,-0.003052,0.665833,down
34087,7.414062,5.0,2.445313,-0.152344,0.183594,-0.835937,0.439453,0.604858,0.000732,0.664062,down
34092,7.457031,5.039062,2.523438,-0.107422,0.136719,-0.845703,0.439453,0.604858,0.000732,0.664062,down
34097,7.496094,5.078125,2.558594,-0.074219,0.136719,-0.845703,0.44397,0.60376,0.004761,0.662109,down
34102,7.609375,5.269531,2.597656,-0.074219,0.136719,-0.845703,0.44397,0.60376,0.004761,0.662109,down
34107,7.6875,5.347656,2.636719,0.017578,0.164062,-0.839844,0.445312,0.603455,0.006226,0.661438,down
34112,7.726562,5.5,2.675781,0.017578,0.164062,-0.839844,0.446594,0.60321,0.007751,0.660828,down
34118,7.796875,5.652344,2.675781,0.089844,0.169922,-0.857422,0.446594,0.60321,0.007751,0.660828,down
34123,7.875,5.769531,2.597656,0.089844,0.169922,-0.857422,0.450378,0.602478,0.012817,0.658813,down
34128,7.878906,5.882812,2.558594,0.130859,0.166016,-0.880859,0.450378,0.602478,0.012817,0.658813,down
34133,7.917969,5.960937,2.523438,0.105469,0.134766,-0.892578,0.451721,0.602295,0.014771,0.65802,down
34138,7.996094,6.1875,2.523438,0.105469,0.134766,-0.892578,0.454102,0.601929,0.018066,0.656555,down
34143,8.070313,6.265625,2.484375,0.015625,0.068359,-0.869141,0.454102,0.601929,0.018066,0.656555,down
34148,8.113281,6.304687,2.523438,0.015625,0.068359,-0.869141,0.45697,0.601624,0.021118,0.654846,down
34153,8.109375,6.417969,2.484375,0.015625,0.068359,-0.869141,0.45697,0.601624,0.021118,0.654846,down
34158,8.109375,6.457031,2.484375,0.015625,0.068359,-0.869141,0.4599,0.601074,0.023743,0.653137,down
34163,8.109375,6.496094,2.484375,0.015625,0.068359,-0.869141,0.4599,0.601074,0.023743,0.653137,down
34168,8.074219,6.535156,2.484375,-0.091797,0.066406,-0.832031,0.46283,0.600525,0.026184,0.65155,down
34173,7.996094,6.726562,2.523438,-0.091797,0.066406,-0.832031,0.464111,0.60022,0.027344,0.650818,down
34178,7.992187,6.765625,2.523438,-0.091797,0.066406,-0.832031,0.465393,0.600037,0.028503,0.650085,down
34183,8.03125,6.839844,2.523438,-0.091797,0.066406,-0.832031,0.465393,0.600037,0.028503,0.650085,down
34188,7.996094,6.917969,2.523438,-0.037109,0.076172,-0.738281,0.467834,0.599487,0.030945,0.648621,down
34193,7.917969,7.070312,2.558594,-0.037109,0.076172,-0.738281,0.469055,0.599243,0.032349,0.647949,down
34198,7.835937,7.109375,2.523438,-0.037109,0.076172,-0.738281,0.46991,0.59906,0.033447,0.647461,down
34203,7.765625,7.109375,2.558594,-0.037109,0.076172,-0.738281,0.46991,0.59906,0.033447,0.647461,down
34208,7.613281,7.261719,2.523438,0.136719,0.119141,-0.646484,0.46991,0.59906,0.033447,0.647461,down
34214,7.609375,7.339844,2.597656,0.136719,0.119141,-0.646484,0.472229,0.598877,0.037415,0.645752,down
34219,7.609375,7.339844,2.597656,0.201172,-0.011719,-0.529297,0.472778,0.598999,0.038574,0.645142,down
34224,7.570312,7.375,2.636719,0.201172,-0.011719,-0.529297,0.473267,0.599182,0.039673,0.644531,down
34229,7.535156,7.53125,2.714844,0.201172,-0.011719,-0.529297,0.473267,0.599182,0.039673,0.644531,down
34234,7.535156,7.53125,2.714844,0.193359,-0.052734,-0.443359,0.474121,0.59967,0.041565,0.643311,down
34239,7.535156,7.53125,2.753906,0.193359,-0.052734,-0.443359,0.474121,0.59967,0.041565,0.643311,down
34244,7.535156,7.53125,2.753906,0.183594,-0.054687,-0.363281,0.474731,0.60022,0.043213,0.642273,down
34250,7.535156,7.414062,2.636719,0.183594,-0.054687,-0.363281,0.474976,0.600403,0.043945,0.641907,down
34255,7.570312,7.414062,2.636719,0.142578,-0.042969,-0.259766,0.474976,0.600403,0.043945,0.641907,down
34261,7.613281,7.414062,2.636719,0.125,-0.054687,-0.248047,0.474976,0.600403,0.043945,0.641907,down
34267,7.691406,7.300781,2.675781,0.125,-0.054687,-0.248047,0.475525,0.600952,0.045715,0.640869,down
34272,7.730469,7.261719,2.636719,0.076172,-0.054687,-0.199219,0.475525,0.600952,0.045715,0.640869,down
34277,7.730469,7.222656,2.597656,0.041016,-0.041016,-0.169922,0.475525,0.600952,0.045715,0.640869,down
34282,7.726562,7.148437,2.597656,0.041016,-0.041016,-0.169922,0.476074,0.601257,0.046875,0.640015,down
34288,7.726562,7.03125,2.597656,0.041016,-0.041016,-0.169922,0.476379,0.601379,0.047485,0.639587,down
34293,7.652344,6.992187,2.636719,0.041016,-0.041016,-0.169922,0.476379,0.601379,0.047485,0.639587,down
34298,7.570312,6.878906,2.558594,0.050781,-0.023437,-0.134766,0.476379,0.601379,0.047485,0.639587,down
34303,7.492187,6.800781,2.558594,0.050781,-0.023437,-0.134766,0.476685,0.601562,0.048401,0.63916,down
34308,7.417969,6.800781,2.597656,0.080078,-0.023437,-0.095703,0.476685,0.601562,0.048401,0.63916,down
34313,7.492187,6.726562,2.597656,0.080078,-0.023437,-0.095703,0.476746,0.601685,0.048706,0.639038,down
34318,7.375,6.6875,2.597656,0.097656,-0.017578,-0.076172,0.476746,0.601685,0.048706,0.639038,down
34323,7.378906,6.648437,2.597656,0.158203,-0.007813,-0.056641,0.476624,0.601929,0.049255,0.638794,down
34328,7.34375,6.574219,2.597656,0.158203,-0.007813,-0.056641,0.476318,0.602234,0.049988,0.638672,down
34333,7.230469,6.574219,2.558594,0.158203,-0.007813,-0.056641,0.476318,0.602234,0.049988,0.638672,down
34338,7.191406,6.574219,2.558594,0.158203,-0.007813,-0.056641,0.47583,0.6026,0.050842,0.638672,down
34343,7.109375,6.574219,2.558594,0.158203,-0.007813,-0.056641,0.47583,0.6026,0.050842,0.638672,down
34348,7.074219,6.574219,2.523438,0.203125,0.023437,-0.03125,0.47522,0.602905,0.051758,0.638733,down
34353,7.070312,6.535156,2.523438,0.203125,0.023437,-0.03125,0.47522,0.602905,0.051758,0.638733,down
34358,7.074219,6.574219,2.523438,0.162109,-0.007813,-0.019531,0.474976,0.603088,0.052124,0.638733,down
34363,7.070312,6.535156,2.558594,0.162109,-0.007813,-0.019531,0.47467,0.603271,0.05249,0.638733,down
34369,6.996094,6.496094,2.558594,0.146484,-0.015625,-0.007813,0.47467,0.603271,0.05249,0.638733,down
34375,6.960937,6.417969,2.523438,0.146484,-0.015625,-0.007813,0.473999,0.603699,0.053345,0.638733,down
34380,6.925781,6.417969,2.523438,0.111328,0.03125,0.001953,0.473999,0.603699,0.053345,0.638733,down
34385,6.882812,6.378906,2.523438,0.099609,0.013672,-0.001953,0.473572,0.603882,0.053833,0.638855,down
34390,6.925781,6.34375,2.523438,0.099609,0.013672,-0.001953,0.473389,0.603943,0.054077,0.638916,down
34395,6.925781,6.34375,2.558594,0.099609,0.013672,-0.001953,0.473389,0.603943,0.054077,0.638916,down
34400,6.925781,6.34375,2.558594,0.074219,0.001953,-0.003906,0.473389,0.603943,0.054077,0.638916,down
34406,6.882812,6.417969,2.558594,0.074219,0.001953,-0.003906,0.473389,0.603943,0.054077,0.638916,down
34411,6.886719,6.304687,2.558594,0.074219,0.001953,-0.003906,0.472839,0.604187,0.05481,0.639038,down
34416,6.804687,6.265625,2.523438,0.109375,0.052734,-0.019531,0.472839,0.604187,0.05481,0.639038,down
34421,6.765625,6.304687,2.558594,0.113281,0.054687,-0.015625,0.472839,0.604187,0.05481,0.639038,down
34426,6.804687,6.304687,2.558594,0.125,0.037109,-0.017578,0.472839,0.604187,0.05481,0.639038,down
34432,6.925781,6.34375,2.558594,0.125,0.037109,-0.017578,0.472839,0.604187,0.05481,0.639038,down
34437,6.921875,6.34375,2.597656,0.125,0.037109,-0.017578,0.471985,0.604431,0.056335,0.639343,down
34442,6.921875,6.378906,2.597656,0.113281,0.037109,-0.021484,0.471985,0.604431,0.056335,0.639343,down
34448,6.84375,6.378906,2.558594,0.113281,0.037109,-0.021484,0.471436,0.604553,0.057251,0.639526,down
34453,6.808594,6.378906,2.523438,0.113281,0.037109,-0.021484,0.471436,0.604553,0.057251,0.639526,down
34458,6.808594,6.34375,2.523438,0.109375,0.060547,-0.029297,0.47113,0.604553,0.057983,0.639648,down
34463,6.808594,6.417969,2.523438,0.109375,0.060547,-0.029297,0.47113,0.604553,0.057983,0.639648,down
34469,6.84375,6.457031,2.523438,0.115234,0.003906,-0.029297,0.47113,0.604553,0.057983,0.639648,down
34474,6.882812,6.417969,2.558594,0.115234,0.003906,-0.029297,0.470642,0.604797,0.058899,0.639709,down
34479,6.925781,6.496094,2.558594,0.115234,0.003906,-0.029297,0.47052,0.604858,0.059204,0.639709,down
34484,6.882812,6.496094,2.523438,0.115234,0.003906,-0.029297,0.470398,0.604919,0.059509,0.639771,down
34489,6.84375,6.496094,2.523438,0.095703,0.078125,-0.041016,0.470398,0.604919,0.059509,0.639771,down
34494,6.84375,6.457031,2.523438,0.095703,0.078125,-0.041016,0.470154,0.604858,0.060242,0.639954,down
34500,6.769531,6.457031,2.523438,0.095703,0.078125,-0.041016,0.470032,0.604736,0.060608,0.640015,down
34505,6.769531,6.457031,2.523438,0.050781,0.074219,-0.056641,0.469971,0.604675,0.060913,0.640137,down
34511,6.882812,6.496094,2.523438,0.050781,0.074219,-0.056641,0.470032,0.604553,0.061157,0.640198,down
34517,6.882812,6.496094,2.523438,0.050781,0.074219,-0.056641,0.470093,0.604431,0.061401,0.640259,down
34523,6.925781,6.496094,2.558594,-0.027344,0.074219,-0.074219,0.470093,0.604431,0.061401,0.640259,down
34529,6.882812,6.496094,2.523438,-0.021484,0.089844,-0.085937,0.470093,0.604431,0.061401,0.640259,down
34534,6.84375,6.417969,2.558594,-0.021484,0.089844,-0.085937,0.470581,0.603638,0.062256,0.640564,down
34539,6.84375,6.34375,2.523438,-0.021484,0.089844,-0.085937,0.470642,0.603455,0.062561,0.640686,down
34544,6.808594,6.378906,2.523438,0.023437,0.105469,-0.074219,0.470703,0.603271,0.062866,0.640747,down
34549,6.769531,6.417969,2.484375,0.035156,0.085937,-0.0625,0.470703,0.603271,0.062866,0.640747,down
34555,6.882812,6.535156,2.523438,0.035156,0.085937,-0.0625,0.470703,0.603027,0.063477,0.64093,down
34560,6.921875,6.609375,2.523438,0.0625,0.042969,-0.044922,0.470703,0.603027,0.063477,0.64093,down
34565,6.921875,6.648437,2.558594,0.087891,0.037109,-0.03125,0.470581,0.602966,0.064026,0.641052,down
34570,6.886719,6.648437,2.523438,0.087891,0.037109,-0.03125,0.470398,0.602966,0.064331,0.641113,down
34575,6.804687,6.648437,2.523438,0.087891,0.037109,-0.03125,0.470398,0.602966,0.064331,0.641113,down
34580,6.804687,6.648437,2.523438,0.179687,0.060547,-0.041016,0.470398,0.602966,0.064331,0.641113,down
34585,6.730469,6.609375,2.523438,0.179687,0.060547,-0.041016,0.470398,0.602966,0.064331,0.641113,down
34591,6.652344,6.6875,2.523438,0.179687,0.060547,-0.041016,0.470398,0.602966,0.064331,0.641113,down
34596,6.613281,6.6875,2.523438,0.183594,0.048828,-0.046875,0.470398,0.602966,0.064331,0.641113,down
34601,6.652344,6.726562,2.523438,0.154297,0.03125,-0.039063,0.470398,0.602966,0.064331,0.641113,down
34606,6.652344,6.726562,2.523438,0.126953,0.0,-0.027344,0.470398,0.602966,0.064331,0.641113,down
34612,6.726562,6.726562,2.558594,0.126953,0.0,-0.027344,0.470398,0.602966,0.064331,0.641113,down
34617,6.726562,6.726562,2.523438,0.126953,0.0,-0.027344,0.468506,0.603821,0.06781,0.641296,down
34622,6.769531,6.726562,2.523438,0.050781,-0.017578,-0.027344,0.468506,0.603821,0.06781,0.641296,down
34628,6.730469,6.648437,2.523438,0.050781,-0.017578,-0.027344,0.468384,0.604004,0.068298,0.641235,down
34633,6.691406,6.648437,2.523438,0.050781,-0.017578,-0.027344,0.468384,0.604004,0.068298,0.641235,down
34638,6.691406,6.648437,2.523438,0.001953,-0.025391,-0.019531,0.468384,0.604004,0.068298,0.641235,down
34643,6.613281,6.652344,2.523438,0.001953,-0.025391,-0.019531,0.468384,0.604004,0.068481,0.641174,down
34648,6.648437,6.609375,2.558594,0.001953,-0.025391,-0.019531,0.468384,0.604004,0.068481,0.641174,down
34653,6.6875,6.535156,2.523438,0.001953,-0.025391,-0.019531,0.468445,0.604004,0.068542,0.641113,down
34658,6.652344,6.496094,2.523438,0.005859,-0.005859,-0.025391,0.468445,0.604004,0.068542,0.641113,down
34664,6.6875,6.378906,2.523438,0.005859,-0.005859,-0.025391,0.468445,0.604004,0.068726,0.641113,down
34669,6.691406,6.304687,2.523438,0.041016,0.023437,-0.023437,0.468323,0.604004,0.069092,0.641174,down
34674,6.648437,6.304687,2.523438,0.095703,0.046875,-0.017578,0.468323,0.604004,0.069092,0.641174,down
34679,6.613281,6.34375,2.558594,0.095703,0.046875,-0.017578,0.468201,0.604004,0.069336,0.641235,down
34684,6.613281,6.34375,2.523438,0.095703,0.046875,-0.017578,0.468018,0.604004,0.069641,0.641296,down
34689,6.613281,6.378906,2.558594,0.121094,0.064453,-0.029297,0.468018,0.604004,0.069641,0.641296,down
34694,6.613281,6.378906,2.558594,0.121094,0.064453,-0.029297,0.467651,0.604065,0.070312,0.641479,down
34700,6.613281,6.378906,2.558594,0.148437,0.072266,-0.042969,0.467285,0.604126,0.071106,0.641602,down
34705,6.574219,6.378906,2.597656,0.160156,0.076172,-0.066406,0.467102,0.604126,0.071594,0.641663,down
34711,6.539062,6.34375,2.558594,0.160156,0.076172,-0.066406,0.466919,0.604187,0.072083,0.641663,down
34717,6.464844,6.378906,2.636719,0.160156,0.076172,-0.066406,0.466736,0.604248,0.072632,0.641724,down
34722,6.425781,6.417969,2.675781,0.164062,0.066406,-0.105469,0.466736,0.604248,0.072632,0.641724,down
34727,6.382812,6.417969,2.675781,0.142578,0.078125,-0.103516,0.466736,0.604248,0.072632,0.641724,down
34732,6.382812,6.378906,2.675781,0.099609,0.097656,-0.117188,0.466736,0.604248,0.072632,0.641724,down
34738,6.347656,6.34375,2.714844,0.099609,0.097656,-0.117188,0.466736,0.604248,0.072632,0.641724,down
34743,6.269531,6.304687,2.714844,0.046875,0.09375,-0.138672,0.466736,0.604248,0.072632,0.641724,down
34749,6.230469,6.308594,2.753906,0.019531,0.099609,-0.152344,0.466919,0.603699,0.075989,0.641663,down
34754,6.039062,6.304687,2.753906,0.019531,0.099609,-0.152344,0.467163,0.603455,0.076477,0.641663,down
34759,5.964844,6.34375,2.714844,0.019531,0.099609,-0.152344,0.467163,0.603455,0.076477,0.641663,down
34764,5.886719,6.269531,2.753906,-0.042969,0.089844,-0.210937,0.467163,0.603455,0.076477,0.641663,down
34770,5.808594,6.226562,2.90625,-0.042969,0.089844,-0.210937,0.46814,0.602661,0.077637,0.641541,down
34775,5.65625,6.1875,3.058594,-0.042969,0.089844,-0.210937,0.468567,0.602417,0.078064,0.641418,down
34781,5.617187,6.148437,3.097656,-0.070312,0.074219,-0.251953,0.468994,0.602173,0.07843,0.641296,down
34787,5.542969,6.148437,3.019531,-0.064453,0.076172,-0.271484,0.469482,0.601868,0.078857,0.641174,down
34793,5.386719,6.070312,3.097656,-0.064453,0.076172,-0.271484,0.469482,0.601868,0.078857,0.641174,down
34799,5.351562,6.035156,3.136719,-0.054687,0.076172,-0.341797,0.469482,0.601868,0.078857,0.641174,down
34804,5.3125,5.960937,3.171875,-0.054687,0.076172,-0.341797,0.471069,0.601135,0.080322,0.640564,down
34809,5.3125,5.960937,3.171875,-0.054687,0.076172,-0.341797,0.472351,0.600525,0.081543,0.640015,down
34814,5.195312,5.886719,3.210938,-0.054687,0.076172,-0.341797,0.472351,0.600525,0.081543,0.640015,down
34819,5.195312,5.886719,3.289063,-0.080078,0.119141,-0.443359,0.472351,0.600525,0.081543,0.640015,down
34824,5.042969,5.886719,3.25,-0.080078,0.119141,-0.443359,0.473816,0.599854,0.082886,0.639404,down
34830,4.929687,5.960937,3.328125,-0.089844,0.125,-0.472656,0.475464,0.598999,0.084351,0.638733,down
34835,4.96875,5.804687,3.363281,-0.119141,0.136719,-0.527344,0.476501,0.598511,0.085205,0.638367,down
34840,4.738281,5.804687,3.402344,-0.119141,0.136719,-0.527344,0.477478,0.598022,0.085999,0.637939,down
34845,4.660156,5.847656,3.402344,-0.119141,0.136719,-0.527344,0.477478,0.598022,0.085999,0.637939,down
34850,4.621094,5.921875,3.402344,-0.125,0.09375,-0.568359,0.477478,0.598022,0.085999,0.637939,down
34855,4.585937,5.960937,3.554688,-0.125,0.09375,-0.568359,0.480652,0.596619,0.088501,0.636536,down
34860,4.546875,5.960937,3.59375,-0.125,0.09375,-0.568359,0.481567,0.596313,0.089172,0.636047,down
34865,4.46875,5.992187,3.785156,-0.121094,0.019531,-0.630859,0.482849,0.595886,0.090088,0.635315,down
34871,4.621094,5.992187,3.863281,-0.121094,0.019531,-0.630859,0.483887,0.595642,0.09082,0.634705,down
34876,4.699219,5.964844,3.824219,-0.130859,-0.015625,-0.671875,0.483887,0.595642,0.09082,0.634705,down
34882,4.777344,6.148437,3.785156,-0.130859,-0.015625,-0.671875,0.486328,0.595032,0.092468,0.633118,down
34887,4.890625,6.1875,3.746094,-0.119141,-0.044922,-0.722656,0.48761,0.594727,0.093323,0.632324,down
34892,4.929687,6.1875,3.746094,-0.128906,-0.052734,-0.767578,0.48761,0.594727,0.093323,0.632324,down
34897,5.121094,6.265625,3.710938,-0.128906,-0.052734,-0.767578,0.48761,0.594727,0.093323,0.632324,down
34903,5.3125,6.347656,3.710938,-0.128906,-0.052734,-0.767578,0.491882,0.593872,0.09613,0.629333,down
34909,5.351562,6.378906,3.671875,-0.177734,-0.050781,-0.878906,0.491882,0.593872,0.09613,0.629333,down
34914,5.425781,6.492187,3.554688,-0.207031,-0.021484,-0.927734,0.491882,0.593872,0.09613,0.629333,down
34919,5.386719,6.609375,3.519531,-0.207031,-0.021484,-0.927734,0.496948,0.59259,0.099304,0.626099,down
34924,5.3125,6.765625,3.402344,-0.263672,0.019531,-1.013672,0.496948,0.59259,0.099304,0.626099,down
34930,5.160156,6.914062,3.328125,-0.28125,0.027344,-1.052734,0.496948,0.59259,0.099304,0.626099,down
34935,5.082031,7.03125,3.328125,-0.28125,0.027344,-1.052734,0.505432,0.589783,0.104248,0.621155,down
34940,4.929687,7.152344,3.363281,-0.326172,0.009766,-1.146484,0.505432,0.589783,0.104248,0.621155,down
34945,4.8125,7.257812,3.328125,-0.326172,0.009766,-1.146484,0.509705,0.588318,0.106628,0.618591,down
34950,4.660156,7.378906,3.171875,-0.326172,0.009766,-1.146484,0.509705,0.588318,0.106628,0.618591,down
34955,4.621094,7.417969,3.171875,-0.330078,-0.009766,-1.189453,0.511902,0.587646,0.107849,0.617249,down
34960,4.621094,7.417969,3.171875,-0.330078,-0.009766,-1.189453,0.511902,0.587646,0.107849,0.617249,down
34965,4.621094,7.453125,3.019531,-0.263672,-0.029297,-1.222656,0.511902,0.587646,0.107849,0.617249,down
34970,4.621094,7.453125,3.019531,-0.212891,-0.039063,-1.240234,0.518738,0.585632,0.111877,0.612732,down
34975,5.042969,8.027344,2.636719,-0.212891,-0.039063,-1.240234,0.52301,0.584717,0.114929,0.609436,down
34980,5.195312,8.183594,2.597656,-0.212891,-0.039063,-1.240234,0.525146,0.584351,0.116516,0.607544,down
34986,5.386719,8.449219,2.675781,-0.212891,-0.039063,-1.240234,0.527344,0.584106,0.118042,0.605652,down
34992,5.351562,8.523438,2.675781,-0.212891,-0.039063,-1.240234,0.52948,0.583862,0.119446,0.603699,down
34997,5.234375,8.566406,2.636719,-0.15625,-0.193359,-1.302734,0.52948,0.583862,0.119446,0.603699,down
35004,5.121094,8.640625,2.558594,-0.173828,-0.1875,-1.308594,0.52948,0.583862,0.119446,0.603699,down
35009,4.851562,8.640625,2.484375,-0.173828,-0.1875,-1.308594,0.52948,0.583862,0.119446,0.603699,down
35014,4.738281,8.679688,2.40625,-0.193359,-0.265625,-1.302734,0.52948,0.583862,0.119446,0.603699,down
35019,4.621094,8.683594,2.445313,-0.228516,-0.341797,-1.291016,0.543213,0.582031,0.127441,0.591553,down
35024,4.429687,8.640625,2.445313,-0.228516,-0.341797,-1.291016,0.543213,0.582031,0.127441,0.591553,down
35029,4.394531,8.605469,2.40625,-0.316406,-0.462891,-1.259766,0.545593,0.581848,0.128296,0.589355,down
35034,4.316406,8.527344,2.367188,-0.316406,-0.462891,-1.259766,0.548035,0.581665,0.128967,0.587097,down
35040,4.585937,8.445313,2.253906,-0.423828,-0.509766,-1.205078,0.548035,0.581665,0.128967,0.587097,down
35045,4.738281,8.488281,2.253906,-0.486328,-0.572266,-1.166016,0.553284,0.581116,0.130005,0.582458,down
35051,4.738281,8.488281,2.253906,-0.501953,-0.576172,-1.160156,0.558289,0.580627,0.130554,0.578064,down
35056,5.042969,8.683594,2.332031,-0.501953,-0.576172,-1.160156,0.561157,0.580322,0.130798,0.5755,down
35062,5.234375,8.789063,2.292969,-0.501953,-0.576172,-1.160156,0.563354,0.580078,0.130981,0.573547,down
35067,5.273437,8.789063,2.292969,-0.417969,-0.554687,-1.125,0.563354,0.580078,0.130981,0.573547,down
35072,5.3125,8.792969,2.292969,-0.351563,-0.548828,-1.130859,0.563354,0.580078,0.130981,0.573547,down
35078,5.234375,8.828125,2.292969,-0.279297,-0.539062,-1.125,0.563354,0.580078,0.130981,0.573547,down
35084,5.195312,8.832031,2.332031,-0.199219,-0.541016,-1.132813,0.563354,0.580078,0.130981,0.573547,down
35089,5.082031,8.871094,2.292969,-0.058594,-0.560547,-1.119141,0.563354,0.580078,0.130981,0.573547,down
35094,4.96875,8.871094,2.253906,-0.058594,-0.560547,-1.119141,0.576294,0.580078,0.134033,0.559814,down
35100,4.890625,8.871094,2.367188,-0.033203,-0.578125,-1.109375,0.579956,0.580811,0.13562,0.554932,down
35105,4.8125,8.871094,2.292969,-0.005859,-0.589844,-1.070313,0.579956,0.580811,0.13562,0.554932,down
35110,4.8125,8.871094,2.292969,-0.005859,-0.589844,-1.070313,0.581604,0.581177,0.136353,0.552612,down
35115,4.507812,8.792969,2.214844,-0.007813,-0.601562,-1.044922,0.583252,0.581604,0.137024,0.550232,down
35120,4.507812,8.792969,2.214844,-0.027344,-0.607422,-1.037109,0.5849,0.582031,0.137634,0.547913,down
35126,4.46875,8.601563,2.101563,-0.0625,-0.623047,-1.017578,0.5849,0.582031,0.137634,0.547913,down
35131,4.699219,8.605469,2.0625,-0.091797,-0.648437,-1.005859,0.588318,0.582825,0.138672,0.543091,down
35136,4.699219,8.640625,2.0625,-0.117188,-0.662109,-0.990234,0.591675,0.583557,0.139404,0.538452,down
35142,4.8125,8.679688,2.175781,-0.117188,-0.662109,-0.990234,0.593445,0.583923,0.139648,0.536011,down
35148,4.929687,8.722656,2.253906,-0.111328,-0.683594,-0.958984,0.593445,0.583923,0.139648,0.536011,down
35154,5.003906,8.792969,2.214844,-0.076172,-0.669922,-0.953125,0.593445,0.583923,0.139648,0.536011,down
35160,4.96875,8.828125,2.175781,-0.017578,-0.652344,-0.943359,0.593445,0.583923,0.139648,0.536011,down
35165,4.929687,8.871094,2.140625,-0.017578,-0.652344,-0.943359,0.601379,0.586121,0.141418,0.524231,down
35171,4.738281,9.023438,2.140625,-0.017578,-0.652344,-0.943359,0.602783,0.58667,0.141907,0.521851,down
35176,4.660156,9.023438,2.140625,0.085937,-0.679687,-0.943359,0.602783,0.58667,0.141907,0.521851,down
35181,4.546875,9.105469,2.101563,0.089844,-0.6875,-0.923828,0.605469,0.588013,0.142883,0.517029,down
35186,4.429687,9.105469,2.0625,0.089844,-0.6875,-0.923828,0.605469,0.588013,0.142883,0.517029,down
35192,4.316406,9.214844,2.023438,0.095703,-0.703125,-0.914062,0.607971,0.589355,0.143738,0.512207,down
35198,4.199219,9.332031,1.984375,0.060547,-0.730469,-0.884766,0.607971,0.589355,0.143738,0.512207,down
35203,4.238281,9.367188,1.949219,0.035156,-0.75,-0.867187,0.607971,0.589355,0.143738,0.512207,down
35208,4.316406,9.445313,1.949219,0.035156,-0.75,-0.867187,0.611877,0.59137,0.144531,0.504944,down
35214,4.355469,9.410156,2.023438,-0.056641,-0.765625,-0.835937,0.611877,0.59137,0.144531,0.504944,down
35220,4.316406,9.59375,2.101563,-0.097656,-0.742187,-0.804687,0.611877,0.59137,0.144531,0.504944,down
35225,4.316406,9.632813,2.0625,-0.169922,-0.673828,-0.779297,0.616211,0.592957,0.144531,0.497803,down
35230,4.316406,9.632813,2.0625,-0.197266,-0.646484,-0.755859,0.617737,0.593262,0.14447,0.495483,down
35235,4.277344,9.675781,1.984375,-0.197266,-0.646484,-0.755859,0.619019,0.593506,0.144409,0.493713,down
35240,4.164062,9.675781,1.984375,-0.220703,-0.632812,-0.742187,0.619019,0.593506,0.144409,0.493713,down
35245,4.085937,9.710938,1.984375,-0.248047,-0.638672,-0.710937,0.622009,0.593811,0.144165,0.489685,down
35250,4.085937,9.710938,1.949219,-0.248047,-0.638672,-0.710937,0.624939,0.594055,0.143799,0.485718,down
35255,4.046875,9.75,1.910156,-0.248047,-0.638672,-0.710937,0.624939,0.594055,0.143799,0.485718,down
35260,4.085937,9.828125,2.023438,-0.248047,-0.638672,-0.710937,0.627747,0.594482,0.143188,0.481628,down
35265,4.007812,9.867188,2.023438,-0.248047,-0.638672,-0.710937,0.627747,0.594482,0.143188,0.481628,down
35270,4.007812,9.90625,2.023438,-0.140625,-0.748047,-0.626953,0.627747,0.594482,0.143188,0.481628,down
35276,4.046875,9.867188,2.0625,-0.140625,-0.748047,-0.626953,0.631409,0.595703,0.14209,0.475708,down
35282,4.085937,9.789063,2.023438,-0.140625,-0.748047,-0.626953,0.63269,0.596191,0.141602,0.473511,down
35287,4.085937,9.789063,2.023438,-0.134766,-0.75,-0.548828,0.633667,0.596619,0.141235,0.471802,down
35292,4.085937,9.789063,2.023438,-0.146484,-0.736328,-0.521484,0.634766,0.597046,0.140686,0.469971,down
35297,4.046875,9.753906,1.949219,-0.146484,-0.736328,-0.521484,0.634766,0.597046,0.140686,0.469971,down
35302,3.972656,9.714844,1.949219,-0.154297,-0.722656,-0.5,0.634766,0.597046,0.140686,0.469971,down
35307,3.972656,9.714844,1.949219,-0.205078,-0.708984,-0.439453,0.636902,0.597839,0.139587,0.466309,down
35314,3.894531,9.558594,1.984375,-0.205078,-0.708984,-0.439453,0.637939,0.598206,0.138916,0.4646,down
35320,3.894531,9.523438,2.023438,-0.257813,-0.671875,-0.402344,0.637939,0.598206,0.138916,0.4646,down
35325,3.894531,9.449219,2.023438,-0.251953,-0.658203,-0.357422,0.637939,0.598206,0.138916,0.4646,down
35330,3.816406,9.367188,2.0625,-0.251953,-0.658203,-0.357422,0.642273,0.59906,0.135986,0.458374,down
35335,3.816406,9.292969,2.023438,-0.251953,-0.658203,-0.357422,0.64325,0.599304,0.135132,0.456848,down
35340,3.78125,9.25,2.023438,-0.173828,-0.605469,-0.298828,0.64325,0.599304,0.135132,0.456848,down
35345,3.78125,9.175781,2.023438,-0.173828,-0.605469,-0.298828,0.64502,0.599854,0.133728,0.454163,down
35351,3.664063,8.984375,1.984375,-0.173828,-0.605469,-0.298828,0.646423,0.600525,0.132446,0.45166,down
35356,3.703125,8.949219,2.023438,-0.09375,-0.576172,-0.267578,0.647095,0.600891,0.131714,0.450317,down
35361,3.703125,8.90625,1.984375,-0.074219,-0.576172,-0.263672,0.647766,0.601318,0.131104,0.448975,down
35366,3.742188,8.867188,1.949219,-0.074219,-0.576172,-0.263672,0.648254,0.601746,0.130615,0.447876,down
35372,3.78125,8.75,2.023438,-0.074219,-0.576172,-0.263672,0.648865,0.602234,0.129944,0.446533,down
35377,3.855469,8.753906,2.175781,-0.039063,-0.589844,-0.25,0.649414,0.602722,0.129395,0.445251,down
35383,3.855469,8.722656,2.214844,-0.042969,-0.570312,-0.259766,0.649414,0.602722,0.129395,0.445251,down
35388,3.816406,8.601563,2.175781,-0.042969,-0.570312,-0.259766,0.650391,0.603577,0.128357,0.442932,down
35394,3.816406,8.523438,2.214844,-0.054687,-0.542969,-0.259766,0.650391,0.603577,0.128357,0.442932,down
35399,3.816406,8.484375,2.214844,-0.0625,-0.539062,-0.257813,0.650391,0.603577,0.128357,0.442932,down
35405,3.78125,8.410156,2.253906,-0.076172,-0.519531,-0.265625,0.650391,0.603577,0.128357,0.442932,down
35410,3.78125,8.410156,2.332031,-0.076172,-0.519531,-0.265625,0.653198,0.605469,0.125793,0.43689,down
35415,3.78125,8.371094,2.332031,-0.076172,-0.519531,-0.265625,0.653198,0.605469,0.125793,0.43689,down
35420,3.742188,8.371094,2.332031,-0.087891,-0.503906,-0.269531,0.653198,0.605469,0.125793,0.43689,down
35425,3.703125,8.335938,2.292969,-0.087891,-0.503906,-0.269531,0.654358,0.60614,0.124817,0.43457,down
35431,3.703125,8.371094,2.253906,-0.066406,-0.457031,-0.287109,0.654358,0.60614,0.124817,0.43457,down
35436,3.703125,8.335938,2.292969,-0.066406,-0.457031,-0.287109,0.656067,0.606995,0.123657,0.431152,down
35441,3.703125,8.371094,2.292969,-0.066406,-0.457031,-0.287109,0.656494,0.6073,0.123413,0.430054,down
35446,3.742188,8.371094,2.253906,-0.066406,-0.457031,-0.287109,0.656982,0.607666,0.12323,0.428894,down
35451,3.742188,8.410156,2.332031,0.035156,-0.417969,-0.322266,0.657471,0.608093,0.123047,0.427673,down
35456,3.742188,8.488281,2.332031,0.035156,-0.417969,-0.322266,0.657837,0.608459,0.122986,0.426453,down
35461,3.742188,8.5625,2.292969,0.035156,-0.417969,-0.322266,0.658203,0.608826,0.122986,0.425415,down
35466,3.703125,8.644531,2.292969,0.035156,-0.417969,-0.322266,0.658203,0.608826,0.122986,0.425415,down
35471,3.664063,8.683594,2.292969,0.074219,-0.349609,-0.365234,0.658997,0.609619,0.123169,0.423035,down
35477,3.550781,8.792969,2.253906,0.074219,-0.349609,-0.365234,0.659302,0.609924,0.12323,0.421997,down
35482,3.550781,8.832031,2.214844,0.054687,-0.328125,-0.373047,0.659302,0.609924,0.12323,0.421997,down
35487,3.511719,8.949219,2.292969,0.039063,-0.337891,-0.373047,0.660156,0.610535,0.123474,0.419739,down
35492,3.472656,8.949219,2.292969,0.017578,-0.345703,-0.376953,0.660583,0.61084,0.123535,0.41864,down
35498,3.398438,9.066406,2.367188,0.017578,-0.345703,-0.376953,0.661133,0.611084,0.123596,0.41748,down
35503,3.320313,9.066406,2.332031,-0.039063,-0.341797,-0.375,0.661133,0.611084,0.123596,0.41748,down
35509,3.359375,9.0625,2.332031,-0.058594,-0.357422,-0.367188,0.661133,0.611084,0.123596,0.41748,down
35515,3.28125,9.0625,2.332031,-0.058594,-0.357422,-0.367188,0.661133,0.611084,0.123596,0.41748,down
35520,3.28125,9.023438,2.367188,-0.09375,-0.390625,-0.371094,0.661133,0.611084,0.123596,0.41748,down
35525,3.320313,9.0625,2.367188,-0.09375,-0.390625,-0.371094,0.664124,0.611755,0.123291,0.411743,down
35531,3.359375,9.105469,2.367188,-0.09375,-0.390625,-0.371094,0.665405,0.612,0.122986,0.409424,down
35536,3.359375,9.140625,2.40625,-0.09375,-0.390625,-0.371094,0.665405,0.612,0.122986,0.409424,down
35541,3.359375,9.171875,2.332031,-0.132812,-0.376953,-0.365234,0.665405,0.612,0.122986,0.409424,down
35546,3.320313,9.175781,2.332031,-0.132812,-0.376953,-0.365234,0.667419,0.612122,0.122498,0.405945,down
35551,3.28125,9.253906,2.332031,-0.132812,-0.376953,-0.365234,0.668091,0.612183,0.122375,0.404846,down
35556,3.207031,9.289063,2.253906,-0.132812,-0.376953,-0.365234,0.668091,0.612183,0.122375,0.404846,down
35561,3.167969,9.25,2.214844,-0.138672,-0.375,-0.359375,0.669556,0.612183,0.121948,0.402527,down
35566,3.128906,9.25,2.214844,-0.154297,-0.384766,-0.359375,0.669556,0.612183,0.121948,0.402527,down
35571,3.089844,9.289063,2.101563,-0.152344,-0.400391,-0.339844,0.670227,0.612183,0.121765,0.401428,down
35576,3.011719,9.328125,2.0625,-0.152344,-0.400391,-0.339844,0.671692,0.612244,0.121216,0.399109,down
35581,3.050781,9.40625,2.023438,-0.152344,-0.400391,-0.339844,0.671692,0.612244,0.121216,0.399109,down
35586,3.011719,9.410156,1.984375,-0.152344,-0.400391,-0.339844,0.672363,0.612305,0.120972,0.397949,down
35592,3.011719,9.410156,1.984375,-0.121094,-0.421875,-0.316406,0.672913,0.612366,0.120728,0.396973,down
35597,3.011719,9.410156,2.023438,-0.101563,-0.423828,-0.318359,0.672913,0.612366,0.120728,0.396973,down
35602,2.976563,9.410156,2.023438,-0.095703,-0.421875,-0.310547,0.674133,0.612671,0.120056,0.394653,down
35607,2.976563,9.410156,2.023438,-0.068359,-0.412109,-0.298828,0.674744,0.612854,0.119751,0.393494,down
35612,2.9375,9.40625,1.871094,-0.068359,-0.412109,-0.298828,0.675232,0.613037,0.119507,0.392395,down
35617,2.9375,9.40625,1.871094,-0.042969,-0.419922,-0.265625,0.675232,0.613037,0.119507,0.392395,down
35622,2.9375,9.40625,1.910156,-0.042969,-0.419922,-0.265625,0.676575,0.613708,0.118591,0.389221,down
35628,2.9375,9.40625,1.910156,-0.042969,-0.419922,-0.265625,0.677063,0.613953,0.118286,0.388123,down
35634,2.9375,9.40625,1.910156,-0.03125,-0.449219,-0.255859,0.677063,0.613953,0.118286,0.388123,down
35640,2.9375,9.410156,1.949219,-0.033203,-0.447266,-0.25,0.677063,0.613953,0.118286,0.388123,down
35645,2.976563,9.367188,1.871094,-0.0625,-0.441406,-0.251953,0.677063,0.613953,0.118286,0.388123,down
35651,2.976563,9.289063,1.832031,-0.087891,-0.443359,-0.248047,0.677063,0.613953,0.118286,0.388123,down
35656,3.050781,9.253906,1.792969,-0.087891,-0.443359,-0.248047,0.67981,0.615479,0.115906,0.381592,down
35661,3.089844,9.210938,1.757813,-0.0625,-0.417969,-0.25,0.67981,0.615479,0.115906,0.381592,down
35666,3.089844,9.25,1.71875,-0.0625,-0.417969,-0.25,0.680725,0.615906,0.115112,0.379517,down
35671,3.167969,9.289063,1.71875,-0.042969,-0.402344,-0.246094,0.680725,0.615906,0.115112,0.379517,down
35676,3.167969,9.289063,1.71875,-0.042969,-0.402344,-0.246094,0.68158,0.616333,0.114502,0.377441,down
35681,3.167969,9.367188,1.71875,-0.042969,-0.402344,-0.246094,0.68158,0.616333,0.114502,0.377441,down
35686,3.167969,9.332031,1.679688,-0.023437,-0.359375,-0.253906,0.68158,0.616333,0.114502,0.377441,down
35691,3.128906,9.410156,1.640625,0.0,-0.349609,-0.263672,0.68158,0.616333,0.114502,0.377441,down
35696,3.128906,9.449219,1.757813,0.0,-0.349609,-0.263672,0.683044,0.617371,0.11377,0.373291,down
35701,3.128906,9.449219,1.792969,0.0,-0.349609,-0.263672,0.683044,0.617371,0.11377,0.373291,down
35706,3.128906,9.484375,1.792969,0.050781,-0.351563,-0.271484,0.683044,0.617371,0.11377,0.373291,down
35712,3.089844,9.523438,1.71875,0.050781,-0.351563,-0.271484,0.683899,0.618225,0.113403,0.370361,down
35717,3.089844,9.523438,1.71875,0.017578,-0.351563,-0.263672,0.684265,0.618591,0.113281,0.369202,down
35722,3.011719,9.554688,1.679688,0.003906,-0.371094,-0.248047,0.68457,0.618835,0.113098,0.368225,down
35728,3.011719,9.558594,1.792969,0.003906,-0.371094,-0.248047,0.684875,0.61908,0.112854,0.36731,down
35733,2.976563,9.59375,1.792969,0.003906,-0.371094,-0.248047,0.685242,0.619324,0.11261,0.366333,down
35739,2.976563,9.558594,1.757813,-0.048828,-0.367188,-0.216797,0.685242,0.619324,0.11261,0.366333,down
35744,2.976563,9.484375,1.71875,-0.076172,-0.369141,-0.210937,0.685242,0.619324,0.11261,0.366333,down
35750,2.976563,9.445313,1.679688,-0.076172,-0.369141,-0.210937,0.686462,0.619812,0.111633,0.363586,down
35755,2.976563,9.449219,1.71875,-0.089844,-0.384766,-0.183594,0.686462,0.619812,0.111633,0.363586,down
35760,2.976563,9.484375,1.757813,-0.080078,-0.390625,-0.179687,0.686462,0.619812,0.111633,0.363586,down
35766,3.050781,9.527344,1.792969,-0.058594,-0.376953,-0.171875,0.686462,0.619812,0.111633,0.363586,down
35771,3.089844,9.558594,1.757813,-0.058594,-0.376953,-0.171875,0.688232,0.620667,0.109558,0.359253,down
35776,3.089844,9.558594,1.792969,0.009766,-0.318359,-0.167969,0.688232,0.620667,0.109558,0.359253,down
35781,3.089844,9.523438,1.757813,0.009766,-0.318359,-0.167969,0.688538,0.620911,0.109253,0.358398,down
35786,3.128906,9.527344,1.679688,0.009766,-0.318359,-0.167969,0.688721,0.621155,0.109009,0.357605,down
35791,3.050781,9.554688,1.71875,0.052734,-0.269531,-0.15625,0.688721,0.621155,0.109009,0.357605,down
35796,3.089844,9.59375,1.71875,0.052734,-0.269531,-0.15625,0.689087,0.621765,0.108643,0.35614,down
35802,3.089844,9.632813,1.757813,0.052734,-0.269531,-0.15625,0.68927,0.622314,0.108337,0.354797,down
35807,3.050781,9.636719,1.792969,0.029297,-0.234375,-0.136719,0.68927,0.622314,0.108337,0.354797,down
35812,3.011719,9.675781,1.792969,0.029297,-0.234375,-0.136719,0.689575,0.622742,0.108032,0.353577,down
35817,2.976563,9.675781,1.757813,0.029297,-0.234375,-0.136719,0.689758,0.622925,0.107849,0.352966,down
35823,2.898438,9.636719,1.757813,0.029297,-0.234375,-0.136719,0.689941,0.623047,0.107666,0.352478,down
35828,2.898438,9.636719,1.757813,-0.046875,-0.230469,-0.091797,0.690125,0.623108,0.107361,0.351929,down
35833,2.859375,9.597656,1.757813,-0.046875,-0.230469,-0.091797,0.690369,0.623169,0.107117,0.35144,down
35839,2.898438,9.554688,1.871094,-0.046875,-0.230469,-0.091797,0.690674,0.623291,0.10675,0.350891,down
35844,2.859375,9.554688,1.792969,-0.078125,-0.294922,-0.068359,0.690674,0.623291,0.10675,0.350891,down
35849,2.898438,9.554688,1.832031,-0.078125,-0.318359,-0.056641,0.690674,0.623291,0.10675,0.350891,down
35855,2.898438,9.527344,1.871094,-0.083984,-0.320313,-0.056641,0.690674,0.623291,0.10675,0.350891,down
35860,2.859375,9.554688,1.792969,-0.078125,-0.330078,-0.048828,0.690674,0.623291,0.10675,0.350891,down
35866,2.898438,9.527344,1.757813,-0.078125,-0.328125,-0.052734,0.690674,0.623291,0.10675,0.350891,down
35871,2.859375,9.40625,1.679688,-0.078125,-0.326172,-0.050781,0.690674,0.623291,0.10675,0.350891,down
35876,2.859375,9.410156,1.71875,-0.078125,-0.326172,-0.050781,0.692505,0.624084,0.103149,0.346863,down
35882,2.898438,9.410156,1.71875,-0.074219,-0.332031,-0.029297,0.692505,0.624084,0.103149,0.346863,down
35887,2.898438,9.410156,1.71875,-0.074219,-0.332031,-0.029297,0.693237,0.624512,0.101379,0.345093,down
35893,2.976563,9.40625,1.601563,-0.074219,-0.332031,-0.029297,0.693481,0.624634,0.10083,0.344604,down
35898,3.011719,9.371094,1.640625,-0.103516,-0.316406,-0.019531,0.693481,0.624634,0.10083,0.344604,down
35903,3.011719,9.371094,1.640625,-0.091797,-0.306641,-0.007813,0.69397,0.624817,0.09967,0.343628,down
35909,3.011719,9.292969,1.679688,-0.072266,-0.287109,0.0,0.69397,0.624817,0.09967,0.343628,down
35915,3.050781,9.332031,1.601563,-0.060547,-0.259766,0.005859,0.69397,0.624817,0.09967,0.343628,down
35920,3.011719,9.292969,1.640625,-0.042969,-0.236328,0.009766,0.69397,0.624817,0.09967,0.343628,down
35925,3.011719,9.253906,1.640625,-0.029297,-0.224609,0.017578,0.69397,0.624817,0.09967,0.343628,down
35930,3.011719,9.289063,1.601563,-0.029297,-0.224609,0.017578,0.69397,0.624817,0.09967,0.343628,down
35935,2.976563,9.253906,1.566406,-0.007813,-0.197266,0.009766,0.69397,0.624817,0.09967,0.343628,down
35941,2.976563,9.210938,1.601563,0.011719,-0.183594,0.007813,0.69397,0.624817,0.09967,0.343628,down
35946,2.9375,9.210938,1.527344,0.011719,-0.183594,0.007813,0.694824,0.625916,0.096191,0.34082,down
35952,2.9375,9.210938,1.601563,0.011719,-0.185547,0.007813,0.694885,0.626221,0.095581,0.340271,down
35957,2.9375,9.214844,1.640625,0.0,-0.179687,0.015625,0.694885,0.626221,0.095581,0.340271,down
35962,2.976563,9.210938,1.601563,0.0,-0.179687,0.015625,0.694946,0.626404,0.095215,0.339966,down
35967,2.9375,9.214844,1.566406,0.0,-0.179687,0.015625,0.695007,0.626709,0.094604,0.339478,down
35973,2.9375,9.210938,1.527344,0.0,-0.179687,0.015625,0.695129,0.626831,0.094238,0.339172,down
35978,2.898438,9.210938,1.566406,-0.023437,-0.1875,0.009766,0.695129,0.626831,0.094238,0.339172,down
35984,2.898438,9.171875,1.527344,-0.023437,-0.1875,0.009766,0.695251,0.627075,0.093567,0.338623,down
35989,2.859375,9.214844,1.488281,-0.037109,-0.181641,0.013672,0.695251,0.627075,0.093567,0.338623,down
35995,2.859375,9.210938,1.566406,-0.03125,-0.175781,0.013672,0.695251,0.627075,0.093567,0.338623,down
36001,2.898438,9.253906,1.527344,-0.033203,-0.189453,0.017578,0.695618,0.627441,0.092102,0.337524,down
36006,2.898438,9.214844,1.527344,-0.033203,-0.189453,0.017578,0.695618,0.627441,0.092102,0.337524,down
36011,2.859375,9.214844,1.527344,-0.039063,-0.164062,0.011719,0.695618,0.627441,0.092102,0.337524,down
36017,2.859375,9.175781,1.449219,-0.027344,-0.150391,0.003906,0.695618,0.627441,0.092102,0.337524,down
36022,2.859375,9.175781,1.449219,-0.003906,-0.134766,0.007813,0.695923,0.627808,0.090942,0.336609,down
36027,2.859375,9.210938,1.449219,0.007813,-0.125,0.007813,0.695923,0.62793,0.090698,0.336365,down
36032,2.898438,9.214844,1.410156,0.019531,-0.117188,0.017578,0.695923,0.62793,0.090698,0.336365,down
36037,2.859375,9.253906,1.527344,0.019531,-0.117188,0.017578,0.695923,0.628174,0.090271,0.335999,down
36042,2.859375,9.289063,1.566406,0.019531,-0.078125,0.015625,0.695923,0.628174,0.090271,0.335999,down
36047,2.859375,9.332031,1.488281,0.019531,-0.078125,0.015625,0.695923,0.628418,0.089966,0.335754,down
36052,2.820313,9.292969,1.449219,0.017578,-0.046875,0.019531,0.695923,0.628418,0.089966,0.335754,down
36058,2.820313,9.292969,1.449219,0.017578,-0.046875,0.019531,0.695862,0.62854,0.089783,0.335693,down
36063,2.820313,9.328125,1.488281,0.023437,-0.070312,0.029297,0.695862,0.62854,0.089783,0.335693,down
36068,2.820313,9.289063,1.527344,0.03125,-0.068359,0.025391,0.695862,0.62854,0.089783,0.335693,down
36074,2.820313,9.292969,1.449219,0.03125,-0.068359,0.025391,0.695679,0.628906,0.089355,0.335449,down
36080,2.820313,9.292969,1.449219,0.033203,-0.048828,0.017578,0.695679,0.628906,0.089355,0.335449,down
36085,2.785156,9.328125,1.410156,0.035156,-0.064453,0.027344,0.695679,0.628906,0.089355,0.335449,down
36090,2.820313,9.40625,1.527344,0.035156,-0.078125,0.03125,0.695679,0.628906,0.089355,0.335449,down
36095,2.820313,9.40625,1.527344,0.035156,-0.076172,0.019531,0.695679,0.628906,0.089355,0.335449,down
36100,2.820313,9.40625,1.527344,0.021484,-0.070312,0.017578,0.695679,0.628906,0.089355,0.335449,down
36105,2.820313,9.40625,1.488281,-0.007813,-0.048828,0.013672,0.695679,0.628906,0.089355,0.335449,down
36110,2.820313,9.328125,1.488281,-0.007813,-0.048828,0.013672,0.695679,0.628906,0.089355,0.335449,down
36115,2.859375,9.332031,1.488281,-0.007813,-0.048828,0.013672,0.695496,0.629578,0.08844,0.334717,down
36120,2.820313,9.328125,1.527344,-0.013672,-0.058594,0.015625,0.695496,0.629578,0.08844,0.334717,down
36126,2.820313,9.328125,1.527344,-0.013672,-0.058594,0.015625,0.695557,0.629639,0.088135,0.334595,down
36132,2.859375,9.328125,1.566406,-0.013672,-0.058594,0.015625,0.695618,0.629639,0.087952,0.334534,down
36137,2.859375,9.289063,1.566406,-0.046875,-0.019531,0.017578,0.695618,0.629639,0.087952,0.334534,down
36142,2.859375,9.253906,1.527344,-0.046875,-0.019531,0.017578,0.69574,0.629578,0.08783,0.334473,down
36147,2.820313,9.214844,1.566406,-0.046875,-0.019531,0.017578,0.695862,0.629456,0.087646,0.334473,down
36152,2.820313,9.25,1.527344,-0.046875,-0.019531,0.017578,0.695862,0.629456,0.087646,0.334473,down
36157,2.785156,9.292969,1.566406,-0.015625,-0.017578,0.017578,0.695923,0.629456,0.087463,0.334473,down
36162,2.859375,9.253906,1.601563,-0.015625,-0.017578,0.017578,0.695923,0.629456,0.087402,0.334412,down
36167,2.820313,9.25,1.601563,-0.015625,-0.017578,0.017578,0.695862,0.629517,0.087402,0.334412,down
36172,2.785156,9.292969,1.640625,-0.015625,-0.017578,0.017578,0.695862,0.629517,0.087402,0.334412,down
36177,2.785156,9.292969,1.679688,0.017578,-0.007813,0.009766,0.695862,0.629578,0.087341,0.334351,down
36182,2.820313,9.253906,1.640625,0.017578,-0.007813,0.009766,0.69574,0.6297,0.087341,0.33429,down
36187,2.785156,9.253906,1.640625,0.076172,-0.017578,0.013672,0.69574,0.6297,0.087341,0.33429,down
36192,2.820313,9.292969,1.679688,0.076172,-0.017578,0.013672,0.695679,0.629822,0.087341,0.334229,down
36197,2.820313,9.332031,1.679688,0.076172,-0.015625,0.007813,0.695679,0.629822,0.087341,0.334229,down
36202,2.820313,9.371094,1.640625,0.076172,-0.015625,0.007813,0.695435,0.630127,0.087402,0.334106,down
36207,2.820313,9.328125,1.601563,0.076172,-0.015625,0.007813,0.695312,0.63031,0.087402,0.334045,down
36212,2.820313,9.332031,1.640625,0.052734,-0.027344,0.009766,0.69519,0.630493,0.087402,0.333984,down
36217,2.898438,9.328125,1.640625,0.052734,-0.027344,0.009766,0.69519,0.630554,0.087341,0.333923,down
36222,2.859375,9.289063,1.640625,0.052734,-0.027344,0.009766,0.69519,0.630554,0.087341,0.333923,down
36227,2.859375,9.289063,1.679688,0.007813,-0.003906,0.001953,0.69519,0.630554,0.087341,0.333923,down
36232,2.898438,9.25,1.640625,0.001953,0.0,0.001953,0.69519,0.630554,0.087341,0.333862,down
36237,2.859375,9.289063,1.679688,0.001953,0.0,0.001953,0.69519,0.630554,0.087341,0.333862,down
36242,2.898438,9.25,1.679688,-0.027344,0.025391,0.001953,0.695251,0.630554,0.087341,0.333801,down
36247,2.898438,9.25,1.679688,-0.027344,0.025391,0.001953,0.695251,0.630493,0.087341,0.333801,down
36253,2.859375,9.253906,1.757813,-0.027344,0.025391,0.001953,0.695312,0.630371,0.087341,0.333862,down
36258,2.859375,9.253906,1.757813,0.013672,0.052734,0.009766,0.695312,0.630371,0.087402,0.333923,down
36263,2.820313,9.289063,1.71875,0.023437,0.048828,0.009766,0.695251,0.630371,0.087524,0.333984,down
36269,2.820313,9.289063,1.757813,0.023437,0.048828,0.009766,0.695251,0.630432,0.087585,0.334045,down
36274,2.859375,9.332031,1.832031,0.023437,0.048828,0.009766,0.695129,0.630432,0.087585,0.334045,down
36279,2.820313,9.328125,1.871094,0.048828,0.015625,0.009766,0.695129,0.630432,0.087585,0.334045,down
36284,2.820313,9.328125,1.832031,0.048828,0.013672,0.009766,0.695129,0.630432,0.087585,0.334045,down
36290,2.820313,9.40625,1.832031,0.048828,0.013672,0.009766,0.694946,0.630676,0.087769,0.334045,down
36295,2.820313,9.40625,1.832031,0.052734,0.019531,-0.009766,0.694946,0.630676,0.087769,0.334045,down
36300,2.785156,9.40625,1.871094,0.046875,0.017578,-0.007813,0.694946,0.630676,0.087769,0.334045,down
36306,2.785156,9.40625,1.871094,0.037109,0.017578,-0.001953,0.694946,0.630676,0.087769,0.334045,down
36312,2.707031,9.40625,1.871094,0.037109,0.017578,-0.001953,0.694702,0.63092,0.088074,0.333984,down
36317,2.746094,9.40625,1.910156,0.037109,0.017578,-0.001953,0.694702,0.63092,0.088074,0.333984,down
36322,2.707031,9.367188,1.871094,-0.021484,0.003906,0.001953,0.694763,0.630859,0.088013,0.333984,down
36328,2.707031,9.367188,1.871094,-0.021484,0.003906,0.001953,0.694763,0.630859,0.088013,0.333984,down
36333,2.707031,9.328125,1.871094,-0.039063,-0.013672,0.021484,0.694763,0.630859,0.088013,0.333984,down
36338,2.707031,9.289063,1.910156,-0.039063,-0.013672,0.021484,0.694946,0.630737,0.087769,0.333984,down
36344,2.707031,9.25,1.871094,-0.039063,-0.013672,0.021484,0.694946,0.630737,0.087646,0.333984,down
36349,2.707031,9.25,1.871094,0.009766,-0.039063,0.021484,0.694946,0.630798,0.087524,0.333984,down
36354,2.707031,9.292969,1.949219,0.009766,-0.039063,0.021484,0.694885,0.630859,0.087463,0.333862,down
36359,2.746094,9.292969,1.984375,0.009766,-0.039063,0.021484,0.694824,0.631042,0.087341,0.33374,down
36364,2.785156,9.253906,1.949219,0.009766,-0.039063,0.021484,0.694824,0.631042,0.087341,0.33374,down
36369,2.785156,9.253906,1.949219,0.064453,-0.056641,0.007813,0.694824,0.631042,0.087341,0.33374,down
36375,2.746094,9.210938,1.871094,0.064453,-0.056641,0.007813,0.694641,0.63147,0.087097,0.333374,down
36380,2.746094,9.210938,1.871094,0.064453,-0.056641,0.007813,0.694641,0.63147,0.087097,0.333374,down
36386,2.746094,9.210938,1.832031,0.050781,-0.056641,0.005859,0.694641,0.63147,0.087097,0.333374,down
36391,2.746094,9.175781,1.871094,0.03125,-0.064453,0.009766,0.694641,0.63147,0.087097,0.333374,down
36396,2.707031,9.105469,1.910156,0.001953,-0.072266,0.009766,0.694641,0.63147,0.087097,0.333374,down
36401,2.785156,9.140625,1.910156,-0.027344,-0.083984,0.011719,0.694641,0.63147,0.087097,0.333374,down
36406,2.785156,9.066406,1.910156,-0.027344,-0.083984,0.011719,0.694519,0.632141,0.086365,0.332642,down
36411,2.820313,9.023438,1.910156,-0.042969,-0.091797,0.009766,0.694519,0.632141,0.086365,0.332642,down
36416,2.785156,9.023438,1.910156,-0.042969,-0.091797,0.009766,0.694641,0.632141,0.085876,0.332336,down
36422,2.820313,9.027344,1.949219,0.001953,-0.115234,-0.017578,0.694641,0.632141,0.085876,0.332336,down
36427,2.859375,8.988281,1.871094,0.001953,-0.115234,-0.017578,0.694763,0.632324,0.08551,0.331909,down
36432,2.859375,8.988281,1.871094,0.001953,-0.115234,-0.017578,0.694824,0.632385,0.085327,0.331665,down
36437,2.898438,8.988281,1.871094,0.001953,-0.115234,-0.017578,0.694824,0.632568,0.085144,0.331421,down
36443,2.859375,9.027344,1.871094,0.044922,-0.126953,-0.048828,0.694824,0.632568,0.085144,0.331421,down
36448,2.859375,9.027344,1.832031,0.044922,-0.126953,-0.048828,0.694885,0.633057,0.084778,0.330444,down
36454,2.859375,9.0625,1.757813,0.044922,-0.126953,-0.048828,0.694885,0.63324,0.084717,0.330139,down
36459,2.820313,9.105469,1.757813,0.052734,-0.103516,-0.058594,0.694885,0.633423,0.084656,0.329773,down
36464,2.785156,9.140625,1.757813,0.03125,-0.103516,-0.0625,0.694885,0.633423,0.084656,0.329773,down
36469,2.820313,9.210938,1.71875,0.019531,-0.099609,-0.058594,0.694885,0.633423,0.084656,0.329773,down
36475,2.785156,9.214844,1.679688,0.019531,-0.099609,-0.058594,0.694885,0.633423,0.084656,0.329773,down
36481,2.785156,9.25,1.71875,0.005859,-0.115234,-0.056641,0.694885,0.633423,0.084656,0.329773,down
36486,2.820313,9.289063,1.71875,0.015625,-0.115234,-0.064453,0.694885,0.633423,0.084656,0.329773,down
36492,2.785156,9.292969,1.640625,0.015625,-0.115234,-0.064453,0.695251,0.634277,0.083984,0.327454,down
36497,2.785156,9.332031,1.679688,0.015625,-0.115234,-0.064453,0.695251,0.634277,0.083984,0.327454,down
36502,2.820313,9.332031,1.679688,0.027344,-0.130859,-0.068359,0.695374,0.634583,0.083801,0.326721,down
36507,2.785156,9.328125,1.601563,0.027344,-0.130859,-0.068359,0.695374,0.634583,0.083801,0.326721,down
36513,2.785156,9.371094,1.566406,0.044922,-0.128906,-0.066406,0.695374,0.634583,0.083801,0.326721,down
36518,2.785156,9.371094,1.640625,0.044922,-0.128906,-0.066406,0.695435,0.635132,0.083496,0.325562,down
36523,2.820313,9.332031,1.640625,0.044922,-0.128906,-0.066406,0.695435,0.635132,0.083496,0.325562,down
36528,2.820313,9.289063,1.601563,0.044922,-0.128906,-0.066406,0.695496,0.635315,0.083374,0.325134,down
36533,2.820313,9.289063,1.601563,0.015625,-0.126953,-0.060547,0.695557,0.635559,0.08313,0.324524,down
36538,2.820313,9.289063,1.601563,0.015625,-0.126953,-0.060547,0.695557,0.635559,0.08313,0.324524,down
36543,2.859375,9.328125,1.566406,0.005859,-0.123047,-0.058594,0.695679,0.635681,0.083008,0.324158,down
36548,2.859375,9.328125,1.566406,0.005859,-0.123047,-0.058594,0.695679,0.635681,0.083008,0.324158,down
36554,2.859375,9.332031,1.527344,0.025391,-0.109375,-0.054687,0.695801,0.636047,0.082642,0.323181,down
36559,2.820313,9.289063,1.527344,0.025391,-0.109375,-0.054687,0.695862,0.636169,0.08252,0.322876,down
36565,2.859375,9.332031,1.527344,0.025391,-0.109375,-0.054687,0.695862,0.636353,0.082458,0.322571,down
36571,2.859375,9.371094,1.488281,0.056641,-0.101563,-0.0625,0.695862,0.636475,0.082397,0.322266,down
36576,2.859375,9.410156,1.488281,0.0625,-0.099609,-0.058594,0.695862,0.636475,0.082397,0.322266,down
36581,2.820313,9.488281,1.566406,0.0625,-0.099609,-0.058594,0.695862,0.636475,0.082397,0.322266,down
36586,2.859375,9.445313,1.527344,0.0625,-0.099609,-0.058594,0.695801,0.637024,0.082275,0.32135,down
36591,2.898438,9.449219,1.566406,0.048828,-0.087891,-0.060547,0.695801,0.637024,0.082275,0.32135,down
36596,2.859375,9.445313,1.488281,0.048828,-0.087891,-0.060547,0.695801,0.637329,0.082214,0.320801,down
36602,2.859375,9.484375,1.449219,0.048828,-0.087891,-0.060547,0.695801,0.637329,0.082214,0.320801,down
36607,2.859375,9.445313,1.488281,0.015625,-0.072266,-0.054687,0.695801,0.637329,0.082214,0.320801,down
36613,2.820313,9.449219,1.527344,0.007813,-0.082031,-0.052734,0.695801,0.637329,0.082214,0.320801,down
36618,2.820313,9.40625,1.488281,0.007813,-0.082031,-0.052734,0.696045,0.637756,0.08197,0.319519,down
36623,2.859375,9.445313,1.488281,0.007813,-0.082031,-0.052734,0.696045,0.637756,0.08197,0.319519,down
36628,2.859375,9.40625,1.449219,-0.021484,-0.060547,-0.041016,0.696045,0.637756,0.08197,0.319519,down
36633,2.898438,9.371094,1.527344,-0.021484,-0.060547,-0.041016,0.696289,0.637756,0.081787,0.318909,down
36638,2.859375,9.40625,1.566406,-0.009766,-0.033203,-0.046875,0.696289,0.637756,0.081787,0.318909,down
36643,2.859375,9.367188,1.566406,-0.009766,-0.033203,-0.046875,0.696411,0.637756,0.081787,0.318726,down
36648,2.859375,9.371094,1.527344,0.017578,-0.029297,-0.044922,0.696411,0.637756,0.081787,0.318726,down
36653,2.898438,9.367188,1.566406,0.017578,-0.029297,-0.044922,0.696472,0.637878,0.081787,0.318298,down
36658,2.898438,9.328125,1.566406,0.025391,-0.017578,-0.046875,0.696472,0.637878,0.081787,0.318298,down
36663,2.898438,9.332031,1.527344,0.025391,-0.017578,-0.046875,0.696472,0.637939,0.081848,0.318115,down
36668,2.859375,9.328125,1.566406,0.009766,-0.03125,-0.048828,0.696472,0.637939,0.081848,0.318115,down
36674,2.898438,9.332031,1.488281,0.0,-0.029297,-0.054687,0.696533,0.638062,0.081909,0.31781,down
36679,2.9375,9.289063,1.601563,0.0,-0.029297,-0.054687,0.696655,0.638123,0.08197,0.317444,down
36685,2.9375,9.289063,1.601563,0.0,-0.029297,-0.054687,0.696716,0.638123,0.08197,0.317261,down
36690,2.898438,9.328125,1.566406,0.0,-0.029297,-0.054687,0.696777,0.638123,0.08197,0.317139,down
36695,2.898438,9.292969,1.601563,-0.039063,-0.021484,-0.050781,0.696777,0.638123,0.08197,0.317139,down
36700,2.898438,9.253906,1.527344,-0.052734,-0.011719,-0.050781,0.696777,0.638123,0.08197,0.317139,down
36706,2.859375,9.292969,1.601563,-0.052734,-0.011719,-0.050781,0.697144,0.637939,0.08197,0.316711,down
36712,2.785156,9.289063,1.527344,-0.044922,-0.015625,-0.050781,0.697144,0.637939,0.08197,0.316711,down
36718,2.746094,9.289063,1.527344,-0.048828,-0.021484,-0.050781,0.69751,0.637756,0.08197,0.316284,down
36723,2.785156,9.289063,1.527344,-0.048828,-0.021484,-0.050781,0.697632,0.637695,0.081909,0.316101,down
36728,2.785156,9.328125,1.527344,-0.048828,-0.021484,-0.050781,0.697754,0.637695,0.081848,0.315918,down
36733,2.820313,9.371094,1.566406,-0.048828,-0.021484,-0.050781,0.697754,0.637695,0.081848,0.315918,down
36738,2.820313,9.371094,1.566406,-0.021484,-0.070312,-0.029297,0.697937,0.637695,0.081665,0.315552,down
36743,2.820313,9.328125,1.527344,-0.021484,-0.070312,-0.029297,0.697937,0.637695,0.081665,0.315552,down
36748,2.785156,9.367188,1.488281,-0.021484,-0.070312,-0.029297,0.697937,0.637756,0.081543,0.315369,down
36754,2.820313,9.367188,1.488281,0.007813,-0.054687,-0.017578,0.697998,0.637939,0.08136,0.315063,down
36759,2.859375,9.410156,1.527344,0.007813,-0.054687,-0.017578,0.697937,0.638062,0.081299,0.314941,down
36764,2.859375,9.445313,1.527344,0.03125,-0.041016,0.001953,0.697876,0.638184,0.081177,0.314819,down
36770,2.820313,9.449219,1.488281,0.03125,-0.041016,0.001953,0.697876,0.638245,0.081177,0.314697,down
36775,2.859375,9.445313,1.488281,0.03125,-0.021484,0.001953,0.697815,0.638367,0.081116,0.314636,down
36781,2.859375,9.410156,1.527344,0.03125,-0.021484,0.001953,0.697754,0.638428,0.081055,0.314575,down
36786,2.859375,9.371094,1.488281,0.039063,0.001953,0.007813,0.697754,0.638428,0.081055,0.314575,down
36791,2.859375,9.40625,1.449219,0.050781,0.015625,0.001953,0.697754,0.638428,0.081055,0.314575,down
36796,2.859375,9.328125,1.449219,0.050781,0.015625,0.001953,0.69751,0.638672,0.081177,0.314514,down
36801,2.859375,9.328125,1.449219,0.035156,0.019531,0.0,0.69751,0.638672,0.081177,0.314514,down
36806,2.859375,9.328125,1.449219,0.029297,0.007813,0.007813,0.697388,0.638855,0.081238,0.314514,down
36811,2.859375,9.332031,1.488281,0.011719,0.005859,0.001953,0.697388,0.638855,0.081238,0.314514,down
36816,2.859375,9.332031,1.488281,0.015625,0.009766,-0.007813,0.697388,0.638855,0.081238,0.314514,down
36822,2.859375,9.332031,1.488281,0.029297,0.0,0.005859,0.697388,0.638855,0.081238,0.314514,down
36827,2.820313,9.328125,1.488281,0.019531,-0.005859,-0.001953,0.697388,0.638855,0.081238,0.314514,down
36833,2.820313,9.367188,1.527344,0.029297,-0.021484,0.007813,0.697388,0.638855,0.081238,0.314514,down
36838,2.820313,9.367188,1.488281,0.025391,-0.017578,0.009766,0.697388,0.638855,0.081238,0.314514,down
36843,2.859375,9.371094,1.488281,0.017578,-0.013672,0.011719,0.697388,0.638855,0.081238,0.314514,down
36848,2.820313,9.367188,1.488281,0.017578,-0.007813,0.007813,0.697388,0.638855,0.081238,0.314514,down
36854,2.785156,9.328125,1.488281,0.017578,-0.009766,0.009766,0.697021,0.639465,0.080994,0.314148,down
36859,2.785156,9.289063,1.488281,0.017578,-0.009766,0.009766,0.697021,0.639465,0.080994,0.314148,down
36864,2.746094,9.292969,1.449219,-0.011719,-0.005859,0.021484,0.697021,0.639465,0.080994,0.314148,down
36869,2.820313,9.328125,1.488281,-0.011719,-0.005859,0.021484,0.697021,0.639526,0.080811,0.314087,down
36875,2.785156,9.371094,1.566406,-0.011719,-0.005859,0.021484,0.697021,0.639465,0.08075,0.314087,down
36880,2.746094,9.40625,1.601563,-0.015625,0.017578,0.019531,0.697021,0.639465,0.08075,0.314087,down
36886,2.785156,9.371094,1.566406,-0.015625,0.017578,0.019531,0.697083,0.639465,0.080688,0.314148,down
36892,2.667969,9.367188,1.488281,-0.015625,0.017578,0.019531,0.697021,0.639465,0.080688,0.31427,down
36897,2.707031,9.367188,1.527344,0.017578,0.039063,0.019531,0.697021,0.639465,0.080688,0.31427,down
36903,2.707031,9.367188,1.488281,0.035156,0.027344,0.023437,0.697021,0.639465,0.080688,0.31427,down
36908,2.746094,9.367188,1.488281,0.042969,0.023437,0.025391,0.697021,0.639465,0.080688,0.31427,down
36914,2.746094,9.367188,1.527344,0.056641,0.039063,0.019531,0.697021,0.639465,0.080688,0.31427,down
36919,2.707031,9.367188,1.527344,0.054687,0.037109,0.019531,0.697021,0.639465,0.080688,0.31427,down
36924,2.707031,9.367188,1.527344,0.054687,0.041016,0.019531,0.69635,0.639954,0.080994,0.314636,down
36929,2.746094,9.367188,1.488281,0.054687,0.041016,0.019531,0.69635,0.639954,0.080994,0.314636,down
36934,2.707031,9.367188,1.527344,0.035156,0.025391,0.013672,0.696167,0.640076,0.081055,0.314697,down
36940,2.707031,9.332031,1.566406,0.035156,0.025391,0.013672,0.696106,0.640137,0.081116,0.314758,down
36945,2.746094,9.367188,1.601563,0.035156,0.025391,0.013672,0.696045,0.640198,0.081116,0.314758,down
36950,2.746094,9.367188,1.601563,0.0,0.03125,0.017578,0.696045,0.640198,0.081116,0.314819,down
36955,2.707031,9.367188,1.527344,0.0,0.03125,0.017578,0.696045,0.640198,0.081177,0.31488,down
36961,2.707031,9.328125,1.527344,0.0,0.03125,0.017578,0.696045,0.640137,0.081116,0.31488,down
36966,2.707031,9.371094,1.566406,-0.03125,0.001953,0.009766,0.696045,0.640137,0.081116,0.31488,down
36971,2.746094,9.328125,1.601563,-0.035156,-0.003906,0.013672,0.696045,0.640137,0.081116,0.31488,down
36976,2.746094,9.332031,1.640625,-0.027344,-0.005859,0.007813,0.696045,0.640137,0.081116,0.31488,down
36982,2.746094,9.332031,1.640625,-0.021484,-0.003906,0.005859,0.696045,0.640137,0.081116,0.31488,down
36987,2.785156,9.289063,1.601563,-0.023437,0.001953,0.007813,0.696045,0.640137,0.081116,0.31488,down
36992,2.785156,9.253906,1.566406,-0.015625,0.001953,0.011719,0.696045,0.640137,0.081116,0.31488,down
36997,2.785156,9.253906,1.566406,-0.015625,0.001953,0.011719,0.696045,0.640137,0.081116,0.31488,down
37003,2.785156,9.292969,1.566406,0.001953,0.025391,0.021484,0.696045,0.640137,0.081116,0.31488,down
37008,2.746094,9.292969,1.566406,0.005859,0.037109,0.027344,0.696045,0.640137,0.081116,0.31488,down
37013,2.746094,9.332031,1.640625,0.015625,0.041016,0.027344,0.696045,0.640137,0.081116,0.31488,down
37018,2.746094,9.292969,1.640625,0.015625,0.041016,0.027344,0.696106,0.640076,0.080811,0.315002,down
37024,2.707031,9.292969,1.640625,0.025391,0.046875,0.03125,0.696106,0.640076,0.080811,0.315002,down
37029,2.707031,9.289063,1.601563,0.054687,0.039063,0.027344,0.696106,0.640076,0.080811,0.315002,down
37034,2.707031,9.289063,1.527344,0.054687,0.039063,0.027344,0.69574,0.64032,0.080994,0.315308,down
37039,2.707031,9.292969,1.640625,0.054687,0.039063,0.027344,0.69574,0.64032,0.080994,0.315308,down
37044,2.746094,9.292969,1.640625,0.072266,-0.005859,0.021484,0.69574,0.64032,0.080994,0.315308,down
37049,2.746094,9.328125,1.601563,0.072266,-0.005859,0.021484,0.695374,0.640747,0.080994,0.315247,down
37054,2.746094,9.328125,1.601563,0.072266,-0.005859,0.021484,0.695251,0.640869,0.080994,0.315247,down
37059,2.785156,9.289063,1.601563,0.072266,-0.005859,0.021484,0.695251,0.640869,0.080994,0.315247,down
37064,2.820313,9.25,1.527344,0.052734,-0.011719,0.003906,0.695251,0.640869,0.080994,0.315247,down
37069,2.785156,9.253906,1.566406,0.03125,-0.017578,0.003906,0.695068,0.641113,0.080994,0.315186,down
37074,2.820313,9.214844,1.566406,0.03125,-0.017578,0.003906,0.695007,0.641174,0.080994,0.315125,down
37079,2.820313,9.210938,1.601563,0.0,-0.011719,-0.003906,0.695007,0.641174,0.080994,0.315125,down
37085,2.820313,9.214844,1.566406,0.0,-0.011719,-0.003906,0.694946,0.641357,0.080933,0.314941,down
37090,2.785156,9.210938,1.601563,-0.03125,-0.007813,-0.007813,0.695007,0.641296,0.080872,0.31488,down
37096,2.785156,9.210938,1.601563,-0.03125,-0.007813,-0.007813,0.695068,0.641296,0.080872,0.314819,down
37103,2.785156,9.210938,1.527344,-0.027344,0.003906,-0.003906,0.695068,0.641296,0.080872,0.314819,down
37108,2.746094,9.140625,1.601563,-0.027344,0.003906,-0.003906,0.695068,0.641296,0.080872,0.314819,down
37113,2.746094,9.175781,1.527344,0.019531,0.0,-0.007813,0.695068,0.641296,0.080872,0.314819,down
37119,2.785156,9.140625,1.527344,0.035156,-0.005859,0.0,0.695068,0.641296,0.080872,0.314819,down
37124,2.746094,9.171875,1.566406,0.076172,-0.019531,0.003906,0.695068,0.641418,0.080872,0.314575,down
37129,2.785156,9.175781,1.527344,0.076172,-0.019531,0.003906,0.694946,0.641602,0.080872,0.314514,down
37134,2.820313,9.140625,1.527344,0.109375,-0.035156,0.001953,0.694946,0.641602,0.080872,0.314514,down
37140,2.859375,9.171875,1.488281,0.109375,-0.035156,0.001953,0.694458,0.642212,0.080872,0.314209,down
37145,2.859375,9.171875,1.527344,0.117188,-0.029297,-0.015625,0.694275,0.642517,0.080933,0.314026,down
37150,2.898438,9.214844,1.527344,0.117188,-0.029297,-0.015625,0.694153,0.6427,0.080994,0.313904,down
37155,2.9375,9.210938,1.410156,0.117188,-0.029297,-0.015625,0.69397,0.643005,0.081055,0.313782,down
37161,2.9375,9.175781,1.371094,0.117188,-0.029297,-0.015625,0.693848,0.643188,0.081177,0.313599,down
37166,2.9375,9.25,1.371094,0.083984,-0.041016,-0.044922,0.693848,0.643188,0.081177,0.313599,down
37171,2.9375,9.25,1.371094,0.050781,-0.027344,-0.050781,0.693665,0.643494,0.081299,0.313232,down
37177,2.976563,9.289063,1.371094,0.050781,-0.027344,-0.050781,0.693665,0.643616,0.08136,0.313049,down
37182,2.976563,9.289063,1.371094,0.007813,-0.021484,-0.041016,0.693665,0.643616,0.08136,0.313049,down
37187,2.976563,9.25,1.335938,-0.005859,-0.021484,-0.035156,0.693665,0.643616,0.08136,0.313049,down
37193,3.011719,9.292969,1.296875,-0.023437,-0.015625,-0.037109,0.693665,0.643616,0.08136,0.313049,down
37198,2.976563,9.328125,1.335938,-0.023437,-0.015625,-0.037109,0.693665,0.643616,0.08136,0.313049,down
37203,3.011719,9.371094,1.296875,-0.027344,0.003906,-0.013672,0.693665,0.643616,0.08136,0.313049,down
37208,2.976563,9.371094,1.296875,-0.017578,0.013672,-0.021484,0.693665,0.643616,0.08136,0.313049,down
37214,2.9375,9.367188,1.335938,-0.003906,0.027344,-0.017578,0.69397,0.643555,0.081543,0.312378,down
37219,2.859375,9.332031,1.335938,-0.003906,0.027344,-0.017578,0.69397,0.643555,0.081543,0.312378,down
37224,2.820313,9.40625,1.257813,0.041016,0.072266,-0.005859,0.69397,0.643555,0.081543,0.312378,down
37229,2.746094,9.449219,1.257813,0.041016,0.072266,-0.005859,0.693909,0.643616,0.081787,0.312439,down
37235,2.746094,9.484375,1.335938,0.050781,0.054687,0.003906,0.693909,0.643616,0.081787,0.312439,down
37240,2.785156,9.484375,1.371094,0.050781,0.054687,0.003906,0.693604,0.643738,0.082153,0.312622,down
37245,2.746094,9.636719,1.296875,0.050781,0.054687,0.003906,0.693542,0.643799,0.082275,0.312683,down
37250,2.746094,9.59375,1.335938,0.050781,0.054687,0.003906,0.693481,0.643799,0.082397,0.312744,down
37255,2.707031,9.558594,1.371094,0.019531,0.054687,0.013672,0.693481,0.643799,0.082397,0.312744,down
37260,2.707031,9.554688,1.449219,0.019531,0.054687,0.013672,0.693359,0.64386,0.082581,0.312927,down
37266,2.554688,9.632813,1.449219,0.019531,0.054687,0.013672,0.693298,0.64386,0.082642,0.312988,down
37271,2.554688,9.59375,1.449219,-0.007813,0.060547,0.021484,0.693298,0.643799,0.082703,0.31311,down
37276,2.554688,9.597656,1.488281,-0.039063,0.037109,0.023437,0.693298,0.643738,0.082703,0.313171,down
37281,2.554688,9.597656,1.488281,-0.039063,0.037109,0.023437,0.693359,0.643677,0.082703,0.313232,down
37286,2.59375,9.523438,1.527344,-0.039063,0.037109,0.023437,0.693359,0.643677,0.082703,0.313232,down
37291,2.59375,9.523438,1.527344,-0.056641,0.019531,0.009766,0.693542,0.643433,0.082642,0.313293,down
37297,2.554688,9.488281,1.488281,-0.056641,0.019531,0.009766,0.693604,0.643372,0.082581,0.313354,down
59284,1.136719,6.417969,7.195312,-0.802734,0.773437,0.300781,0.613953,0.294312,0.183411,0.709045,down
59290,1.058594,6.535156,7.039062,-0.71875,0.816406,0.261719,0.613953,0.294312,0.183411,0.709045,down
59295,1.214844,6.496094,7.304687,-0.689453,0.810547,0.246094,0.613953,0.294312,0.183411,0.709045,down
59300,1.175781,6.609375,7.160156,-0.644531,0.810547,0.255859,0.613953,0.294312,0.183411,0.709045,down
59305,1.289063,6.535156,7.34375,-0.654297,0.804687,0.273438,0.613953,0.294312,0.183411,0.709045,down
59310,1.328125,6.496094,7.460937,-0.673828,0.783203,0.306641,0.613953,0.294312,0.183411,0.709045,down
59315,1.289063,6.535156,7.308594,-0.669922,0.789062,0.341797,0.613953,0.294312,0.183411,0.709045,down
59321,1.136719,6.378906,7.421875,-0.669922,0.789062,0.341797,0.610413,0.275574,0.181641,0.720032,down
59326,1.023438,6.304687,7.347656,-0.669922,0.789062,0.341797,0.610413,0.275574,0.181641,0.720032,down
59331,0.945312,6.265625,7.308594,-0.755859,0.724609,0.460937,0.60907,0.271118,0.180542,0.723145,down
59336,0.832031,6.113281,7.464844,-0.755859,0.724609,0.460937,0.60907,0.271118,0.180542,0.723145,down
59342,0.832031,6.074219,7.5,-0.794922,0.591797,0.548828,0.60907,0.271118,0.180542,0.723145,down
59347,0.753906,5.996094,7.421875,-0.794922,0.591797,0.548828,0.60675,0.264771,0.177917,0.728088,down
59352,0.832031,5.804687,7.699219,-0.794922,0.591797,0.548828,0.60675,0.264771,0.177917,0.728088,down
59357,0.867187,5.691406,7.847656,-0.794922,0.591797,0.548828,0.605103,0.261414,0.176208,0.731079,down
59362,0.867187,5.730469,7.730469,-0.546875,0.445312,0.585937,0.605103,0.261414,0.176208,0.731079,down
59367,0.984375,5.691406,7.765625,-0.5,0.421875,0.589844,0.604065,0.259827,0.175415,0.732666,down
59372,1.097656,5.691406,7.925781,-0.5,0.421875,0.589844,0.602173,0.257324,0.174133,0.735413,down
59377,1.214844,5.730469,7.960937,-0.5,0.421875,0.589844,0.601135,0.256348,0.173584,0.736755,down
59382,1.214844,5.730469,7.960937,-0.5,0.421875,0.589844,0.601135,0.256348,0.173584,0.736755,down
59387,1.25,5.730469,8.078125,-0.396484,0.347656,0.654297,0.601135,0.256348,0.173584,0.736755,down
59392,1.25,5.730469,8.078125,-0.384766,0.318359,0.677734,0.598816,0.254395,0.172363,0.739563,down
59397,1.214844,5.652344,7.964844,-0.384766,0.318359,0.677734,0.598816,0.254395,0.172363,0.739563,down
59402,1.175781,5.769531,7.808594,-0.402344,0.285156,0.736328,0.596436,0.252747,0.170898,0.742432,down
59407,1.058594,5.730469,7.964844,-0.445312,0.226562,0.798828,0.596436,0.252747,0.170898,0.742432,down
59412,1.097656,5.652344,8.039063,-0.445312,0.226562,0.798828,0.592346,0.250366,0.16803,0.747131,down
59417,1.25,5.613281,8.082031,-0.447266,0.181641,0.841797,0.592346,0.250366,0.16803,0.747131,down
59422,1.25,5.691406,8.113281,-0.447266,0.181641,0.841797,0.591064,0.249756,0.167053,0.748535,down
59427,1.441406,5.730469,8.109375,-0.4375,0.158203,0.849609,0.591064,0.249756,0.167053,0.748535,down
59432,1.519531,5.804687,8.1875,-0.462891,0.101563,0.841797,0.588257,0.248535,0.164856,0.751648,down
59437,1.632813,5.882812,8.109375,-0.462891,0.101563,0.841797,0.585449,0.247498,0.162415,0.754761,down
59442,1.710938,5.804687,8.039063,-0.462891,0.101563,0.841797,0.585449,0.247498,0.162415,0.754761,down
59447,1.863281,5.84375,7.882812,-0.462891,0.101563,0.841797,0.582642,0.246338,0.159668,0.757874,down
59452,1.902344,5.84375,7.84375,-0.462891,0.101563,0.841797,0.582642,0.246338,0.159668,0.757874,down
59457,2.054688,5.882812,7.765625,-0.603516,0.089844,0.814453,0.582642,0.246338,0.159668,0.757874,down
59462,2.019531,5.804687,7.886719,-0.603516,0.089844,0.814453,0.578857,0.244385,0.155457,0.762268,down
59467,1.941406,5.921875,7.960937,-0.601562,0.074219,0.841797,0.578857,0.244385,0.155457,0.762268,down
59472,1.824219,5.921875,8.109375,-0.601562,0.074219,0.841797,0.577454,0.243591,0.153748,0.763916,down
59477,1.824219,5.882812,8.152344,-0.648437,0.0625,0.869141,0.577454,0.243591,0.153748,0.763916,down
59482,1.671875,5.804687,8.265625,-0.648437,0.0625,0.869141,0.574829,0.242249,0.150696,0.766907,down
59487,1.671875,5.84375,8.308594,-0.683594,0.037109,0.882812,0.572205,0.240784,0.147156,0.77002,down
59492,1.671875,5.804687,8.265625,-0.724609,-0.023437,0.902344,0.572205,0.240784,0.147156,0.77002,down
59497,1.789063,5.769531,8.464844,-0.724609,-0.023437,0.902344,0.56958,0.239502,0.143311,0.773071,down
59502,1.863281,5.652344,8.421875,-0.753906,-0.095703,0.921875,0.56958,0.239502,0.143311,0.773071,down
59507,1.824219,5.691406,8.386719,-0.753906,-0.095703,0.921875,0.568054,0.238831,0.14093,0.774841,down
59512,1.863281,5.730469,8.382813,-0.851562,-0.230469,0.96875,0.568054,0.238831,0.14093,0.774841,down
59517,1.863281,5.691406,8.308594,-0.851562,-0.230469,0.96875,0.564148,0.237488,0.133911,0.779358,down
59522,1.863281,5.613281,8.386719,-0.851562,-0.230469,0.96875,0.562805,0.237244,0.131104,0.780884,down
59527,1.824219,5.421875,8.148438,-0.851562,-0.230469,0.96875,0.562805,0.237244,0.131104,0.780884,down
59532,1.863281,5.308594,8.082031,-0.927734,-0.601562,1.085938,0.562805,0.237244,0.131104,0.780884,down
59537,1.863281,5.078125,7.84375,-0.927734,-0.601562,1.085938,0.558472,0.23761,0.12146,0.7854,down
59542,1.863281,4.925781,7.726562,-0.927734,-0.601562,1.085938,0.558472,0.23761,0.12146,0.7854,down
59547,1.75,4.773437,7.65625,-0.921875,-0.810547,1.226563,0.558472,0.23761,0.12146,0.7854,down
59553,1.671875,4.464844,7.382812,-0.921875,-0.810547,1.226563,0.553528,0.239441,0.110596,0.789978,down
59558,1.632813,4.351562,7.386719,-0.921875,-0.810547,1.226563,0.553528,0.239441,0.110596,0.789978,down
59563,1.671875,4.390625,7.464844,-0.84375,-0.945312,1.279297,0.551819,0.240295,0.107056,0.791382,down
59568,1.671875,4.390625,7.464844,-0.84375,-0.945312,1.279297,0.549927,0.241516,0.10321,0.792847,down
59573,1.632813,4.3125,7.503906,-0.759766,-1.125,1.357422,0.549927,0.241516,0.10321,0.792847,down
59578,1.632813,4.3125,7.503906,-0.728516,-1.207031,1.396484,0.546021,0.244507,0.095581,0.795593,down
59584,1.480469,3.8125,7.039062,-0.728516,-1.207031,1.396484,0.541565,0.248474,0.087341,0.79834,down
59590,1.40625,3.507813,6.8125,-0.728516,-1.207031,1.396484,0.539246,0.250732,0.083069,0.799683,down
59595,1.441406,3.394531,6.773437,-0.703125,-1.625,1.652344,0.539246,0.250732,0.083069,0.799683,down
59600,1.441406,3.507813,6.925781,-0.681641,-1.759766,1.740234,0.539246,0.250732,0.083069,0.799683,down
59605,1.40625,3.507813,7.277344,-0.623047,-1.962891,1.855469,0.539246,0.250732,0.083069,0.799683,down
59610,1.175781,3.085938,7.347656,-0.623047,-1.962891,1.855469,0.527832,0.263,0.06366,0.805115,down
59615,0.984375,2.664063,7.195312,-0.482422,-2.349609,2.113281,0.527832,0.263,0.06366,0.805115,down
59620,0.867187,2.398438,7.160156,-0.443359,-2.603516,2.246094,0.520447,0.271912,0.052673,0.807678,down
59625,0.832031,2.015625,7.117187,-0.435547,-2.888672,2.373047,0.520447,0.271912,0.052673,0.807678,down
59631,0.90625,1.476563,7.15625,-0.425781,-3.162109,2.494141,0.520447,0.271912,0.052673,0.807678,down
59637,0.714844,1.132813,7.238281,-0.378906,-3.419922,2.613281,0.520447,0.271912,0.052673,0.807678,down
59642,0.714844,1.132813,7.238281,-0.289063,-3.632813,2.710938,0.502502,0.296265,0.026489,0.811768,down
59647,0.484375,0.519531,6.925781,-0.289063,-3.632813,2.710938,0.502502,0.296265,0.026489,0.811768,down
59652,0.601562,0.023437,6.777344,-0.154297,-3.835938,2.796875,0.502502,0.296265,0.026489,0.811768,down
59657,0.601562,0.023437,6.777344,0.166016,-4.21875,2.914063,0.485779,0.320374,0.004944,0.813232,down
59662,0.753906,-0.589844,6.351562,0.166016,-4.21875,2.914063,0.47937,0.329712,-0.002258,0.813293,down
59668,0.484375,-0.898437,6.195312,0.822266,-4.564453,3.224609,0.472778,0.339233,-0.008972,0.813232,down
59673,0.253906,-1.128906,5.851562,0.822266,-4.564453,3.224609,0.457092,0.360291,-0.022217,0.812866,down
59678,0.332031,-1.164063,5.207031,1.457031,-4.552734,3.453125,0.448792,0.370728,-0.02771,0.812683,down
59684,0.792969,-1.128906,4.742187,1.457031,-4.552734,3.453125,0.44043,0.380554,-0.032471,0.8125,down
59690,0.945312,-0.820312,4.703125,1.921875,-4.554687,3.828125,0.44043,0.380554,-0.032471,0.8125,down
59695,1.289063,-0.707031,4.785156,1.921875,-4.554687,3.828125,0.418579,0.404236,-0.042603,0.812134,down
59700,1.671875,-0.859375,5.046875,1.921875,-4.554687,3.828125,0.418579,0.404236,-0.042603,0.812134,down
59705,2.171875,-1.011719,5.242187,2.392578,-4.46875,4.048828,0.418579,0.404236,-0.042603,0.812134,down
59711,2.171875,-1.011719,5.242187,2.599609,-4.386719,4.083984,0.385864,0.435669,-0.052856,0.811462,down
59716,2.9375,-0.167969,5.816406,2.599609,-4.386719,4.083984,0.373535,0.44696,-0.055481,0.810974,down
59721,3.972656,-0.589844,6.816406,3.251953,-4.146484,3.882813,0.361511,0.457642,-0.057495,0.810303,down
59726,4.085937,0.214844,6.472656,3.251953,-4.146484,3.882813,0.361511,0.457642,-0.057495,0.810303,down
59732,4.125,-0.476562,6.007812,3.251953,-4.146484,3.882813,0.335022,0.480225,-0.058411,0.808533,down
59737,3.933594,-0.554687,5.628906,3.251953,-4.146484,3.882813,0.323547,0.489868,-0.057556,0.807495,down
59742,3.933594,-0.554687,5.628906,4.421875,-3.714844,3.050781,0.310364,0.501038,-0.055603,0.805969,down
59747,3.933594,-0.554687,5.628906,4.660156,-3.792969,2.71875,0.299255,0.510742,-0.053101,0.804199,down
59752,3.742188,0.367188,5.433594,4.660156,-3.792969,2.71875,0.287659,0.521484,-0.049927,0.801758,down
59757,4.125,0.632812,5.625,4.660156,-3.792969,2.71875,0.287659,0.521484,-0.049927,0.801758,down
59762,4.46875,0.558594,5.507812,3.525391,-4.228516,1.914063,0.287659,0.521484,-0.049927,0.801758,down
59767,5.621094,0.289063,4.898437,2.849609,-4.208984,1.652344,0.287659,0.521484,-0.049927,0.801758,down
59772,6.039062,-0.09375,3.902344,2.265625,-4.044922,1.402344,0.245422,0.572083,-0.043579,0.781433,down
59777,6.5,-0.09375,3.632813,2.265625,-4.044922,1.402344,0.245422,0.572083,-0.043579,0.781433,down
59782,6.886719,-0.054687,3.519531,1.498047,-3.515625,0.914062,0.245422,0.572083,-0.043579,0.781433,down
59787,7.148437,0.710937,3.097656,1.257813,-3.240234,0.677734,0.245422,0.572083,-0.043579,0.781433,down
59792,7.191406,1.132813,3.136719,1.257813,-3.240234,0.677734,0.233276,0.594116,-0.044678,0.768494,down
59797,7.226562,1.246094,3.328125,0.855469,-2.789063,0.148437,0.233276,0.594116,-0.044678,0.768494,down
59802,7.226562,1.246094,3.328125,0.708984,-2.576172,-0.144531,0.229248,0.605774,-0.0448,0.760559,down
59807,6.726562,2.089844,3.519531,0.701172,-2.335938,-0.441406,0.228394,0.61084,-0.044312,0.756775,down
59812,6.726562,2.089844,3.519531,0.716797,-2.119141,-0.695312,0.228394,0.61084,-0.044312,0.756775,down
59818,6.5,2.207031,3.632813,0.716797,-2.119141,-0.695312,0.228088,0.615601,-0.043274,0.753052,down
59823,6.5,2.207031,3.632813,0.677734,-1.837891,-1.072266,0.22876,0.623901,-0.040039,0.746216,down
59828,5.65625,3.046875,4.09375,0.677734,-1.837891,-1.072266,0.231079,0.631348,-0.036377,0.73938,down
59833,5.582031,2.972656,3.941406,0.677734,-1.837891,-1.072266,0.233154,0.634705,-0.035156,0.735901,down
59839,5.382812,2.816406,3.863281,0.677734,-1.837891,-1.072266,0.236145,0.637939,-0.034546,0.732178,down
59845,5.238281,2.050781,3.519531,0.677734,-1.837891,-1.072266,0.239807,0.640808,-0.034485,0.728455,down
59850,5.351562,1.515625,3.402344,-1.318359,-1.777344,-1.716797,0.239807,0.640808,-0.034485,0.728455,down
59856,5.65625,0.863281,3.402344,-1.574219,-1.742188,-1.910156,0.239807,0.640808,-0.034485,0.728455,down
59861,6.269531,0.519531,2.90625,-1.699219,-1.646484,-2.125,0.255859,0.648132,-0.036255,0.71637,down
59867,6.34375,0.671875,2.714844,-1.703125,-1.525391,-2.351563,0.255859,0.648132,-0.036255,0.71637,down
59872,6.425781,0.863281,2.558594,-1.480469,-1.269531,-2.839844,0.255859,0.648132,-0.036255,0.71637,down
59877,6.464844,0.941406,2.484375,-1.480469,-1.269531,-2.839844,0.276611,0.65332,-0.035522,0.703857,down
59883,6.386719,1.476563,2.214844,-1.480469,-1.269531,-2.839844,0.291992,0.656128,-0.031067,0.69519,down
59888,6.308594,1.785156,2.175781,-0.753906,-0.919922,-3.589844,0.291992,0.656128,-0.031067,0.69519,down
59893,5.847656,3.007813,1.984375,-0.753906,-0.919922,-3.589844,0.299255,0.657349,-0.027649,0.691101,down
59898,5.542969,3.890625,1.832031,-0.753906,-0.919922,-3.589844,0.312988,0.659607,-0.018127,0.683105,down
59903,5.238281,4.582031,1.640625,-0.753906,-0.919922,-3.589844,0.312988,0.659607,-0.018127,0.683105,down
59908,5.238281,4.582031,1.640625,-0.082031,-0.478516,-4.103516,0.320251,0.660583,-0.011963,0.678894,down
59914,4.621094,5.960937,1.71875,-0.138672,-0.396484,-4.197266,0.335815,0.661865,0.001465,0.670227,down
59920,4.316406,6.992187,1.410156,-0.138672,-0.396484,-4.197266,0.342834,0.661926,0.006653,0.666504,down
59925,4.429687,6.730469,1.257813,-1.347656,-0.375,-4.333984,0.342834,0.661926,0.006653,0.666504,down
59931,4.96875,5.609375,1.066406,-1.917969,-0.316406,-4.349609,0.342834,0.661926,0.006653,0.666504,down
59937,5.273437,5.191406,0.875,-2.400391,-0.144531,-4.357422,0.342834,0.661926,0.006653,0.666504,down
59942,5.542969,5.039062,1.027344,-2.732422,0.109375,-4.402344,0.342834,0.661926,0.006653,0.666504,down
59948,5.542969,5.191406,1.296875,-2.933594,0.373047,-4.492187,0.407837,0.648315,0.028931,0.642273,down
59953,5.234375,5.542969,2.253906,-2.933594,0.373047,-4.492187,0.421021,0.64325,0.032593,0.638672,down
59958,5.082031,5.582031,2.40625,-2.933594,0.373047,-4.492187,0.421021,0.64325,0.032593,0.638672,down
59963,5.082031,5.582031,2.40625,-3.193359,1.076172,-4.900391,0.432556,0.638306,0.036072,0.635742,down
59968,4.394531,5.578125,2.445313,-3.111328,1.445313,-5.363281,0.432556,0.638306,0.036072,0.635742,down
59973,3.472656,5.769531,2.484375,-3.111328,1.445313,-5.363281,0.472717,0.619019,0.051331,0.625061,down
59978,2.898438,5.921875,2.558594,-3.111328,1.445313,-5.363281,0.472717,0.619019,0.051331,0.625061,down
59983,2.4375,6.226562,2.828125,-2.599609,1.625,-5.826172,0.49762,0.606262,0.064819,0.616943,down
59989,0.984375,8.105469,4.054687,-2.599609,1.625,-5.826172,0.509338,0.600159,0.072266,0.612488,down
59994,0.5625,8.5625,4.550781,-1.994141,1.462891,-6.107422,0.509338,0.600159,0.072266,0.612488,down
59999,0.5625,8.5625,4.550781,-2.136719,1.220703,-6.130859,0.533508,0.587769,0.088196,0.601807,down
60004,0.410156,8.789063,5.011719,-2.136719,1.220703,-6.130859,0.533508,0.587769,0.088196,0.601807,down
60009,0.410156,8.789063,5.011719,-2.525391,1.033203,-6.152344,0.545654,0.581543,0.095154,0.595825,down
60014,0.410156,8.789063,5.011719,-3.830078,0.460937,-6.234375,0.559021,0.574585,0.101318,0.589111,down
60020,1.597656,8.027344,4.933594,-3.830078,0.460937,-6.234375,0.587463,0.55896,0.109253,0.57489,down
60025,2.09375,6.304687,5.050781,-3.830078,0.460937,-6.234375,0.603882,0.549255,0.111389,0.566772,down
60031,2.246094,5.648437,5.28125,-5.757812,0.179687,-6.716797,0.603882,0.549255,0.111389,0.566772,down
60036,2.324219,5.460937,5.625,-5.927734,0.429687,-6.96875,0.603882,0.549255,0.111389,0.566772,down
60041,2.324219,5.460937,5.625,-5.849609,0.810547,-7.25,0.655029,0.514526,0.11676,0.540894,down
60046,2.246094,6.265625,6.351562,-5.849609,0.810547,-7.25,0.655029,0.514526,0.11676,0.540894,down
60051,2.246094,6.265625,6.351562,-5.222656,1.878906,-7.898437,0.688477,0.487549,0.125488,0.522034,down
60056,0.945312,6.535156,6.160156,-5.222656,1.878906,-7.898437,0.688477,0.487549,0.125488,0.522034,down
60061,-0.550781,6.691406,6.199219,-5.222656,1.878906,-7.898437,0.719055,0.459106,0.140869,0.502319,down
60066,-1.277344,7.296875,6.277344,-4.015625,3.394531,-8.849609,0.719055,0.459106,0.140869,0.502319,down
60071,-2.082031,9.171875,6.507812,-3.527344,3.712891,-9.083984,0.719055,0.459106,0.140869,0.502319,down
60077,-3.039063,11.207031,7.195312,-3.0625,3.796875,-9.142578,0.719055,0.459106,0.140869,0.502319,down
60082,-3.804688,11.898438,7.886719,-3.0625,3.796875,-9.142578,0.719055,0.459106,0.140869,0.502319,down
60087,-4.339844,11.863281,8.113281,-2.714844,3.777344,-9.103516,0.782593,0.386169,0.202393,0.444336,down
60092,-4.339844,11.863281,8.113281,-2.964844,3.300781,-8.818359,0.793457,0.371704,0.215027,0.431335,down
60097,-4.800781,12.546875,7.539062,-2.964844,3.300781,-8.818359,0.803833,0.357483,0.225342,0.418579,down
60103,-4.800781,14.808594,10.527344,-2.964844,3.300781,-8.818359,0.814453,0.34259,0.233398,0.406067,down
60109,-4.761719,15.308594,11.140625,-5.564453,0.966797,-7.65625,0.814453,0.34259,0.233398,0.406067,down
60114,-4.761719,15.308594,11.140625,-6.074219,0.572266,-7.349609,0.847351,0.292053,0.244751,0.369812,down
60119,-4.6875,13.316406,11.867188,-6.074219,0.572266,-7.349609,0.847351,0.292053,0.244751,0.369812,down
60124,-4.6875,13.316406,11.867188,-6.121094,0.287109,-7.087891,0.858215,0.273621,0.2453,0.358276,down
60129,-4.648437,13.429688,12.480469,-5.730469,0.234375,-6.759766,0.858215,0.273621,0.2453,0.358276,down
60134,-4.992187,14.078125,13.441406,-5.103516,0.339844,-6.441406,0.858215,0.273621,0.2453,0.358276,down
60139,-5.070312,14.039063,13.210938,-4.351562,0.570312,-6.179687,0.858215,0.273621,0.2453,0.358276,down
60144,-5.222656,13.855469,12.902344,-3.566406,0.880859,-5.921875,0.897156,0.19873,0.251221,0.304138,down
60149,-5.375,14.003906,12.519531,-3.566406,0.880859,-5.921875,0.901611,0.188782,0.255188,0.293884,down
60154,-5.644531,14.425781,12.0625,-3.566406,0.880859,-5.921875,0.904724,0.181274,0.259705,0.284851,down
60159,-5.988281,15.152344,11.832031,-0.683594,2.019531,-5.199219,0.907776,0.173645,0.266174,0.273865,down
60164,-5.988281,15.152344,11.832031,-0.228516,2.039063,-5.033203,0.909912,0.16803,0.272339,0.263977,down
60169,-6.792969,15.425781,12.214844,-0.228516,2.039063,-5.033203,0.909912,0.16803,0.272339,0.263977,down
60174,-6.792969,15.425781,12.214844,-0.009766,1.986328,-4.800781,0.911743,0.163025,0.278809,0.253845,down
60179,-6.792969,15.425781,12.214844,-0.009766,1.986328,-4.800781,0.914734,0.154541,0.290466,0.234497,down
60184,-7.367187,14.621094,13.054688,-0.009766,1.986328,-4.800781,0.914734,0.154541,0.290466,0.234497,down
60189,-7.292969,14.34375,13.054688,-0.638672,0.537109,-3.371094,0.916443,0.150085,0.295166,0.224792,down
60195,-7.136719,13.539063,13.171875,-0.638672,0.537109,-3.371094,0.919495,0.142029,0.299194,0.21167,down
60200,-7.136719,13.539063,13.171875,-1.191406,-0.443359,-2.476563,0.921448,0.137634,0.299072,0.206299,down
60205,-6.523437,11.359375,12.480469,-1.191406,-0.443359,-2.476563,0.923523,0.133118,0.297729,0.201843,down
60210,-6.21875,10.402344,12.136719,-1.310547,-1.107422,-1.673828,0.923523,0.133118,0.297729,0.201843,down
60215,-5.949219,9.90625,11.867188,-1.140625,-1.292969,-1.361328,0.923523,0.133118,0.297729,0.201843,down
60220,-5.605469,9.40625,11.449219,-0.804687,-1.412109,-1.117188,0.923523,0.133118,0.297729,0.201843,down
60225,-4.953125,8.21875,10.484375,-0.804687,-1.412109,-1.117188,0.923523,0.133118,0.297729,0.201843,down
60230,-4.570312,7.722656,9.953125,0.019531,-1.443359,-0.820312,0.923523,0.133118,0.297729,0.201843,down
60236,-4.226562,7.796875,9.453125,0.498047,-1.412109,-0.720703,0.923523,0.133118,0.297729,0.201843,down
60241,-3.613281,7.683594,8.613281,0.498047,-1.412109,-0.720703,0.935059,0.12262,0.2771,0.184021,down
60247,-3.460938,7.375,8.152344,0.955078,-1.197266,-0.625,0.935059,0.12262,0.2771,0.184021,down
60252,-3.308594,7.148437,7.730469,0.988281,-1.029297,-0.583984,0.935059,0.12262,0.2771,0.184021,down
60257,-3.152344,6.800781,7.464844,0.867187,-0.867187,-0.5625,0.935059,0.12262,0.2771,0.184021,down
60262,-3.0,6.535156,7.308594,0.867187,-0.867187,-0.5625,0.935059,0.12262,0.2771,0.184021,down
60267,-3.0,6.535156,7.308594,0.677734,-0.720703,-0.529297,0.938293,0.131897,0.268616,0.173462,down
60272,-3.0,6.535156,7.308594,0.275391,-0.542969,-0.425781,0.938721,0.13269,0.267578,0.171875,down
60278,-2.886719,5.078125,7.464844,0.275391,-0.542969,-0.425781,0.938721,0.13269,0.267578,0.171875,down
60283,-2.925781,4.808594,7.5,0.275391,-0.542969,-0.425781,0.939697,0.132874,0.265442,0.170044,down
60289,-2.925781,4.351562,7.582031,-0.267578,-0.507812,-0.150391,0.940674,0.131775,0.262878,0.169434,down
60294,-3.039063,3.929688,7.460937,-0.267578,-0.507812,-0.150391,0.94104,0.131409,0.261597,0.169434,down
60299,-3.039063,3.851563,7.464844,-0.267578,-0.507812,-0.150391,0.941406,0.131409,0.260254,0.169434,down
60304,-3.117188,3.851563,7.503906,-0.267578,-0.507812,-0.150391,0.941406,0.131409,0.260254,0.169434,down
60309,-3.117188,3.8125,7.503906,0.292969,-0.599609,0.089844,0.941956,0.133362,0.257629,0.169189,down
60315,-3.117188,4.195312,7.464844,0.292969,-0.599609,0.089844,0.942017,0.135132,0.25647,0.168945,down
60320,-3.117188,4.195312,7.464844,0.925781,-0.597656,0.179687,0.942078,0.13739,0.255371,0.16864,down
60325,-3.078125,4.390625,7.382812,0.962891,-0.548828,0.201172,0.942017,0.140259,0.254211,0.168396,down
60331,-3.191406,4.351562,7.15625,0.962891,-0.548828,0.201172,0.941895,0.142456,0.253418,0.168213,down
60337,-3.230469,4.390625,7.195312,0.855469,-0.40625,0.234375,0.941895,0.142456,0.253418,0.168213,down
60342,-3.308594,4.351562,7.238281,0.710937,-0.332031,0.253906,0.941895,0.142456,0.253418,0.168213,down
60347,-3.382813,4.234375,7.199219,0.527344,-0.261719,0.257813,0.941895,0.142456,0.253418,0.168213,down
60353,-3.460938,4.042969,7.347656,0.527344,-0.261719,0.257813,0.941895,0.142456,0.253418,0.168213,down
60358,-3.460938,4.003906,7.421875,0.261719,-0.179687,0.246094,0.941895,0.142456,0.253418,0.168213,down
60364,-3.535156,3.929688,7.460937,0.123047,-0.169922,0.251953,0.941895,0.142456,0.253418,0.168213,down
60369,-3.652344,3.738281,7.660156,0.083984,-0.179687,0.251953,0.94104,0.152039,0.249817,0.169983,down
60374,-3.652344,3.699219,7.699219,0.083984,-0.179687,0.251953,0.940979,0.152893,0.248779,0.171143,down
60379,-3.652344,3.699219,7.726562,0.083984,-0.179687,0.251953,0.940979,0.152893,0.248779,0.171143,down
60384,-3.726563,3.507813,7.765625,0.134766,-0.214844,0.263672,0.940979,0.152893,0.248779,0.171143,down
60389,-3.726563,3.46875,7.765625,0.236328,-0.240234,0.289063,0.940918,0.15387,0.247742,0.172119,down
60394,-3.726563,3.46875,7.730469,0.236328,-0.240234,0.289063,0.940735,0.155518,0.246582,0.173218,down
60399,-3.765625,3.46875,7.882812,0.236328,-0.240234,0.289063,0.940735,0.155518,0.246582,0.173218,down
60404,-3.726563,3.394531,7.964844,0.291016,-0.246094,0.333984,0.940552,0.157349,0.245483,0.174255,down
60409,-3.765625,3.394531,7.925781,0.291016,-0.246094,0.333984,0.940552,0.157349,0.245483,0.174255,down
60414,-3.726563,3.394531,8.0,0.269531,-0.208984,0.353516,0.940552,0.157349,0.245483,0.174255,down
60419,-3.691406,3.394531,7.960937,0.269531,-0.208984,0.353516,0.940125,0.160095,0.243896,0.17627,down
60424,-3.691406,3.429688,7.921875,0.269531,-0.208984,0.353516,0.939941,0.160889,0.243469,0.17688,down
60429,-3.726563,3.507813,7.921875,0.269531,-0.208984,0.353516,0.939941,0.160889,0.243469,0.17688,down
60434,-3.765625,3.507813,7.84375,0.203125,-0.050781,0.279297,0.939941,0.160889,0.243469,0.17688,down
60439,-3.765625,3.507813,7.769531,0.203125,-0.050781,0.279297,0.939453,0.162964,0.242859,0.17865,down
60444,-3.804688,3.546875,7.886719,0.203125,-0.050781,0.279297,0.939453,0.162964,0.242859,0.17865,down
60449,-3.765625,3.546875,8.0,0.173828,0.046875,0.240234,0.939209,0.163574,0.242859,0.17926,down
60454,-3.882813,3.546875,7.960937,0.173828,0.046875,0.240234,0.939026,0.164062,0.24292,0.17981,down
60459,-3.84375,3.546875,8.042969,0.173828,0.046875,0.240234,0.938782,0.164551,0.243042,0.180298,down
60464,-3.921875,3.546875,8.078125,0.083984,0.082031,0.222656,0.938782,0.164551,0.243042,0.180298,down
60469,-3.921875,3.546875,8.039063,0.083984,0.082031,0.222656,0.938416,0.165222,0.243286,0.181396,down
60474,-3.996094,3.660156,8.152344,0.085937,0.082031,0.228516,0.938416,0.165222,0.243286,0.181396,down
60479,-3.996094,3.621094,8.1875,0.085937,0.082031,0.228516,0.937988,0.165771,0.24353,0.182556,down
60484,-3.996094,3.546875,8.191406,0.085937,0.082031,0.228516,0.937866,0.166016,0.243652,0.183105,down
60489,-3.957031,3.585938,8.1875,0.097656,0.003906,0.210937,0.937866,0.166016,0.243652,0.183105,down
60495,-3.957031,3.585938,8.1875,0.103516,-0.029297,0.201172,0.937378,0.166992,0.243652,0.184509,down
60500,-3.957031,3.660156,8.226563,0.132812,-0.058594,0.179687,0.937256,0.167419,0.24353,0.184875,down
60506,-3.921875,3.699219,8.269531,0.132812,-0.058594,0.179687,0.937195,0.167908,0.243347,0.185242,down
60511,-3.882813,3.699219,8.191406,0.132812,-0.058594,0.179687,0.937073,0.168457,0.243103,0.185547,down
60517,-3.84375,3.851563,8.113281,0.132812,-0.058594,0.179687,0.937073,0.168457,0.243103,0.185547,down
60522,-3.765625,3.8125,8.003906,0.208984,-0.119141,0.181641,0.93689,0.169739,0.242554,0.186096,down
60528,-3.765625,3.777344,8.003906,0.203125,-0.089844,0.191406,0.93689,0.169739,0.242554,0.186096,down
60533,-3.765625,3.660156,7.960937,0.177734,-0.058594,0.193359,0.93689,0.169739,0.242554,0.186096,down
60539,-3.726563,3.621094,8.039063,0.15625,-0.019531,0.203125,0.93689,0.169739,0.242554,0.186096,down
60544,-3.765625,3.585938,8.042969,0.154297,0.021484,0.208984,0.93689,0.169739,0.242554,0.186096,down
