timestamp,ax,ay,az,gx,gy,gz,qw,qx,qy,qz,label
155646,9.144531,1.402344,3.632813,-0.185547,-0.380859,-0.570312,0.217346,0.551819,-0.092041,0.799866,down
155652,9.144531,1.4375,3.632813,-0.185547,-0.380859,-0.570312,0.218506,0.552551,-0.091797,0.799072,down
155657,9.101563,1.515625,3.671875,-0.185547,-0.380859,-0.570312,0.21991,0.553345,-0.091553,0.798157,down
155662,9.066406,1.554688,3.632813,-0.265625,-0.335938,-0.601562,0.21991,0.553345,-0.091553,0.798157,down
155667,9.027344,1.4375,3.632813,-0.335938,-0.306641,-0.605469,0.21991,0.553345,-0.091553,0.798157,down
155672,9.066406,1.324219,3.632813,-0.400391,-0.283203,-0.605469,0.21991,0.553345,-0.091553,0.798157,down
155677,9.144531,1.210938,3.59375,-0.400391,-0.283203,-0.605469,0.21991,0.553345,-0.091553,0.798157,down
155682,9.179688,1.132813,3.554688,-0.529297,-0.246094,-0.583984,0.21991,0.553345,-0.091553,0.798157,down
155687,9.21875,1.054688,3.554688,-0.576172,-0.21875,-0.572266,0.229431,0.556213,-0.091858,0.793457,down
155692,9.296875,1.019531,3.554688,-0.576172,-0.21875,-0.572266,0.231445,0.556458,-0.092346,0.792664,down
155697,9.335938,1.019531,3.59375,-0.576172,-0.21875,-0.572266,0.231445,0.556458,-0.092346,0.792664,down
155703,9.257813,0.980469,3.554688,-0.664062,-0.119141,-0.517578,0.231445,0.556458,-0.092346,0.792664,down
155709,9.140625,0.941406,3.519531,-0.619141,-0.082031,-0.507812,0.231445,0.556458,-0.092346,0.792664,down
155714,8.953125,0.980469,3.441406,-0.619141,-0.082031,-0.507812,0.231445,0.556458,-0.092346,0.792664,down
155719,8.878906,1.054688,3.363281,-0.619141,-0.082031,-0.507812,0.240234,0.556274,-0.094788,0.789856,down
155724,8.839844,1.171875,3.289063,-0.435547,-0.072266,-0.513672,0.240234,0.556274,-0.094788,0.789856,down
155729,8.835938,1.210938,3.289063,-0.369141,-0.099609,-0.542969,0.240234,0.556274,-0.094788,0.789856,down
155734,9.023438,1.363281,3.480469,-0.369141,-0.099609,-0.542969,0.240234,0.556274,-0.094788,0.789856,down
155740,9.179688,1.363281,3.554688,-0.369141,-0.099609,-0.542969,0.246155,0.556641,-0.094727,0.787781,down
155746,9.339844,1.402344,3.480469,-0.238281,-0.105469,-0.621094,0.246155,0.556641,-0.094727,0.787781,down
155751,9.445313,1.402344,3.363281,-0.238281,-0.105469,-0.621094,0.250427,0.557251,-0.093628,0.786133,down
155756,9.488281,1.363281,3.402344,-0.265625,-0.072266,-0.654297,0.252075,0.557434,-0.093201,0.785522,down
155761,9.445313,1.402344,3.363281,-0.265625,-0.072266,-0.654297,0.253479,0.557495,-0.092834,0.785034,down
155766,9.488281,1.402344,3.363281,-0.376953,-0.037109,-0.652344,0.255249,0.557495,-0.092529,0.784485,down
155772,9.367188,1.515625,3.402344,-0.376953,-0.037109,-0.652344,0.256897,0.557495,-0.092407,0.783997,down
155777,9.339844,1.59375,3.441406,-0.517578,-0.009766,-0.644531,0.256897,0.557495,-0.092407,0.783997,down
155783,9.296875,1.628906,3.441406,-0.5625,0.013672,-0.642578,0.256897,0.557495,-0.092407,0.783997,down
155788,9.21875,1.707031,3.402344,-0.5625,0.013672,-0.642578,0.256897,0.557495,-0.092407,0.783997,down
155794,9.21875,1.707031,3.402344,-0.576172,0.033203,-0.642578,0.264709,0.556519,-0.092712,0.782043,down
155800,9.21875,1.707031,3.402344,-0.599609,0.091797,-0.667969,0.266785,0.556152,-0.092896,0.781616,down
155805,9.101563,1.746094,3.363281,-0.599609,0.091797,-0.667969,0.26886,0.555664,-0.092957,0.781189,down
155811,9.066406,1.628906,3.480469,-0.572266,0.164062,-0.673828,0.271057,0.555176,-0.093079,0.780823,down
155816,9.101563,1.515625,3.554688,-0.554687,0.183594,-0.685547,0.27533,0.553955,-0.092957,0.780212,down
155821,9.183594,1.554688,3.554688,-0.554687,0.183594,-0.685547,0.277344,0.553284,-0.092773,0.779968,down
155826,9.027344,1.628906,3.59375,-0.554687,0.183594,-0.685547,0.279236,0.552612,-0.092529,0.779785,down
155831,8.917969,1.746094,3.554688,-0.480469,0.289063,-0.660156,0.279236,0.552612,-0.092529,0.779785,down
155836,8.835938,1.820313,3.519531,-0.480469,0.289063,-0.660156,0.283203,0.551086,-0.092041,0.77948,down
155841,8.761719,1.9375,3.554688,-0.480469,0.289063,-0.660156,0.284912,0.550354,-0.091858,0.779419,down
155846,8.640625,2.050781,3.746094,-0.529297,0.246094,-0.603516,0.286926,0.549561,-0.091736,0.779236,down
155852,8.683594,2.167969,3.785156,-0.529297,0.246094,-0.603516,0.288696,0.548889,-0.091736,0.779053,down
155857,8.644531,2.167969,3.863281,-0.529297,0.246094,-0.603516,0.290466,0.548279,-0.091675,0.77887,down
155863,8.605469,2.207031,3.941406,-0.529297,0.246094,-0.603516,0.292358,0.547668,-0.091614,0.778564,down
155868,8.5625,2.207031,3.902344,-0.474609,0.166016,-0.599609,0.294067,0.547119,-0.091492,0.77832,down
155874,8.601563,2.167969,3.902344,-0.451172,0.148437,-0.611328,0.294067,0.547119,-0.091492,0.77832,down
155880,8.914063,2.015625,3.941406,-0.451172,0.148437,-0.611328,0.294067,0.547119,-0.091492,0.77832,down
155885,9.066406,2.015625,3.976563,-0.443359,0.121094,-0.607422,0.294067,0.547119,-0.091492,0.77832,down
155891,9.339844,1.9375,4.015625,-0.455078,0.126953,-0.619141,0.294067,0.547119,-0.091492,0.77832,down
155896,9.367188,1.9375,4.015625,-0.455078,0.126953,-0.619141,0.304932,0.544128,-0.090637,0.776367,down
155901,9.367188,1.9375,4.015625,-0.455078,0.126953,-0.619141,0.304932,0.544128,-0.090637,0.776367,down
155906,9.339844,1.976563,4.015625,-0.449219,0.28125,-0.648437,0.304932,0.544128,-0.090637,0.776367,down
155911,9.183594,2.015625,4.054687,-0.427734,0.320313,-0.648437,0.308533,0.542786,-0.09021,0.77594,down
155917,8.953125,2.167969,4.132812,-0.427734,0.320313,-0.648437,0.312073,0.541199,-0.089417,0.775696,down
155922,8.835938,2.207031,4.132812,-0.341797,0.349609,-0.646484,0.313782,0.540405,-0.088928,0.775635,down
155927,8.835938,2.207031,4.132812,-0.306641,0.353516,-0.650391,0.315491,0.539612,-0.088379,0.775574,down
155933,8.640625,2.28125,4.09375,-0.306641,0.353516,-0.650391,0.3172,0.538757,-0.087646,0.775513,down
155938,8.496094,2.359375,4.09375,-0.25,0.367188,-0.658203,0.3172,0.538757,-0.087646,0.775513,down
155943,8.414063,2.433594,4.015625,-0.240234,0.367188,-0.648437,0.3172,0.538757,-0.087646,0.775513,down
155948,8.375,2.472656,3.746094,-0.214844,0.361328,-0.625,0.3172,0.538757,-0.087646,0.775513,down
155953,8.417969,2.472656,3.671875,-0.224609,0.324219,-0.609375,0.3172,0.538757,-0.087646,0.775513,down
155958,8.492188,2.511719,3.632813,-0.25,0.25,-0.587891,0.3172,0.538757,-0.087646,0.775513,down
155964,8.644531,2.550781,3.671875,-0.285156,0.158203,-0.552734,0.3172,0.538757,-0.087646,0.775513,down
155969,8.957031,2.625,3.863281,-0.285156,0.158203,-0.552734,0.327698,0.534241,-0.083191,0.77478,down
155974,9.027344,2.625,3.941406,-0.384766,0.082031,-0.53125,0.327698,0.534241,-0.083191,0.77478,down
155979,9.066406,2.703125,3.976563,-0.40625,0.087891,-0.525391,0.327698,0.534241,-0.083191,0.77478,down
155984,9.144531,2.664063,4.015625,-0.404297,0.115234,-0.525391,0.327698,0.534241,-0.083191,0.77478,down
155991,9.105469,2.550781,4.09375,-0.375,0.189453,-0.539062,0.327698,0.534241,-0.083191,0.77478,down
155996,9.105469,2.625,4.09375,-0.375,0.189453,-0.539062,0.335144,0.531982,-0.082581,0.773193,down
156001,8.957031,2.742188,4.132812,-0.361328,0.232422,-0.544922,0.335144,0.531982,-0.082581,0.773193,down
156006,8.839844,2.78125,4.207031,-0.361328,0.232422,-0.544922,0.339661,0.529968,-0.081726,0.772705,down
156011,8.722656,2.742188,4.246094,-0.361328,0.232422,-0.544922,0.339661,0.529968,-0.081726,0.772705,down
156016,8.644531,2.78125,4.359375,-0.371094,0.328125,-0.5,0.339661,0.529968,-0.081726,0.772705,down
156022,8.644531,2.78125,4.359375,-0.369141,0.355469,-0.494141,0.344177,0.527405,-0.080811,0.772583,down
156027,8.601563,2.742188,4.359375,-0.361328,0.363281,-0.488281,0.345581,0.526489,-0.080505,0.772583,down
156033,8.601563,2.664063,4.398437,-0.361328,0.363281,-0.488281,0.346985,0.525574,-0.080139,0.772644,down
156039,8.640625,2.589844,4.359375,-0.386719,0.382813,-0.490234,0.346985,0.525574,-0.080139,0.772644,down
156044,8.605469,2.589844,4.398437,-0.394531,0.378906,-0.492187,0.346985,0.525574,-0.080139,0.772644,down
156049,8.605469,2.589844,4.398437,-0.396484,0.382813,-0.494141,0.35144,0.522583,-0.079285,0.772766,down
156054,8.605469,2.589844,4.398437,-0.396484,0.384766,-0.501953,0.352905,0.521606,-0.078979,0.772766,down
156059,8.566406,2.625,4.4375,-0.396484,0.384766,-0.501953,0.352905,0.521606,-0.078979,0.772766,down
156064,8.457031,2.664063,4.476562,-0.390625,0.404297,-0.5,0.352905,0.521606,-0.078979,0.772766,down
156070,8.457031,2.664063,4.476562,-0.347656,0.410156,-0.498047,0.357361,0.518494,-0.078003,0.772888,down
156076,8.152344,2.78125,4.476562,-0.314453,0.390625,-0.511719,0.360229,0.516602,-0.077148,0.772888,down
156081,8.109375,2.742188,4.515625,-0.314453,0.390625,-0.511719,0.360229,0.516602,-0.077148,0.772888,down
156086,8.035156,2.78125,4.589844,-0.244141,0.341797,-0.507812,0.360229,0.516602,-0.077148,0.772888,down
156091,7.914062,2.78125,4.667969,-0.212891,0.335938,-0.503906,0.360229,0.516602,-0.077148,0.772888,down
156096,7.914062,2.78125,4.667969,-0.212891,0.335938,-0.503906,0.364075,0.514221,-0.075378,0.772888,down
156101,7.875,2.742188,4.707031,-0.171875,0.335938,-0.492187,0.364075,0.514221,-0.075378,0.772888,down
156106,7.878906,2.742188,4.78125,-0.171875,0.335938,-0.492187,0.366516,0.512756,-0.073975,0.772888,down
156112,7.839844,2.589844,4.820312,-0.171875,0.335938,-0.492187,0.368835,0.511292,-0.072815,0.772827,down
156117,7.835937,2.550781,4.820312,-0.291016,0.351563,-0.488281,0.370239,0.510376,-0.072266,0.772827,down
156122,7.796875,2.433594,4.78125,-0.324219,0.359375,-0.492187,0.371582,0.509399,-0.071838,0.772827,down
156128,7.914062,2.28125,4.820312,-0.324219,0.359375,-0.492187,0.372803,0.508606,-0.071533,0.772827,down
156133,7.953125,2.320313,4.78125,-0.324219,0.359375,-0.492187,0.374207,0.50769,-0.071228,0.772766,down
156140,7.957031,2.359375,4.742187,-0.386719,0.355469,-0.480469,0.374207,0.50769,-0.071228,0.772766,down
156145,7.875,2.398438,4.707031,-0.369141,0.367188,-0.484375,0.374207,0.50769,-0.071228,0.772766,down
156150,7.769531,2.398438,4.78125,-0.369141,0.367188,-0.484375,0.374207,0.50769,-0.071228,0.772766,down
156156,7.6875,2.433594,4.78125,-0.275391,0.351563,-0.478516,0.374207,0.50769,-0.071228,0.772766,down
156161,7.609375,2.550781,4.707031,-0.203125,0.353516,-0.490234,0.38208,0.502258,-0.068726,0.772705,down
156166,7.304687,2.664063,4.707031,-0.203125,0.353516,-0.490234,0.38208,0.502258,-0.068726,0.772705,down
156172,7.265625,2.703125,4.667969,-0.072266,0.333984,-0.501953,0.38208,0.502258,-0.068726,0.772705,down
156177,7.1875,2.703125,4.742187,-0.005859,0.244141,-0.523437,0.38208,0.502258,-0.068726,0.772705,down
156182,7.109375,2.703125,4.972656,-0.005859,0.244141,-0.523437,0.386292,0.500061,-0.065063,0.772339,down
156187,7.070312,2.703125,5.050781,-0.005859,0.244141,-0.523437,0.387268,0.499756,-0.06427,0.772095,down
156192,7.148437,2.589844,5.203125,-0.005859,0.244141,-0.523437,0.388367,0.49939,-0.063416,0.771851,down
156197,7.148437,2.589844,5.203125,-0.109375,0.214844,-0.580078,0.389709,0.498962,-0.0625,0.771545,down
156203,7.308594,2.359375,5.203125,-0.109375,0.214844,-0.580078,0.390808,0.498474,-0.061829,0.771301,down
156208,7.378906,2.242188,5.203125,-0.21875,0.257813,-0.611328,0.392151,0.497925,-0.061157,0.771057,down
156214,7.414062,2.207031,5.203125,-0.279297,0.275391,-0.636719,0.392151,0.497925,-0.061157,0.771057,down
156219,7.453125,2.167969,5.203125,-0.339844,0.316406,-0.650391,0.392151,0.497925,-0.061157,0.771057,down
156225,7.414062,2.242188,5.128906,-0.375,0.351563,-0.666016,0.392151,0.497925,-0.061157,0.771057,down
156230,7.375,2.167969,5.203125,-0.402344,0.378906,-0.679687,0.392151,0.497925,-0.061157,0.771057,down
156236,7.347656,2.128906,5.394531,-0.408203,0.400391,-0.697266,0.392151,0.497925,-0.061157,0.771057,down
156241,7.269531,2.128906,5.472656,-0.408203,0.400391,-0.697266,0.402405,0.492371,-0.057861,0.769592,down
156246,7.152344,2.089844,5.511719,-0.324219,0.416016,-0.744141,0.402405,0.492371,-0.057861,0.769592,down
156252,7.070312,2.128906,5.511719,-0.21875,0.449219,-0.802734,0.402405,0.492371,-0.057861,0.769592,down
156257,6.886719,2.128906,5.433594,-0.21875,0.449219,-0.802734,0.40979,0.488281,-0.054199,0.768555,down
156262,6.808594,2.089844,5.472656,-0.21875,0.449219,-0.802734,0.40979,0.488281,-0.054199,0.768555,down
156267,6.765625,2.128906,5.433594,-0.128906,0.359375,-0.882812,0.40979,0.488281,-0.054199,0.768555,down
156272,6.992187,2.050781,5.546875,-0.128906,0.359375,-0.882812,0.413452,0.486633,-0.05188,0.767822,down
156278,7.570312,1.976563,5.546875,-0.128906,0.359375,-0.882812,0.417297,0.485291,-0.049255,0.766785,down
156283,7.769531,2.089844,5.511719,-0.113281,0.339844,-1.017578,0.419312,0.484619,-0.047852,0.766174,down
156289,7.992187,2.167969,5.433594,-0.128906,0.382813,-1.074219,0.419312,0.484619,-0.047852,0.766174,down
156295,8.457031,2.28125,5.355469,-0.128906,0.382813,-1.074219,0.423706,0.483032,-0.0448,0.764954,down
156300,8.683594,2.320313,5.355469,-0.193359,0.501953,-1.185547,0.423706,0.483032,-0.0448,0.764954,down
156305,8.800781,2.433594,5.433594,-0.246094,0.550781,-1.238281,0.423706,0.483032,-0.0448,0.764954,down
156310,8.800781,2.433594,5.433594,-0.273438,0.578125,-1.283203,0.431519,0.479675,-0.039795,0.763,down
156315,8.988281,2.78125,5.738281,-0.291016,0.617187,-1.341797,0.434326,0.478333,-0.038086,0.762329,down
156320,8.988281,2.933594,6.007812,-0.291016,0.617187,-1.341797,0.434326,0.478333,-0.038086,0.762329,down
156325,8.988281,2.933594,6.007812,-0.291016,0.667969,-1.386719,0.440308,0.475403,-0.034424,0.760864,down
156330,8.875,3.164063,6.660156,-0.291016,0.667969,-1.386719,0.440308,0.475403,-0.034424,0.760864,down
156336,8.644531,3.203125,7.082031,-0.277344,0.822266,-1.507813,0.446777,0.471802,-0.029907,0.759521,down
156342,8.53125,3.429688,7.273437,-0.175781,1.007813,-1.662109,0.446777,0.471802,-0.029907,0.759521,down
156347,8.300781,4.003906,7.464844,-0.175781,1.007813,-1.662109,0.456787,0.46582,-0.021851,0.757568,down
156352,8.222656,4.351562,7.539062,-0.058594,1.003906,-1.710938,0.456787,0.46582,-0.021851,0.757568,down
156357,8.148438,4.734375,7.578125,-0.058594,1.003906,-1.710938,0.463623,0.461853,-0.015442,0.755981,down
156362,8.070313,5.421875,7.578125,-0.058594,1.003906,-1.710938,0.463623,0.461853,-0.015442,0.755981,down
156367,8.183594,5.691406,7.464844,-0.058594,1.003906,-1.710938,0.466919,0.460083,-0.012207,0.755127,down
156372,8.300781,5.882812,7.425781,0.044922,0.744141,-1.605469,0.466919,0.460083,-0.012207,0.755127,down
156377,8.414063,6.113281,7.308594,0.044922,0.744141,-1.605469,0.473083,0.45697,-0.006042,0.753174,down
156382,8.644531,6.496094,7.234375,0.044922,0.744141,-1.605469,0.478516,0.454651,-0.00116,0.751221,down
156387,8.757813,6.6875,7.117187,0.044922,0.744141,-1.605469,0.481079,0.453674,0.000916,0.750183,down
156392,8.875,6.839844,6.925781,0.044922,0.744141,-1.605469,0.481079,0.453674,0.000916,0.750183,down
156397,8.917969,6.957031,6.851562,-0.201172,0.433594,-1.359375,0.486694,0.451416,0.004517,0.747864,down
156403,8.984375,6.957031,6.542969,-0.201172,0.433594,-1.359375,0.48938,0.450256,0.005798,0.746826,down
156409,8.988281,6.992187,6.507812,-0.558594,0.371094,-1.244141,0.492187,0.448914,0.006775,0.745789,down
156416,8.984375,7.070312,6.46875,-0.689453,0.402344,-1.201172,0.492187,0.448914,0.006775,0.745789,down
156421,8.914063,7.070312,6.390625,-0.785156,0.451172,-1.162109,0.492187,0.448914,0.006775,0.745789,down
156426,8.878906,6.992187,6.316406,-0.857422,0.507812,-1.130859,0.492187,0.448914,0.006775,0.745789,down
156431,8.878906,6.992187,6.316406,-0.861328,0.537109,-1.080078,0.504028,0.441467,0.008789,0.74231,down
156436,8.683594,7.148437,6.121094,-0.826172,0.566406,-1.03125,0.506775,0.439331,0.009155,0.741638,down
156441,8.683594,7.148437,6.121094,-0.826172,0.566406,-1.03125,0.506775,0.439331,0.009155,0.741638,down
156446,8.683594,7.148437,6.121094,-0.765625,0.607422,-0.96875,0.511902,0.435059,0.010071,0.740662,down
156451,8.683594,7.148437,6.121094,-0.550781,0.677734,-0.851562,0.51416,0.433044,0.010803,0.740295,down
156457,8.300781,7.339844,5.816406,-0.306641,0.623047,-0.703125,0.51416,0.433044,0.010803,0.740295,down
156462,8.179688,7.53125,5.816406,-0.306641,0.623047,-0.703125,0.519409,0.427795,0.013733,0.739624,down
156467,8.113281,7.566406,5.703125,-0.306641,0.623047,-0.703125,0.520508,0.426453,0.014893,0.739563,down
156472,7.914062,7.761719,5.585937,-0.060547,0.611328,-0.492187,0.520508,0.426453,0.014893,0.739563,down
156477,7.878906,7.722656,5.546875,-0.060547,0.611328,-0.492187,0.521545,0.42511,0.016174,0.739563,down
156482,7.796875,7.761719,5.511719,-0.068359,0.644531,-0.376953,0.522461,0.423706,0.017517,0.739685,down
156487,7.726562,7.835937,5.433594,-0.068359,0.644531,-0.376953,0.523193,0.422546,0.018616,0.739868,down
156493,7.570312,7.988281,5.242187,-0.068359,0.644531,-0.376953,0.524353,0.419739,0.020691,0.74054,down
156498,7.535156,8.066406,5.242187,-0.224609,0.724609,-0.232422,0.525024,0.417969,0.021729,0.741089,down
156503,7.496094,8.066406,5.164062,-0.330078,0.732422,-0.183594,0.525574,0.416199,0.0224,0.741638,down
156509,7.417969,8.023438,5.164062,-0.330078,0.732422,-0.183594,0.526123,0.41449,0.022827,0.742249,down
156514,7.074219,7.839844,5.164062,-0.330078,0.732422,-0.183594,0.526733,0.412415,0.023071,0.74292,down
156521,6.921875,7.761719,5.164062,-0.611328,0.814453,-0.023437,0.526733,0.412415,0.023071,0.74292,down
156526,6.652344,7.492187,5.164062,-0.671875,0.828125,0.054687,0.526733,0.412415,0.023071,0.74292,down
156532,6.5,7.414062,5.164062,-0.712891,0.830078,0.144531,0.528259,0.405212,0.022827,0.745789,down
156537,6.347656,7.296875,5.164062,-0.757812,0.783203,0.34375,0.528259,0.405212,0.022827,0.745789,down
156542,6.191406,7.109375,5.320312,-0.757812,0.783203,0.34375,0.528625,0.400024,0.021729,0.748413,down
156547,6.191406,7.035156,5.394531,-0.757812,0.783203,0.34375,0.528564,0.397583,0.020996,0.749756,down
156552,6.15625,6.953125,5.394531,-0.625,0.722656,0.613281,0.528564,0.397583,0.020996,0.749756,down
156557,6.191406,6.796875,5.433594,-0.625,0.722656,0.613281,0.52771,0.392944,0.019348,0.752869,down
156563,6.191406,6.492187,5.472656,-0.625,0.722656,0.613281,0.526062,0.388794,0.017944,0.756165,down
156569,6.117187,6.417969,5.472656,-0.625,0.722656,0.613281,0.524963,0.386841,0.017517,0.757935,down
156574,5.886719,6.148437,5.355469,-0.341797,0.861328,0.861328,0.523621,0.384644,0.01709,0.76001,down
156580,5.886719,6.148437,5.355469,-0.3125,0.892578,0.916016,0.522156,0.382568,0.016785,0.762024,down
156586,5.617187,5.882812,5.472656,-0.3125,0.892578,0.916016,0.522156,0.382568,0.016785,0.762024,down
156591,5.464844,5.804687,5.511719,-0.300781,0.912109,1.015625,0.522156,0.382568,0.016785,0.762024,down
156597,5.351562,5.765625,5.546875,-0.289063,0.935547,1.068359,0.515198,0.374146,0.015625,0.770935,down
156602,5.042969,5.6875,5.664062,-0.289063,0.935547,1.068359,0.515198,0.374146,0.015625,0.770935,down
156607,4.890625,5.613281,5.707031,-0.289063,0.935547,1.068359,0.513,0.371765,0.015381,0.77356,down
156612,4.890625,5.613281,5.707031,-0.197266,0.992187,1.160156,0.511047,0.369812,0.015259,0.775757,down
156617,4.46875,5.386719,5.972656,-0.164062,0.982422,1.203125,0.50885,0.367737,0.015076,0.778198,down
156622,4.46875,5.386719,5.972656,-0.136719,0.984375,1.246094,0.50885,0.367737,0.015076,0.778198,down
156627,4.316406,5.15625,6.046875,-0.136719,0.984375,1.246094,0.506531,0.365662,0.014954,0.780701,down
156632,4.316406,5.15625,6.046875,-0.125,0.945312,1.322266,0.501587,0.361633,0.014587,0.785767,down
156637,4.316406,5.15625,6.046875,-0.207031,0.875,1.400391,0.499084,0.35968,0.014282,0.788269,down
156642,4.316406,4.542969,6.394531,-0.207031,0.875,1.400391,0.496399,0.357666,0.013794,0.790894,down
156647,4.316406,4.390625,6.472656,-0.25,0.833984,1.425781,0.496399,0.357666,0.013794,0.790894,down
156653,4.507812,4.082031,6.734375,-0.283203,0.792969,1.451172,0.496399,0.357666,0.013794,0.790894,down
156659,4.429687,3.777344,6.695312,-0.283203,0.792969,1.451172,0.485596,0.350037,0.01062,0.800964,down
156665,4.199219,3.585938,6.660156,-0.345703,0.753906,1.519531,0.485596,0.350037,0.01062,0.800964,down
156671,4.238281,3.46875,6.539062,-0.328125,0.730469,1.535156,0.479919,0.346191,0.008484,0.806091,down
156677,4.277344,3.355469,6.582031,-0.328125,0.730469,1.535156,0.479919,0.346191,0.008484,0.806091,down
156682,4.355469,3.277344,6.660156,-0.296875,0.652344,1.560547,0.479919,0.346191,0.008484,0.806091,down
156687,4.316406,3.203125,6.660156,-0.111328,0.650391,1.53125,0.479919,0.346191,0.008484,0.806091,down
156693,4.355469,3.085938,6.851562,-0.111328,0.650391,1.53125,0.464783,0.338135,0.003723,0.818298,down
156699,4.394531,3.007813,7.0,0.044922,0.683594,1.501953,0.461426,0.336731,0.003235,0.820801,down
156704,4.429687,2.894531,6.921875,0.044922,0.683594,1.501953,0.458435,0.335449,0.002991,0.822998,down
156709,4.429687,2.933594,6.777344,0.148437,0.710937,1.494141,0.458435,0.335449,0.002991,0.822998,down
156715,4.316406,2.894531,6.8125,0.148437,0.710937,1.494141,0.458435,0.335449,0.002991,0.822998,down
156720,4.316406,3.007813,6.921875,0.119141,0.611328,1.552734,0.448547,0.331665,0.002441,0.829956,down
156725,4.316406,3.046875,7.0,0.078125,0.560547,1.578125,0.448547,0.331665,0.002441,0.829956,down
156730,4.199219,2.933594,7.042969,0.078125,0.560547,1.578125,0.448547,0.331665,0.002441,0.829956,down
156736,4.199219,2.933594,7.042969,0.021484,0.511719,1.607422,0.438293,0.328491,0.000732,0.83667,down
156742,4.199219,2.933594,7.042969,0.025391,0.451172,1.652344,0.434875,0.327515,-6.1e-05,0.838806,down
156747,3.972656,2.855469,7.0,0.025391,0.451172,1.652344,0.431213,0.32666,-0.000854,0.841064,down
156752,3.933594,2.78125,7.039062,0.0625,0.351563,1.671875,0.427673,0.325928,-0.001709,0.84314,down
156758,3.78125,2.855469,7.160156,0.064453,0.326172,1.654297,0.420471,0.324585,-0.003418,0.847229,down
156763,3.742188,2.625,7.34375,0.064453,0.326172,1.654297,0.416748,0.323914,-0.004395,0.849365,down
156768,3.742188,2.433594,7.382812,0.064453,0.326172,1.654297,0.413574,0.323242,-0.00531,0.851135,down
156773,3.78125,2.28125,7.539062,-0.115234,0.289063,1.617188,0.413574,0.323242,-0.00531,0.851135,down
156778,3.816406,2.089844,7.726562,-0.115234,0.289063,1.617188,0.406372,0.321594,-0.007874,0.855225,down
156783,3.855469,1.859375,7.804687,-0.115234,0.289063,1.617188,0.403259,0.320862,-0.008972,0.856934,down
156788,3.78125,1.667969,7.730469,-0.146484,0.367188,1.589844,0.403259,0.320862,-0.008972,0.856934,down
156793,3.742188,1.515625,7.617187,-0.146484,0.367188,1.589844,0.396545,0.318909,-0.011353,0.860779,down
156798,3.550781,1.324219,7.5,-0.146484,0.367188,1.589844,0.393005,0.317932,-0.012634,0.862732,down
156803,3.511719,1.285156,7.578125,-0.146484,0.367188,1.589844,0.389771,0.317322,-0.013733,0.86438,down
156808,3.398438,1.171875,7.699219,-0.001953,0.15625,1.660156,0.389771,0.317322,-0.013733,0.86438,down
156813,3.242188,1.246094,7.804687,0.101563,0.105469,1.6875,0.386108,0.316772,-0.014893,0.866211,down
156818,3.128906,1.285156,7.882812,0.101563,0.105469,1.6875,0.378662,0.316406,-0.016846,0.869629,down
156823,3.089844,1.285156,7.925781,0.335938,-0.03125,1.724609,0.378662,0.316406,-0.016846,0.869629,down
156828,3.089844,1.402344,7.960937,0.335938,-0.03125,1.724609,0.370544,0.316956,-0.018127,0.872864,down
156833,3.167969,1.476563,7.925781,0.533203,-0.185547,1.78125,0.370544,0.316956,-0.018127,0.872864,down
156839,3.089844,1.363281,7.84375,0.533203,-0.185547,1.78125,0.361816,0.318542,-0.018921,0.875916,down
156844,3.167969,1.363281,7.699219,0.603516,-0.267578,1.841797,0.357178,0.319519,-0.019287,0.877441,down
156849,3.167969,1.363281,7.699219,0.572266,-0.292969,1.867188,0.352661,0.320557,-0.019714,0.878906,down
156854,3.242188,1.019531,7.582031,0.572266,-0.292969,1.867188,0.352661,0.320557,-0.019714,0.878906,down
156860,3.242188,1.019531,7.582031,0.472656,-0.314453,1.882813,0.343506,0.322632,-0.021179,0.881775,down
156865,3.320313,0.902344,7.578125,0.472656,-0.314453,1.882813,0.343506,0.322632,-0.021179,0.881775,down
156870,3.207031,0.902344,7.578125,0.287109,-0.357422,1.910156,0.334412,0.324524,-0.023315,0.88446,down
156875,3.128906,1.132813,7.617187,0.287109,-0.357422,1.910156,0.329956,0.325439,-0.024536,0.885803,down
156881,3.207031,1.132813,7.65625,0.283203,-0.492187,1.902344,0.329956,0.325439,-0.024536,0.885803,down
156886,3.207031,1.246094,7.726562,0.310547,-0.533203,1.904297,0.329956,0.325439,-0.024536,0.885803,down
156892,3.128906,1.59375,7.65625,0.310547,-0.533203,1.904297,0.316284,0.329163,-0.02832,0.889282,down
156898,3.128906,1.515625,7.695312,0.421875,-0.613281,1.939453,0.316284,0.329163,-0.02832,0.889282,down
156903,3.207031,1.4375,7.726562,0.421875,-0.613281,1.939453,0.306824,0.332031,-0.030518,0.891418,down
156908,3.433594,1.171875,7.65625,0.455078,-0.65625,1.960938,0.306824,0.332031,-0.030518,0.891418,down
156913,3.589844,1.019531,7.65625,0.490234,-0.675781,1.980469,0.306824,0.332031,-0.030518,0.891418,down
156918,3.703125,0.902344,7.695312,0.464844,-0.699219,1.988281,0.286987,0.338928,-0.035034,0.895325,down
156923,3.972656,0.828125,7.882812,0.464844,-0.699219,1.988281,0.286987,0.338928,-0.035034,0.895325,down
156928,3.972656,0.828125,7.925781,0.464844,-0.699219,1.988281,0.282166,0.340576,-0.036438,0.896118,down
156933,4.164062,0.632812,7.964844,0.205078,-0.710937,1.974609,0.282166,0.340576,-0.036438,0.896118,down
156938,4.238281,0.40625,8.0,0.171875,-0.697266,1.925781,0.268127,0.345215,-0.041565,0.898437,down
156943,4.277344,0.214844,8.191406,0.171875,-0.697266,1.925781,0.268127,0.345215,-0.041565,0.898437,down
156948,4.238281,0.175781,8.269531,0.111328,-0.666016,1.726563,0.263916,0.346619,-0.043335,0.899109,down
156953,4.199219,0.097656,8.269531,0.111328,-0.666016,1.726563,0.259644,0.348022,-0.045105,0.899658,down
156958,4.199219,0.097656,8.269531,0.203125,-0.712891,1.572266,0.255981,0.349304,-0.04657,0.900146,down
156963,4.277344,-0.054687,8.230469,0.203125,-0.712891,1.572266,0.255981,0.349304,-0.04657,0.900146,down
156968,4.429687,-0.359375,8.425781,0.203125,-0.712891,1.572266,0.255981,0.349304,-0.04657,0.900146,down
156973,4.429687,-0.359375,8.425781,0.410156,-0.822266,1.431641,0.244629,0.354248,-0.050232,0.901184,down
156978,4.546875,-0.398438,8.425781,0.410156,-0.822266,1.431641,0.237244,0.358398,-0.051453,0.901428,down
156983,4.699219,-0.898437,8.34375,0.410156,-0.822266,1.431641,0.237244,0.358398,-0.051453,0.901428,down
156988,4.8125,-0.972656,8.269531,0.410156,-0.822266,1.431641,0.229858,0.362976,-0.052124,0.901489,down
156993,4.96875,-1.011719,8.039063,0.410156,-0.822266,1.431641,0.229858,0.362976,-0.052124,0.901489,down
156998,5.234375,-0.972656,7.84375,0.623047,-0.923828,1.283203,0.229858,0.362976,-0.052124,0.901489,down
157003,5.351562,-1.011719,7.921875,0.587891,-0.994141,1.175781,0.222595,0.367615,-0.052612,0.901428,down
157008,5.386719,-0.898437,8.003906,0.587891,-0.994141,1.175781,0.218933,0.370117,-0.052917,0.901245,down
157014,5.542969,-0.898437,8.082031,0.572266,-1.021484,1.107422,0.218933,0.370117,-0.052917,0.901245,down
157020,5.65625,-1.128906,7.960937,0.572266,-1.021484,1.107422,0.209961,0.37738,-0.053528,0.90033,down
157027,5.808594,-1.203125,7.886719,0.5,-1.027344,0.785156,0.209961,0.37738,-0.053528,0.90033,down
157032,6.078125,-1.28125,7.765625,0.470703,-1.027344,0.681641,0.209961,0.37738,-0.053528,0.90033,down
157037,6.078125,-1.320313,7.769531,0.421875,-1.005859,0.5625,0.209961,0.37738,-0.053528,0.90033,down
157042,6.078125,-1.28125,7.804687,0.398438,-0.990234,0.453125,0.209961,0.37738,-0.053528,0.90033,down
157047,6.15625,-1.242188,7.695312,0.373047,-0.984375,0.349609,0.209961,0.37738,-0.053528,0.90033,down
157052,6.15625,-1.164063,7.542969,0.347656,-0.933594,0.246094,0.209961,0.37738,-0.053528,0.90033,down
157057,6.0,-1.128906,7.308594,0.347656,-0.933594,0.246094,0.209961,0.37738,-0.053528,0.90033,down
157062,5.964844,-1.089844,7.238281,0.347656,-0.933594,0.246094,0.197144,0.396301,-0.053467,0.895081,down
157067,5.847656,-1.128906,7.304687,0.271484,-0.923828,0.021484,0.197144,0.396301,-0.053467,0.895081,down
157073,6.0,-0.820312,7.199219,0.214844,-0.976562,-0.039063,0.196106,0.402893,-0.053162,0.892395,down
157078,6.117187,-1.355469,7.039062,0.214844,-0.976562,-0.039063,0.196106,0.402893,-0.053162,0.892395,down
157083,6.574219,-2.046875,6.660156,-0.154297,-0.785156,-0.396484,0.196106,0.402893,-0.053162,0.892395,down
157088,6.652344,-1.625,6.121094,-0.154297,-0.785156,-0.396484,0.197021,0.407288,-0.053528,0.890198,down
157093,6.191406,-1.472656,6.394531,-0.154297,-0.785156,-0.396484,0.198059,0.408875,-0.053772,0.889221,down
157098,6.460937,-1.703125,6.621094,-0.101563,-0.71875,-0.580078,0.199219,0.4104,-0.053833,0.888245,down
157104,6.769531,-1.625,6.964844,0.001953,-0.767578,-0.71875,0.199219,0.4104,-0.053833,0.888245,down
157110,6.613281,-1.164063,7.042969,0.001953,-0.767578,-0.71875,0.203674,0.415833,-0.052368,0.884766,down
157115,6.574219,-1.011719,7.042969,0.255859,-0.814453,-0.910156,0.203674,0.415833,-0.052368,0.884766,down
157121,6.460937,-0.9375,7.0,0.400391,-0.863281,-0.964844,0.203674,0.415833,-0.052368,0.884766,down
157127,6.421875,-0.820312,7.042969,0.400391,-0.863281,-0.964844,0.208435,0.422302,-0.048401,0.880798,down
157132,6.691406,-0.4375,7.160156,0.400391,-0.863281,-0.964844,0.208435,0.422302,-0.048401,0.880798,down
157138,6.84375,-0.359375,7.160156,0.849609,-1.023438,-1.005859,0.208435,0.422302,-0.048401,0.880798,down
157143,6.960937,0.023437,7.039062,0.849609,-1.023438,-1.005859,0.212402,0.43042,-0.041992,0.876282,down
157148,6.960937,0.175781,7.0,0.849609,-1.023438,-1.005859,0.213562,0.433167,-0.039551,0.874756,down
157153,7.070312,0.40625,6.925781,0.849609,-1.023438,-1.005859,0.214722,0.436035,-0.036987,0.873169,down
157159,7.191406,0.828125,6.851562,0.837891,-1.035156,-1.023438,0.214722,0.436035,-0.036987,0.873169,down
157164,7.226562,0.902344,6.773437,0.837891,-1.035156,-1.023438,0.218689,0.444702,-0.029724,0.868042,down
157169,7.304687,0.980469,6.734375,0.837891,-1.035156,-1.023438,0.218689,0.444702,-0.029724,0.868042,down
157174,7.375,1.132813,6.621094,0.480469,-1.009766,-1.027344,0.221863,0.449585,-0.02655,0.864807,down
157179,7.304687,1.324219,6.429687,0.480469,-1.009766,-1.027344,0.223694,0.451782,-0.025452,0.86322,down
157184,7.230469,1.4375,6.277344,0.480469,-1.009766,-1.027344,0.225769,0.453857,-0.02478,0.861633,down
157189,7.148437,1.515625,6.199219,-0.257813,-0.996094,-1.054688,0.22821,0.455933,-0.024475,0.859924,down
157194,7.347656,1.476563,6.121094,-0.257813,-0.996094,-1.054688,0.231201,0.458191,-0.024597,0.85791,down
157199,7.378906,1.402344,5.929687,-0.257813,-0.996094,-1.054688,0.233582,0.459778,-0.024963,0.856384,down
157204,7.347656,1.285156,5.703125,-0.738281,-0.962891,-1.15625,0.237,0.46167,-0.025696,0.85437,down
157209,7.414062,1.246094,5.664062,-0.738281,-0.962891,-1.15625,0.240112,0.463196,-0.02655,0.852722,down
157214,7.304687,1.09375,5.703125,-0.949219,-0.908203,-1.244141,0.240112,0.463196,-0.02655,0.852722,down
157220,7.226562,1.054688,5.738281,-0.949219,-0.908203,-1.244141,0.247375,0.466003,-0.028687,0.848999,down
157226,7.035156,1.09375,5.816406,-1.041016,-0.833984,-1.332031,0.247375,0.466003,-0.028687,0.848999,down
157231,7.035156,1.09375,5.816406,-1.044922,-0.820312,-1.361328,0.25531,0.468445,-0.031006,0.845215,down
157236,6.886719,1.132813,6.007812,-1.044922,-0.820312,-1.361328,0.25531,0.468445,-0.031006,0.845215,down
157241,6.804687,1.09375,6.085937,-0.941406,-0.802734,-1.398438,0.263367,0.470825,-0.03302,0.84137,down
157246,6.648437,1.132813,6.085937,-0.941406,-0.802734,-1.398438,0.263367,0.470825,-0.03302,0.84137,down
157252,6.542969,1.210938,6.007812,-0.716797,-0.787109,-1.439453,0.263367,0.470825,-0.03302,0.84137,down
157257,6.609375,1.132813,5.96875,-0.716797,-0.787109,-1.439453,0.263367,0.470825,-0.03302,0.84137,down
157263,6.648437,1.132813,5.96875,-0.716797,-0.787109,-1.439453,0.278625,0.475891,-0.034485,0.833496,down
157268,6.804687,1.132813,5.777344,-0.544922,-0.808594,-1.486328,0.278625,0.475891,-0.034485,0.833496,down
157273,6.921875,1.132813,5.703125,-0.509766,-0.792969,-1.507813,0.278625,0.475891,-0.034485,0.833496,down
157278,6.886719,1.246094,5.625,-0.509766,-0.792969,-1.507813,0.289612,0.480103,-0.034058,0.827332,down
157284,6.886719,1.324219,5.546875,-0.431641,-0.738281,-1.537109,0.296997,0.482788,-0.033142,0.823181,down
157290,6.765625,1.515625,5.472656,-0.359375,-0.679687,-1.609375,0.300598,0.484009,-0.032471,0.821167,down
157295,6.6875,1.9375,5.128906,-0.359375,-0.679687,-1.609375,0.304138,0.485168,-0.031738,0.819214,down
157301,6.613281,2.050781,5.050781,-0.353516,-0.587891,-1.705078,0.307983,0.486328,-0.030823,0.817139,down
157306,6.570312,2.207031,5.011719,-0.353516,-0.587891,-1.705078,0.312195,0.487366,-0.029785,0.814941,down
157311,6.386719,2.511719,5.050781,-0.353516,-0.587891,-1.705078,0.31604,0.488159,-0.028809,0.813049,down
157317,6.230469,2.703125,5.128906,-0.392578,-0.427734,-1.912109,0.31604,0.488159,-0.028809,0.813049,down
157322,6.117187,2.894531,5.28125,-0.392578,-0.427734,-1.912109,0.324585,0.489441,-0.026428,0.80896,down
157327,6.078125,3.007813,5.28125,-0.392578,-0.427734,-1.912109,0.324585,0.489441,-0.026428,0.80896,down
157333,6.042969,3.046875,5.242187,-0.392578,-0.427734,-1.912109,0.333923,0.490417,-0.023926,0.804626,down
157339,5.882812,3.085938,5.203125,-0.666016,-0.410156,-2.050781,0.343811,0.491211,-0.022217,0.799988,down
157345,6.121094,2.972656,5.164062,-0.666016,-0.410156,-2.050781,0.348511,0.491638,-0.021973,0.797668,down
157350,6.121094,2.972656,5.164062,-1.080078,-0.689453,-1.898438,0.353699,0.492187,-0.022156,0.795105,down
157355,6.121094,2.972656,5.164062,-1.177734,-0.757812,-1.833984,0.353699,0.492187,-0.022156,0.795105,down
157360,6.269531,2.855469,5.128906,-1.177734,-0.757812,-1.833984,0.358643,0.492676,-0.022705,0.792542,down
157365,6.269531,2.855469,5.128906,-1.234375,-0.798828,-1.775391,0.363586,0.493225,-0.02356,0.789917,down
157370,6.503906,2.625,4.820312,-1.234375,-0.798828,-1.775391,0.373413,0.494324,-0.025513,0.784607,down
157375,6.539062,2.625,4.550781,-1.234375,-0.798828,-1.775391,0.373413,0.494324,-0.025513,0.784607,down
157382,6.570312,2.855469,4.4375,-1.234375,-0.798828,-1.775391,0.382629,0.495667,-0.026794,0.779236,down
157388,6.574219,3.085938,4.4375,-0.6875,-0.742187,-1.791016,0.382629,0.495667,-0.026794,0.779236,down
157393,6.539062,3.238281,4.398437,-0.261719,-0.599609,-1.90625,0.382629,0.495667,-0.026794,0.779236,down
157398,6.542969,3.777344,4.285156,-0.261719,-0.599609,-1.90625,0.395203,0.498352,-0.02533,0.77124,down
157404,6.539062,4.003906,4.398437,0.019531,-0.443359,-2.044922,0.395203,0.498352,-0.02533,0.77124,down
157409,6.460937,4.3125,4.398437,0.019531,-0.443359,-2.044922,0.406738,0.501221,-0.01947,0.76355,down
157414,6.304687,4.734375,4.742187,0.058594,-0.300781,-2.150391,0.406738,0.501221,-0.01947,0.76355,down
157419,6.304687,4.808594,4.859375,0.058594,-0.300781,-2.150391,0.410706,0.502014,-0.016968,0.760925,down
157424,6.230469,4.925781,4.933594,-0.162109,-0.199219,-2.244141,0.410706,0.502014,-0.016968,0.760925,down
157430,6.117187,5.039062,5.011719,-0.162109,-0.199219,-2.244141,0.423706,0.503113,-0.009766,0.753174,down
157436,5.539062,5.347656,4.933594,-0.162109,-0.199219,-2.244141,0.428528,0.502991,-0.007935,0.750549,down
157441,5.578125,5.386719,5.050781,-0.826172,-0.275391,-2.308594,0.433594,0.502686,-0.006592,0.747864,down
157446,5.621094,5.308594,5.242187,-1.087891,-0.392578,-2.28125,0.433594,0.502686,-0.006592,0.747864,down
157451,5.734375,5.308594,5.511719,-1.087891,-0.392578,-2.28125,0.444824,0.50177,-0.005676,0.741882,down
157456,5.734375,5.308594,5.546875,-1.478516,-0.519531,-2.212891,0.444824,0.50177,-0.005676,0.741882,down
157461,5.734375,5.347656,5.625,-1.560547,-0.552734,-2.191406,0.444824,0.50177,-0.005676,0.741882,down
157468,5.804687,5.308594,5.703125,-1.570313,-0.583984,-2.183594,0.444824,0.50177,-0.005676,0.741882,down
157473,5.773437,5.230469,5.851562,-1.570313,-0.583984,-2.183594,0.444824,0.50177,-0.005676,0.741882,down
157478,5.773437,5.230469,5.851562,-1.515625,-0.589844,-2.197266,0.474243,0.498291,-0.008728,0.725769,down
157483,5.773437,5.230469,5.851562,-1.318359,-0.556641,-2.251953,0.479919,0.497742,-0.009094,0.722412,down
157489,5.464844,5.0,5.933594,-1.318359,-0.556641,-2.251953,0.479919,0.497742,-0.009094,0.722412,down
157494,5.351562,5.078125,5.894531,-1.318359,-0.556641,-2.251953,0.491089,0.496704,-0.009033,0.715576,down
157499,5.160156,5.15625,5.894531,-0.996094,-0.435547,-2.363281,0.50238,0.495789,-0.00769,0.708374,down
157504,4.96875,5.386719,5.972656,-0.996094,-0.435547,-2.363281,0.50238,0.495789,-0.00769,0.708374,down
157509,4.8125,5.460937,5.96875,-0.75,-0.404297,-2.427734,0.507568,0.495422,-0.006775,0.704895,down
157515,4.738281,5.539062,5.933594,-0.681641,-0.40625,-2.423828,0.512878,0.495117,-0.005615,0.701233,down
157520,4.429687,5.765625,5.738281,-0.681641,-0.40625,-2.423828,0.52301,0.494751,-0.003052,0.69397,down
157525,4.394531,5.808594,5.585937,-0.681641,-0.40625,-2.423828,0.527527,0.49469,-0.001831,0.690674,down
157530,4.316406,5.960937,5.511719,-0.634766,-0.523437,-2.337891,0.532593,0.49469,-0.000549,0.686707,down
157535,4.164062,6.113281,5.433594,-0.634766,-0.523437,-2.337891,0.537109,0.494751,0.000427,0.683167,down
157540,4.046875,6.230469,5.28125,-0.634766,-0.523437,-2.337891,0.542175,0.494812,0.001343,0.679138,down
157546,3.855469,6.34375,5.011719,-0.634766,-0.523437,-2.337891,0.546387,0.494873,0.002014,0.67572,down
157551,3.855469,6.34375,5.011719,-0.792969,-0.708984,-2.158203,0.551086,0.494934,0.002502,0.671814,down
157557,3.855469,6.34375,5.011719,-0.865234,-0.771484,-2.142578,0.555481,0.494995,0.002747,0.668152,down
157562,3.972656,6.265625,4.933594,-0.865234,-0.771484,-2.142578,0.555481,0.494995,0.002747,0.668152,down
157567,3.972656,6.265625,4.933594,-0.947266,-0.814453,-2.121094,0.564941,0.494934,0.002686,0.660217,down
157572,4.429687,6.191406,4.742187,-0.947266,-0.814453,-2.121094,0.569885,0.494629,0.00238,0.656189,down
157577,4.621094,6.148437,4.628906,-1.169922,-0.757812,-2.167969,0.569885,0.494629,0.00238,0.656189,down
157582,4.738281,6.03125,4.667969,-1.169922,-0.757812,-2.167969,0.579651,0.493652,0.001831,0.648254,down
157587,4.8125,5.921875,4.707031,-1.291016,-0.708984,-2.226563,0.579651,0.493652,0.001831,0.648254,down
157592,4.777344,5.847656,4.707031,-1.332031,-0.640625,-2.267578,0.579651,0.493652,0.001831,0.648254,down
157597,4.660156,5.765625,4.589844,-1.332031,-0.640625,-2.267578,0.579651,0.493652,0.001831,0.648254,down
157602,4.621094,5.804687,4.589844,-1.394531,-0.509766,-2.335938,0.579651,0.493652,0.001831,0.648254,down
157607,4.546875,5.84375,4.589844,-1.425781,-0.460937,-2.376953,0.579651,0.493652,0.001831,0.648254,down
157612,4.429687,5.882812,4.628906,-1.427734,-0.421875,-2.416016,0.579651,0.493652,0.001831,0.648254,down
157617,4.085937,6.035156,4.742187,-1.427734,-0.421875,-2.416016,0.579651,0.493652,0.001831,0.648254,down
157622,3.933594,6.035156,4.78125,-1.361328,-0.412109,-2.490234,0.579651,0.493652,0.001831,0.648254,down
157627,3.703125,6.035156,4.742187,-1.330078,-0.396484,-2.519531,0.579651,0.493652,0.001831,0.648254,down
157632,3.703125,6.035156,4.742187,-1.289063,-0.380859,-2.533203,0.633301,0.480652,0.002014,0.606567,down
157637,3.664063,6.074219,4.589844,-1.289063,-0.380859,-2.533203,0.633301,0.480652,0.002014,0.606567,down
157642,3.664063,6.074219,4.589844,-1.271484,-0.380859,-2.574219,0.644043,0.477661,0.003174,0.597534,down
157647,3.78125,6.109375,4.476562,-1.271484,-0.380859,-2.574219,0.649536,0.476013,0.003784,0.592834,down
157652,4.164062,6.03125,4.285156,-1.271484,-0.380859,-2.574219,0.654907,0.474304,0.004395,0.588318,down
157658,4.316406,5.769531,4.246094,-1.378906,-0.261719,-2.664063,0.654907,0.474304,0.004395,0.588318,down
157663,4.355469,5.386719,4.359375,-1.400391,-0.197266,-2.730469,0.654907,0.474304,0.004395,0.588318,down
157668,4.429687,4.738281,4.550781,-1.40625,-0.117188,-2.792969,0.654907,0.474304,0.004395,0.588318,down
157673,4.394531,4.425781,4.625,-1.369141,0.005859,-2.863281,0.677063,0.465881,0.008118,0.569641,down
157678,4.277344,4.234375,4.703125,-1.292969,0.160156,-2.943359,0.677063,0.465881,0.008118,0.569641,down
157683,4.125,4.234375,4.824219,-1.171875,0.318359,-3.03125,0.677063,0.465881,0.008118,0.569641,down
157689,3.625,4.351562,5.089844,-1.171875,0.318359,-3.03125,0.693726,0.458313,0.014587,0.55542,down
157694,3.433594,4.390625,5.28125,-1.171875,0.318359,-3.03125,0.699097,0.455994,0.017822,0.550476,down
157700,3.167969,4.425781,5.429687,-0.419922,0.517578,-3.167969,0.708862,0.452576,0.026001,0.540405,down
157705,2.554688,4.964844,5.390625,-0.419922,0.517578,-3.167969,0.712769,0.451782,0.030518,0.535706,down
157710,2.4375,5.386719,5.242187,-0.419922,0.517578,-3.167969,0.712769,0.451782,0.030518,0.535706,down
157715,2.4375,5.386719,5.242187,0.857422,0.367188,-3.105469,0.71637,0.451538,0.035645,0.530762,down
157720,2.476563,5.726562,5.089844,0.857422,0.367188,-3.105469,0.719604,0.451904,0.040833,0.525635,down
157725,2.554688,7.179687,5.242187,1.054688,0.181641,-3.066406,0.722534,0.452942,0.046204,0.520203,down
157730,2.554688,7.601562,5.320312,1.183594,0.056641,-3.03125,0.725159,0.454407,0.051331,0.514832,down
157735,2.476563,8.027344,5.355469,1.183594,0.056641,-3.03125,0.730225,0.458435,0.061951,0.502808,down
157740,2.476563,8.527344,5.546875,1.353516,-0.197266,-3.044922,0.730225,0.458435,0.061951,0.502808,down
157745,2.4375,8.75,5.625,1.353516,-0.197266,-3.044922,0.73468,0.462646,0.071533,0.491028,down
157750,2.324219,8.988281,5.664062,1.353516,-0.197266,-3.044922,0.73468,0.462646,0.071533,0.491028,down
157755,2.171875,9.253906,5.664062,1.166016,-0.259766,-3.103516,0.739502,0.466187,0.080505,0.478821,down
157761,1.597656,9.675781,5.511719,1.166016,-0.259766,-3.103516,0.742187,0.467285,0.084473,0.4729,down
157766,1.519531,9.632813,5.433594,0.316406,-0.335938,-3.181641,0.745361,0.467834,0.088196,0.466675,down
157771,1.519531,9.632813,5.433594,-0.003906,-0.398438,-3.167969,0.748901,0.467834,0.09137,0.460449,down
157776,1.175781,9.632813,5.394531,-0.003906,-0.398438,-3.167969,0.752808,0.467224,0.094177,0.453918,down
157782,1.023438,9.484375,5.625,-0.003906,-0.398438,-3.167969,0.756897,0.466309,0.096375,0.447632,down
157787,0.945312,9.410156,5.664062,-0.6875,-0.609375,-3.0625,0.756897,0.466309,0.096375,0.447632,down
157792,0.945312,9.410156,5.664062,-0.798828,-0.638672,-2.992188,0.765503,0.463501,0.099731,0.434998,down
157797,0.753906,9.445313,5.625,-0.798828,-0.638672,-2.992188,0.765503,0.463501,0.099731,0.434998,down
157802,0.753906,9.445313,5.625,-0.841797,-0.671875,-2.921875,0.774109,0.460205,0.102173,0.422546,down
157808,0.675781,9.449219,5.625,-0.841797,-0.671875,-2.921875,0.778137,0.458618,0.103149,0.416626,down
157814,0.832031,9.75,5.511719,-0.744141,-0.740234,-2.708984,0.778137,0.458618,0.103149,0.416626,down
157819,0.714844,9.910156,5.394531,-0.744141,-0.740234,-2.708984,0.785767,0.455688,0.10498,0.404785,down
157825,0.675781,10.054688,5.320312,-0.449219,-0.691406,-2.558594,0.785767,0.455688,0.10498,0.404785,down
157830,0.5625,10.332031,5.433594,-0.449219,-0.691406,-2.558594,0.792542,0.453491,0.107117,0.393372,down
157835,0.601562,10.402344,5.472656,-0.384766,-0.705078,-2.519531,0.798767,0.451782,0.109314,0.382019,down
157840,0.5625,10.480469,5.585937,-0.384766,-0.705078,-2.519531,0.798767,0.451782,0.109314,0.382019,down
157845,0.445312,10.554688,5.585937,-0.533203,-0.576172,-2.431641,0.798767,0.451782,0.109314,0.382019,down
157851,0.292969,10.476563,5.546875,-0.533203,-0.576172,-2.431641,0.807678,0.448425,0.112549,0.365906,down
157856,0.140625,10.363281,5.585937,-1.001953,-0.482422,-2.398438,0.811462,0.446106,0.113586,0.360046,down
157861,0.0625,10.097656,5.625,-1.294922,-0.462891,-2.369141,0.815063,0.44342,0.114258,0.35498,down
157867,-0.164062,9.671875,5.664062,-1.294922,-0.462891,-2.369141,0.818298,0.440674,0.114624,0.350891,down
157872,-0.164062,9.488281,5.738281,-1.294922,-0.462891,-2.369141,0.822449,0.436707,0.114746,0.346008,down
157877,-0.164062,9.488281,5.738281,-2.111328,-0.478516,-2.328125,0.82666,0.432373,0.114624,0.34137,down
157882,-0.089844,9.171875,5.855469,-2.111328,-0.478516,-2.328125,0.82666,0.432373,0.114624,0.34137,down
157887,0.292969,8.484375,6.316406,-2.269531,-0.486328,-2.306641,0.82666,0.432373,0.114624,0.34137,down
157892,0.253906,8.339844,6.390625,-2.429688,-0.484375,-2.265625,0.84021,0.417053,0.113159,0.327576,down
157897,0.253906,8.183594,6.582031,-2.429688,-0.484375,-2.265625,0.844788,0.411499,0.112549,0.322937,down
157904,0.332031,7.839844,7.195312,-2.429688,-0.484375,-2.265625,0.844788,0.411499,0.112549,0.322937,down
157910,0.21875,7.839844,7.347656,-2.128906,-0.478516,-2.283203,0.844788,0.411499,0.112549,0.322937,down
157915,0.179687,7.839844,7.308594,-1.765625,-0.357422,-2.333984,0.844788,0.411499,0.112549,0.322937,down
157920,0.0625,7.878906,7.386719,-1.765625,-0.357422,-2.333984,0.860962,0.392273,0.111267,0.304138,down
157926,0.0625,7.878906,7.386719,-1.558594,-0.300781,-2.384766,0.86792,0.384155,0.111938,0.29425,down
157931,-0.164062,7.917969,7.503906,-1.517578,-0.269531,-2.404297,0.871399,0.380066,0.112549,0.28894,down
157936,-0.28125,7.988281,7.578125,-1.517578,-0.269531,-2.404297,0.87439,0.376526,0.113159,0.284363,down
157942,-0.777344,8.484375,7.769531,-1.517578,-0.269531,-2.404297,0.877747,0.372375,0.113831,0.279236,down
157947,-0.96875,8.566406,7.960937,-1.779297,-0.277344,-2.388672,0.877747,0.372375,0.113831,0.279236,down
157952,-0.96875,8.566406,7.960937,-2.0,-0.353516,-2.349609,0.884521,0.363342,0.114502,0.269226,down
157957,-0.96875,8.566406,7.960937,-2.277344,-0.382813,-2.308594,0.888062,0.358215,0.11438,0.264465,down
157962,-1.125,8.335938,8.113281,-2.277344,-0.382813,-2.308594,0.888062,0.358215,0.11438,0.264465,down
157967,-1.507813,8.0625,7.847656,-2.8125,-0.517578,-2.189453,0.895813,0.345947,0.113098,0.255127,down
157972,-1.546875,7.761719,8.148438,-3.044922,-0.652344,-2.117188,0.895813,0.345947,0.113098,0.255127,down
157977,-1.507813,7.453125,8.421875,-3.044922,-0.652344,-2.117188,0.895813,0.345947,0.113098,0.255127,down
157982,-1.621094,7.300781,8.503906,-3.216797,-0.794922,-2.060547,0.895813,0.345947,0.113098,0.255127,down
157989,-1.660156,7.222656,8.613281,-3.230469,-0.839844,-2.037109,0.895813,0.345947,0.113098,0.255127,down
157994,-1.660156,7.492187,8.609375,-3.169922,-0.869141,-2.027344,0.915955,0.309814,0.103699,0.232971,down
157999,-1.699219,7.605469,8.464844,-3.169922,-0.869141,-2.027344,0.9198,0.30249,0.10144,0.228394,down
158004,-1.699219,7.605469,8.386719,-2.880859,-0.828125,-2.056641,0.9198,0.30249,0.10144,0.228394,down
158009,-1.773438,7.683594,8.425781,-2.818359,-0.832031,-2.076172,0.9198,0.30249,0.10144,0.228394,down
158015,-1.738281,8.488281,8.382813,-2.800781,-0.833984,-2.052734,0.93335,0.275757,0.093445,0.2099,down
158020,-1.773438,8.679688,8.039063,-2.800781,-0.833984,-2.052734,0.93335,0.275757,0.093445,0.2099,down
158025,-1.699219,8.566406,7.503906,-3.113281,-0.666016,-2.070313,0.93335,0.275757,0.093445,0.2099,down
158030,-1.277344,7.988281,7.308594,-3.113281,-0.666016,-2.070313,0.939819,0.261597,0.089844,0.200623,down
158035,-1.277344,7.988281,7.308594,-3.113281,-0.666016,-2.070313,0.939819,0.261597,0.089844,0.200623,down
158040,-0.96875,7.492187,7.578125,-3.427734,-0.675781,-2.083984,0.939819,0.261597,0.089844,0.200623,down
158045,-0.96875,7.492187,7.578125,-4.148437,-0.488281,-2.125,0.950012,0.235413,0.083984,0.187012,down
158050,-0.550781,6.1875,8.039063,-4.148437,-0.488281,-2.125,0.953613,0.22467,0.082336,0.182495,down
158055,-0.472656,4.390625,8.386719,-4.486328,-0.023437,-2.207031,0.957031,0.213806,0.081238,0.178162,down
158061,-0.359375,3.929688,8.882813,-4.466797,0.150391,-2.240234,0.963928,0.189636,0.080261,0.168701,down
158067,-0.585937,2.78125,10.683594,-4.466797,0.150391,-2.240234,0.966309,0.180481,0.080383,0.165039,down
158072,-0.816406,2.320313,11.027344,-3.802734,0.595703,-2.132813,0.968872,0.169922,0.080994,0.160767,down
158077,-1.046875,2.207031,11.257813,-3.265625,0.736328,-2.041016,0.968872,0.169922,0.080994,0.160767,down
158082,-1.351563,2.320313,11.179688,-2.576172,0.892578,-1.943359,0.968872,0.169922,0.080994,0.160767,down
158087,-1.929688,2.855469,10.800781,-2.576172,0.892578,-1.943359,0.968872,0.169922,0.080994,0.160767,down
158092,-1.929688,2.855469,10.800781,-2.576172,0.892578,-1.943359,0.968872,0.169922,0.080994,0.160767,down
158097,-1.929688,2.855469,10.800781,-0.365234,0.841797,-1.634766,0.975769,0.139771,0.090698,0.141724,down
158102,-1.929688,2.855469,10.800781,0.162109,0.746094,-1.537109,0.976196,0.138855,0.093262,0.138062,down
158108,-2.15625,4.695312,10.796875,0.162109,0.746094,-1.537109,0.97644,0.13916,0.095581,0.134583,down
158114,-2.121094,5.117187,10.566406,0.955078,0.505859,-1.419922,0.97644,0.13916,0.095581,0.134583,down
158120,-1.929688,5.882812,10.183594,1.177734,0.376953,-1.386719,0.97644,0.13916,0.095581,0.134583,down
158125,-1.929688,6.226562,10.074219,1.177734,0.376953,-1.386719,0.976379,0.144958,0.101257,0.124023,down
158130,-1.929688,6.457031,9.992188,1.003906,0.095703,-1.392578,0.976379,0.144958,0.101257,0.124023,down
158136,-1.929688,6.457031,9.953125,0.236328,-0.138672,-1.453125,0.976379,0.144958,0.101257,0.124023,down
158141,-1.929688,6.152344,9.914063,0.236328,-0.138672,-1.453125,0.977295,0.14917,0.104004,0.108948,down
158146,-1.929688,6.035156,9.800781,0.236328,-0.138672,-1.453125,0.977295,0.14917,0.104004,0.108948,down
158151,-1.964844,5.996094,9.613281,-1.322266,-0.320313,-1.509766,0.977295,0.14917,0.104004,0.108948,down
158156,-2.003906,6.035156,9.296875,-1.871094,-0.369141,-1.519531,0.97876,0.144714,0.103333,0.10199,down
158162,-2.003906,5.730469,9.71875,-1.871094,-0.369141,-1.519531,0.980957,0.135193,0.101746,0.095398,down
158167,-2.042969,5.386719,9.914063,-2.783203,-0.447266,-1.572266,0.9823,0.128601,0.100586,0.092102,down
158173,-2.003906,5.230469,9.953125,-3.035156,-0.451172,-1.628906,0.9823,0.128601,0.100586,0.092102,down
158178,-1.964844,4.695312,9.800781,-3.035156,-0.451172,-1.628906,0.985046,0.112976,0.098022,0.085205,down
158184,-1.929688,4.425781,9.71875,-3.240234,-0.447266,-1.779297,0.985046,0.112976,0.098022,0.085205,down
158189,-1.851563,4.082031,9.691406,-3.287109,-0.443359,-1.853516,0.985046,0.112976,0.098022,0.085205,down
158194,-1.851563,4.082031,9.691406,-3.326172,-0.431641,-1.939453,0.988953,0.087708,0.094116,0.073669,down
158199,-1.851563,3.355469,9.761719,-3.326172,-0.431641,-1.939453,0.988953,0.087708,0.094116,0.073669,down
158204,-1.8125,3.007813,9.875,-3.361328,-0.427734,-1.984375,0.99115,0.07019,0.091614,0.065186,down
158209,-1.8125,3.007813,9.875,-3.361328,-0.427734,-1.984375,0.99115,0.07019,0.091614,0.065186,down
158215,-1.929688,1.4375,10.601563,-3.285156,-0.427734,-1.998047,0.992981,0.053345,0.089111,0.056763,down
158221,-2.003906,1.402344,10.796875,-2.763672,-0.359375,-1.804688,0.992981,0.053345,0.089111,0.056763,down
158226,-2.3125,1.4375,10.90625,-2.763672,-0.359375,-1.804688,0.994324,0.03772,0.086792,0.048462,down
158231,-2.386719,1.515625,10.988281,-2.763672,-0.359375,-1.804688,0.994873,0.03009,0.085693,0.044189,down
158236,-2.464844,1.667969,11.023438,-1.964844,-0.261719,-1.628906,0.994873,0.03009,0.085693,0.044189,down
158241,-2.617188,1.820313,11.101563,-1.964844,-0.261719,-1.628906,0.995605,0.01825,0.083984,0.036621,down
158246,-2.734375,2.167969,11.183594,-1.298828,-0.226562,-1.554688,0.995911,0.013428,0.083313,0.03302,down
158252,-2.808594,2.433594,11.140625,-1.298828,-0.226562,-1.554688,0.996277,0.006592,0.082153,0.026062,down
158257,-2.847656,2.625,11.144531,-0.552734,-0.166016,-1.519531,0.996399,0.004211,0.081604,0.021851,down
158263,-2.925781,2.816406,10.910156,-0.552734,-0.166016,-1.519531,0.996521,0.00293,0.081238,0.018616,down
158268,-2.886719,3.164063,10.5625,-0.552734,-0.166016,-1.519531,0.996643,0.002014,0.080811,0.014954,down
158274,-2.925781,3.238281,10.378906,-0.160156,-0.199219,-1.449219,0.996643,0.002014,0.080811,0.014954,down
158279,-2.886719,3.277344,10.300781,-0.222656,-0.226562,-1.4375,0.996643,0.002014,0.080811,0.014954,down
158284,-2.769531,3.316406,9.992188,-0.367188,-0.255859,-1.425781,0.996643,0.002014,0.080811,0.014954,down
158289,-2.734375,3.125,9.878906,-0.589844,-0.285156,-1.414063,0.996643,0.002014,0.080811,0.014954,down
158294,-2.734375,3.125,9.878906,-0.855469,-0.328125,-1.392578,0.996948,-0.004211,0.077759,-0.002808,down
158299,-2.617188,2.933594,9.761719,-1.097656,-0.361328,-1.369141,0.997009,-0.006897,0.076904,-0.006104,down
158304,-2.386719,2.320313,9.570313,-1.097656,-0.361328,-1.369141,0.997009,-0.006897,0.076904,-0.006104,down
158309,-2.386719,2.320313,9.570313,-1.296875,-0.373047,-1.357422,0.997009,-0.010254,0.075989,-0.009338,down
158314,-2.15625,1.820313,9.492188,-1.412109,-0.373047,-1.322266,0.996948,-0.0177,0.074158,-0.01532,down
158319,-2.082031,1.402344,9.722656,-1.412109,-0.373047,-1.322266,0.996948,-0.0177,0.074158,-0.01532,down
158325,-2.003906,1.210938,9.796875,-1.412109,-0.373047,-1.322266,0.996826,-0.025757,0.072388,-0.020874,down
158330,-2.042969,1.054688,9.757813,-1.412109,-0.373047,-1.322266,0.996704,-0.02948,0.071472,-0.023621,down
158336,-2.15625,0.828125,9.800781,-1.167969,-0.357422,-1.0625,0.996704,-0.02948,0.071472,-0.023621,down
158341,-2.082031,0.902344,9.570313,-1.167969,-0.357422,-1.0625,0.99646,-0.038147,0.068604,-0.031006,down
158346,-2.15625,0.863281,9.71875,-1.167969,-0.357422,-1.0625,0.99646,-0.038147,0.068604,-0.031006,down
158351,-2.347656,0.671875,9.875,-0.419922,-0.490234,-0.876953,0.99646,-0.038147,0.068604,-0.031006,down
158356,-2.464844,0.597656,9.71875,-0.138672,-0.544922,-0.845703,0.996277,-0.041809,0.066345,-0.035339,down
158361,-2.539063,0.632812,9.800781,-0.138672,-0.544922,-0.845703,0.996277,-0.042664,0.065063,-0.037354,down
158366,-2.617188,0.75,9.835938,0.306641,-0.654297,-0.767578,0.996277,-0.04303,0.063354,-0.039673,down
158371,-2.695313,0.75,9.839844,0.306641,-0.654297,-0.767578,0.996338,-0.042725,0.061707,-0.041626,down
158376,-2.847656,0.789062,9.6875,0.306641,-0.654297,-0.767578,0.99646,-0.040833,0.058105,-0.045105,down
158381,-2.886719,0.789062,9.6875,0.306641,-0.654297,-0.767578,0.99646,-0.040833,0.058105,-0.045105,down
158386,-2.847656,0.789062,9.652344,0.757812,-0.902344,-0.511719,0.99646,-0.040833,0.058105,-0.045105,down
158391,-2.769531,0.789062,9.71875,0.757812,-0.902344,-0.511719,0.996826,-0.036072,0.05127,-0.0495,down
158396,-2.695313,0.671875,9.757813,0.757812,-0.902344,-0.511719,0.996948,-0.03418,0.048706,-0.050537,down
158401,-2.347656,0.519531,9.957031,0.757812,-0.902344,-0.511719,0.996948,-0.03418,0.048706,-0.050537,down
158406,-2.121094,0.441406,10.101563,0.896484,-1.091797,-0.166016,0.996948,-0.03418,0.048706,-0.050537,down
158411,-1.582031,0.214844,10.21875,0.896484,-1.091797,-0.166016,0.997253,-0.030151,0.043152,-0.052002,down
158416,-1.351563,0.097656,10.144531,0.896484,-1.091797,-0.166016,0.997437,-0.028076,0.040344,-0.052429,down
158421,-1.199219,-0.015625,10.070313,0.978516,-1.039063,-0.044922,0.997742,-0.023254,0.034668,-0.052856,down
158426,-1.007813,-0.515625,9.757813,0.978516,-1.039063,-0.044922,0.997742,-0.023254,0.034668,-0.052856,down
158431,-1.046875,-0.628906,9.300781,1.335938,-0.775391,0.115234,0.997864,-0.02063,0.032227,-0.052917,down
158436,-1.125,-0.707031,8.917969,1.335938,-0.775391,0.115234,0.997986,-0.017578,0.029907,-0.052795,down
158441,-1.125,-0.707031,8.917969,1.791016,-0.613281,0.246094,0.998108,-0.014343,0.028076,-0.052612,down
158446,-1.160156,-0.707031,8.726563,1.791016,-0.613281,0.246094,0.99823,-0.010315,0.026306,-0.052185,down
158451,-1.238281,-0.707031,8.882813,1.791016,-0.613281,0.246094,0.99823,-0.010315,0.026306,-0.052185,down
158456,-1.238281,-0.707031,8.882813,2.3125,-0.474609,0.373047,0.998413,-0.000183,0.023071,-0.050964,down
158461,-1.390625,-0.132812,8.953125,2.615234,-0.365234,0.416016,0.998474,0.012878,0.020508,-0.049255,down
158466,-1.46875,0.175781,9.070313,2.615234,-0.365234,0.416016,0.998413,0.020508,0.019531,-0.04834,down
158471,-1.699219,0.828125,9.648438,2.615234,-0.365234,0.416016,0.998413,0.020508,0.019531,-0.04834,down
158476,-1.699219,1.054688,9.917969,3.917969,-0.203125,0.439453,0.998413,0.020508,0.019531,-0.04834,down
158481,-1.546875,2.207031,10.074219,3.917969,-0.203125,0.439453,0.998047,0.038391,0.017517,-0.046509,down
158486,-1.507813,2.703125,10.144531,3.917969,-0.203125,0.439453,0.99762,0.049377,0.016418,-0.045715,down
158491,-1.316406,3.203125,10.105469,4.498047,-0.283203,0.25,0.99762,0.049377,0.016418,-0.045715,down
158496,-1.085938,3.621094,10.101563,4.634766,-0.367188,0.148437,0.995483,0.082275,0.012512,-0.045166,down
158501,-0.472656,4.3125,9.796875,4.634766,-0.367188,0.148437,0.995483,0.082275,0.012512,-0.045166,down
158506,-0.28125,4.464844,9.53125,4.248047,-0.462891,-0.072266,0.994507,0.093872,0.010803,-0.045532,down
158511,-0.203125,4.65625,9.226563,4.248047,-0.462891,-0.072266,0.993347,0.105408,0.009033,-0.046021,down
158516,0.101563,4.734375,8.6875,4.248047,-0.462891,-0.072266,0.99231,0.114563,0.007629,-0.046448,down
158522,0.0625,4.582031,8.574219,3.392578,-0.447266,-0.03125,0.990051,0.132263,0.004517,-0.04718,down
158527,0.101563,4.390625,8.570313,2.408203,-0.416016,0.136719,0.989197,0.138733,0.003174,-0.047241,down
158532,0.0625,4.234375,8.5,2.408203,-0.416016,0.136719,0.988525,0.143677,0.001953,-0.047058,down
158537,0.0625,3.96875,8.421875,2.408203,-0.416016,0.136719,0.988525,0.143677,0.001953,-0.047058,down
158542,0.0625,3.96875,8.421875,2.408203,-0.416016,0.136719,0.988525,0.143677,0.001953,-0.047058,down
158563,0.292969,3.585938,8.503906,1.324219,-0.101563,0.644531,0.985962,0.161377,-0.003113,-0.042542,down
158568,0.332031,3.621094,8.648438,1.460938,-0.044922,0.671875,0.984985,0.167969,-0.004333,-0.039612,down
158574,0.484375,3.699219,8.730469,1.460938,-0.044922,0.671875,0.984375,0.171875,-0.004883,-0.038025,down
158580,0.636719,3.699219,8.613281,1.777344,0.023437,0.677734,0.984375,0.171875,-0.004883,-0.038025,down
158585,0.753906,3.777344,8.691406,1.880859,0.068359,0.652344,0.984375,0.171875,-0.004883,-0.038025,down
