timestamp,ax,ay,az,gx,gy,gz,qw,qx,qy,qz,label
53269,8.839844,4.425781,-0.042969,-0.019531,-0.037109,-0.136719,0.141541,0.679138,0.165344,0.700989,down
53274,8.839844,4.425781,-0.082031,-0.019531,-0.037109,-0.136719,0.141907,0.679077,0.165527,0.700928,down
53279,8.957031,4.234375,-0.007813,-0.019531,-0.037109,-0.136719,0.141907,0.679077,0.165527,0.700928,down
53284,8.953125,4.234375,0.070312,-0.09375,-0.019531,-0.162109,0.141907,0.679077,0.165527,0.700928,down
53289,8.988281,4.195312,0.148437,-0.09375,-0.019531,-0.162109,0.142761,0.678955,0.165771,0.700806,down
53295,9.027344,4.195312,0.183594,-0.107422,0.0,-0.171875,0.143738,0.678711,0.166077,0.700745,down
53300,8.957031,4.234375,0.183594,-0.117188,0.046875,-0.181641,0.144226,0.678528,0.166199,0.700806,down
53305,8.878906,4.273437,0.109375,-0.117188,0.046875,-0.181641,0.144714,0.678345,0.166382,0.700928,down
53310,8.835938,4.351562,0.109375,-0.117188,0.046875,-0.181641,0.145142,0.678101,0.166443,0.700989,down
53315,8.875,4.351562,0.148437,-0.134766,0.083984,-0.148437,0.145691,0.677795,0.166565,0.701172,down
53320,8.878906,4.273437,0.300781,-0.134766,0.083984,-0.148437,0.146179,0.67749,0.166626,0.701355,down
53325,8.914063,4.234375,0.261719,-0.134766,0.083984,-0.148437,0.146545,0.677246,0.166687,0.701477,down
53330,8.875,4.234375,0.339844,-0.130859,0.101563,-0.136719,0.146545,0.677246,0.166687,0.701477,down
53335,8.757813,4.160156,0.375,-0.130859,0.101563,-0.136719,0.1474,0.676697,0.166809,0.701843,down
53340,8.601563,4.425781,0.222656,-0.130859,0.101563,-0.136719,0.147827,0.676331,0.166992,0.702026,down
53346,8.5625,4.425781,0.261719,-0.130859,0.101563,-0.136719,0.148193,0.676086,0.167175,0.702148,down
53351,8.5625,4.425781,0.261719,-0.056641,0.068359,-0.179687,0.14856,0.675842,0.167419,0.702271,down
53356,8.53125,4.464844,0.375,-0.056641,0.068359,-0.179687,0.148926,0.675659,0.167664,0.702271,down
53362,8.605469,4.503906,0.339844,-0.056641,0.068359,-0.179687,0.149292,0.675476,0.167969,0.702271,down
53367,8.683594,4.542969,0.414062,-0.042969,-0.011719,-0.197266,0.149292,0.675476,0.167969,0.702271,down
53373,8.757813,4.542969,0.453125,-0.029297,-0.021484,-0.203125,0.149292,0.675476,0.167969,0.702271,down
53378,8.835938,4.503906,0.53125,-0.029297,-0.021484,-0.203125,0.150574,0.675232,0.168945,0.702026,down
53383,8.835938,4.464844,0.453125,-0.029297,-0.021484,-0.203125,0.150574,0.675232,0.168945,0.702026,down
53388,8.875,4.503906,0.453125,-0.029297,-0.021484,-0.203125,0.15155,0.674988,0.169617,0.701904,down
53394,8.988281,4.503906,0.414062,-0.066406,0.044922,-0.279297,0.15155,0.674988,0.169617,0.701904,down
53399,8.953125,4.542969,0.492187,-0.066406,0.044922,-0.279297,0.152649,0.6745,0.17041,0.701904,down
53404,8.917969,4.617187,0.453125,-0.140625,0.138672,-0.269531,0.15332,0.674194,0.170776,0.702026,down
53409,8.957031,4.617187,0.414062,-0.140625,0.138672,-0.269531,0.153992,0.673767,0.171082,0.702148,down
53415,8.761719,4.734375,0.414062,-0.140625,0.138672,-0.269531,0.155212,0.672852,0.171692,0.702637,down
53420,8.679688,4.773437,0.492187,-0.132812,0.203125,-0.279297,0.155884,0.672302,0.171997,0.702942,down
53425,8.605469,4.773437,0.414062,-0.128906,0.212891,-0.287109,0.156494,0.671753,0.172363,0.703247,down
53430,8.535156,4.808594,0.414062,-0.128906,0.212891,-0.287109,0.157043,0.671265,0.172729,0.703491,down
53435,8.566406,4.808594,0.453125,-0.128906,0.212891,-0.287109,0.157715,0.670654,0.173157,0.703796,down
53440,8.535156,4.808594,0.453125,-0.072266,0.205078,-0.271484,0.157715,0.670654,0.173157,0.703796,down
53445,8.535156,4.808594,0.414062,-0.072266,0.205078,-0.271484,0.158691,0.669617,0.174011,0.704346,down
53450,8.535156,4.808594,0.492187,-0.072266,0.205078,-0.271484,0.159119,0.669189,0.174438,0.70459,down
53455,8.601563,4.886719,0.53125,-0.072266,0.205078,-0.271484,0.159607,0.66864,0.174927,0.704895,down
53460,8.5625,4.925781,0.570312,-0.052734,0.214844,-0.261719,0.159607,0.66864,0.174927,0.704895,down
53465,8.5625,4.925781,0.605469,-0.0625,0.212891,-0.267578,0.160095,0.668091,0.175415,0.705139,down
53470,8.535156,4.925781,0.644531,-0.0625,0.212891,-0.267578,0.161011,0.667053,0.17627,0.705688,down
53476,8.53125,4.964844,0.683594,-0.0625,0.212891,-0.267578,0.161499,0.666504,0.176697,0.705994,down
53481,8.496094,4.964844,0.722656,-0.154297,0.175781,-0.275391,0.162109,0.666016,0.177002,0.706238,down
53487,8.417969,4.773437,0.835937,-0.154297,0.175781,-0.275391,0.162781,0.665527,0.177246,0.706482,down
53492,8.375,4.808594,0.761719,-0.212891,0.158203,-0.263672,0.163513,0.665039,0.177429,0.706787,down
53497,8.339844,4.847656,0.796875,-0.236328,0.148437,-0.255859,0.163513,0.665039,0.177429,0.706787,down
53502,8.339844,4.886719,0.761719,-0.228516,0.128906,-0.248047,0.163513,0.665039,0.177429,0.706787,down
53507,8.296875,4.925781,0.835937,-0.228516,0.128906,-0.248047,0.163513,0.665039,0.177429,0.706787,down
53512,8.300781,4.925781,0.796875,-0.212891,0.111328,-0.234375,0.163513,0.665039,0.177429,0.706787,down
53518,8.296875,4.847656,0.761719,-0.212891,0.083984,-0.222656,0.163513,0.665039,0.177429,0.706787,down
53523,8.375,4.773437,0.761719,-0.212891,0.083984,-0.222656,0.167908,0.662476,0.17804,0.707947,down
53528,8.492188,4.773437,0.761719,-0.212891,0.083984,-0.222656,0.167908,0.662476,0.17804,0.707947,down
53533,8.566406,4.695312,0.796875,-0.103516,0.027344,-0.199219,0.167908,0.662476,0.17804,0.707947,down
53538,8.601563,4.695312,0.835937,-0.046875,0.023437,-0.191406,0.167908,0.662476,0.17804,0.707947,down
53543,8.679688,4.695312,0.761719,-0.046875,0.023437,-0.191406,0.167908,0.662476,0.17804,0.707947,down
53549,8.644531,4.808594,0.722656,-0.046875,0.023437,-0.191406,0.170105,0.661499,0.17926,0.708008,down
53554,8.566406,4.847656,0.722656,0.091797,0.041016,-0.177734,0.170105,0.661499,0.17926,0.708008,down
53560,8.5625,4.964844,0.644531,0.115234,0.044922,-0.173828,0.170471,0.661255,0.180176,0.707947,down
53565,8.566406,5.0,0.644531,0.115234,0.044922,-0.173828,0.170593,0.661133,0.180725,0.707947,down
53571,8.53125,5.0,0.605469,0.103516,0.054687,-0.173828,0.170776,0.660889,0.181824,0.707825,down
53576,8.53125,5.078125,0.570312,0.103516,0.054687,-0.173828,0.170898,0.660706,0.182373,0.707825,down
53581,8.53125,5.039062,0.605469,0.103516,0.054687,-0.173828,0.171021,0.660522,0.182739,0.707825,down
53586,8.496094,5.039062,0.53125,0.001953,0.060547,-0.164062,0.171021,0.660522,0.182739,0.707825,down
53591,8.496094,5.039062,0.53125,-0.052734,0.060547,-0.164062,0.171021,0.660522,0.182739,0.707825,down
53596,8.496094,5.0,0.53125,-0.052734,0.060547,-0.164062,0.171936,0.659912,0.183594,0.708008,down
53601,8.492188,4.964844,0.453125,-0.052734,0.060547,-0.164062,0.171936,0.659912,0.183594,0.708008,down
53606,8.492188,4.886719,0.53125,-0.220703,0.050781,-0.160156,0.172974,0.659424,0.183655,0.708191,down
53612,8.53125,4.847656,0.53125,-0.273438,0.054687,-0.162109,0.173645,0.659119,0.183533,0.708374,down
53617,8.566406,4.695312,0.605469,-0.273438,0.054687,-0.162109,0.174316,0.658813,0.18335,0.708496,down
53622,8.53125,4.695312,0.644531,-0.261719,0.054687,-0.179687,0.174316,0.658813,0.18335,0.708496,down
53628,8.53125,4.695312,0.644531,-0.234375,0.060547,-0.181641,0.174316,0.658813,0.18335,0.708496,down
53633,8.453125,4.65625,0.722656,-0.197266,0.066406,-0.183594,0.174316,0.658813,0.18335,0.708496,down
53638,8.414063,4.65625,0.722656,-0.148437,0.066406,-0.193359,0.174316,0.658813,0.18335,0.708496,down
53644,8.335938,4.617187,0.761719,-0.103516,0.068359,-0.205078,0.174316,0.658813,0.18335,0.708496,down
53649,8.300781,4.617187,0.761719,-0.103516,0.068359,-0.205078,0.177979,0.657043,0.183594,0.709167,down
53655,8.296875,4.65625,0.683594,-0.103516,0.068359,-0.205078,0.178589,0.656555,0.184387,0.70929,down
53660,8.300781,4.734375,0.722656,-0.103516,0.068359,-0.205078,0.178589,0.656555,0.184387,0.70929,down
53665,8.21875,4.808594,0.722656,0.099609,0.087891,-0.216797,0.178589,0.656555,0.184387,0.70929,down
53670,8.222656,4.808594,0.683594,0.099609,0.087891,-0.216797,0.179016,0.655823,0.18634,0.70929,down
53675,8.222656,4.808594,0.683594,0.099609,0.087891,-0.216797,0.179016,0.655823,0.18634,0.70929,down
53680,8.222656,4.847656,0.761719,0.169922,0.105469,-0.275391,0.179016,0.655823,0.18634,0.70929,down
53686,8.261719,4.847656,0.796875,0.169922,0.105469,-0.275391,0.179443,0.65509,0.188721,0.709229,down
53691,8.21875,4.808594,0.796875,0.169922,0.105469,-0.275391,0.179687,0.654846,0.189636,0.709167,down
53696,8.183594,4.808594,0.796875,0.179687,0.105469,-0.353516,0.179932,0.654541,0.190674,0.709106,down
53702,8.109375,4.734375,0.722656,0.179687,0.105469,-0.353516,0.180237,0.654236,0.191589,0.709045,down
53707,8.035156,4.695312,0.761719,0.179687,0.105469,-0.353516,0.180603,0.65387,0.192566,0.709045,down
53713,8.035156,4.695312,0.761719,0.097656,0.105469,-0.421875,0.180603,0.65387,0.192566,0.709045,down
53718,7.992187,4.65625,0.875,0.0625,0.068359,-0.441406,0.181641,0.653198,0.194458,0.708923,down
53723,7.917969,4.695312,0.988281,0.0625,0.068359,-0.441406,0.182312,0.652893,0.195312,0.70874,down
53728,7.953125,4.734375,1.027344,0.054687,0.003906,-0.466797,0.182312,0.652893,0.195312,0.70874,down
53733,7.957031,4.734375,1.066406,0.070312,-0.023437,-0.482422,0.182312,0.652893,0.195312,0.70874,down
53738,8.03125,4.734375,1.105469,0.083984,-0.048828,-0.478516,0.182312,0.652893,0.195312,0.70874,down
53743,7.957031,4.65625,1.179688,0.083984,-0.048828,-0.478516,0.182312,0.652893,0.195312,0.70874,down
53749,7.914062,4.65625,1.144531,0.083984,-0.048828,-0.478516,0.185791,0.652039,0.200073,0.707275,down
53755,7.839844,4.65625,1.105469,0.214844,-0.029297,-0.425781,0.185791,0.652039,0.200073,0.707275,down
53760,7.835937,4.734375,0.988281,0.255859,-0.019531,-0.419922,0.186768,0.651917,0.202148,0.706604,down
53765,7.765625,4.773437,0.953125,0.255859,-0.019531,-0.419922,0.187195,0.651794,0.203369,0.706238,down
53770,7.730469,4.808594,0.875,0.255859,-0.019531,-0.419922,0.187439,0.651733,0.20459,0.705872,down
53775,7.609375,4.773437,0.835937,0.316406,0.021484,-0.419922,0.187439,0.651733,0.20459,0.705872,down
53780,7.609375,4.734375,0.875,0.298828,0.027344,-0.423828,0.187866,0.651489,0.207031,0.705261,down
53785,7.613281,4.695312,0.914062,0.298828,0.027344,-0.423828,0.18811,0.651306,0.208435,0.704956,down
53790,7.574219,4.617187,0.953125,0.298828,0.027344,-0.423828,0.188293,0.651184,0.209717,0.704651,down
53795,7.730469,4.617187,0.875,0.300781,0.064453,-0.425781,0.188293,0.651184,0.209717,0.704651,down
53800,7.726562,4.582031,0.835937,0.302734,0.076172,-0.457031,0.188721,0.650757,0.212219,0.704163,down
53805,7.769531,4.65625,0.761719,0.302734,0.076172,-0.457031,0.188965,0.650452,0.213684,0.703918,down
53810,7.878906,4.734375,0.796875,0.230469,0.076172,-0.476562,0.18927,0.650208,0.214966,0.703674,down
53816,7.878906,4.847656,0.988281,0.230469,0.076172,-0.476562,0.190002,0.649658,0.217407,0.703247,down
53821,7.953125,4.925781,0.875,0.240234,0.099609,-0.519531,0.190552,0.649231,0.218872,0.703064,down
53826,8.109375,4.964844,0.835937,0.240234,0.150391,-0.548828,0.190979,0.648804,0.220276,0.702881,down
53832,7.914062,4.886719,0.796875,0.240234,0.150391,-0.548828,0.191406,0.648376,0.221558,0.702759,down
53837,7.796875,4.886719,0.53125,0.240234,0.150391,-0.548828,0.191833,0.647949,0.223206,0.702576,down
53842,7.800781,5.039062,0.453125,0.417969,0.115234,-0.65625,0.191833,0.647949,0.223206,0.702576,down
53847,7.648437,5.15625,0.644531,0.417969,0.115234,-0.65625,0.192688,0.647156,0.22699,0.701843,down
53852,7.574219,5.269531,0.53125,0.417969,0.115234,-0.65625,0.193176,0.647034,0.228699,0.701233,down
53857,7.574219,5.269531,0.53125,0.587891,-0.177734,-0.78125,0.193665,0.647095,0.230896,0.700317,down
53862,7.6875,5.386719,0.453125,0.587891,-0.177734,-0.78125,0.193665,0.647095,0.230896,0.700317,down
53867,7.953125,5.652344,0.414062,0.667969,-0.269531,-0.857422,0.194214,0.647278,0.233276,0.699219,down
53872,7.953125,5.652344,0.414062,0.667969,-0.269531,-0.857422,0.194214,0.647278,0.233276,0.699219,down
53878,8.601563,6.035156,0.339844,0.978516,-0.365234,-1.046875,0.195679,0.648437,0.242371,0.69458,down
53884,8.917969,6.496094,0.414062,1.150391,-0.275391,-1.195313,0.195679,0.648437,0.242371,0.69458,down
53889,8.984375,6.6875,0.183594,1.175781,-0.173828,-1.240234,0.195679,0.648437,0.242371,0.69458,down
53894,8.875,6.800781,-0.007813,1.103516,-0.058594,-1.289063,0.195679,0.648437,0.242371,0.69458,down
53899,8.761719,6.957031,-0.160156,0.929687,0.037109,-1.322266,0.195679,0.648437,0.242371,0.69458,down
53904,8.761719,7.375,-0.199219,0.929687,0.037109,-1.322266,0.195679,0.648437,0.242371,0.69458,down
53910,8.757813,7.683594,-0.121094,0.929687,0.037109,-1.322266,0.199829,0.647217,0.265015,0.686279,down
53916,8.71875,7.953125,-0.042969,0.117188,0.134766,-1.306641,0.203613,0.64502,0.269836,0.685303,down
53921,8.878906,8.257813,-0.121094,0.117188,0.134766,-1.306641,0.205811,0.643616,0.27179,0.685181,down
53926,8.875,8.335938,-0.199219,-0.412109,0.371094,-1.353516,0.208618,0.641785,0.273804,0.685303,down
53931,8.953125,8.371094,-0.199219,-0.412109,0.371094,-1.353516,0.208618,0.641785,0.273804,0.685303,down
53936,9.179688,8.488281,-0.082031,-0.558594,0.449219,-1.382813,0.208618,0.641785,0.273804,0.685303,down
53942,9.300781,8.449219,-0.121094,-0.558594,0.449219,-1.382813,0.217285,0.635437,0.278198,0.686707,down
53947,9.296875,8.257813,-0.042969,-0.833984,0.759766,-1.566406,0.220764,0.632629,0.279663,0.687622,down
53952,9.300781,8.066406,-0.082031,-0.900391,0.878906,-1.658203,0.224243,0.629639,0.281189,0.68866,down
53957,9.261719,7.875,-0.199219,-0.900391,0.878906,-1.658203,0.228333,0.625916,0.283081,0.689941,down
53962,9.0625,7.644531,-0.464844,-0.900391,0.878906,-1.658203,0.228333,0.625916,0.283081,0.689941,down
53967,8.835938,7.644531,-0.503906,-0.785156,1.347656,-2.042969,0.228333,0.625916,0.283081,0.689941,down
53972,8.605469,7.875,-0.390625,-0.615234,1.501953,-2.146484,0.228333,0.625916,0.283081,0.689941,down
53977,8.148438,8.789063,-0.121094,-0.615234,1.501953,-2.146484,0.242615,0.609253,0.293701,0.695496,down
53983,8.03125,9.140625,0.183594,-0.033203,1.830078,-2.326172,0.242615,0.609253,0.293701,0.695496,down
53988,7.917969,9.289063,0.492187,0.080078,1.980469,-2.365234,0.248474,0.598633,0.303284,0.698547,down
53993,7.917969,9.289063,0.492187,0.255859,2.126953,-2.333984,0.250427,0.593933,0.3078,0.699829,down
53998,7.496094,10.058594,0.375,0.255859,2.126953,-2.333984,0.250427,0.593933,0.3078,0.699829,down
54003,7.496094,10.058594,0.375,0.345703,2.169922,-2.160156,0.253906,0.583191,0.318481,0.70282,down
54008,7.1875,10.289063,0.835937,0.345703,2.169922,-2.160156,0.253906,0.583191,0.318481,0.70282,down
54013,6.691406,10.636719,0.953125,-0.207031,2.113281,-1.818359,0.255432,0.577881,0.323303,0.704468,down
54019,6.652344,10.785156,1.335938,-0.207031,2.113281,-1.818359,0.259033,0.567078,0.330566,0.708557,down
54024,6.691406,10.78125,1.257813,-0.988281,1.863281,-1.408203,0.259033,0.567078,0.330566,0.708557,down
54029,6.539062,10.058594,1.527344,-0.988281,1.863281,-1.408203,0.259033,0.567078,0.330566,0.708557,down
54034,6.460937,9.59375,1.757813,-1.595703,1.658203,-1.101563,0.259033,0.567078,0.330566,0.708557,down
54040,6.382812,9.328125,1.71875,-1.753906,1.587891,-1.039063,0.259033,0.567078,0.330566,0.708557,down
54045,6.230469,8.910156,1.910156,-1.753906,1.587891,-1.039063,0.272522,0.541138,0.332642,0.722656,down
54050,6.117187,8.722656,2.0625,-1.806641,1.552734,-1.050781,0.272522,0.541138,0.332642,0.722656,down
54055,6.039062,8.679688,2.214844,-1.669922,1.59375,-1.119141,0.272522,0.541138,0.332642,0.722656,down
54060,6.0,8.71875,2.40625,-1.486328,1.650391,-1.203125,0.272522,0.541138,0.332642,0.722656,down
54065,5.773437,8.90625,2.445313,-1.486328,1.650391,-1.203125,0.283813,0.52124,0.331482,0.733398,down
54071,5.65625,9.101563,2.484375,-0.916016,1.855469,-1.380859,0.283813,0.52124,0.331482,0.733398,down
54076,5.65625,9.101563,2.484375,-0.916016,1.855469,-1.380859,0.288391,0.511047,0.333618,0.737793,down
54081,5.351562,9.40625,2.523438,-0.851562,1.873047,-1.351563,0.290405,0.505859,0.335083,0.739929,down
54086,5.351562,9.40625,2.523438,-0.851562,1.873047,-1.351563,0.292297,0.500671,0.336548,0.742004,down
54091,5.121094,9.449219,2.675781,-0.851562,1.873047,-1.351563,0.292297,0.500671,0.336548,0.742004,down
54096,5.121094,9.449219,2.675781,-0.978516,1.810547,-1.189453,0.298157,0.485596,0.338623,0.748779,down
54101,4.96875,8.988281,2.980469,-1.488281,1.539063,-0.863281,0.298157,0.485596,0.338623,0.748779,down
54106,4.851562,8.71875,2.945313,-1.488281,1.539063,-0.863281,0.30249,0.475647,0.337463,0.753906,down
54111,4.8125,8.640625,2.90625,-1.666016,1.371094,-0.695312,0.30249,0.475647,0.337463,0.753906,down
54116,4.699219,8.40625,3.171875,-1.666016,1.371094,-0.695312,0.304443,0.471497,0.336426,0.756165,down
54122,4.699219,8.40625,3.171875,-1.660156,1.296875,-0.607422,0.308533,0.462646,0.333679,0.76123,down
54127,4.585937,8.257813,3.136719,-1.658203,1.267578,-0.568359,0.310608,0.458069,0.332153,0.763794,down
54133,4.507812,8.257813,3.097656,-1.658203,1.267578,-0.568359,0.312317,0.454224,0.33075,0.765991,down
54138,4.507812,7.984375,2.945313,-1.658203,1.267578,-0.568359,0.314331,0.449646,0.328979,0.768616,down
54144,4.46875,7.835937,3.019531,-1.705078,1.291016,-0.480469,0.314331,0.449646,0.328979,0.768616,down
54150,4.507812,7.757812,3.058594,-1.753906,1.316406,-0.458984,0.314331,0.449646,0.328979,0.768616,down
54155,4.507812,7.757812,2.867188,-1.839844,1.349609,-0.412109,0.314331,0.449646,0.328979,0.768616,down
54161,4.394531,7.875,2.789063,-1.945313,1.388672,-0.369141,0.322754,0.427917,0.319275,0.781555,down
54166,4.394531,7.683594,2.867188,-1.945313,1.388672,-0.369141,0.322754,0.427917,0.319275,0.781555,down
54171,4.394531,7.601562,3.058594,-2.296875,1.457031,-0.228516,0.322754,0.427917,0.319275,0.781555,down
54176,4.277344,7.761719,3.136719,-2.296875,1.457031,-0.228516,0.326111,0.418152,0.313599,0.787659,down
54181,4.277344,7.761719,3.136719,-2.365234,1.462891,-0.175781,0.32782,0.413086,0.310364,0.790955,down
54186,4.316406,8.0625,3.210938,-2.365234,1.462891,-0.175781,0.329346,0.408081,0.307068,0.794189,down
54191,4.085937,8.179688,3.019531,-2.5,1.503906,-0.015625,0.330811,0.403076,0.303467,0.797485,down
54196,4.085937,8.179688,3.019531,-2.609375,1.53125,0.074219,0.330811,0.403076,0.303467,0.797485,down
54202,3.855469,7.839844,3.058594,-2.609375,1.53125,0.074219,0.332214,0.397766,0.299561,0.801025,down
54207,3.816406,7.601562,3.136719,-3.162109,1.505859,0.292969,0.332214,0.397766,0.299561,0.801025,down
54212,3.855469,7.152344,3.710938,-3.308594,1.458984,0.347656,0.33728,0.376282,0.279846,0.816284,down
54217,3.894531,6.800781,3.863281,-3.308594,1.458984,0.347656,0.338623,0.370483,0.273865,0.820435,down
54222,3.511719,6.230469,3.941406,-3.439453,1.501953,0.445312,0.339905,0.36438,0.267334,0.824768,down
54227,3.472656,5.1875,3.863281,-3.439453,1.501953,0.445312,0.341064,0.358398,0.260986,0.828918,down
54233,3.550781,4.542969,3.632813,-3.439453,1.501953,0.445312,0.341858,0.352905,0.255249,0.832703,down
54238,3.550781,4.542969,3.632813,-3.292969,1.736328,0.636719,0.342407,0.346924,0.249268,0.836792,down
54243,3.664063,4.539062,3.671875,-3.292969,1.736328,0.636719,0.342407,0.346924,0.249268,0.836792,down
54248,3.398438,4.773437,4.933594,-3.0625,1.755859,0.681641,0.342651,0.341003,0.243652,0.84082,down
54253,3.398438,4.773437,4.933594,-2.822266,1.845703,0.6875,0.342529,0.3349,0.238342,0.844788,down
54259,3.398438,4.886719,5.734375,-2.462891,1.833984,0.699219,0.341492,0.323914,0.230103,0.851807,down
54264,3.359375,5.039062,5.664062,-1.609375,1.763672,0.75,0.341492,0.323914,0.230103,0.851807,down
54269,3.28125,5.117187,6.277344,-1.609375,1.763672,0.75,0.341492,0.323914,0.230103,0.851807,down
54274,3.28125,5.117187,6.582031,-1.011719,1.585938,0.84375,0.341492,0.323914,0.230103,0.851807,down
54279,3.320313,5.0,6.855469,-0.78125,1.46875,0.884766,0.341492,0.323914,0.230103,0.851807,down
54284,2.785156,5.347656,6.351562,-0.78125,1.46875,0.884766,0.341492,0.323914,0.230103,0.851807,down
54289,2.667969,5.347656,6.433594,-0.515625,1.349609,0.960937,0.341492,0.323914,0.230103,0.851807,down
54294,2.59375,5.230469,6.351562,-0.460937,1.279297,1.007813,0.341492,0.323914,0.230103,0.851807,down
54299,2.515625,5.308594,6.195312,-0.466797,1.257813,1.046875,0.341492,0.323914,0.230103,0.851807,down
54304,2.476563,5.039062,6.511719,-0.466797,1.257813,1.046875,0.341492,0.323914,0.230103,0.851807,down
54310,2.554688,5.078125,6.621094,-0.466797,1.257813,1.046875,0.319702,0.289978,0.216919,0.87561,down
54316,2.59375,4.886719,6.695312,-0.779297,1.169922,1.091797,0.319702,0.289978,0.216919,0.87561,down
54321,2.707031,4.808594,6.855469,-0.779297,1.169922,1.091797,0.312195,0.282166,0.212036,0.882019,down
54326,2.667969,4.925781,7.039062,-0.779297,1.169922,1.091797,0.312195,0.282166,0.212036,0.882019,down
54331,2.667969,4.886719,7.121094,-0.939453,1.046875,1.123047,0.312195,0.282166,0.212036,0.882019,down
54336,2.667969,4.886719,7.121094,-0.882812,0.982422,1.130859,0.307312,0.277222,0.208069,0.88623,down
54341,2.707031,4.582031,7.503906,-0.882812,0.982422,1.130859,0.307312,0.277222,0.208069,0.88623,down
54346,2.707031,4.582031,7.503906,-0.644531,0.833984,1.117188,0.302368,0.273071,0.204529,0.890015,down
54351,2.59375,4.273437,7.65625,-0.644531,0.833984,1.117188,0.299805,0.271423,0.203186,0.891724,down
54356,2.59375,4.273437,7.65625,-0.306641,0.720703,1.09375,0.29718,0.27002,0.202148,0.89325,down
54361,2.402344,4.390625,7.425781,-0.306641,0.720703,1.09375,0.29718,0.27002,0.202148,0.89325,down
54366,2.324219,4.273437,7.542969,-0.125,0.626953,1.115234,0.29718,0.27002,0.202148,0.89325,down
54371,2.4375,4.042969,7.621094,-0.126953,0.583984,1.132813,0.29718,0.27002,0.202148,0.89325,down
54377,2.554688,4.121094,7.539062,-0.140625,0.542969,1.138672,0.283386,0.26532,0.198914,0.899841,down
54382,2.515625,4.234375,7.464844,-0.166016,0.519531,1.177734,0.283386,0.26532,0.198914,0.899841,down
54387,2.628906,4.121094,7.421875,-0.207031,0.511719,1.193359,0.280273,0.264465,0.198181,0.901245,down
54392,2.476563,4.351562,7.386719,-0.207031,0.511719,1.193359,0.274719,0.263123,0.196594,0.903687,down
54398,2.402344,4.390625,7.425781,-0.207031,0.511719,1.193359,0.271729,0.26239,0.195679,0.905029,down
54403,2.402344,4.3125,7.582031,-0.273438,0.441406,1.261719,0.271729,0.26239,0.195679,0.905029,down
54409,2.285156,4.042969,7.921875,-0.304688,0.375,1.263672,0.271729,0.26239,0.195679,0.905029,down
54415,2.246094,3.929688,8.265625,-0.330078,0.291016,1.261719,0.263,0.260864,0.1922,0.908752,down
54421,2.285156,4.042969,8.535156,-0.3125,0.076172,1.246094,0.263,0.260864,0.1922,0.908752,down
54426,2.171875,3.96875,8.082031,-0.3125,0.076172,1.246094,0.257385,0.260803,0.189392,0.91095,down
54431,2.132813,3.96875,7.847656,-0.3125,0.076172,1.246094,0.2547,0.261108,0.187927,0.911926,down
54436,2.054688,4.082031,7.699219,-0.3125,0.076172,1.246094,0.251953,0.261536,0.186462,0.912903,down
54442,2.246094,4.234375,7.460937,-0.330078,-0.087891,1.359375,0.251953,0.261536,0.186462,0.912903,down
54447,2.210938,4.3125,7.304687,-0.330078,-0.087891,1.359375,0.242981,0.263428,0.181274,0.915833,down
54452,2.476563,4.160156,7.347656,-0.388672,-0.105469,1.371094,0.242981,0.263428,0.181274,0.915833,down
54457,2.515625,4.003906,7.460937,-0.388672,-0.105469,1.371094,0.240417,0.263977,0.179687,0.916626,down
54462,2.628906,3.277344,7.730469,-0.458984,-0.125,1.367188,0.240417,0.263977,0.179687,0.916626,down
54467,2.707031,3.164063,7.804687,-0.443359,-0.255859,1.330078,0.234619,0.265259,0.175659,0.918579,down
54472,2.785156,3.164063,8.039063,-0.443359,-0.255859,1.330078,0.22937,0.267029,0.171814,0.920105,down
54477,2.59375,2.933594,8.226563,-0.443359,-0.255859,1.330078,0.22937,0.267029,0.171814,0.920105,down
54483,2.59375,2.933594,8.226563,-0.060547,-0.486328,1.324219,0.223755,0.269714,0.168701,0.921265,down
54488,2.667969,2.625,8.382813,0.046875,-0.591797,1.322266,0.220703,0.271606,0.16748,0.921692,down
54493,2.707031,2.664063,8.535156,0.154297,-0.708984,1.353516,0.218018,0.273499,0.166565,0.921875,down
54498,2.707031,2.664063,8.535156,0.236328,-0.773437,1.402344,0.218018,0.273499,0.166565,0.921875,down
54503,2.785156,3.046875,8.148438,0.236328,-0.773437,1.402344,0.214966,0.27594,0.16571,0.922058,down
54508,2.746094,3.316406,7.65625,0.287109,-0.841797,1.449219,0.211853,0.278503,0.164917,0.92218,down
54513,2.746094,3.316406,7.65625,0.287109,-0.841797,1.449219,0.208618,0.28125,0.164062,0.92218,down
54518,3.128906,2.855469,7.5,0.230469,-0.996094,1.527344,0.205261,0.284302,0.162964,0.922241,down
54523,3.167969,2.664063,7.421875,0.25,-1.03125,1.537109,0.19873,0.290405,0.161011,0.922058,down
54529,3.433594,2.28125,7.578125,0.25,-1.03125,1.537109,0.195435,0.293823,0.160034,0.921875,down
54535,3.589844,2.28125,7.660156,0.378906,-1.212891,1.443359,0.195435,0.293823,0.160034,0.921875,down
54541,3.589844,2.167969,7.578125,0.455078,-1.283203,1.396484,0.195435,0.293823,0.160034,0.921875,down
54547,3.664063,2.015625,7.578125,0.615234,-1.449219,1.310547,0.195435,0.293823,0.160034,0.921875,down
54552,3.742188,2.050781,7.460937,0.615234,-1.449219,1.310547,0.180176,0.312927,0.157532,0.919128,down
54557,3.894531,2.089844,7.121094,0.615234,-1.449219,1.310547,0.180176,0.312927,0.157532,0.919128,down
54562,3.933594,2.089844,6.894531,0.75,-1.550781,1.271484,0.177246,0.3172,0.157471,0.918213,down
54567,4.007812,2.089844,6.738281,0.75,-1.550781,1.271484,0.171082,0.326294,0.157532,0.916199,down
54572,4.085937,1.898438,6.539062,0.75,-1.550781,1.271484,0.171082,0.326294,0.157532,0.916199,down
54577,4.164062,1.820313,6.542969,0.84375,-1.59375,1.212891,0.168396,0.330261,0.157593,0.915283,down
54582,4.046875,1.820313,6.539062,0.84375,-1.59375,1.212891,0.165222,0.335144,0.157837,0.914001,down
54588,4.125,1.707031,6.394531,0.939453,-1.705078,1.140625,0.162476,0.339661,0.158142,0.912842,down
54593,4.125,1.707031,6.394531,1.021484,-1.712891,1.09375,0.157227,0.348572,0.159058,0.910217,down
54598,4.007812,1.898438,5.972656,1.044922,-1.75,1.046875,0.154175,0.354004,0.159912,0.908508,down
54604,4.316406,1.707031,5.972656,1.044922,-1.75,1.046875,0.151917,0.358215,0.160706,0.907043,down
54609,4.429687,1.707031,5.972656,1.044922,-1.75,1.046875,0.149048,0.363586,0.161926,0.905212,down
54614,4.507812,1.785156,5.96875,1.044922,-1.75,1.046875,0.149048,0.363586,0.161926,0.905212,down
54619,4.507812,1.785156,5.933594,1.291016,-1.849609,0.917969,0.144226,0.373169,0.164612,0.901611,down
54624,4.507812,1.785156,5.933594,1.447266,-2.015625,0.896484,0.141724,0.378418,0.16626,0.899475,down
54629,4.738281,2.089844,6.121094,1.447266,-2.015625,0.896484,0.141724,0.378418,0.16626,0.899475,down
54634,4.738281,2.089844,6.121094,1.589844,-2.208984,0.947266,0.136414,0.389771,0.169861,0.894775,down
54639,4.851562,2.433594,5.816406,1.589844,-2.208984,0.947266,0.136414,0.389771,0.169861,0.894775,down
54644,4.890625,2.242188,6.050781,1.589844,-2.208984,0.947266,0.136414,0.389771,0.169861,0.894775,down
54651,5.042969,2.398438,6.117187,1.589844,-2.208984,0.947266,0.136414,0.389771,0.169861,0.894775,down
54656,5.160156,2.433594,5.855469,1.867188,-2.830078,0.960937,0.125427,0.416199,0.178101,0.882751,down
54662,5.003906,2.972656,5.433594,1.955078,-2.919922,0.974609,0.125427,0.416199,0.178101,0.882751,down
54667,4.890625,3.046875,5.246094,2.091797,-3.076172,0.941406,0.11969,0.431091,0.182861,0.875427,down
54672,4.933594,2.972656,4.78125,2.091797,-3.076172,0.941406,0.113831,0.446411,0.188171,0.867371,down
54677,5.160156,2.933594,3.746094,2.091797,-3.076172,0.941406,0.113831,0.446411,0.188171,0.867371,down
54682,5.421875,3.125,3.785156,2.091797,-3.076172,0.941406,0.11084,0.454346,0.191406,0.862915,down
54687,5.882812,3.429688,3.710938,2.201172,-2.517578,0.519531,0.108337,0.460693,0.194336,0.859192,down
54692,6.304687,3.851563,3.632813,2.201172,-2.517578,0.519531,0.103455,0.473328,0.201294,0.851318,down
54697,6.304687,3.851563,3.632813,2.201172,-2.517578,0.519531,0.103455,0.473328,0.201294,0.851318,down
54702,6.726562,4.195312,4.398437,2.201172,-2.517578,0.519531,0.103455,0.473328,0.201294,0.851318,down
54707,6.84375,4.042969,4.398437,2.042969,-2.296875,0.261719,0.103455,0.473328,0.201294,0.851318,down
54712,6.84375,4.042969,4.398437,1.734375,-2.283203,0.052734,0.097717,0.494873,0.214172,0.836487,down
54717,6.921875,4.042969,4.246094,1.734375,-2.283203,0.052734,0.097107,0.500305,0.217102,0.832581,down
54722,6.882812,4.65625,4.09375,1.734375,-2.283203,0.052734,0.097107,0.500305,0.217102,0.832581,down
54728,6.609375,4.886719,3.746094,1.486328,-2.396484,-0.109375,0.096375,0.511536,0.222717,0.82428,down
54733,6.5,5.191406,3.824219,1.486328,-2.396484,-0.109375,0.096375,0.511536,0.222717,0.82428,down
54738,6.34375,5.230469,3.824219,1.142578,-2.421875,-0.111328,0.096619,0.521179,0.226257,0.8172,down
54743,6.191406,5.191406,3.746094,0.714844,-2.496094,-0.134766,0.09729,0.526794,0.227661,0.81311,down
54748,5.960937,5.039062,3.632813,0.576172,-2.591797,-0.152344,0.098206,0.532166,0.228577,0.809265,down
54753,5.777344,4.847656,3.519531,0.576172,-2.591797,-0.152344,0.099121,0.536804,0.229248,0.805908,down
54758,5.738281,4.195312,3.328125,0.576172,-2.591797,-0.152344,0.100525,0.542664,0.22998,0.801575,down
54763,6.003906,3.890625,3.171875,0.675781,-2.619141,-0.285156,0.101746,0.548035,0.230957,0.797485,down
54768,6.34375,4.003906,2.945313,0.675781,-2.619141,-0.285156,0.102722,0.55249,0.232056,0.793945,down
54773,6.574219,4.273437,2.714844,0.675781,-2.619141,-0.285156,0.102722,0.55249,0.232056,0.793945,down
54778,6.574219,4.273437,2.714844,0.9375,-2.349609,-0.470703,0.10376,0.557129,0.233765,0.790039,down
54783,6.726562,4.503906,2.597656,0.9375,-2.349609,-0.470703,0.104675,0.561523,0.23584,0.786194,down
54788,6.925781,4.582031,2.0625,1.068359,-2.066406,-0.667969,0.105713,0.565735,0.238281,0.782288,down
54793,6.925781,4.582031,2.0625,1.076172,-1.96875,-0.775391,0.10675,0.569458,0.240845,0.778687,down
54798,6.925781,4.582031,2.0625,1.076172,-1.96875,-0.775391,0.109497,0.576416,0.246399,0.771423,down
54803,6.84375,5.15625,1.949219,1.076172,-1.96875,-0.775391,0.111267,0.579529,0.249084,0.767944,down
54809,6.503906,5.613281,1.910156,1.076172,-1.96875,-0.775391,0.113342,0.582642,0.25177,0.764343,down
54814,6.503906,5.613281,1.910156,0.574219,-1.941406,-1.166016,0.115723,0.585693,0.25415,0.760864,down
54819,6.0,6.070312,2.175781,0.574219,-1.941406,-1.166016,0.11853,0.588806,0.256287,0.757385,down
54825,5.808594,6.035156,1.105469,0.28125,-2.142578,-1.253906,0.11853,0.588806,0.256287,0.757385,down
54831,5.617187,5.886719,1.144531,0.050781,-2.189453,-1.226563,0.11853,0.588806,0.256287,0.757385,down
54836,5.617187,5.992187,1.257813,-0.177734,-2.265625,-1.179688,0.11853,0.588806,0.256287,0.757385,down
54841,5.734375,6.03125,1.410156,-0.353516,-2.324219,-1.125,0.11853,0.588806,0.256287,0.757385,down
54846,6.082031,5.460937,1.488281,-0.353516,-2.324219,-1.125,0.11853,0.588806,0.256287,0.757385,down
54852,6.117187,5.230469,1.527344,-0.433594,-2.326172,-1.125,0.11853,0.588806,0.256287,0.757385,down
54857,6.117187,5.230469,1.527344,-0.365234,-2.318359,-1.162109,0.145813,0.612305,0.261719,0.731628,down
54862,6.1875,5.078125,1.066406,-0.222656,-2.265625,-1.199219,0.145813,0.612305,0.261719,0.731628,down
54867,6.1875,5.078125,1.066406,-0.066406,-2.207031,-1.255859,0.15387,0.618835,0.263,0.72406,down
54872,6.386719,5.386719,0.796875,-0.066406,-2.207031,-1.255859,0.157593,0.621826,0.26416,0.720215,down
54877,6.386719,5.386719,0.796875,0.214844,-2.060547,-1.376953,0.161133,0.624695,0.265686,0.71637,down
54882,6.691406,6.035156,0.375,0.214844,-2.060547,-1.376953,0.161133,0.624695,0.265686,0.71637,down
54888,6.503906,6.074219,0.222656,0.375,-1.900391,-1.402344,0.161133,0.624695,0.265686,0.71637,down
54893,6.269531,5.921875,0.183594,0.375,-1.900391,-1.402344,0.174316,0.635376,0.273804,0.700684,down
54899,5.847656,6.230469,-0.199219,0.375,-1.900391,-1.402344,0.177429,0.637878,0.275818,0.696777,down
54904,5.734375,6.453125,-0.542969,0.384766,-1.996094,-1.416016,0.180664,0.640564,0.277954,0.692688,down
54909,5.582031,6.800781,-0.65625,0.335938,-2.083984,-1.425781,0.180664,0.640564,0.277954,0.692688,down
54916,5.351562,7.148437,-0.734375,0.255859,-2.201172,-1.4375,0.180664,0.640564,0.277954,0.692688,down
54922,5.273437,7.335937,-0.964844,0.144531,-2.302734,-1.464844,0.180664,0.640564,0.277954,0.692688,down
54927,5.3125,7.457031,-0.964844,-0.134766,-2.509766,-1.523438,0.180664,0.640564,0.277954,0.692688,down
54932,5.351562,7.535156,-0.964844,-0.134766,-2.509766,-1.523438,0.199707,0.654846,0.28595,0.670471,down
54937,5.386719,7.605469,-1.003906,-0.134766,-2.509766,-1.523438,0.199707,0.654846,0.28595,0.670471,down
54942,5.386719,7.605469,-1.003906,-0.242187,-2.583984,-1.582031,0.209595,0.660889,0.28772,0.660706,down
54947,5.386719,7.605469,-1.003906,-0.455078,-2.703125,-1.705078,0.214905,0.663818,0.288391,0.655701,down
54952,5.195312,7.496094,-1.195313,-0.455078,-2.703125,-1.705078,0.22052,0.666687,0.289001,0.650696,down
54957,5.121094,6.992187,-1.539063,-0.455078,-2.703125,-1.705078,0.226624,0.669495,0.289551,0.645447,down
54962,5.160156,6.875,-1.5,-0.455078,-2.703125,-1.705078,0.226624,0.669495,0.289551,0.645447,down
54968,4.96875,6.648437,-1.652344,-0.705078,-2.603516,-2.035156,0.226624,0.669495,0.289551,0.645447,down
54973,4.96875,6.769531,-1.691406,-0.705078,-2.603516,-2.035156,0.245911,0.676575,0.29187,0.629761,down
54978,4.890625,6.796875,-1.652344,-0.519531,-2.367188,-2.283203,0.245911,0.676575,0.29187,0.629761,down
54983,4.699219,7.035156,-2.226563,-0.519531,-2.367188,-2.283203,0.258728,0.680237,0.294678,0.619263,down
54989,4.699219,7.417969,-2.226563,-0.519531,-2.367188,-2.283203,0.269775,0.683044,0.298401,0.609558,down
54994,4.738281,8.023438,-2.152344,0.013672,-2.126953,-2.291016,0.275513,0.684631,0.301025,0.603882,down
55000,4.890625,8.867188,-1.691406,0.013672,-2.126953,-2.291016,0.279785,0.685974,0.303345,0.599304,down
55005,4.851562,8.828125,-1.613281,0.013672,-2.126953,-2.291016,0.284668,0.687744,0.306396,0.593384,down
55010,4.621094,8.71875,-1.921875,0.013672,-2.126953,-2.291016,0.284668,0.687744,0.306396,0.593384,down
55015,4.621094,8.71875,-1.921875,0.361328,-2.273438,-2.140625,0.293152,0.691223,0.311646,0.582336,down
55020,4.621094,8.71875,-1.921875,0.318359,-2.431641,-2.158203,0.29718,0.692993,0.313965,0.576904,down
55025,4.46875,8.722656,-1.769531,0.318359,-2.431641,-2.158203,0.29718,0.692993,0.313965,0.576904,down
55030,4.507812,8.867188,-2.0,0.195312,-2.580078,-2.212891,0.307068,0.697083,0.318359,0.56427,down
55035,4.507812,8.867188,-2.0,0.195312,-2.580078,-2.212891,0.307068,0.697083,0.318359,0.56427,down
55040,4.355469,8.71875,-2.382813,-0.146484,-2.892578,-2.429688,0.319031,0.70105,0.32196,0.550537,down
55045,4.238281,8.679688,-2.878906,-0.146484,-2.892578,-2.429688,0.325806,0.702637,0.323608,0.543457,down
55050,4.125,8.789063,-3.378906,-0.613281,-3.037109,-2.927734,0.325806,0.702637,0.323608,0.543457,down
55055,4.125,8.789063,-3.378906,-0.767578,-2.884766,-3.0625,0.340881,0.704895,0.327271,0.528992,down
55061,4.085937,9.371094,-4.410156,-0.767578,-2.884766,-3.0625,0.348694,0.7052,0.329163,0.522217,down
55066,3.894531,9.597656,-4.488281,-1.185547,-2.355469,-3.097656,0.348694,0.7052,0.329163,0.522217,down
55071,3.78125,9.789063,-4.566406,-1.337891,-1.988281,-3.054688,0.348694,0.7052,0.329163,0.522217,down
55076,3.625,9.980469,-4.335937,-1.457031,-1.669922,-2.978516,0.348694,0.7052,0.329163,0.522217,down
55081,3.359375,9.671875,-3.914063,-1.457031,-1.669922,-2.978516,0.348694,0.7052,0.329163,0.522217,down
55087,3.28125,9.214844,-3.644531,-1.457031,-1.669922,-2.978516,0.387817,0.69812,0.338257,0.497803,down
55093,3.128906,8.789063,-3.414063,-1.599609,-0.958984,-2.820313,0.387817,0.69812,0.338257,0.497803,down
55098,2.976563,8.484375,-3.300781,-1.599609,-0.958984,-2.820313,0.402588,0.692627,0.341736,0.491272,down
55103,2.667969,8.296875,-3.109375,-1.408203,-0.845703,-2.919922,0.409668,0.689697,0.343994,0.488037,down
55108,2.667969,8.296875,-3.109375,-1.166016,-0.804687,-3.066406,0.416199,0.686768,0.346741,0.48468,down
55113,2.707031,8.792969,-2.382813,-1.166016,-0.804687,-3.066406,0.422363,0.68396,0.349976,0.480957,down
55118,2.707031,8.792969,-2.382813,-0.619141,-0.839844,-3.337891,0.428467,0.681213,0.353882,0.476624,down
55124,2.515625,9.175781,-1.84375,-0.619141,-0.839844,-3.337891,0.439514,0.676331,0.362305,0.467102,down
55129,2.476563,9.367188,-1.730469,-0.619141,-0.839844,-3.337891,0.445129,0.674011,0.36676,0.461609,down
55134,2.054688,9.789063,-1.84375,-0.28125,-1.294922,-3.503906,0.445129,0.674011,0.36676,0.461609,down
55140,1.824219,10.253906,-2.191406,-0.28125,-1.294922,-3.503906,0.456665,0.669678,0.375,0.449829,down
55145,1.632813,10.441406,-2.34375,-0.541016,-1.644531,-3.541016,0.456665,0.669678,0.375,0.449829,down
55150,1.519531,11.015625,-2.496094,-0.541016,-1.644531,-3.541016,0.456665,0.669678,0.375,0.449829,down
55155,1.519531,11.015625,-2.496094,-0.957031,-1.972656,-3.449219,0.476257,0.663086,0.384705,0.430725,down
55160,1.519531,11.015625,-2.496094,-1.335938,-2.060547,-3.324219,0.483643,0.660583,0.386597,0.4245,down
55165,1.480469,10.863281,-2.152344,-1.335938,-2.060547,-3.324219,0.483643,0.660583,0.386597,0.4245,down
55170,0.984375,10.359375,-2.839844,-1.386719,-2.082031,-3.193359,0.483643,0.660583,0.386597,0.4245,down
55175,0.984375,10.359375,-2.839844,-1.566406,-2.080078,-2.791016,0.50647,0.652771,0.389587,0.406921,down
55180,0.675781,9.636719,-3.070313,-1.566406,-2.080078,-2.791016,0.50647,0.652771,0.389587,0.406921,down
55186,0.753906,8.640625,-2.726563,-1.496094,-1.904297,-2.443359,0.50647,0.652771,0.389587,0.406921,down
55191,0.792969,8.339844,-2.6875,-1.285156,-1.753906,-2.345703,0.50647,0.652771,0.389587,0.406921,down
55196,0.753906,8.101563,-2.574219,-0.904297,-1.539063,-2.289063,0.532898,0.643188,0.390381,0.387268,down
55203,0.5625,7.875,-2.382813,-0.421875,-1.318359,-2.271484,0.532898,0.643188,0.390381,0.387268,down
55209,0.445312,8.066406,-2.382813,0.617187,-0.958984,-2.376953,0.532898,0.643188,0.390381,0.387268,down
55214,0.21875,8.40625,-2.226563,0.988281,-0.828125,-2.46875,0.54425,0.639038,0.396362,0.371887,down
55220,-0.320313,9.40625,-2.265625,0.988281,-0.828125,-2.46875,0.547241,0.638245,0.403198,0.361328,down
55226,-1.046875,10.441406,-2.535156,0.988281,-0.828125,-2.46875,0.548279,0.638062,0.407593,0.355164,down
55231,-1.160156,11.242188,-2.765625,1.318359,-0.757812,-2.664063,0.548279,0.638062,0.407593,0.355164,down
55236,-1.160156,11.242188,-2.765625,1.125,-0.822266,-2.683594,0.550415,0.63739,0.416077,0.342957,down
55241,-1.699219,12.207031,-2.574219,0.863281,-0.992187,-2.648438,0.552124,0.636719,0.420044,0.33667,down
55246,-1.699219,12.207031,-2.574219,0.478516,-1.199219,-2.568359,0.552124,0.636719,0.420044,0.33667,down
55252,-1.699219,12.207031,-2.574219,0.478516,-1.199219,-2.568359,0.557556,0.63446,0.425659,0.324707,down
55257,-1.699219,12.207031,-2.574219,-0.542969,-1.75,-2.310547,0.561584,0.632812,0.426941,0.319214,down
55262,-2.808594,11.707031,-2.765625,-0.542969,-1.75,-2.310547,0.56665,0.630798,0.427124,0.313965,down
55268,-2.808594,11.476563,-2.648438,-1.501953,-2.357422,-2.083984,0.56665,0.630798,0.427124,0.313965,down
55273,-2.65625,11.136719,-2.496094,-1.806641,-2.669922,-2.001953,0.56665,0.630798,0.427124,0.313965,down
55278,-2.234375,10.941406,-2.226563,-1.806641,-2.669922,-2.001953,0.586548,0.622925,0.422852,0.298584,down
55283,-2.042969,10.976563,-2.035156,-1.806641,-2.669922,-2.001953,0.593872,0.620056,0.420593,0.293213,down
55289,-1.890625,10.824219,-2.113281,-1.578125,-2.560547,-2.140625,0.593872,0.620056,0.420593,0.293213,down
55294,-1.738281,10.710938,-2.035156,-1.578125,-2.560547,-2.140625,0.614441,0.611389,0.414917,0.276611,down
55300,-1.660156,10.515625,-1.691406,-1.578125,-2.560547,-2.140625,0.619934,0.608826,0.414062,0.271179,down
55305,-1.851563,10.515625,-1.691406,-0.792969,-1.957031,-2.375,0.625244,0.606262,0.413757,0.265198,down
55311,-1.929688,10.441406,-1.460938,-0.615234,-1.775391,-2.470703,0.625244,0.606262,0.413757,0.265198,down
55316,-2.121094,10.515625,-1.347656,-0.615234,-1.775391,-2.470703,0.625244,0.606262,0.413757,0.265198,down
55321,-2.273438,10.636719,-1.308594,-0.529297,-1.617188,-2.558594,0.625244,0.606262,0.413757,0.265198,down
55327,-2.273438,10.636719,-1.308594,-0.519531,-1.501953,-2.634766,0.64209,0.596069,0.417175,0.241638,down
55332,-2.769531,10.746094,-1.421875,-0.519531,-1.501953,-2.634766,0.64624,0.592896,0.41864,0.235718,down
55338,-3.308594,10.636719,-1.117188,-0.732422,-1.351563,-2.771484,0.650269,0.589722,0.420105,0.22998,down
55344,-3.460938,10.597656,-1.039063,-0.591797,-1.287109,-2.734375,0.650269,0.589722,0.420105,0.22998,down
55349,-3.726563,10.675781,-0.886719,-0.591797,-1.287109,-2.734375,0.662109,0.579712,0.424744,0.212402,down
55354,-3.921875,10.675781,-0.925781,-0.591797,-1.287109,-2.734375,0.665222,0.577026,0.426208,0.207092,down
55359,-4.074219,10.742188,-0.886719,-0.591797,-1.287109,-2.734375,0.665222,0.577026,0.426208,0.207092,down
55364,-4.304687,10.863281,-0.734375,-0.136719,-1.236328,-2.617188,0.665222,0.577026,0.426208,0.207092,down
55370,-4.6875,10.78125,-0.617187,-0.136719,-1.236328,-2.617188,0.67334,0.57019,0.431152,0.18866,down
55375,-4.6875,10.78125,-0.617187,0.574219,-1.230469,-2.472656,0.675171,0.568787,0.432861,0.182251,down
55381,-4.953125,10.78125,-0.542969,0.574219,-1.230469,-2.472656,0.676758,0.567749,0.43457,0.175476,down
55386,-5.03125,10.902344,-0.65625,0.574219,-1.230469,-2.472656,0.678162,0.566895,0.436279,0.168335,down
55393,-5.222656,11.242188,-1.039063,0.574219,-1.230469,-2.472656,0.678162,0.566895,0.436279,0.168335,down
55398,-5.222656,11.242188,-1.039063,0.757812,-1.283203,-2.353516,0.680603,0.565491,0.439209,0.155273,down
55403,-5.222656,11.242188,-1.039063,0.603516,-1.255859,-2.367188,0.681946,0.564514,0.440613,0.148743,down
55408,-5.566406,11.550781,-1.078125,0.402344,-1.230469,-2.408203,0.681946,0.564514,0.440613,0.148743,down
55414,-5.566406,11.550781,-1.078125,0.402344,-1.230469,-2.408203,0.685364,0.561279,0.443542,0.136108,down
55419,-5.566406,11.550781,-1.078125,-0.453125,-1.277344,-2.671875,0.687561,0.558899,0.444885,0.130127,down
55425,-6.21875,11.246094,-1.039063,-0.453125,-1.277344,-2.671875,0.69342,0.552124,0.447632,0.118286,down
55430,-6.179687,10.710938,-0.964844,-1.128906,-1.400391,-2.884766,0.697571,0.547058,0.449097,0.111816,down
55436,-5.875,9.675781,-0.65625,-1.128906,-1.400391,-2.884766,0.701172,0.542603,0.450134,0.106812,down
55441,-5.875,9.105469,-0.425781,-1.128906,-1.400391,-2.884766,0.705322,0.537231,0.451355,0.101318,down
55447,-5.835937,9.023438,-0.273438,-1.380859,-1.306641,-3.060547,0.705322,0.537231,0.451355,0.101318,down
55453,-5.988281,8.910156,-0.160156,-1.3125,-1.222656,-3.089844,0.705322,0.537231,0.451355,0.101318,down
55458,-6.066406,8.75,-0.082031,-1.205078,-1.164063,-3.107422,0.705322,0.537231,0.451355,0.101318,down
55464,-6.21875,8.5625,-0.007813,-0.941406,-1.029297,-3.113281,0.705322,0.537231,0.451355,0.101318,down
55469,-6.296875,8.679688,-0.007813,-0.941406,-1.029297,-3.113281,0.723633,0.509827,0.459534,0.072693,down
55474,-6.410156,8.910156,0.183594,-0.630859,-0.988281,-3.072266,0.723633,0.509827,0.459534,0.072693,down
55479,-6.714844,8.871094,0.375,-0.630859,-0.988281,-3.072266,0.729004,0.500061,0.46344,0.06073,down
55484,-6.714844,8.871094,0.375,-0.470703,-0.992187,-3.056641,0.731262,0.495667,0.465393,0.054626,down
55489,-6.945312,8.945313,0.453125,-0.470703,-0.992187,-3.056641,0.733337,0.491516,0.467224,0.04834,down
55494,-7.519531,9.367188,0.492187,-0.236328,-1.117188,-3.017578,0.735352,0.487488,0.468933,0.041626,down
55499,-7.519531,9.367188,0.492187,-0.302734,-1.248047,-2.945313,0.737366,0.483582,0.470337,0.035095,down
55504,-7.519531,9.367188,0.492187,-0.458984,-1.498047,-2.787109,0.737366,0.483582,0.470337,0.035095,down
55509,-8.210938,9.410156,0.492187,-0.458984,-1.498047,-2.787109,0.737366,0.483582,0.470337,0.035095,down
55514,-8.363281,9.714844,0.375,-0.458984,-1.498047,-2.787109,0.744812,0.471008,0.472473,0.015259,down
55519,-8.441406,9.484375,0.53125,-0.712891,-1.785156,-2.595703,0.750671,0.462402,0.471863,0.003479,down
55524,-8.515625,8.949219,0.492187,-1.064453,-2.042969,-2.400391,0.750671,0.462402,0.471863,0.003479,down
55529,-8.742188,8.257813,1.066406,-1.064453,-2.042969,-2.400391,0.754456,0.457275,0.470886,-0.002625,down
55534,-8.78125,8.449219,1.21875,-1.064453,-2.042969,-2.400391,0.761719,0.447754,0.46814,-0.013367,down
55539,-8.746094,8.71875,1.21875,-1.064453,-2.042969,-2.400391,0.761719,0.447754,0.46814,-0.013367,down
55544,-8.746094,8.71875,1.144531,-1.109375,-2.361328,-2.277344,0.769653,0.437683,0.464172,-0.025024,down
55549,-8.675781,8.410156,1.410156,-1.109375,-2.361328,-2.277344,0.769653,0.437683,0.464172,-0.025024,down
55554,-8.671875,8.179688,1.527344,-1.109375,-2.361328,-2.277344,0.773499,0.4328,0.461975,-0.030762,down
55559,-8.671875,8.179688,1.527344,-1.046875,-2.595703,-2.244141,0.777405,0.427979,0.459534,-0.036621,down
55564,-8.671875,8.179688,1.527344,-0.945312,-2.640625,-2.207031,0.781189,0.423279,0.456909,-0.042542,down
55569,-8.78125,8.679688,1.257813,-0.945312,-2.640625,-2.207031,0.784851,0.418762,0.454224,-0.048462,down
55574,-8.78125,8.679688,1.257813,-0.945312,-2.640625,-2.207031,0.784851,0.418762,0.454224,-0.048462,down
55579,-8.59375,8.601563,1.371094,-1.025391,-2.630859,-2.035156,0.784851,0.418762,0.454224,-0.048462,down
55584,-8.636719,8.027344,1.640625,-1.359375,-2.623047,-1.912109,0.784851,0.418762,0.454224,-0.048462,down
55589,-8.253906,7.953125,1.757813,-1.359375,-2.623047,-1.912109,0.799805,0.399475,0.442383,-0.070618,down
55594,-8.253906,7.414062,2.0625,-1.359375,-2.623047,-1.912109,0.804138,0.393494,0.438965,-0.075867,down
55600,-8.097656,6.839844,2.523438,-1.6875,-2.572266,-1.767578,0.804138,0.393494,0.438965,-0.075867,down
55606,-7.980469,6.378906,2.636719,-1.6875,-2.572266,-1.767578,0.81604,0.376099,0.429993,-0.087891,down
55612,-7.789062,6.226562,2.558594,-1.919922,-2.316406,-1.654297,0.81604,0.376099,0.429993,-0.087891,down
55618,-7.515625,5.882812,2.753906,-1.892578,-2.185547,-1.646484,0.81604,0.376099,0.429993,-0.087891,down
55624,-7.484375,5.804687,2.945313,-1.742188,-1.876953,-1.572266,0.81604,0.376099,0.429993,-0.087891,down
55629,-7.367187,5.730469,3.097656,-1.742188,-1.876953,-1.572266,0.830505,0.351685,0.419861,-0.101318,down
55634,-7.367187,5.613281,3.289063,-1.404297,-1.535156,-1.447266,0.830505,0.351685,0.419861,-0.101318,down
55639,-7.367187,5.578125,3.328125,-1.404297,-1.535156,-1.447266,0.83606,0.341003,0.416199,-0.1073,down
55644,-7.519531,5.882812,3.328125,-1.1875,-1.384766,-1.347656,0.838318,0.336365,0.414673,-0.110168,down
55649,-7.519531,5.882812,3.328125,-1.005859,-1.251953,-1.251953,0.838318,0.336365,0.414673,-0.110168,down
55655,-7.632812,5.996094,3.363281,-1.005859,-1.251953,-1.251953,0.84021,0.332336,0.413269,-0.112854,down
55660,-7.632812,5.996094,3.363281,-0.791016,-1.011719,-1.025391,0.843384,0.325623,0.410889,-0.117737,down
55666,-7.59375,5.804687,3.671875,-0.724609,-0.832031,-0.796875,0.843384,0.325623,0.410889,-0.117737,down
55672,-7.636719,5.769531,3.824219,-0.701172,-0.759766,-0.681641,0.843384,0.325623,0.410889,-0.117737,down
55677,-7.59375,5.691406,4.015625,-0.701172,-0.759766,-0.681641,0.848145,0.315186,0.407288,-0.124207,down
55684,-7.59375,5.539062,4.132812,-0.582031,-0.607422,-0.435547,0.848145,0.315186,0.407288,-0.124207,down
55689,-7.675781,5.308594,4.246094,-0.375,-0.568359,-0.257813,0.848145,0.315186,0.407288,-0.124207,down
55694,-7.828125,4.925781,4.667969,-0.375,-0.568359,-0.257813,0.850891,0.309875,0.404907,-0.126587,down
55700,-7.75,4.886719,4.78125,-0.25,-0.5625,-0.208984,0.852295,0.307983,0.403015,-0.127869,down
55705,-7.714844,4.847656,4.707031,0.015625,-0.496094,-0.175781,0.852844,0.307495,0.401978,-0.128662,down
55710,-7.828125,4.773437,4.589844,0.015625,-0.496094,-0.175781,0.853149,0.307312,0.401123,-0.129456,down
55715,-7.75,4.886719,4.398437,0.263672,-0.417969,-0.160156,0.853394,0.307434,0.400208,-0.130371,down
55720,-7.75,4.925781,4.4375,0.380859,-0.357422,-0.148437,0.853394,0.307434,0.400208,-0.130371,down
55725,-7.792969,5.0,4.359375,0.380859,-0.357422,-0.148437,0.853455,0.308472,0.398682,-0.132324,down
55730,-7.832031,5.078125,4.359375,0.380859,-0.357422,-0.148437,0.853271,0.309265,0.398132,-0.13324,down
55735,-7.832031,5.269531,4.515625,0.550781,-0.191406,-0.099609,0.853027,0.310303,0.397522,-0.134338,down
55741,-7.789062,5.386719,4.398437,0.550781,-0.191406,-0.099609,0.852722,0.311218,0.397095,-0.135071,down
55746,-7.828125,5.421875,4.398437,0.503906,-0.119141,-0.019531,0.852722,0.311218,0.397095,-0.135071,down
55752,-7.789062,5.191406,4.398437,0.503906,-0.119141,-0.019531,0.852173,0.313232,0.396301,-0.136353,down
55757,-7.832031,5.078125,4.398437,0.388672,-0.080078,0.0625,0.85199,0.314087,0.395935,-0.13678,down
55763,-7.792969,5.039062,4.515625,0.351563,-0.068359,0.095703,0.85199,0.314087,0.395935,-0.13678,down
55769,-7.671875,4.847656,4.476562,0.351563,-0.068359,0.095703,0.85199,0.314087,0.395935,-0.13678,down
55774,-7.714844,4.734375,4.515625,0.316406,-0.039063,0.125,0.85199,0.314087,0.395935,-0.13678,down
55779,-7.671875,4.773437,4.550781,0.371094,-0.001953,0.132812,0.85199,0.314087,0.395935,-0.13678,down
55784,-7.597656,4.886719,4.476562,0.371094,-0.001953,0.132812,0.851013,0.318115,0.39447,-0.137451,down
55789,-7.597656,4.886719,4.476562,0.371094,-0.001953,0.132812,0.850769,0.319153,0.394287,-0.137573,down
55795,-7.632812,4.886719,4.398437,0.484375,0.050781,0.136719,0.850769,0.319153,0.394287,-0.137573,down
55800,-7.632812,4.773437,4.476562,0.509766,0.068359,0.144531,0.850769,0.319153,0.394287,-0.137573,down
55805,-7.554687,4.734375,4.515625,0.5625,0.095703,0.154297,0.849548,0.322815,0.393799,-0.138,down
55810,-7.597656,4.773437,4.398437,0.5625,0.095703,0.154297,0.848511,0.325623,0.393555,-0.138367,down
55815,-7.554687,4.734375,4.398437,0.5625,0.095703,0.154297,0.848083,0.326843,0.393433,-0.138489,down
55820,-7.445312,4.808594,4.359375,0.5625,0.095703,0.154297,0.847534,0.328308,0.393311,-0.138672,down
55825,-7.449219,4.886719,4.359375,0.5625,0.095703,0.154297,0.847534,0.328308,0.393311,-0.138672,down
55830,-7.488281,4.925781,4.324219,0.613281,0.09375,0.177734,0.847534,0.328308,0.393311,-0.138672,down
55835,-7.40625,4.886719,4.359375,0.613281,0.09375,0.177734,0.845886,0.332825,0.392822,-0.139221,down
55840,-7.449219,4.886719,4.359375,0.613281,0.09375,0.177734,0.845398,0.334229,0.392639,-0.139343,down
