timestamp,ax,ay,az,gx,gy,gz,qw,qx,qy,qz,label
565310,8.925781,4.21875,2.058594,-0.082031,0.048828,-0.150391,0.250122,0.635681,0.051208,0.728516,down
565315,8.960938,4.257812,2.058594,-0.056641,0.021484,-0.162109,0.250122,0.635681,0.051208,0.728516,down
565321,9.035156,4.335937,2.019531,-0.056641,0.021484,-0.162109,0.252258,0.634705,0.052246,0.728516,down
565326,8.964844,4.410156,1.980469,-0.025391,0.013672,-0.169922,0.252258,0.634705,0.052246,0.728516,down
565331,8.960938,4.449219,1.980469,-0.025391,0.013672,-0.169922,0.252808,0.634583,0.052795,0.728394,down
565336,8.964844,4.527344,1.980469,-0.025391,0.013672,-0.169922,0.253113,0.634521,0.053162,0.728333,down
565342,8.996094,4.566406,1.980469,-0.025391,0.013672,-0.169922,0.253357,0.634521,0.053406,0.728271,down
565347,8.960938,4.601562,1.90625,-0.011719,0.011719,-0.144531,0.253357,0.634521,0.053406,0.728271,down
565352,8.882813,4.601562,1.90625,-0.042969,0.019531,-0.134766,0.253357,0.634521,0.053406,0.728271,down
565358,8.847656,4.640625,1.90625,-0.042969,0.019531,-0.134766,0.25415,0.634277,0.054077,0.728149,down
565365,8.882813,4.566406,1.945313,-0.109375,0.027344,-0.119141,0.25415,0.634277,0.054077,0.728149,down
565370,8.925781,4.566406,1.980469,-0.171875,0.042969,-0.087891,0.25415,0.634277,0.054077,0.728149,down
565375,8.925781,4.488281,2.019531,-0.171875,0.042969,-0.087891,0.255188,0.633789,0.054138,0.728149,down
565380,8.886719,4.449219,2.019531,-0.171875,0.042969,-0.087891,0.255554,0.633606,0.054077,0.728271,down
565386,8.960938,4.375,2.058594,-0.21875,0.09375,-0.080078,0.255554,0.633606,0.054077,0.728271,down
565391,8.882813,4.296875,2.097656,-0.21875,0.09375,-0.080078,0.256836,0.632629,0.05365,0.728699,down
565397,8.730469,4.144531,2.171875,-0.21875,0.09375,-0.080078,0.257202,0.632263,0.053528,0.728882,down
565402,8.730469,4.105469,2.210938,-0.191406,0.125,-0.080078,0.257568,0.631897,0.053406,0.729065,down
565407,8.691406,4.105469,2.289063,-0.15625,0.117188,-0.082031,0.257935,0.631531,0.053345,0.729248,down
565413,8.652344,4.144531,2.289063,-0.15625,0.117188,-0.082031,0.25824,0.631165,0.053406,0.729431,down
565419,8.6875,4.144531,2.210938,-0.101563,0.119141,-0.103516,0.25824,0.631165,0.053406,0.729431,down
565424,8.691406,4.144531,2.136719,-0.072266,0.107422,-0.105469,0.25824,0.631165,0.053406,0.729431,down
565430,8.6875,4.183594,2.019531,-0.035156,0.089844,-0.123047,0.25824,0.631165,0.053406,0.729431,down
565435,8.691406,4.21875,1.945313,-0.035156,0.089844,-0.123047,0.259277,0.630066,0.054016,0.72998,down
565441,8.691406,4.21875,1.945313,-0.03125,0.078125,-0.142578,0.259766,0.6297,0.054565,0.730103,down
565446,8.769531,4.183594,2.019531,-0.03125,0.078125,-0.142578,0.26001,0.629578,0.05481,0.730103,down
565451,8.765625,4.183594,1.945313,-0.029297,0.068359,-0.146484,0.26001,0.629578,0.05481,0.730103,down
565456,8.730469,4.257812,1.945313,-0.029297,0.068359,-0.146484,0.260315,0.629395,0.055054,0.730103,down
565461,8.691406,4.257812,1.945313,-0.03125,0.087891,-0.148437,0.260315,0.629395,0.055054,0.730103,down
565467,8.652344,4.335937,2.058594,-0.03125,0.087891,-0.148437,0.261047,0.628784,0.055908,0.730347,down
565472,8.652344,4.335937,2.058594,-0.033203,0.125,-0.150391,0.261353,0.628479,0.056213,0.730408,down
565477,8.609375,4.375,2.171875,-0.033203,0.125,-0.150391,0.261597,0.628235,0.056519,0.730591,down
565483,8.613281,4.335937,2.210938,-0.033203,0.125,-0.150391,0.261902,0.627869,0.056824,0.730713,down
565488,8.578125,4.375,2.210938,-0.064453,0.160156,-0.160156,0.261902,0.627869,0.056824,0.730713,down
565493,8.578125,4.375,2.289063,-0.074219,0.177734,-0.166016,0.262573,0.627136,0.057434,0.731079,down
565500,8.539063,4.375,2.289063,-0.09375,0.183594,-0.171875,0.262573,0.627136,0.057434,0.731079,down
565506,8.613281,4.375,2.289063,-0.142578,0.203125,-0.193359,0.262573,0.627136,0.057434,0.731079,down
565511,8.539063,4.410156,2.328125,-0.164062,0.224609,-0.205078,0.263855,0.625793,0.058167,0.731689,down
565516,8.609375,4.296875,2.363281,-0.164062,0.224609,-0.205078,0.264404,0.625244,0.05835,0.731934,down
565521,8.609375,4.296875,2.363281,-0.164062,0.224609,-0.205078,0.265564,0.624023,0.058777,0.732544,down
565526,8.542969,4.257812,2.441406,-0.164062,0.224609,-0.205078,0.265564,0.624023,0.058777,0.732544,down
565531,8.542969,4.21875,2.441406,-0.232422,0.298828,-0.21875,0.265564,0.624023,0.058777,0.732544,down
565536,8.503906,4.183594,2.554688,-0.242187,0.326172,-0.236328,0.265564,0.624023,0.058777,0.732544,down
565541,8.425781,4.257812,2.59375,-0.234375,0.386719,-0.251953,0.2677,0.621643,0.059326,0.733704,down
565546,8.421875,4.296875,2.632813,-0.234375,0.386719,-0.251953,0.269226,0.619751,0.059875,0.734741,down
565551,8.382813,4.335937,2.710938,-0.234375,0.386719,-0.251953,0.269226,0.619751,0.059875,0.734741,down
565556,8.460938,4.335937,2.785156,-0.214844,0.386719,-0.289063,0.269226,0.619751,0.059875,0.734741,down
565561,8.460938,4.410156,2.785156,-0.214844,0.386719,-0.289063,0.27063,0.618042,0.060608,0.735596,down
565566,8.425781,4.375,2.75,-0.181641,0.416016,-0.339844,0.27063,0.618042,0.060608,0.735596,down
565571,8.425781,4.375,2.75,-0.181641,0.416016,-0.339844,0.27301,0.615173,0.062134,0.737,down
565576,8.460938,4.375,2.75,-0.181641,0.416016,-0.339844,0.273865,0.614258,0.062683,0.737427,down
565581,8.5,4.375,2.75,-0.181641,0.416016,-0.339844,0.273865,0.614258,0.062683,0.737427,down
565586,8.539063,4.375,2.75,-0.226562,0.46875,-0.4375,0.273865,0.614258,0.062683,0.737427,down
565591,8.542969,4.296875,2.75,-0.226562,0.46875,-0.4375,0.276855,0.611023,0.064514,0.738831,down
565596,8.5,4.257812,2.785156,-0.226562,0.46875,-0.4375,0.277954,0.609802,0.065125,0.73938,down
565601,8.539063,4.257812,2.785156,-0.226562,0.46875,-0.4375,0.277954,0.609802,0.065125,0.73938,down
565606,8.539063,4.183594,2.785156,-0.316406,0.609375,-0.449219,0.277954,0.609802,0.065125,0.73938,down
565611,8.5,4.027344,2.785156,-0.316406,0.609375,-0.449219,0.280273,0.607117,0.066284,0.740601,down
565617,8.425781,4.027344,2.785156,-0.345703,0.701172,-0.457031,0.280273,0.607117,0.066284,0.740601,down
565622,8.34375,3.992188,2.75,-0.345703,0.701172,-0.457031,0.283997,0.602173,0.068115,0.743042,down
565628,8.34375,4.027344,2.785156,-0.345703,0.701172,-0.457031,0.285034,0.600769,0.068726,0.743713,down
565633,8.382813,4.027344,2.785156,-0.287109,0.6875,-0.470703,0.286194,0.599182,0.069397,0.744446,down
565638,8.460938,4.105469,2.824219,-0.242187,0.712891,-0.488281,0.286194,0.599182,0.069397,0.744446,down
565644,8.464844,4.144531,2.824219,-0.191406,0.742187,-0.5,0.286194,0.599182,0.069397,0.744446,down
565650,8.542969,4.257812,2.824219,-0.191406,0.742187,-0.5,0.28949,0.594299,0.072144,0.746887,down
565656,8.539063,4.257812,2.785156,-0.054687,0.919922,-0.578125,0.28949,0.594299,0.072144,0.746887,down
565661,8.539063,4.335937,2.785156,-0.054687,0.919922,-0.578125,0.291382,0.590759,0.074646,0.748657,down
565666,8.539063,4.335937,2.785156,-0.033203,1.154297,-0.644531,0.292419,0.588623,0.076355,0.749817,down
565671,8.460938,4.21875,2.785156,-0.033203,1.154297,-0.644531,0.293335,0.586609,0.077881,0.750854,down
565676,8.226563,4.183594,2.75,-0.072266,1.355469,-0.703125,0.293335,0.586609,0.077881,0.750854,down
565681,7.777344,4.21875,2.75,-0.072266,1.355469,-0.703125,0.29541,0.581421,0.081665,0.753662,down
565686,7.5,4.183594,2.671875,-0.072266,1.355469,-0.703125,0.296631,0.578491,0.083618,0.755249,down
565691,7.160156,4.183594,2.632813,-0.199219,1.466797,-0.765625,0.296631,0.578491,0.083618,0.755249,down
565696,7.160156,4.183594,2.632813,-0.255859,1.398438,-0.787109,0.299438,0.572327,0.087341,0.758362,down
565701,6.734375,4.410156,2.941406,-0.300781,1.285156,-0.832031,0.300964,0.569519,0.088928,0.759705,down
565706,6.734375,4.410156,2.941406,-0.300781,1.285156,-0.832031,0.300964,0.569519,0.088928,0.759705,down
565711,6.738281,4.601562,3.167969,-0.271484,1.072266,-0.886719,0.300964,0.569519,0.088928,0.759705,down
565716,6.738281,4.601562,3.167969,-0.244141,0.984375,-0.919922,0.306335,0.561707,0.09375,0.762756,down
565721,6.972656,5.023437,4.128906,-0.244141,0.984375,-0.919922,0.308167,0.55957,0.095398,0.763428,down
565727,7.082031,5.0625,4.320312,0.037109,0.789062,-0.970703,0.308167,0.55957,0.095398,0.763428,down
565732,7.195312,5.140625,4.394531,0.037109,0.789062,-0.970703,0.313049,0.554077,0.101318,0.764709,down
565738,7.316406,5.253906,4.703125,0.037109,0.789062,-0.970703,0.314331,0.55249,0.103699,0.764954,down
565743,7.316406,5.332031,4.703125,0.314453,0.78125,-0.966797,0.314331,0.55249,0.103699,0.764954,down
565748,7.351562,5.40625,4.777344,0.306641,0.777344,-0.939453,0.316711,0.549377,0.108887,0.765503,down
565753,7.351562,5.40625,4.703125,0.277344,0.777344,-0.898437,0.316711,0.549377,0.108887,0.765503,down
565759,7.234375,5.292969,4.585937,0.277344,0.777344,-0.898437,0.318909,0.546265,0.113708,0.766113,down
565764,7.160156,5.332031,4.546875,-0.037109,0.748047,-0.777344,0.318909,0.546265,0.113708,0.766113,down
565769,7.160156,5.371094,4.546875,-0.255859,0.71875,-0.697266,0.318909,0.546265,0.113708,0.766113,down
565774,7.117187,5.253906,4.585937,-0.255859,0.71875,-0.697266,0.322937,0.541016,0.117798,0.767517,down
565780,7.082031,5.140625,4.585937,-0.255859,0.71875,-0.697266,0.322937,0.541016,0.117798,0.767517,down
565785,6.929687,5.140625,4.546875,-0.521484,0.640625,-0.564453,0.322937,0.541016,0.117798,0.767517,down
565790,6.890625,5.179687,4.511719,-0.492187,0.640625,-0.574219,0.322937,0.541016,0.117798,0.767517,down
565796,6.734375,5.179687,4.511719,-0.492187,0.640625,-0.574219,0.322937,0.541016,0.117798,0.767517,down
565801,6.65625,5.179687,4.511719,-0.316406,0.642578,-0.582031,0.322937,0.541016,0.117798,0.767517,down
565806,6.585937,5.214844,4.546875,-0.054687,0.6875,-0.619141,0.322937,0.541016,0.117798,0.767517,down
565812,6.355469,5.179687,4.472656,-0.054687,0.6875,-0.619141,0.333679,0.527161,0.123779,0.771667,down
565817,6.316406,5.253906,4.433594,0.193359,0.71875,-0.677734,0.333679,0.527161,0.123779,0.771667,down
565822,6.277344,5.332031,4.472656,0.193359,0.71875,-0.677734,0.335327,0.524109,0.127747,0.7724,down
565828,6.238281,5.40625,4.625,0.193359,0.71875,-0.677734,0.335876,0.522888,0.129822,0.772583,down
565833,6.238281,5.40625,4.625,0.466797,0.712891,-0.736328,0.336487,0.521484,0.132507,0.772827,down
565838,6.089844,5.523437,4.511719,0.466797,0.712891,-0.736328,0.336975,0.520325,0.134827,0.77301,down
565843,6.046875,5.523437,4.546875,0.466797,0.712891,-0.736328,0.337585,0.519043,0.137573,0.773132,down
565848,5.929687,5.636719,4.664062,0.466797,0.712891,-0.736328,0.337585,0.519043,0.137573,0.773132,down
565853,5.929687,5.636719,4.664062,0.345703,0.527344,-0.691406,0.337585,0.519043,0.137573,0.773132,down
565858,5.78125,5.789062,4.738281,0.345703,0.527344,-0.691406,0.339478,0.515869,0.144104,0.773193,down
565865,5.78125,5.792969,4.855469,0.345703,0.527344,-0.691406,0.340149,0.515137,0.14563,0.773132,down
565871,5.816406,5.753906,4.933594,0.123047,0.296875,-0.646484,0.340149,0.515137,0.14563,0.773132,down
565876,5.816406,5.753906,4.933594,0.066406,0.21875,-0.642578,0.342041,0.513672,0.148437,0.772766,down
565881,5.703125,5.636719,4.855469,0.023437,0.152344,-0.65625,0.34314,0.513062,0.149536,0.772461,down
565886,5.703125,5.636719,4.855469,0.023437,0.152344,-0.65625,0.34314,0.513062,0.149536,0.772461,down
565891,5.664062,5.636719,4.816406,0.0,0.083984,-0.658203,0.34314,0.513062,0.149536,0.772461,down
565896,5.664062,5.636719,4.816406,0.035156,-0.060547,-0.732422,0.346863,0.511963,0.152344,0.770996,down
565901,5.816406,5.445312,4.703125,0.035156,-0.060547,-0.732422,0.348206,0.51178,0.153259,0.770264,down
565906,5.78125,5.40625,4.703125,0.035156,-0.060547,-0.732422,0.349792,0.511597,0.15448,0.769409,down
565912,5.855469,5.371094,4.585937,0.109375,-0.078125,-0.847656,0.349792,0.511597,0.15448,0.769409,down
565917,5.855469,5.40625,4.546875,0.109375,-0.078125,-0.847656,0.353882,0.511292,0.157959,0.76709,down
565922,5.8125,5.40625,4.625,0.171875,-0.111328,-0.884766,0.353882,0.511292,0.157959,0.76709,down
565927,5.742187,5.484375,4.585937,0.171875,-0.111328,-0.884766,0.355591,0.51123,0.159546,0.765991,down
565932,5.664062,5.484375,4.585937,0.226562,-0.144531,-0.917969,0.355591,0.51123,0.159546,0.765991,down
565937,5.546875,5.523437,4.546875,0.226562,-0.144531,-0.917969,0.359863,0.511414,0.163879,0.763,down
565942,5.472656,5.523437,4.546875,0.273438,-0.203125,-0.917969,0.359863,0.511414,0.163879,0.763,down
565947,5.320312,5.488281,4.433594,0.273438,-0.203125,-0.917969,0.36145,0.511597,0.165527,0.761719,down
565952,5.28125,5.527344,4.355469,0.330078,-0.271484,-0.923828,0.36145,0.511597,0.165527,0.761719,down
565957,5.050781,5.445312,4.355469,0.330078,-0.271484,-0.923828,0.36554,0.512634,0.170166,0.758057,down
565962,5.015625,5.488281,4.320312,0.392578,-0.339844,-0.927734,0.36554,0.512634,0.170166,0.758057,down
565967,5.015625,5.449219,4.203125,0.392578,-0.339844,-0.927734,0.367065,0.513245,0.171997,0.756531,down
565972,4.859375,5.214844,4.011719,0.408203,-0.355469,-0.939453,0.367065,0.513245,0.171997,0.756531,down
565977,4.785156,5.214844,3.859375,0.416016,-0.386719,-0.947266,0.371033,0.515076,0.17688,0.752136,down
565982,4.707031,5.25,3.820313,0.416016,-0.386719,-0.947266,0.371033,0.515076,0.17688,0.752136,down
565987,4.707031,5.292969,3.898438,0.472656,-0.521484,-1.011719,0.371033,0.515076,0.17688,0.752136,down
565992,4.785156,5.566406,4.128906,0.472656,-0.521484,-1.011719,0.373962,0.516846,0.180359,0.748657,down
565997,4.746094,5.671875,4.164062,0.490234,-0.558594,-1.130859,0.373962,0.516846,0.180359,0.748657,down
566002,4.667969,5.75,4.128906,0.490234,-0.558594,-1.130859,0.377319,0.51886,0.184143,0.74469,down
566008,4.515625,5.636719,4.355469,0.490234,-0.558594,-1.130859,0.380859,0.520569,0.187927,0.740723,down
566013,4.019531,5.75,4.128906,0.490234,-0.558594,-1.130859,0.383118,0.521362,0.190002,0.738403,down
566018,3.828125,5.867187,3.972656,0.384766,-0.689453,-1.607422,0.383118,0.521362,0.190002,0.738403,down
566023,3.671875,6.097656,3.9375,0.3125,-0.789062,-1.738281,0.383118,0.521362,0.190002,0.738403,down
566028,3.597656,6.253906,3.9375,0.3125,-0.789062,-1.738281,0.392029,0.523987,0.196411,0.730225,down
566034,3.671875,6.367187,3.898438,0.3125,-0.789062,-1.738281,0.395691,0.524902,0.198303,0.727051,down
566039,3.75,6.367187,3.820313,0.001953,-1.101563,-2.095703,0.399719,0.525818,0.200073,0.723633,down
566045,4.019531,6.4375,3.746094,0.001953,-1.101563,-2.095703,0.404663,0.526855,0.201782,0.719666,down
566050,4.171875,6.371094,3.667969,-0.253906,-1.287109,-2.292969,0.404663,0.526855,0.201782,0.719666,down
566055,4.171875,6.371094,3.667969,-0.375,-1.339844,-2.388672,0.41449,0.528442,0.204285,0.712158,down
566060,4.171875,6.371094,3.667969,-0.507812,-1.367188,-2.464844,0.419983,0.529114,0.205383,0.70813,down
566065,4.019531,7.132812,3.167969,-0.507812,-1.367188,-2.464844,0.419983,0.529114,0.205383,0.70813,down
566070,4.019531,7.132812,3.167969,-0.875,-1.472656,-2.519531,0.432129,0.530029,0.206604,0.699707,down
566075,4.09375,7.519531,3.285156,-0.875,-1.472656,-2.519531,0.432129,0.530029,0.206604,0.699707,down
566080,3.980469,7.667969,3.359375,-1.058594,-1.525391,-2.527344,0.445068,0.530396,0.20636,0.691406,down
566086,3.980469,7.628906,3.324219,-1.291016,-1.582031,-2.480469,0.445068,0.530396,0.20636,0.691406,down
566091,3.902344,7.402344,3.4375,-1.365234,-1.617188,-2.460938,0.445068,0.530396,0.20636,0.691406,down
566097,3.75,7.097656,3.859375,-1.408203,-1.652344,-2.447266,0.445068,0.530396,0.20636,0.691406,down
566102,3.75,7.136719,4.164062,-1.408203,-1.652344,-2.447266,0.479553,0.530029,0.201843,0.669556,down
566107,3.75,7.167969,4.128906,-1.408203,-1.652344,-2.447266,0.479553,0.530029,0.201843,0.669556,down
566112,3.671875,7.097656,3.972656,-1.175781,-1.660156,-2.556641,0.479553,0.530029,0.201843,0.669556,down
566118,3.902344,6.976562,3.820313,-1.175781,-1.660156,-2.556641,0.499023,0.529968,0.199829,0.655884,down
566123,4.171875,6.863281,3.78125,-0.923828,-1.583984,-2.695313,0.506104,0.530029,0.199768,0.650452,down
566128,4.246094,6.863281,3.746094,-0.765625,-1.496094,-2.775391,0.512512,0.530029,0.200073,0.645264,down
566134,4.324219,6.898437,3.628906,-0.765625,-1.496094,-2.775391,0.517883,0.530029,0.200806,0.640686,down
566139,4.285156,7.164062,3.515625,-0.765625,-1.496094,-2.775391,0.517883,0.530029,0.200806,0.640686,down
566145,4.285156,7.164062,3.515625,-0.408203,-1.310547,-2.902344,0.529602,0.530151,0.203796,0.630005,down
566150,4.171875,7.515625,3.285156,-0.140625,-1.142578,-2.992188,0.529602,0.530151,0.203796,0.630005,down
566155,4.019531,8.085938,3.09375,-0.044922,-1.041016,-3.041016,0.529602,0.530151,0.203796,0.630005,down
566161,3.980469,8.546875,2.902344,-0.044922,-1.041016,-3.041016,0.545715,0.530029,0.21106,0.61377,down
566167,3.902344,8.773438,2.824219,0.107422,-0.646484,-3.167969,0.545715,0.530029,0.21106,0.61377,down
566172,3.597656,9.351563,2.671875,0.107422,-0.646484,-3.167969,0.555847,0.529236,0.217529,0.602966,down
566178,3.367188,9.578125,2.671875,0.123047,-0.482422,-3.212891,0.565552,0.527405,0.224976,0.592773,down
566183,3.25,9.773438,2.554688,0.052734,-0.160156,-3.273438,0.570862,0.525818,0.229492,0.587341,down
566188,3.097656,10.039063,2.519531,0.052734,-0.160156,-3.273438,0.575745,0.523987,0.233826,0.582458,down
566193,3.214844,10.277344,2.441406,0.052734,-0.160156,-3.273438,0.579956,0.522095,0.23761,0.578491,down
566198,3.289063,10.621094,2.402344,-0.208984,0.279297,-3.283203,0.585205,0.519226,0.242432,0.57373,down
566203,3.25,11.121094,2.363281,-0.363281,0.445312,-3.316406,0.590149,0.516174,0.247009,0.569458,down
566209,3.023438,11.847656,2.058594,-0.363281,0.445312,-3.316406,0.594727,0.512939,0.251099,0.565796,down
566214,3.023438,11.847656,2.058594,-0.363281,0.445312,-3.316406,0.594727,0.512939,0.251099,0.565796,down
566219,3.023438,11.847656,2.058594,-0.861328,0.925781,-3.371094,0.604797,0.504456,0.259949,0.558716,down
566224,3.023438,11.847656,2.058594,-1.058594,1.097656,-3.355469,0.610168,0.499268,0.264465,0.55542,down
566229,2.753906,12.230469,1.980469,-1.058594,1.097656,-3.355469,0.610168,0.499268,0.264465,0.55542,down
566234,2.753906,12.230469,1.980469,-1.261719,1.255859,-3.349609,0.620728,0.487488,0.27301,0.549988,down
566240,2.484375,12.265625,2.210938,-1.261719,1.255859,-3.349609,0.626282,0.480591,0.277405,0.547546,down
566245,1.949219,12.613281,2.480469,-1.689453,1.671875,-3.351563,0.626282,0.480591,0.277405,0.547546,down
566250,1.796875,12.761719,2.671875,-1.712891,1.800781,-3.333984,0.626282,0.480591,0.277405,0.547546,down
566256,1.605469,12.992188,2.75,-1.724609,1.869141,-3.259766,0.626282,0.480591,0.277405,0.547546,down
566261,1.414063,13.21875,3.054688,-1.724609,1.869141,-3.259766,0.647644,0.449524,0.295532,0.539551,down
566266,1.335938,12.839844,3.589844,-1.724609,1.869141,-3.259766,0.647644,0.449524,0.295532,0.539551,down
566271,1.144531,12.574219,3.78125,-1.724609,1.869141,-3.259766,0.65625,0.435181,0.303284,0.536621,down
566277,1.144531,12.574219,3.78125,-1.652344,1.740234,-2.603516,0.660156,0.428284,0.306763,0.535461,down
566282,0.953125,12.335938,4.203125,-1.628906,1.65625,-2.355469,0.66394,0.421143,0.31012,0.534424,down
566287,0.953125,12.335938,4.203125,-1.554688,1.578125,-2.121094,0.667297,0.414612,0.313049,0.533691,down
566293,0.53125,12.269531,4.546875,-1.554688,1.578125,-2.121094,0.670288,0.408508,0.315674,0.533081,down
566298,0.53125,12.269531,4.546875,-1.277344,1.408203,-1.763672,0.673035,0.402649,0.318237,0.532532,down
566303,0.226562,12.070313,5.160156,-1.277344,1.408203,-1.763672,0.677185,0.393066,0.32312,0.531555,down
566308,0.226562,11.957031,5.277344,-1.277344,1.408203,-1.763672,0.678711,0.388916,0.325684,0.531006,down
566313,0.1875,11.992188,5.316406,-0.525391,1.166016,-1.152344,0.679932,0.385254,0.328186,0.530579,down
566318,0.261719,12.035156,5.507812,-0.480469,1.119141,-1.0625,0.679932,0.385254,0.328186,0.530579,down
566323,0.300781,12.074219,5.46875,-0.480469,1.119141,-1.0625,0.680969,0.381958,0.330566,0.530273,down
566328,0.261719,12.113281,5.507812,-0.419922,1.056641,-0.957031,0.680969,0.381958,0.330566,0.530273,down
566333,0.109375,12.230469,5.507812,-0.419922,1.056641,-0.957031,0.68335,0.372742,0.33728,0.529419,down
566338,-0.003906,12.265625,5.542969,-0.419922,1.056641,-0.957031,0.68396,0.370178,0.339417,0.529114,down
566343,-0.121094,12.453125,5.582031,-0.189453,1.009766,-0.900391,0.68396,0.370178,0.339417,0.529114,down
566348,-0.234375,12.652344,5.621094,-0.207031,1.005859,-0.896484,0.684509,0.367432,0.341919,0.528687,down
566353,-0.234375,12.6875,5.660156,-0.207031,1.005859,-0.896484,0.685547,0.362427,0.346375,0.527893,down
566358,-0.425781,12.648438,5.773437,-0.207031,1.005859,-0.896484,0.686157,0.359863,0.348389,0.527588,down
566363,-0.65625,12.613281,5.8125,-0.523437,1.0,-0.892578,0.686157,0.359863,0.348389,0.527588,down
566368,-0.695312,12.457031,5.734375,-0.648437,1.019531,-0.882812,0.686951,0.356689,0.350464,0.527344,down
566373,-0.730469,12.378906,5.890625,-0.648437,1.019531,-0.882812,0.688538,0.350403,0.353699,0.527344,down
566378,-0.769531,12.375,5.925781,-0.648437,1.019531,-0.882812,0.688538,0.350403,0.353699,0.527344,down
566383,-0.808594,12.304688,5.925781,-1.046875,1.054688,-0.857422,0.688538,0.350403,0.353699,0.527344,down
566388,-0.769531,12.226563,6.003906,-1.046875,1.054688,-0.857422,0.69165,0.338623,0.357605,0.528259,down
566393,-0.730469,12.304688,6.082031,-1.046875,1.054688,-0.857422,0.69165,0.338623,0.357605,0.528259,down
566398,-0.730469,12.304688,6.082031,-1.294922,1.041016,-0.8125,0.69281,0.334534,0.358459,0.528809,down
566403,-0.617187,12.335938,6.425781,-1.392578,0.992187,-0.775391,0.69281,0.334534,0.358459,0.528809,down
566408,-0.847656,11.652344,6.578125,-1.488281,0.933594,-0.720703,0.695374,0.325623,0.359558,0.530273,down
566413,-0.847656,11.652344,6.578125,-1.488281,0.933594,-0.720703,0.695374,0.325623,0.359558,0.530273,down
566418,-0.847656,11.652344,6.578125,-1.578125,0.857422,-0.644531,0.699402,0.312256,0.358887,0.533447,down
566423,-1.078125,11.0,6.886719,-1.578125,0.857422,-0.644531,0.699402,0.312256,0.358887,0.533447,down
566428,-1.152344,10.699219,6.921875,-1.578125,0.857422,-0.644531,0.701965,0.303589,0.357056,0.536255,down
566433,-1.191406,10.5,7.113281,-1.578125,0.857422,-0.644531,0.701965,0.303589,0.357056,0.536255,down
566438,-1.308594,10.195313,7.152344,-1.560547,0.423828,-0.128906,0.701965,0.303589,0.357056,0.536255,down
566443,-1.308594,9.894531,7.308594,-1.560547,0.423828,-0.128906,0.704956,0.29303,0.353455,0.540588,down
566448,-1.269531,9.695313,7.34375,-1.457031,0.3125,0.003906,0.704956,0.29303,0.353455,0.540588,down
566453,-1.191406,9.546875,7.382812,-1.369141,0.275391,0.046875,0.705872,0.289612,0.351929,0.542297,down
566458,-1.191406,9.546875,7.382812,-1.279297,0.253906,0.097656,0.706482,0.286926,0.350647,0.54364,down
566464,-1.078125,9.277344,7.308594,-1.279297,0.253906,0.097656,0.707642,0.281616,0.347839,0.546753,down
566470,-1.039063,9.238281,7.269531,-1.279297,0.253906,0.097656,0.708008,0.279663,0.34668,0.548035,down
566475,-1.039063,9.199219,7.191406,-1.064453,0.214844,0.203125,0.708313,0.277405,0.345398,0.549561,down
566480,-1.078125,9.277344,7.308594,-1.064453,0.214844,0.203125,0.708313,0.277405,0.345398,0.549561,down
566486,-1.152344,9.277344,7.308594,-1.005859,0.208984,0.28125,0.708313,0.277405,0.345398,0.549561,down
566491,-1.308594,9.277344,7.269531,-0.994141,0.203125,0.3125,0.708313,0.277405,0.345398,0.549561,down
566497,-1.34375,9.234375,7.230469,-0.992187,0.201172,0.347656,0.708313,0.277405,0.345398,0.549561,down
566502,-1.382813,9.277344,7.269531,-0.992187,0.201172,0.347656,0.708313,0.277405,0.345398,0.549561,down
566507,-1.308594,9.394531,7.308594,-0.992187,0.201172,0.347656,0.70874,0.266541,0.337891,0.55896,down
566513,-1.34375,9.394531,7.308594,-0.996094,0.138672,0.5,0.70874,0.266541,0.337891,0.55896,down
566518,-1.191406,9.433594,7.191406,-0.996094,0.138672,0.5,0.708313,0.261841,0.333679,0.56427,down
566523,-1.152344,9.429688,7.230469,-1.042969,0.103516,0.572266,0.708313,0.261841,0.333679,0.56427,down
566528,-1.152344,9.472656,7.191406,-1.042969,0.103516,0.572266,0.708069,0.260132,0.331909,0.566406,down
566533,-1.230469,9.507813,7.191406,-1.115234,0.082031,0.638672,0.708069,0.260132,0.331909,0.566406,down
566539,-1.152344,9.578125,7.230469,-1.126953,0.064453,0.669922,0.707581,0.257141,0.328491,0.570312,down
566544,-1.152344,9.578125,7.230469,-1.152344,0.058594,0.695312,0.707031,0.254028,0.324707,0.574585,down
566549,-1.0,9.582031,7.269531,-1.152344,0.058594,0.695312,0.706665,0.252258,0.322449,0.577087,down
566554,-0.886719,9.660156,7.191406,-1.152344,0.058594,0.695312,0.70636,0.250793,0.320679,0.579102,down
566559,-0.847656,9.699219,7.152344,-1.203125,0.095703,0.726562,0.705933,0.248962,0.31842,0.581604,down
566564,-0.769531,9.777344,7.113281,-1.226563,0.105469,0.755859,0.705505,0.247253,0.316345,0.583984,down
566569,-0.769531,9.894531,7.113281,-1.226563,0.105469,0.755859,0.705017,0.245422,0.314209,0.586487,down
566574,-0.808594,9.929688,7.191406,-1.226563,0.105469,0.755859,0.705017,0.245422,0.314209,0.586487,down
566579,-0.808594,9.929688,7.191406,-1.267578,0.123047,0.8125,0.704041,0.242065,0.310181,0.591187,down
566584,-0.808594,9.929688,7.230469,-1.267578,0.123047,0.8125,0.704041,0.242065,0.310181,0.591187,down
566589,-1.0,9.851563,7.113281,-1.326172,0.123047,0.908203,0.70343,0.240295,0.307983,0.593811,down
566594,-1.0,9.851563,7.113281,-1.326172,0.123047,0.908203,0.70343,0.240295,0.307983,0.593811,down
566599,-1.0,9.855469,7.191406,-1.337891,0.103516,0.960937,0.701172,0.235046,0.300659,0.602295,down
566604,-1.039063,9.890625,7.230469,-1.337891,0.103516,0.960937,0.700134,0.233459,0.297974,0.605347,down
566610,-0.886719,9.773438,7.269531,-1.337891,0.103516,0.960937,0.699097,0.231995,0.295349,0.608459,down
566615,-0.886719,9.773438,7.269531,-1.291016,-0.017578,1.285156,0.697937,0.230652,0.292542,0.611694,down
566620,-0.847656,9.734375,7.269531,-1.291016,-0.017578,1.285156,0.696655,0.22937,0.289856,0.614868,down
566625,-0.847656,9.695313,7.230469,-1.291016,-0.017578,1.285156,0.69519,0.22821,0.286926,0.618286,down
566632,-0.960937,9.621094,7.113281,-1.291016,-0.017578,1.285156,0.69519,0.22821,0.286926,0.618286,down
566637,-1.039063,9.507813,7.152344,-1.214844,-0.023437,1.462891,0.69519,0.22821,0.286926,0.618286,down
566643,-1.191406,9.355469,7.078125,-1.220703,-0.005859,1.507813,0.69519,0.22821,0.286926,0.618286,down
566648,-1.191406,9.234375,7.078125,-1.220703,-0.005859,1.507813,0.688904,0.223999,0.276001,0.631714,down
566653,-1.230469,9.128906,7.039062,-1.257813,0.03125,1.582031,0.688904,0.223999,0.276001,0.631714,down
566659,-1.308594,8.890625,6.921875,-1.300781,0.056641,1.605469,0.688904,0.223999,0.276001,0.631714,down
566665,-1.191406,8.628906,6.960937,-1.300781,0.056641,1.605469,0.681396,0.218933,0.264526,0.646362,down
566670,-1.0,8.585938,7.039062,-1.425781,0.121094,1.623047,0.679504,0.217468,0.261536,0.650085,down
566675,-0.886719,8.589844,7.039062,-1.447266,0.154297,1.605469,0.677551,0.215881,0.258606,0.653809,down
566680,-0.808594,8.589844,6.921875,-1.447266,0.154297,1.605469,0.675476,0.213989,0.255493,0.657715,down
566686,-0.769531,8.472656,6.921875,-1.447266,0.154297,1.605469,0.675476,0.213989,0.255493,0.657715,down
566692,-0.730469,8.429688,6.960937,-1.472656,0.277344,1.503906,0.675476,0.213989,0.255493,0.657715,down
566697,-0.730469,8.429688,6.960937,-1.447266,0.314453,1.470703,0.669861,0.208191,0.247192,0.668457,down
566702,-0.847656,8.390625,7.0,-1.447266,0.314453,1.470703,0.669861,0.208191,0.247192,0.668457,down
566708,-0.886719,8.429688,7.113281,-1.416016,0.351563,1.455078,0.666077,0.204102,0.242065,0.675354,down
566713,-0.886719,8.429688,7.113281,-1.416016,0.351563,1.462891,0.666077,0.204102,0.242065,0.675354,down
566718,-1.230469,8.246094,7.34375,-1.416016,0.351563,1.462891,0.662048,0.19989,0.236938,0.682312,down
566724,-1.308594,8.125,7.382812,-1.478516,0.324219,1.53125,0.657898,0.195679,0.231323,0.689453,down
566729,-1.308594,8.050781,7.460937,-1.580078,0.257813,1.626953,0.655579,0.19342,0.228149,0.693359,down
566735,-1.269531,7.902344,7.535156,-1.623047,0.224609,1.683594,0.653442,0.191406,0.225159,0.696899,down
566740,-1.0,7.4375,7.726562,-1.623047,0.224609,1.683594,0.651123,0.189331,0.221863,0.700684,down
566745,-0.925781,7.207031,7.726562,-1.707031,0.179687,1.78125,0.651123,0.189331,0.221863,0.700684,down
566752,-0.808594,7.054687,7.765625,-1.714844,0.158203,1.822266,0.651123,0.189331,0.221863,0.700684,down
566758,-0.578125,6.824219,7.804687,-1.714844,0.158203,1.822266,0.643738,0.183105,0.211121,0.712402,down
566763,-0.578125,6.710937,7.726562,-1.660156,0.152344,1.917969,0.643738,0.183105,0.211121,0.712402,down
566768,-0.464844,6.519531,7.765625,-1.660156,0.152344,1.917969,0.638306,0.179077,0.203796,0.720398,down
566773,-0.425781,6.367187,7.84375,-1.660156,0.152344,1.917969,0.635376,0.177063,0.200073,0.724487,down
566779,-0.386719,6.289062,7.804687,-1.576172,0.191406,1.9375,0.635376,0.177063,0.200073,0.724487,down
566784,-0.347656,6.136719,7.769531,-1.576172,0.191406,1.9375,0.626465,0.171265,0.189514,0.73645,down
566789,-0.3125,6.058594,7.765625,-1.576172,0.191406,1.9375,0.623657,0.169495,0.186462,0.739929,down
566794,-0.273438,6.019531,7.882812,-1.484375,0.265625,1.941406,0.620422,0.16748,0.183044,0.743958,down
566799,-0.234375,6.058594,7.882812,-1.484375,0.265625,1.941406,0.620422,0.16748,0.183044,0.743958,down
566804,-0.234375,6.058594,7.882812,-1.466797,0.28125,1.947266,0.617554,0.165771,0.180176,0.747437,down
566809,-0.042969,6.019531,7.914062,-1.466797,0.28125,1.947266,0.614319,0.163818,0.177002,0.751282,down
566814,-0.042969,6.019531,7.914062,-1.466797,0.28125,1.947266,0.614319,0.163818,0.177002,0.751282,down
566819,0.148437,5.945312,7.769531,-1.505859,0.310547,1.964844,0.607788,0.159851,0.170715,0.75885,down
566824,0.1875,5.90625,7.808594,-1.505859,0.310547,1.964844,0.601318,0.155701,0.164246,0.766296,down
566829,0.1875,5.867187,7.808594,-1.505859,0.310547,1.964844,0.5979,0.153503,0.160706,0.770142,down
566834,0.148437,5.789062,7.765625,-1.505859,0.310547,1.964844,0.594604,0.151245,0.157104,0.773865,down
566839,0.035156,5.523437,7.6875,-1.742188,0.242187,2.041016,0.594604,0.151245,0.157104,0.773865,down
566845,-0.121094,5.332031,7.6875,-1.742188,0.242187,2.041016,0.587769,0.146729,0.149475,0.781433,down
566850,-0.15625,5.179687,7.652344,-1.785156,0.193359,2.058594,0.587769,0.146729,0.149475,0.781433,down
566855,-0.15625,5.179687,7.652344,-1.791016,0.169922,2.066406,0.580933,0.142334,0.141724,0.788757,down
566860,-0.195312,4.910156,7.6875,-1.791016,0.169922,2.066406,0.577148,0.139954,0.137268,0.792786,down
566866,-0.195312,4.757812,7.652344,-1.791016,0.169922,2.066406,0.573914,0.137939,0.133484,0.796082,down
566872,-0.234375,4.679687,7.613281,-1.810547,0.107422,2.085938,0.573914,0.137939,0.133484,0.796082,down
566877,-0.121094,4.527344,7.652344,-1.804688,0.087891,2.101563,0.573914,0.137939,0.133484,0.796082,down
566883,-0.042969,4.375,7.570312,-1.785156,0.066406,2.121094,0.573914,0.137939,0.133484,0.796082,down
566889,-0.003906,4.257812,7.535156,-1.771484,0.044922,2.169922,0.573914,0.137939,0.133484,0.796082,down
566894,0.035156,4.21875,7.464844,-1.771484,0.044922,2.169922,0.551697,0.125854,0.108276,0.817322,down
566899,-0.003906,3.992188,7.34375,-1.771484,0.044922,2.169922,0.551697,0.125854,0.108276,0.817322,down
566904,-0.082031,3.835938,7.308594,-1.755859,0.037109,2.234375,0.547668,0.123901,0.103943,0.820923,down
566909,-0.082031,3.835938,7.308594,-1.742188,0.017578,2.271484,0.54364,0.12207,0.099731,0.824402,down
566914,-0.347656,3.222656,7.230469,-1.742188,0.017578,2.271484,0.539307,0.120178,0.095337,0.828003,down
566919,-0.347656,3.222656,7.230469,-1.730469,-0.013672,2.373047,0.535034,0.118469,0.091125,0.831543,down
566925,-0.578125,2.648438,7.148437,-1.730469,-0.013672,2.373047,0.535034,0.118469,0.091125,0.831543,down
566930,-0.578125,2.648438,7.148437,-1.619141,-0.025391,2.539063,0.535034,0.118469,0.091125,0.831543,down
566936,-0.730469,2.074219,7.226562,-1.619141,-0.025391,2.539063,0.516296,0.112061,0.07428,0.845825,down
566942,-0.808594,1.808594,7.152344,-1.458984,-0.042969,2.626953,0.516296,0.112061,0.07428,0.845825,down
566947,-0.847656,1.617188,7.109375,-1.378906,-0.046875,2.6875,0.516296,0.112061,0.07428,0.845825,down
566952,-0.769531,1.347656,7.191406,-1.28125,-0.058594,2.740234,0.516296,0.112061,0.07428,0.845825,down
566958,-0.730469,1.386719,7.34375,-1.177734,-0.070312,2.791016,0.516296,0.112061,0.07428,0.845825,down
566963,-0.730469,1.425781,7.503906,-1.060547,-0.09375,2.833984,0.516296,0.112061,0.07428,0.845825,down
566969,-0.617187,1.269531,7.726562,-0.931641,-0.119141,2.884766,0.516296,0.112061,0.07428,0.845825,down
566974,-0.695312,1.15625,7.691406,-0.931641,-0.119141,2.884766,0.477966,0.105957,0.050354,0.870483,down
566979,-0.695312,1.15625,7.691406,-0.753906,-0.167969,2.996094,0.471985,0.105774,0.047729,0.873962,down
566984,-0.847656,1.078125,7.730469,-0.677734,-0.185547,3.054688,0.471985,0.105774,0.047729,0.873962,down
566989,-1.0,0.847656,7.847656,-0.601562,-0.216797,3.09375,0.459106,0.105774,0.042664,0.881042,down
566994,-1.0,0.847656,7.847656,-0.601562,-0.216797,3.09375,0.459106,0.105774,0.042664,0.881042,down
566999,-1.0,0.503906,8.070313,-0.537109,-0.25,3.111328,0.43927,0.107117,0.035889,0.891235,down
567004,-1.0,0.234375,8.648438,-0.419922,-0.525391,3.089844,0.43927,0.107117,0.035889,0.891235,down
567009,-0.886719,0.082031,8.71875,-0.419922,-0.525391,3.089844,0.432312,0.108093,0.033447,0.894592,down
567014,-0.769531,-0.109375,8.761719,-0.419922,-0.525391,3.089844,0.425598,0.109314,0.031067,0.897766,down
567019,-0.65625,-0.339844,8.691406,-0.304688,-0.820312,3.076172,0.425598,0.109314,0.031067,0.897766,down
567025,-0.539062,-0.605469,8.914063,-0.304688,-0.820312,3.076172,0.406372,0.114319,0.024109,0.906189,down
567030,-0.539062,-0.722656,8.835938,-0.083984,-1.0,3.082031,0.398987,0.116821,0.021729,0.909241,down
567036,-0.539062,-0.796875,8.835938,-0.083984,-1.0,3.082031,0.392822,0.119263,0.02002,0.911621,down
567041,-0.503906,-0.566406,8.761719,0.271484,-1.121094,3.123047,0.385986,0.12207,0.018433,0.914185,down
567046,-0.503906,-0.683594,8.953125,0.271484,-1.121094,3.123047,0.378967,0.125183,0.017212,0.916748,down
567051,-0.347656,-0.796875,8.878906,0.679687,-1.181641,3.193359,0.378967,0.125183,0.017212,0.916748,down
567057,-0.347656,-0.796875,8.878906,0.814453,-1.191406,3.230469,0.364197,0.132141,0.015869,0.921753,down
567062,-0.121094,-1.027344,9.074219,0.814453,-1.191406,3.230469,0.364197,0.132141,0.015869,0.921753,down
567067,-0.082031,-1.066406,9.179688,1.048828,-1.265625,3.255859,0.356506,0.135986,0.015686,0.924194,down
567072,-0.082031,-1.066406,9.179688,1.048828,-1.265625,3.255859,0.356506,0.135986,0.015686,0.924194,down
567077,0.035156,-1.027344,9.296875,1.25,-1.382813,3.208984,0.333313,0.148376,0.016541,0.930908,down
567082,0.1875,-0.300781,9.417969,1.25,-1.382813,3.208984,0.333313,0.148376,0.016541,0.930908,down
567088,0.300781,-0.261719,9.457031,1.496094,-1.494141,3.205078,0.333313,0.148376,0.016541,0.930908,down
567094,0.417969,-0.03125,9.523438,1.552734,-1.564453,3.214844,0.333313,0.148376,0.016541,0.930908,down
567100,0.53125,-0.070312,9.378906,1.572266,-1.724609,3.287109,0.333313,0.148376,0.016541,0.930908,down
567105,0.417969,0.007813,9.222656,1.572266,-1.724609,3.287109,0.285583,0.179321,0.022461,0.941162,down
567110,0.457031,-0.03125,9.140625,1.546875,-1.902344,3.337891,0.277222,0.185242,0.023315,0.942505,down
567115,0.761719,-0.566406,9.527344,1.546875,-1.902344,3.337891,0.277222,0.185242,0.023315,0.942505,down
567120,0.761719,-0.566406,9.527344,1.462891,-1.998047,3.384766,0.269775,0.190674,0.023926,0.943542,down
567125,0.722656,-0.605469,9.644531,1.462891,-1.998047,3.384766,0.261597,0.196655,0.024292,0.944641,down
567130,0.722656,-0.605469,9.644531,1.505859,-2.087891,3.345703,0.253052,0.202576,0.02478,0.945679,down
567135,0.722656,-0.605469,9.644531,1.505859,-2.087891,3.345703,0.244568,0.208923,0.025269,0.946533,down
567140,1.679688,-0.53125,9.878906,1.550781,-2.09375,3.261719,0.236145,0.214905,0.025818,0.947327,down
567146,1.796875,-0.644531,10.222656,1.623047,-2.082031,3.212891,0.228027,0.221008,0.026367,0.947876,down
567152,2.140625,-1.027344,10.222656,1.623047,-2.082031,3.212891,0.21167,0.233398,0.028137,0.948669,down
567158,2.410156,-1.21875,10.183594,1.818359,-2.142578,3.048828,0.20343,0.239807,0.029419,0.948792,down
567164,2.410156,-1.066406,10.179688,2.146484,-2.277344,2.857422,0.20343,0.239807,0.029419,0.948792,down
567170,2.601563,-0.757812,9.910156,2.146484,-2.277344,2.857422,0.180237,0.259521,0.035278,0.94812,down
567176,2.753906,-0.644531,9.757813,2.146484,-2.277344,2.857422,0.172852,0.266418,0.037781,0.94751,down
567181,3.023438,-0.953125,9.605469,2.359375,-2.490234,2.541016,0.16571,0.273376,0.040466,0.946655,down
567186,3.328125,-0.988281,9.566406,2.359375,-2.490234,2.541016,0.157959,0.281372,0.043579,0.945496,down
567191,3.941406,-0.492187,9.644531,2.359375,-2.490234,2.541016,0.157959,0.281372,0.043579,0.945496,down
567196,3.941406,-0.492187,9.644531,2.646484,-2.736328,2.15625,0.157959,0.281372,0.043579,0.945496,down
567201,3.941406,-0.492187,9.644531,2.646484,-2.736328,2.15625,0.144775,0.296326,0.049988,0.942749,down
567206,4.402344,0.582031,9.179688,2.738281,-2.808594,2.041016,0.144775,0.296326,0.049988,0.942749,down
567211,4.476562,0.464844,8.839844,2.732422,-2.886719,1.921875,0.132629,0.311646,0.057373,0.939148,down
567216,4.476562,0.464844,8.839844,2.732422,-2.886719,1.921875,0.126648,0.319824,0.061279,0.936951,down
567222,4.476562,0.582031,8.496094,2.421875,-2.972656,1.626953,0.115601,0.33551,0.06842,0.932434,down
567227,4.628906,0.582031,7.886719,2.421875,-2.972656,1.626953,0.110596,0.34375,0.071655,0.929749,down
567233,4.746094,0.847656,7.730469,2.148438,-3.064453,1.460938,0.110596,0.34375,0.071655,0.929749,down
567238,4.976562,0.925781,7.382812,1.984375,-3.097656,1.388672,0.110596,0.34375,0.071655,0.929749,down
567244,5.433594,0.695312,7.570312,1.984375,-3.097656,1.388672,0.110596,0.34375,0.071655,0.929749,down
567249,5.550781,0.886719,7.726562,1.583984,-3.121094,1.216797,0.110596,0.34375,0.071655,0.929749,down
567254,5.550781,0.773437,7.886719,1.439453,-3.117188,1.039063,0.110596,0.34375,0.071655,0.929749,down
567259,5.550781,0.773437,7.886719,1.439453,-3.117188,1.039063,0.088074,0.391174,0.084412,0.91217,down
567264,5.855469,-0.183594,7.230469,1.439453,-3.117188,1.039063,0.088074,0.391174,0.084412,0.91217,down
567269,5.855469,0.082031,7.109375,1.5625,-3.089844,0.886719,0.082336,0.406433,0.087891,0.905701,down
567274,5.855469,0.082031,7.109375,1.681641,-3.099609,0.820312,0.079712,0.413879,0.089966,0.902344,down
567279,6.007812,0.121094,6.808594,1.681641,-3.099609,0.820312,0.076843,0.421326,0.092346,0.898926,down
567284,6.007812,1.039063,6.464844,1.681641,-3.099609,0.820312,0.073975,0.429077,0.095093,0.895203,down
567289,6.046875,1.347656,6.464844,1.681641,-3.099609,0.820312,0.070923,0.437134,0.09845,0.891174,down
567295,6.046875,1.84375,6.425781,2.257813,-3.175781,0.621094,0.070923,0.437134,0.09845,0.891174,down
567300,5.933594,2.535156,5.8125,2.257813,-3.175781,0.621094,0.062561,0.45929,0.108887,0.879333,down
567305,5.855469,2.917969,6.234375,2.257813,-3.175781,0.621094,0.062561,0.45929,0.108887,0.879333,down
567310,5.972656,3.222656,6.578125,2.048828,-3.408203,0.554687,0.057373,0.47583,0.115662,0.869995,down
567316,6.238281,3.300781,6.460937,1.605469,-3.626953,0.476562,0.055481,0.483643,0.118164,0.865479,down
567321,7.273437,2.074219,5.964844,1.605469,-3.626953,0.476562,0.054016,0.491821,0.120117,0.860657,down
567326,7.660156,1.808594,6.003906,0.962891,-3.740234,0.367188,0.054016,0.491821,0.120117,0.860657,down
567331,7.964844,1.5,5.851562,0.681641,-3.738281,0.302734,0.054016,0.491821,0.120117,0.860657,down
567337,8.304688,1.195313,5.660156,0.681641,-3.738281,0.302734,0.052612,0.516418,0.122498,0.845886,down
567343,8.265625,1.117188,5.316406,0.339844,-3.613281,0.136719,0.052612,0.516418,0.122498,0.845886,down
567348,8.1875,1.078125,5.160156,0.298828,-3.501953,0.029297,0.052612,0.516418,0.122498,0.845886,down
567354,7.964844,1.460938,4.585937,0.298828,-3.501953,0.029297,0.052612,0.516418,0.122498,0.845886,down
567360,7.964844,1.460938,4.585937,0.320313,-3.333984,-0.179687,0.055481,0.546265,0.122986,0.82666,down
567365,7.804687,1.539063,4.433594,0.421875,-3.296875,-0.287109,0.055481,0.546265,0.122986,0.82666,down
567370,7.964844,1.539063,4.050781,0.519531,-3.285156,-0.375,0.055481,0.546265,0.122986,0.82666,down
567375,7.964844,1.539063,4.050781,0.689453,-3.292969,-0.466797,0.058777,0.566528,0.125732,0.812256,down
567380,7.964844,1.539063,4.050781,0.689453,-3.292969,-0.466797,0.060791,0.579468,0.129578,0.802368,down
567385,8.726563,2.152344,3.054688,0.689453,-3.292969,-0.466797,0.060791,0.579468,0.129578,0.802368,down
567390,8.996094,2.304688,3.09375,1.011719,-3.039063,-0.722656,0.061951,0.586121,0.132019,0.796997,down
567395,9.03125,2.34375,2.710938,1.011719,-3.039063,-0.722656,0.063049,0.592346,0.134583,0.79187,down
567400,9.03125,2.34375,2.710938,0.767578,-2.820313,-0.757812,0.064209,0.598267,0.137085,0.786865,down
567406,8.691406,2.113281,2.59375,0.767578,-2.820313,-0.757812,0.067017,0.608765,0.141113,0.777832,down
567411,8.691406,1.84375,2.402344,0.351563,-2.6875,-0.837891,0.069214,0.614319,0.142822,0.772949,down
567417,8.84375,1.578125,2.441406,0.351563,-2.6875,-0.837891,0.071228,0.618591,0.143982,0.769104,down
567423,9.03125,1.539063,2.289063,0.003906,-2.589844,-0.964844,0.071228,0.618591,0.143982,0.769104,down
567429,9.074219,1.652344,2.210938,-0.138672,-2.515625,-1.060547,0.071228,0.618591,0.143982,0.769104,down
567434,9.035156,1.808594,2.097656,-0.212891,-2.423828,-1.128906,0.071228,0.618591,0.143982,0.769104,down
567439,9.035156,1.808594,2.097656,-0.267578,-2.328125,-1.214844,0.083862,0.636047,0.147583,0.752747,down
567444,9.113281,1.617188,1.980469,-0.267578,-2.328125,-1.214844,0.083862,0.636047,0.147583,0.752747,down
567449,9.03125,1.617188,1.828125,-0.287109,-2.228516,-1.302734,0.091431,0.643372,0.149719,0.745239,down
567454,9.03125,1.617188,1.828125,-0.287109,-2.228516,-1.302734,0.091431,0.643372,0.149719,0.745239,down
567459,8.5,2.648438,1.675781,-0.091797,-1.886719,-1.527344,0.091431,0.643372,0.149719,0.745239,down
567465,8.226563,2.765625,1.523438,-0.025391,-1.6875,-1.564453,0.091431,0.643372,0.149719,0.745239,down
567470,8.082031,3.03125,1.445313,-0.025391,-1.6875,-1.564453,0.106384,0.655029,0.156677,0.731506,down
567475,7.847656,3.148438,1.40625,-0.142578,-1.615234,-1.568359,0.106384,0.655029,0.156677,0.731506,down
567480,7.539062,3.453125,1.292969,-0.142578,-1.615234,-1.568359,0.117554,0.661926,0.162231,0.72229,down
567485,7.464844,3.683594,1.175781,-0.142578,-1.615234,-1.568359,0.117554,0.661926,0.162231,0.72229,down
567490,7.425781,3.722656,1.023438,-0.375,-1.552734,-1.529297,0.117554,0.661926,0.162231,0.72229,down
567495,7.390625,3.835938,0.792969,-0.375,-1.552734,-1.529297,0.1297,0.668213,0.166565,0.713379,down
567500,7.355469,3.992188,0.71875,-0.375,-1.552734,-1.529297,0.133972,0.670105,0.167542,0.710571,down
567505,7.273437,4.449219,0.679687,-0.375,-1.552734,-1.529297,0.133972,0.670105,0.167542,0.710571,down
567510,7.195312,4.601562,0.449219,-0.771484,-1.521484,-1.521484,0.133972,0.670105,0.167542,0.710571,down
567515,7.121094,4.871094,0.066406,-0.771484,-1.521484,-1.521484,0.143005,0.673828,0.169128,0.704895,down
567520,7.121094,4.871094,0.066406,-0.900391,-1.46875,-1.548828,0.147705,0.675537,0.169678,0.702209,down
567525,7.082031,5.179687,-0.085937,-0.900391,-1.46875,-1.548828,0.152466,0.677124,0.170166,0.699524,down
567530,7.0,5.714844,-0.164062,-0.933594,-1.433594,-1.572266,0.152466,0.677124,0.170166,0.699524,down
567535,6.933594,6.019531,-0.164062,-0.933594,-1.433594,-1.572266,0.162659,0.680115,0.171082,0.694092,down
567540,6.933594,6.019531,-0.164062,-0.986328,-1.371094,-1.615234,0.16748,0.681335,0.171509,0.691589,down
567545,6.777344,6.367187,-0.238281,-0.986328,-1.371094,-1.615234,0.172729,0.682617,0.171936,0.688965,down
567550,6.585937,5.945312,-0.546875,-1.132813,-1.332031,-1.628906,0.177917,0.683716,0.17218,0.686462,down
567555,6.585937,5.945312,-0.546875,-1.132813,-1.332031,-1.628906,0.177917,0.683716,0.17218,0.686462,down
567560,6.585937,5.945312,-0.546875,-1.322266,-1.376953,-1.603516,0.188965,0.685791,0.172302,0.681396,down
567565,6.699219,5.980469,-0.660156,-1.322266,-1.376953,-1.603516,0.194519,0.686768,0.17218,0.678894,down
567571,6.773437,5.980469,-0.660156,-1.361328,-1.380859,-1.558594,0.194519,0.686768,0.17218,0.678894,down
567576,6.890625,6.097656,-0.738281,-1.357422,-1.347656,-1.529297,0.20636,0.688782,0.17157,0.673462,down
567581,6.890625,6.097656,-0.738281,-1.298828,-1.291016,-1.523438,0.216858,0.690491,0.170837,0.66864,down
567586,7.0,6.019531,-0.890625,-1.298828,-1.291016,-1.523438,0.222046,0.691162,0.170715,0.666199,down
567592,6.890625,5.867187,-0.929687,-1.298828,-1.291016,-1.523438,0.227539,0.691833,0.170776,0.663635,down
567597,6.695312,6.019531,-1.042969,-1.298828,-1.291016,-1.523438,0.231812,0.692322,0.171204,0.66156,down
567602,6.695312,6.058594,-1.121094,-1.298828,-1.291016,-1.523438,0.236633,0.692871,0.172058,0.658997,down
567607,6.699219,6.824219,-0.660156,-1.298828,-1.291016,-1.523438,0.240234,0.693298,0.172852,0.657104,down
567612,6.621094,6.710937,-1.042969,-0.558594,-0.869141,-1.492188,0.240234,0.693298,0.172852,0.657104,down
567617,6.660156,6.75,-1.007813,-0.605469,-0.830078,-1.480469,0.240234,0.693298,0.172852,0.657104,down
567623,7.0,6.824219,-0.96875,-0.605469,-0.830078,-1.480469,0.251831,0.694397,0.175903,0.650696,down
567628,7.121094,6.902344,-1.007813,-0.705078,-0.777344,-1.476563,0.251831,0.694397,0.175903,0.650696,down
567633,7.238281,7.015625,-0.929687,-0.755859,-0.746094,-1.484375,0.251831,0.694397,0.175903,0.650696,down
567638,7.238281,7.015625,-0.929687,-0.837891,-0.738281,-1.507813,0.263977,0.694641,0.178528,0.644897,down
567643,7.003906,7.242187,-0.890625,-0.837891,-0.738281,-1.507813,0.263977,0.694641,0.178528,0.644897,down
567648,7.003906,7.242187,-0.890625,-0.96875,-0.740234,-1.517578,0.27301,0.694397,0.179565,0.641174,down
567653,6.621094,7.136719,-0.929687,-0.96875,-0.740234,-1.517578,0.277893,0.694092,0.179626,0.639343,down
567658,6.621094,7.136719,-0.929687,-1.521484,-0.882812,-1.449219,0.283203,0.693787,0.17926,0.637451,down
567663,6.277344,6.371094,-0.546875,-1.521484,-0.882812,-1.449219,0.288574,0.69342,0.178528,0.63562,down
567669,6.429687,6.019531,-0.355469,-1.660156,-0.994141,-1.335938,0.288574,0.69342,0.178528,0.63562,down
567674,6.621094,5.789062,-0.203125,-1.605469,-1.029297,-1.289063,0.288574,0.69342,0.178528,0.63562,down
567679,6.855469,5.945312,-0.203125,-1.605469,-1.029297,-1.289063,0.288574,0.69342,0.178528,0.63562,down
567685,6.894531,6.175781,-0.238281,-1.605469,-1.029297,-1.289063,0.309692,0.69281,0.174744,0.62738,down
567691,6.8125,6.441406,-0.316406,-0.978516,-0.916016,-1.232422,0.317566,0.692993,0.1745,0.62323,down
567696,6.738281,6.980469,-0.699219,-0.978516,-0.916016,-1.232422,0.317566,0.692993,0.1745,0.62323,down
567701,6.777344,7.09375,-0.96875,-0.474609,-0.798828,-1.310547,0.323914,0.693542,0.17627,0.618896,down
567706,6.929687,7.359375,-1.160156,-0.09375,-0.675781,-1.480469,0.326965,0.693848,0.177979,0.616455,down
567711,7.160156,7.820312,-1.121094,-0.09375,-0.675781,-1.480469,0.326965,0.693848,0.177979,0.616455,down
567716,7.082031,8.007813,-1.160156,-0.09375,-0.675781,-1.480469,0.332214,0.694214,0.18219,0.611938,down
567722,6.929687,8.128906,-1.160156,-0.083984,-0.482422,-1.701172,0.335266,0.694214,0.184753,0.609558,down
567727,6.738281,8.246094,-1.234375,-0.273438,-0.433594,-1.697266,0.33844,0.69397,0.187073,0.607361,down
567733,6.046875,8.472656,-0.851562,-0.273438,-0.433594,-1.697266,0.341614,0.693481,0.188843,0.605591,down
567738,5.894531,8.507813,-0.738281,-0.847656,-0.460937,-1.619141,0.345459,0.692749,0.190247,0.60376,down
567743,5.78125,8.394531,-0.507812,-1.142578,-0.501953,-1.541016,0.345459,0.692749,0.190247,0.60376,down
567749,5.550781,7.96875,-0.046875,-1.142578,-0.501953,-1.541016,0.345459,0.692749,0.190247,0.60376,down
567755,5.433594,7.785156,0.144531,-1.142578,-0.501953,-1.541016,0.359436,0.689697,0.19104,0.598877,down
567760,5.433594,7.785156,0.144531,-1.601563,-0.6875,-1.224609,0.364502,0.688599,0.190247,0.59729,down
567765,5.472656,7.707031,0.179687,-1.548828,-0.693359,-1.121094,0.364502,0.688599,0.190247,0.59729,down
567770,5.550781,7.4375,0.527344,-1.548828,-0.693359,-1.121094,0.373718,0.686768,0.188293,0.59436,down
567776,5.742187,7.402344,0.410156,-1.244141,-0.667969,-0.982422,0.373718,0.686768,0.188293,0.59436,down
567781,5.894531,7.363281,0.257813,-1.0625,-0.615234,-0.966797,0.385071,0.684814,0.18634,0.589905,down
567786,5.703125,7.398437,0.296875,-1.0625,-0.615234,-0.966797,0.388062,0.684387,0.186401,0.58844,down
567791,5.625,7.441406,0.296875,-0.507812,-0.486328,-1.095703,0.388062,0.684387,0.186401,0.58844,down
567796,5.664062,7.402344,0.257813,-0.40625,-0.445312,-1.166016,0.391174,0.684021,0.18689,0.58667,down
567801,5.664062,7.441406,0.105469,-0.40625,-0.445312,-1.166016,0.393494,0.683716,0.187561,0.585205,down
567806,5.664062,7.441406,0.105469,-0.40625,-0.445312,-1.166016,0.398743,0.682983,0.189941,0.581787,down
567811,5.511719,7.785156,-0.046875,-0.40625,-0.445312,-1.166016,0.398743,0.682983,0.189941,0.581787,down
567816,5.320312,8.011719,-0.085937,-0.384766,-0.320313,-1.347656,0.398743,0.682983,0.189941,0.581787,down
567821,4.898437,8.585938,-0.203125,-0.482422,-0.320313,-1.390625,0.398743,0.682983,0.189941,0.581787,down
567826,4.746094,8.746094,-0.238281,-0.826172,-0.351563,-1.435547,0.407471,0.68103,0.193909,0.57666,down
567831,4.59375,8.855469,-0.164062,-0.826172,-0.351563,-1.435547,0.415161,0.678833,0.19574,0.573181,down
567836,4.554687,8.855469,-0.046875,-1.220703,-0.429687,-1.421875,0.415161,0.678833,0.19574,0.573181,down
567841,4.324219,8.324219,0.144531,-1.220703,-0.429687,-1.421875,0.42334,0.676208,0.196167,0.570068,down
567846,4.285156,7.78125,0.335938,-1.220703,-0.429687,-1.421875,0.42334,0.676208,0.196167,0.570068,down
567851,4.4375,7.554687,0.488281,-1.269531,-0.507812,-1.308594,0.42334,0.676208,0.196167,0.570068,down
567856,4.554687,7.515625,0.679687,-1.269531,-0.507812,-1.308594,0.436279,0.67218,0.195801,0.565247,down
567861,4.667969,7.441406,0.757812,-1.269531,-0.507812,-1.308594,0.440247,0.670959,0.195801,0.563599,down
567866,4.976562,7.628906,0.449219,-1.269531,-0.507812,-1.308594,0.440247,0.670959,0.195801,0.563599,down
567871,5.128906,7.703125,0.410156,-0.978516,-0.419922,-1.175781,0.447388,0.668762,0.195984,0.560486,down
567876,5.472656,7.902344,0.179687,-0.978516,-0.419922,-1.175781,0.447388,0.668762,0.195984,0.560486,down
567881,5.472656,7.902344,0.179687,-0.765625,-0.337891,-1.158203,0.450562,0.667786,0.19635,0.559021,down
567886,5.589844,8.050781,-0.046875,-0.4375,-0.308594,-1.208984,0.453491,0.66687,0.19696,0.557556,down
567891,5.589844,8.050781,-0.046875,-0.339844,-0.332031,-1.271484,0.456116,0.666138,0.197876,0.555908,down
567897,5.398437,8.851563,-0.164062,-0.339844,-0.332031,-1.271484,0.461243,0.664917,0.200317,0.552246,down
567902,5.398437,9.011719,-0.316406,-0.369141,-0.433594,-1.359375,0.461243,0.664917,0.200317,0.552246,down
567907,5.433594,9.085938,-0.394531,-0.369141,-0.433594,-1.359375,0.46698,0.663757,0.202759,0.547913,down
567913,5.28125,9.851563,-0.394531,-0.369141,-0.433594,-1.359375,0.469849,0.663086,0.203552,0.546021,down
567918,5.128906,9.933594,-0.355469,-0.865234,-0.535156,-1.326172,0.473267,0.66217,0.204041,0.543945,down
567923,5.089844,9.550781,-0.355469,-1.083984,-0.5625,-1.294922,0.473267,0.66217,0.204041,0.543945,down
567928,5.015625,9.125,-0.238281,-1.289063,-0.572266,-1.271484,0.473267,0.66217,0.204041,0.543945,down
567934,4.820312,8.851563,0.066406,-1.289063,-0.572266,-1.271484,0.485291,0.658203,0.203674,0.53833,down
567939,4.746094,8.746094,0.21875,-1.419922,-0.537109,-1.193359,0.489502,0.656616,0.203064,0.536682,down
567945,4.667969,8.667969,0.375,-1.363281,-0.488281,-1.195313,0.489502,0.656616,0.203064,0.536682,down
567950,4.667969,8.773438,0.527344,-1.363281,-0.488281,-1.195313,0.489502,0.656616,0.203064,0.536682,down
567955,4.707031,8.855469,0.488281,-1.363281,-0.488281,-1.195313,0.501709,0.651794,0.202026,0.531677,down
567960,4.628906,9.011719,0.375,-0.751953,-0.349609,-1.185547,0.501709,0.651794,0.202026,0.531677,down
567965,4.515625,9.621094,0.027344,-0.751953,-0.349609,-1.185547,0.507629,0.649597,0.203064,0.528259,down
567970,4.515625,10.0,-0.011719,0.009766,-0.291016,-1.183594,0.507629,0.649597,0.203064,0.528259,down
567975,4.59375,10.425781,0.027344,0.341797,-0.296875,-1.164063,0.507629,0.649597,0.203064,0.528259,down
567981,4.59375,10.695313,-0.046875,0.634766,-0.306641,-1.142578,0.507629,0.649597,0.203064,0.528259,down
567986,4.628906,11.042969,-0.316406,0.664062,-0.310547,-1.123047,0.512634,0.650024,0.210266,0.520081,down
567991,4.628906,11.148438,-0.355469,0.664062,-0.310547,-1.123047,0.513184,0.650635,0.212524,0.517822,down
567996,4.59375,11.230469,-0.355469,0.392578,-0.314453,-1.101563,0.513184,0.650635,0.212524,0.517822,down
568001,4.515625,11.226563,-0.316406,0.392578,-0.314453,-1.101563,0.514648,0.651672,0.216797,0.513306,down
568006,4.515625,11.226563,-0.316406,0.392578,-0.314453,-1.101563,0.517395,0.651611,0.219849,0.509277,down
568011,4.402344,11.308594,-0.238281,0.392578,-0.314453,-1.101563,0.517395,0.651611,0.219849,0.509277,down
568016,4.285156,11.226563,-0.238281,-1.019531,-0.423828,-1.021484,0.517395,0.651611,0.219849,0.509277,down
568021,4.171875,10.964844,-0.203125,-1.019531,-0.423828,-1.021484,0.5224,0.649902,0.220764,0.505981,down
568026,4.054687,10.34375,0.105469,-1.345703,-0.464844,-1.003906,0.525818,0.648376,0.220337,0.504578,down
568031,4.054687,10.34375,0.105469,-1.345703,-0.464844,-1.003906,0.525818,0.648376,0.220337,0.504578,down
568036,4.019531,10.078125,0.21875,-1.601563,-0.408203,-0.947266,0.525818,0.648376,0.220337,0.504578,down
568041,3.941406,9.089844,0.679687,-1.556641,-0.361328,-0.947266,0.525818,0.648376,0.220337,0.504578,down
568046,3.980469,9.007813,0.757812,-1.253906,-0.185547,-0.910156,0.525818,0.648376,0.220337,0.504578,down
568051,3.710938,9.046875,0.71875,-1.253906,-0.185547,-0.910156,0.544861,0.638062,0.216125,0.499268,down
568056,3.789063,9.125,0.984375,-0.988281,-0.132812,-0.939453,0.544861,0.638062,0.216125,0.499268,down
568062,3.789063,9.085938,1.023438,-0.75,-0.117188,-0.970703,0.552979,0.633301,0.216858,0.496155,down
568067,3.671875,9.125,0.910156,-0.28125,-0.015625,-1.027344,0.552979,0.633301,0.216858,0.496155,down
568072,3.328125,9.238281,1.023438,-0.087891,0.007813,-1.03125,0.555054,0.63208,0.218018,0.494812,down
568077,3.328125,9.238281,1.023438,0.025391,0.023437,-1.03125,0.557922,0.630676,0.220825,0.492187,down
568082,2.945313,9.546875,1.023438,0.095703,0.007813,-1.039063,0.557922,0.630676,0.220825,0.492187,down
568087,2.832031,9.699219,0.984375,0.095703,0.007813,-1.039063,0.560303,0.629639,0.224487,0.489075,down
568092,2.601563,9.960938,0.984375,0.095703,0.007813,-1.039063,0.561523,0.629211,0.226196,0.487427,down
568097,2.445313,10.121094,0.871094,0.095703,0.007813,-1.039063,0.561523,0.629211,0.226196,0.487427,down
568102,2.292969,10.238281,0.792969,-0.236328,-0.144531,-1.023438,0.561523,0.629211,0.226196,0.487427,down
568107,2.21875,10.347656,0.792969,-0.236328,-0.144531,-1.023438,0.566406,0.627075,0.22998,0.482849,down
568112,2.21875,10.3125,0.832031,-0.236328,-0.144531,-1.023438,0.568359,0.626038,0.230286,0.481628,down
568117,2.140625,10.421875,0.984375,-1.021484,-0.371094,-0.853516,0.568359,0.626038,0.230286,0.481628,down
568122,2.179688,10.425781,1.101563,-1.021484,-0.371094,-0.853516,0.571289,0.624512,0.230164,0.480225,down
568127,2.601563,9.851563,1.101563,-1.300781,-0.460937,-0.800781,0.571289,0.624512,0.230164,0.480225,down
568133,2.945313,8.933594,1.253906,-1.300781,-0.460937,-0.800781,0.581299,0.618958,0.226685,0.477051,down
568139,3.097656,8.550781,1.445313,-1.794922,-0.595703,-0.679687,0.585144,0.616699,0.224854,0.476135,down
568145,3.214844,8.050781,1.636719,-1.769531,-0.591797,-0.6875,0.585144,0.616699,0.224854,0.476135,down
568151,3.40625,7.4375,1.867188,-1.396484,-0.478516,-0.775391,0.585144,0.616699,0.224854,0.476135,down
568156,3.441406,7.402344,1.945313,-1.396484,-0.478516,-0.775391,0.596375,0.610107,0.219727,0.473145,down
568161,3.441406,7.402344,1.945313,-1.111328,-0.40625,-0.837891,0.599548,0.608215,0.218811,0.471924,down
568166,3.289063,8.011719,1.980469,-0.744141,-0.349609,-0.910156,0.602234,0.606812,0.218445,0.470581,down
568171,3.289063,8.011719,1.980469,-0.744141,-0.349609,-0.910156,0.602234,0.606812,0.218445,0.470581,down
568176,3.136719,8.207031,1.867188,-0.337891,-0.287109,-0.980469,0.602234,0.606812,0.218445,0.470581,down
568182,2.867188,8.890625,1.753906,0.402344,-0.183594,-1.128906,0.607544,0.605652,0.22345,0.462708,down
568187,2.601563,9.660156,1.714844,0.402344,-0.183594,-1.128906,0.607849,0.606445,0.226257,0.459961,down
568192,2.445313,9.964844,1.636719,1.007813,-0.119141,-1.263672,0.607849,0.606445,0.226257,0.459961,down
568197,2.410156,10.195313,1.5625,1.007813,-0.119141,-1.263672,0.607971,0.608154,0.23175,0.454773,down
568202,2.371094,10.460938,1.484375,1.007813,-0.119141,-1.263672,0.608276,0.608765,0.234375,0.452271,down
568207,2.371094,10.804688,1.332031,0.394531,-0.119141,-1.21875,0.608276,0.608765,0.234375,0.452271,down
568212,2.253906,10.84375,1.367188,0.394531,-0.119141,-1.21875,0.608948,0.608948,0.236877,0.449707,down
568217,2.21875,10.925781,1.40625,-0.365234,-0.253906,-1.095703,0.608948,0.608948,0.236877,0.449707,down
568222,2.179688,10.847656,1.40625,-0.365234,-0.253906,-1.095703,0.61377,0.606934,0.240356,0.44397,down
568227,2.179688,10.660156,1.523438,-0.972656,-0.384766,-0.982422,0.61377,0.606934,0.240356,0.44397,down
568232,2.253906,10.464844,1.636719,-0.972656,-0.384766,-0.982422,0.616699,0.605225,0.240417,0.442261,down
568237,2.332031,10.34375,1.675781,-1.212891,-0.423828,-0.888672,0.616699,0.605225,0.240417,0.442261,down
568242,2.484375,10.117188,1.945313,-1.212891,-0.423828,-0.888672,0.625427,0.599731,0.238892,0.438293,down
568247,2.484375,10.078125,1.980469,-1.064453,-0.390625,-0.865234,0.625427,0.599731,0.238892,0.438293,down
568252,2.371094,10.039063,2.058594,-0.902344,-0.359375,-0.878906,0.628601,0.597717,0.238281,0.436829,down
568257,2.21875,9.964844,1.980469,-0.902344,-0.359375,-0.878906,0.633423,0.594727,0.237854,0.434204,down
568262,2.140625,9.964844,2.058594,-0.472656,-0.300781,-0.939453,0.633423,0.594727,0.237854,0.434204,down
568267,2.027344,10.003906,2.171875,-0.25,-0.279297,-0.980469,0.635559,0.593506,0.238098,0.432556,down
568272,1.835938,10.3125,2.136719,-0.101563,-0.267578,-1.017578,0.637451,0.59259,0.238708,0.430725,down
568278,1.835938,10.3125,2.136719,-0.035156,-0.259766,-1.041016,0.640198,0.591614,0.24054,0.427002,down
568283,1.835938,10.503906,2.136719,-0.037109,-0.238281,-1.064453,0.641724,0.591064,0.241821,0.424683,down
568288,1.835938,10.617188,2.058594,-0.101563,-0.212891,-1.066406,0.643127,0.590515,0.242981,0.422607,down
568294,1.796875,10.765625,1.90625,-0.101563,-0.212891,-1.066406,0.644409,0.589905,0.243896,0.421021,down
568299,1.796875,10.765625,1.90625,-0.355469,-0.160156,-1.048828,0.646301,0.588867,0.244995,0.418945,down
568305,1.757813,10.808594,1.90625,-0.355469,-0.160156,-1.048828,0.646301,0.588867,0.244995,0.418945,down
568311,1.757813,10.578125,2.058594,-0.703125,-0.101563,-1.009766,0.646301,0.588867,0.244995,0.418945,down
568316,1.757813,10.503906,2.097656,-0.835937,-0.074219,-0.984375,0.646301,0.588867,0.244995,0.418945,down
568322,1.679688,10.503906,2.210938,-0.978516,-0.007813,-0.951172,0.646301,0.588867,0.244995,0.418945,down
568327,1.644531,10.316406,2.25,-0.978516,-0.007813,-0.951172,0.656982,0.580261,0.247742,0.412598,down
568333,1.644531,10.316406,2.25,-0.974609,0.087891,-0.933594,0.661804,0.575684,0.248596,0.410828,down
568338,1.605469,9.933594,2.519531,-0.90625,0.132812,-0.941406,0.664185,0.573303,0.249207,0.409973,down
568343,1.605469,9.933594,2.519531,-0.8125,0.189453,-0.96875,0.666138,0.571289,0.249878,0.40918,down
568348,1.105469,9.273438,2.554688,-0.8125,0.189453,-0.96875,0.666138,0.571289,0.249878,0.40918,down
568353,1.105469,9.273438,2.554688,-0.677734,0.210937,-0.994141,0.668152,0.569153,0.250916,0.408264,down
568358,1.105469,9.273438,2.554688,-0.677734,0.210937,-0.994141,0.671448,0.565735,0.253418,0.406067,down
568363,0.609375,8.855469,2.210938,-0.677734,0.210937,-0.994141,0.672852,0.564392,0.254944,0.404663,down
568368,0.417969,8.707031,2.480469,-0.677734,0.210937,-0.994141,0.674255,0.563232,0.256775,0.40271,down
568374,0.378906,9.050781,2.632813,-0.677734,0.210937,-0.994141,0.675171,0.562683,0.25824,0.401001,down
568379,0.378906,9.050781,2.632813,0.328125,-0.082031,-1.15625,0.676086,0.562378,0.260132,0.398682,down
568384,0.683594,9.433594,2.441406,0.328125,-0.082031,-1.15625,0.676697,0.562378,0.261841,0.396545,down
568390,0.648437,9.578125,2.289063,0.509766,-0.160156,-1.144531,0.676697,0.562378,0.261841,0.396545,down
568395,0.683594,9.777344,2.171875,0.539062,-0.158203,-1.125,0.676697,0.562378,0.261841,0.396545,down
568400,0.609375,10.15625,2.210938,0.539062,-0.148437,-1.101563,0.676697,0.562378,0.261841,0.396545,down
568406,0.53125,10.3125,2.171875,0.46875,-0.123047,-1.091797,0.676697,0.562378,0.261841,0.396545,down
568411,0.457031,10.425781,2.136719,0.347656,-0.101563,-1.089844,0.676697,0.562378,0.261841,0.396545,down
568417,0.378906,10.425781,2.097656,0.177734,-0.080078,-1.089844,0.676697,0.562378,0.261841,0.396545,down
568422,0.148437,10.347656,2.136719,-0.017578,-0.066406,-1.087891,0.682312,0.561768,0.27533,0.378174,down
568427,0.035156,10.421875,2.210938,-0.017578,-0.066406,-1.087891,0.682312,0.561768,0.27533,0.378174,down
568432,-0.042969,10.460938,2.289063,-0.335938,-0.148437,-1.117188,0.682312,0.561768,0.27533,0.378174,down
568438,-0.042969,10.460938,2.402344,-0.335938,-0.148437,-1.117188,0.687012,0.558289,0.278564,0.372437,down
568444,-0.082031,10.460938,2.519531,-0.335938,-0.148437,-1.117188,0.688721,0.557129,0.279419,0.370483,down
568450,-0.121094,10.503906,2.480469,-0.349609,-0.263672,-1.066406,0.688721,0.557129,0.279419,0.370483,down
568455,-0.273438,10.503906,2.402344,-0.314453,-0.296875,-1.027344,0.688721,0.557129,0.279419,0.370483,down
568460,-0.234375,10.582031,2.363281,-0.285156,-0.339844,-0.984375,0.693604,0.553955,0.281372,0.364563,down
568465,-0.234375,10.621094,2.289063,-0.269531,-0.367188,-0.945312,0.693604,0.553955,0.281372,0.364563,down
568470,-0.234375,10.660156,2.25,-0.294922,-0.396484,-0.916016,0.693604,0.553955,0.281372,0.364563,down
568475,-0.195312,10.65625,2.210938,-0.294922,-0.396484,-0.916016,0.693604,0.553955,0.281372,0.364563,down
568481,-0.195312,10.582031,2.097656,-0.427734,-0.40625,-0.869141,0.693604,0.553955,0.281372,0.364563,down
568487,-0.195312,10.503906,2.097656,-0.496094,-0.388672,-0.857422,0.703308,0.548218,0.282776,0.353394,down
568492,-0.082031,10.421875,2.136719,-0.496094,-0.388672,-0.857422,0.703308,0.548218,0.282776,0.353394,down
568497,-0.121094,10.316406,2.210938,-0.496094,-0.388672,-0.857422,0.705139,0.546875,0.282837,0.351746,down
568503,-0.121094,10.382813,2.210938,-0.564453,-0.261719,-0.876953,0.705139,0.546875,0.282837,0.351746,down
568508,-0.234375,10.386719,2.363281,-0.564453,-0.261719,-0.876953,0.71051,0.542603,0.283447,0.346985,down
568513,-0.3125,10.277344,2.480469,-0.564453,-0.261719,-0.876953,0.712097,0.541321,0.283752,0.345581,down
568518,-0.386719,10.3125,2.554688,-0.490234,-0.203125,-0.904297,0.712097,0.541321,0.283752,0.345581,down
568523,-0.503906,10.386719,2.671875,-0.490234,-0.203125,-0.904297,0.713806,0.539795,0.28418,0.343994,down
568529,-0.695312,10.460938,2.785156,-0.423828,-0.21875,-0.912109,0.716858,0.537354,0.285095,0.340759,down
568534,-0.808594,10.582031,2.785156,-0.423828,-0.21875,-0.912109,0.718323,0.536255,0.2854,0.339111,down
568540,-0.847656,10.65625,2.785156,-0.462891,-0.375,-0.859375,0.71991,0.535095,0.285583,0.337402,down
568546,-0.847656,10.765625,2.824219,-0.527344,-0.427734,-0.830078,0.71991,0.535095,0.285583,0.337402,down
568551,-0.847656,10.886719,2.824219,-0.599609,-0.490234,-0.802734,0.71991,0.535095,0.285583,0.337402,down
568556,-0.847656,10.84375,2.785156,-0.683594,-0.527344,-0.792969,0.71991,0.535095,0.285583,0.337402,down
568562,-0.847656,10.84375,2.785156,-0.789062,-0.548828,-0.785156,0.727295,0.529907,0.284424,0.330627,down
568567,-0.925781,10.847656,2.785156,-0.789062,-0.548828,-0.785156,0.727295,0.529907,0.284424,0.330627,down
568572,-0.925781,10.847656,2.785156,-0.974609,-0.548828,-0.773437,0.73175,0.526428,0.28302,0.327576,down
568577,-0.886719,10.699219,2.785156,-0.974609,-0.548828,-0.773437,0.73407,0.524475,0.282227,0.326111,down
568583,-0.925781,10.386719,2.785156,-1.072266,-0.455078,-0.753906,0.73407,0.524475,0.282227,0.326111,down
568588,-0.886719,10.117188,2.902344,-1.072266,-0.455078,-0.753906,0.741333,0.517944,0.279907,0.322205,down
568593,-0.808594,10.003906,2.902344,-0.988281,-0.353516,-0.755859,0.741333,0.517944,0.279907,0.322205,down
568598,-0.769531,9.894531,2.902344,-0.988281,-0.353516,-0.755859,0.745544,0.513855,0.278992,0.319824,down
568604,-0.808594,9.773438,3.054688,-0.988281,-0.353516,-0.755859,0.747437,0.511963,0.278809,0.318604,down
568609,-0.925781,9.734375,3.015625,-0.683594,-0.212891,-0.832031,0.749146,0.510193,0.278809,0.317322,down
568615,-0.960937,9.816406,3.054688,-0.519531,-0.167969,-0.861328,0.750732,0.508667,0.279053,0.315918,down
568620,-1.0,9.851563,3.167969,-0.519531,-0.167969,-0.861328,0.752136,0.507263,0.279541,0.314331,down
568626,-1.078125,9.933594,3.167969,-0.265625,-0.125,-0.933594,0.752136,0.507263,0.279541,0.314331,down
568631,-1.117188,10.003906,3.246094,-0.208984,-0.113281,-0.962891,0.752136,0.507263,0.279541,0.314331,down
568637,-1.117188,10.042969,3.246094,-0.208984,-0.117188,-0.974609,0.752136,0.507263,0.279541,0.314331,down
568642,-1.191406,10.039063,3.285156,-0.253906,-0.125,-0.978516,0.752136,0.507263,0.279541,0.314331,down
568647,-1.230469,10.039063,3.285156,-0.308594,-0.134766,-0.982422,0.752136,0.507263,0.279541,0.314331,down
568653,-1.308594,10.121094,3.285156,-0.472656,-0.158203,-0.986328,0.752136,0.507263,0.279541,0.314331,down
568658,-1.421875,10.160156,3.324219,-0.472656,-0.158203,-0.986328,0.762207,0.497681,0.285278,0.299927,down
568663,-1.460938,10.117188,3.398438,-0.472656,-0.158203,-0.986328,0.762207,0.497681,0.285278,0.299927,down
568668,-1.5,10.078125,3.398438,-0.675781,-0.210937,-0.974609,0.765747,0.493958,0.285889,0.296509,down
568673,-1.574219,9.929688,3.476563,-0.675781,-0.210937,-0.974609,0.767578,0.491943,0.286072,0.294861,down
568678,-1.613281,9.894531,3.476563,-0.675781,-0.210937,-0.974609,0.76947,0.489929,0.286133,0.293335,down
568683,-1.613281,9.816406,3.515625,-0.675781,-0.210937,-0.974609,0.76947,0.489929,0.286133,0.293335,down
568688,-1.613281,9.695313,3.746094,-0.824219,-0.273438,-0.964844,0.76947,0.489929,0.286133,0.293335,down
568693,-1.613281,9.695313,3.746094,-0.824219,-0.273438,-0.964844,0.775146,0.483765,0.286316,0.288269,down
568698,-1.613281,9.46875,3.820313,-0.824219,-0.273438,-0.964844,0.775146,0.483765,0.286316,0.288269,down
568703,-1.652344,9.429688,3.859375,-0.662109,-0.294922,-0.984375,0.775146,0.483765,0.286316,0.288269,down
568709,-1.574219,9.160156,3.898438,-0.662109,-0.294922,-0.984375,0.780518,0.478149,0.286682,0.282837,down
568715,-1.613281,8.972656,3.898438,-0.662109,-0.294922,-0.984375,0.782043,0.476501,0.286926,0.281067,down
568721,-1.613281,8.972656,3.898438,-0.527344,-0.224609,-1.017578,0.783569,0.474915,0.287292,0.279175,down
568726,-1.613281,8.972656,3.898438,-0.472656,-0.189453,-1.025391,0.785095,0.473267,0.28772,0.277222,down
568731,-1.726563,8.703125,3.746094,-0.472656,-0.189453,-1.025391,0.785095,0.473267,0.28772,0.277222,down
568737,-1.765625,8.589844,3.589844,-0.4375,-0.134766,-1.03125,0.78772,0.470276,0.289001,0.273438,down
568742,-1.882813,8.433594,3.746094,-0.34375,-0.097656,-1.048828,0.78772,0.470276,0.289001,0.273438,down
568748,-1.996094,8.46875,3.628906,-0.285156,-0.072266,-1.058594,0.79126,0.466309,0.291565,0.267395,down
568753,-2.113281,8.507813,3.707031,-0.285156,-0.072266,-1.058594,0.79126,0.466309,0.291565,0.267395,down
568758,-2.113281,8.511719,3.78125,-0.128906,-0.083984,-1.060547,0.79126,0.466309,0.291565,0.267395,down
568763,-2.113281,8.8125,3.972656,-0.054687,-0.103516,-1.066406,0.79126,0.466309,0.291565,0.267395,down
568768,-2.1875,8.890625,4.050781,0.0625,-0.162109,-1.064453,0.793945,0.463562,0.294495,0.260803,down
568773,-2.1875,9.085938,4.089844,0.0625,-0.162109,-1.064453,0.7948,0.462891,0.295593,0.25824,down
568778,-2.226563,9.238281,3.972656,0.0625,-0.162109,-1.064453,0.795532,0.462341,0.296448,0.255859,down
568783,-2.378906,9.582031,3.972656,0.085937,-0.251953,-1.052734,0.795532,0.462341,0.296448,0.255859,down
568788,-2.496094,9.738281,3.972656,-0.011719,-0.353516,-1.025391,0.796997,0.461487,0.297913,0.251099,down
568793,-2.496094,9.855469,3.898438,-0.011719,-0.353516,-1.025391,0.797974,0.460937,0.298462,0.248413,down
568798,-2.457031,9.894531,3.9375,-0.298828,-0.441406,-0.978516,0.79895,0.460266,0.298828,0.246033,down
568804,-2.496094,9.8125,3.820313,-0.298828,-0.441406,-0.978516,0.801453,0.458191,0.29895,0.241577,down
568809,-2.53125,9.734375,3.820313,-0.671875,-0.433594,-0.912109,0.803162,0.456482,0.298767,0.239502,down
568814,-2.496094,9.695313,3.746094,-0.824219,-0.414062,-0.880859,0.804932,0.454407,0.298462,0.23761,down
568820,-2.457031,9.578125,3.859375,-0.824219,-0.414062,-0.880859,0.80658,0.452454,0.298157,0.236267,down
568825,-2.609375,9.316406,3.820313,-0.824219,-0.414062,-0.880859,0.808472,0.450012,0.297791,0.234924,down
568830,-2.648438,9.234375,3.972656,-1.183594,-0.3125,-0.773437,0.808472,0.450012,0.297791,0.234924,down
568837,-2.648438,9.15625,3.972656,-1.226563,-0.279297,-0.740234,0.808472,0.450012,0.297791,0.234924,down
568843,-2.800781,9.011719,4.128906,-1.230469,-0.265625,-0.708984,0.808472,0.450012,0.297791,0.234924,down
568848,-2.800781,8.894531,4.203125,-1.220703,-0.261719,-0.677734,0.818359,0.435913,0.29541,0.230164,down
568853,-2.878906,8.742188,4.320312,-1.105469,-0.263672,-0.650391,0.818359,0.435913,0.29541,0.230164,down
568858,-2.914063,8.667969,4.355469,-1.105469,-0.263672,-0.650391,0.820251,0.433167,0.294922,0.22937,down
568863,-2.914063,8.664063,4.433594,-1.105469,-0.263672,-0.650391,0.821899,0.430786,0.294434,0.228516,down
568869,-2.992188,8.707031,4.511719,-0.929687,-0.310547,-0.648437,0.825256,0.426147,0.293457,0.226318,down
568875,-3.070313,8.855469,4.625,-0.929687,-0.310547,-0.648437,0.826599,0.424438,0.292969,0.22522,down
568880,-3.070313,8.855469,4.664062,-0.662109,-0.433594,-0.673828,0.828064,0.422668,0.292419,0.223816,down
568886,-3.03125,8.851563,4.664062,-0.615234,-0.46875,-0.667969,0.828064,0.422668,0.292419,0.223816,down
568891,-2.992188,8.894531,4.585937,-0.625,-0.496094,-0.673828,0.828064,0.422668,0.292419,0.223816,down
568896,-2.914063,8.890625,4.546875,-0.662109,-0.503906,-0.673828,0.828064,0.422668,0.292419,0.223816,down
568901,-2.914063,8.890625,4.546875,-0.720703,-0.501953,-0.658203,0.83374,0.416443,0.289795,0.217957,down
568906,-2.914063,8.890625,4.546875,-0.794922,-0.492187,-0.640625,0.835266,0.414612,0.28894,0.216553,down
568911,-2.878906,8.894531,4.546875,-0.794922,-0.492187,-0.640625,0.835266,0.414612,0.28894,0.216553,down
568916,-2.914063,8.816406,4.546875,-0.994141,-0.474609,-0.623047,0.835266,0.414612,0.28894,0.216553,down
568922,-2.878906,8.707031,4.625,-0.994141,-0.474609,-0.623047,0.838501,0.410522,0.287292,0.214172,down
568928,-2.878906,8.589844,4.777344,-1.132813,-0.449219,-0.601562,0.838501,0.410522,0.287292,0.214172,down
568933,-2.878906,8.550781,4.816406,-1.132813,-0.449219,-0.601562,0.843811,0.403015,0.284546,0.211182,down
568938,-2.878906,8.472656,4.894531,-1.1875,-0.443359,-0.576172,0.843811,0.403015,0.284546,0.211182,down
568944,-2.878906,8.429688,5.085937,-1.1875,-0.443359,-0.576172,0.847473,0.397583,0.282593,0.209412,down
568950,-2.914063,8.285156,5.199219,-1.1875,-0.443359,-0.576172,0.851074,0.392212,0.280457,0.207703,down
568955,-2.914063,8.203125,5.160156,-1.173828,-0.505859,-0.511719,0.852844,0.389648,0.279297,0.206909,down
568961,-2.914063,8.207031,5.316406,-1.158203,-0.53125,-0.470703,0.852844,0.389648,0.279297,0.206909,down
568966,-2.878906,8.085938,5.429687,-1.158203,-0.53125,-0.470703,0.856323,0.384583,0.276733,0.205383,down
568971,-2.878906,7.96875,5.46875,-1.083984,-0.587891,-0.359375,0.856323,0.384583,0.276733,0.205383,down
568977,-2.839844,7.902344,5.429687,-1.033203,-0.605469,-0.302734,0.856323,0.384583,0.276733,0.205383,down
568983,-2.761719,7.785156,5.429687,-1.009766,-0.603516,-0.253906,0.856323,0.384583,0.276733,0.205383,down
568989,-2.761719,7.625,5.507812,-0.978516,-0.587891,-0.199219,0.863953,0.374146,0.269104,0.203003,down
568994,-2.722656,7.625,5.507812,-0.839844,-0.511719,-0.125,0.863953,0.374146,0.269104,0.203003,down
568999,-2.722656,7.664062,5.507812,-0.839844,-0.511719,-0.125,0.865295,0.372253,0.267456,0.202759,down
569005,-2.722656,7.585937,5.46875,-0.839844,-0.511719,-0.125,0.867371,0.369385,0.265015,0.202454,down
569010,-2.722656,7.664062,5.46875,-0.615234,-0.324219,-0.074219,0.868286,0.368042,0.263916,0.202332,down
569015,-2.722656,7.703125,5.46875,-0.519531,-0.267578,-0.068359,0.869019,0.366943,0.263062,0.202271,down
569021,-2.722656,7.824219,5.542969,-0.519531,-0.267578,-0.068359,0.86969,0.365967,0.26239,0.202209,down
569026,-2.761719,7.898437,5.582031,-0.367188,-0.142578,-0.074219,0.86969,0.365967,0.26239,0.202209,down
569031,-2.839844,7.941406,5.582031,-0.296875,-0.076172,-0.078125,0.86969,0.365967,0.26239,0.202209,down
569036,-2.878906,8.011719,5.660156,-0.296875,-0.076172,-0.078125,0.870972,0.363831,0.261292,0.201904,down
569041,-2.953125,7.96875,5.734375,-0.296875,-0.076172,-0.078125,0.870972,0.363831,0.261292,0.201904,down
569047,-3.03125,7.941406,5.773437,-0.242187,0.03125,-0.101563,0.870972,0.363831,0.261292,0.201904,down
569052,-3.03125,8.007813,5.8125,-0.261719,0.037109,-0.109375,0.870972,0.363831,0.261292,0.201904,down
569057,-3.105469,8.046875,6.082031,-0.261719,0.037109,-0.109375,0.870972,0.363831,0.261292,0.201904,down
569063,-3.183594,8.007813,6.121094,-0.261719,0.037109,-0.109375,0.872375,0.360718,0.261292,0.201477,down
569069,-3.300781,7.9375,6.082031,-0.230469,-0.095703,-0.140625,0.872375,0.360718,0.261292,0.201477,down
569074,-3.335938,7.941406,6.273437,-0.230469,-0.095703,-0.140625,0.873413,0.358887,0.260803,0.200806,down
569079,-3.300781,7.9375,6.3125,-0.148437,-0.230469,-0.175781,0.873413,0.358887,0.260803,0.200806,down
569084,-3.335938,7.9375,6.3125,-0.148437,-0.230469,-0.175781,0.873718,0.358582,0.260498,0.200439,down
569089,-3.222656,7.941406,6.3125,-0.089844,-0.292969,-0.1875,0.873718,0.358582,0.260498,0.200439,down
569094,-3.222656,8.007813,6.273437,0.009766,-0.394531,-0.236328,0.874512,0.358215,0.25946,0.199036,down
569099,-3.183594,8.089844,6.234375,0.009766,-0.394531,-0.236328,0.875244,0.358337,0.258179,0.197266,down
569104,-3.070313,8.246094,6.042969,0.009766,-0.394531,-0.236328,0.875244,0.358337,0.258179,0.197266,down
569110,-3.03125,8.46875,5.8125,0.009766,-0.394531,-0.236328,0.876038,0.358582,0.256775,0.19519,down
569115,-3.03125,8.546875,5.734375,-0.078125,-0.441406,-0.298828,0.876465,0.358521,0.256042,0.194153,down
569120,-2.953125,8.550781,5.660156,-0.208984,-0.439453,-0.316406,0.877075,0.358215,0.255249,0.193115,down
569125,-2.878906,8.546875,5.582031,-0.208984,-0.439453,-0.316406,0.877747,0.357605,0.254456,0.1922,down
569130,-2.800781,8.324219,5.542969,-0.208984,-0.439453,-0.316406,0.877747,0.357605,0.254456,0.1922,down
569135,-2.722656,8.167969,5.582031,-0.761719,-0.361328,-0.326172,0.877747,0.357605,0.254456,0.1922,down
569140,-2.761719,7.96875,5.621094,-0.941406,-0.322266,-0.322266,0.877747,0.357605,0.254456,0.1922,down
569146,-2.722656,7.703125,5.851562,-0.941406,-0.322266,-0.322266,0.881958,0.350891,0.250977,0.18988,down
569152,-2.6875,7.554687,5.851562,-1.238281,-0.271484,-0.330078,0.881958,0.350891,0.250977,0.18988,down
569157,-2.6875,7.441406,5.964844,-1.345703,-0.244141,-0.339844,0.881958,0.350891,0.250977,0.18988,down
569162,-2.6875,7.441406,5.964844,-1.416016,-0.21875,-0.351563,0.88623,0.342163,0.248352,0.189331,down
569167,-2.761719,7.132812,6.15625,-1.416016,-0.21875,-0.351563,0.88623,0.342163,0.248352,0.189331,down
569172,-2.761719,7.058594,6.273437,-1.423828,-0.207031,-0.361328,0.889221,0.335632,0.246643,0.189087,down
569178,-2.878906,6.824219,6.464844,-1.304688,-0.212891,-0.375,0.889221,0.335632,0.246643,0.189087,down
569183,-2.914063,6.78125,6.578125,-1.185547,-0.226562,-0.373047,0.889221,0.335632,0.246643,0.189087,down
569189,-2.878906,6.75,6.65625,-0.923828,-0.255859,-0.353516,0.889221,0.335632,0.246643,0.189087,down
569194,-2.878906,6.714844,6.695312,-0.923828,-0.255859,-0.353516,0.894409,0.324646,0.243652,0.187805,down
569199,-2.914063,6.902344,6.695312,-0.820312,-0.257813,-0.351563,0.894409,0.324646,0.243652,0.187805,down
569204,-2.914063,6.941406,6.617187,-0.734375,-0.275391,-0.347656,0.897339,0.319031,0.241516,0.186157,down
569209,-2.992188,6.941406,6.65625,-0.734375,-0.275391,-0.347656,0.897339,0.319031,0.241516,0.186157,down
569214,-2.953125,7.015625,6.65625,-0.662109,-0.283203,-0.361328,0.897339,0.319031,0.241516,0.186157,down
569219,-2.992188,7.054687,6.617187,-0.662109,-0.283203,-0.361328,0.899109,0.315796,0.240173,0.184814,down
569224,-3.03125,7.097656,6.617187,-0.707031,-0.261719,-0.382813,0.899963,0.314331,0.239563,0.184143,down
569229,-3.03125,7.136719,6.65625,-0.707031,-0.261719,-0.382813,0.900879,0.312561,0.238892,0.183411,down
569234,-3.03125,7.207031,6.695312,-0.84375,-0.238281,-0.378906,0.901794,0.310791,0.238281,0.182739,down
569239,-3.03125,7.167969,6.730469,-0.84375,-0.238281,-0.378906,0.90271,0.30896,0.237671,0.18219,down
569244,-3.070313,7.136719,6.695312,-0.84375,-0.238281,-0.378906,0.903687,0.306946,0.237061,0.181702,down
569249,-3.070313,7.054687,6.730469,-1.074219,-0.210937,-0.384766,0.903687,0.306946,0.237061,0.181702,down
569255,-3.070313,7.054687,6.730469,-1.128906,-0.201172,-0.382813,0.906921,0.299561,0.234985,0.180298,down
569260,-3.03125,6.785156,6.964844,-1.128906,-0.201172,-0.382813,0.906921,0.299561,0.234985,0.180298,down
569265,-3.070313,6.671875,7.042969,-1.169922,-0.181641,-0.369141,0.909302,0.293823,0.233582,0.179626,down
569270,-3.070313,6.59375,7.078125,-1.169922,-0.181641,-0.369141,0.910339,0.29126,0.232971,0.179321,down
569276,-2.992188,6.210937,7.230469,-1.169922,-0.181641,-0.369141,0.911438,0.288574,0.232361,0.179016,down
569281,-2.992188,6.210937,7.230469,-1.076172,-0.173828,-0.339844,0.912476,0.285889,0.231689,0.178711,down
569286,-3.070313,6.019531,7.308594,-1.076172,-0.173828,-0.339844,0.913452,0.283447,0.231079,0.178406,down
569292,-3.070313,6.058594,7.425781,-1.076172,-0.173828,-0.339844,0.914368,0.281189,0.230469,0.17804,down
569297,-3.070313,6.136719,7.464844,-0.789062,-0.179687,-0.322266,0.914368,0.281189,0.230469,0.17804,down
569303,-3.105469,6.097656,7.503906,-0.683594,-0.197266,-0.314453,0.914368,0.281189,0.230469,0.17804,down
569308,-3.070313,6.058594,7.535156,-0.683594,-0.197266,-0.314453,0.916748,0.275696,0.228821,0.176575,down
569313,-3.105469,6.136719,7.609375,-0.683594,-0.197266,-0.314453,0.916748,0.275696,0.228821,0.176575,down
569318,-3.144531,6.175781,7.648437,-0.683594,-0.197266,-0.314453,0.917908,0.273438,0.227783,0.175415,down
569323,-3.144531,6.210937,7.648437,-0.283203,-0.240234,-0.300781,0.917908,0.273438,0.227783,0.175415,down
569328,-3.144531,6.289062,7.574219,-0.283203,-0.240234,-0.300781,0.917908,0.273438,0.227783,0.175415,down
569333,-3.183594,6.289062,7.609375,-0.283203,-0.240234,-0.300781,0.91925,0.271484,0.22644,0.173218,down
569338,-3.183594,6.367187,7.648437,-0.140625,-0.238281,-0.275391,0.91925,0.271484,0.22644,0.173218,down
569344,-3.300781,6.441406,7.613281,-0.125,-0.242187,-0.263672,0.920288,0.270447,0.225159,0.171082,down
569349,-3.300781,6.402344,7.574219,-0.125,-0.242187,-0.263672,0.920288,0.270447,0.225159,0.171082,down
569354,-3.300781,6.441406,7.570312,-0.091797,-0.238281,-0.263672,0.920288,0.270447,0.225159,0.171082,down
569359,-3.300781,6.441406,7.535156,-0.083984,-0.234375,-0.263672,0.920288,0.270447,0.225159,0.171082,down
569365,-3.335938,6.367187,7.609375,-0.083984,-0.234375,-0.263672,0.921509,0.26947,0.223511,0.168152,down
569370,-3.300781,6.328125,7.609375,-0.042969,-0.248047,-0.253906,0.921814,0.269287,0.223083,0.167297,down
569375,-3.261719,6.328125,7.726562,-0.005859,-0.253906,-0.246094,0.922058,0.269226,0.222656,0.166565,down
569380,-3.300781,6.328125,7.765625,0.039063,-0.261719,-0.230469,0.922058,0.269226,0.222656,0.166565,down
569385,-3.222656,6.210937,7.726562,0.039063,-0.261719,-0.230469,0.922485,0.269409,0.221741,0.165039,down
569390,-3.222656,6.136719,7.730469,0.130859,-0.275391,-0.199219,0.922668,0.269653,0.221313,0.164246,down
569395,-3.183594,6.058594,7.691406,0.130859,-0.275391,-0.199219,0.922791,0.269958,0.220886,0.163635,down
569400,-3.222656,6.019531,7.570312,0.130859,-0.275391,-0.199219,0.922913,0.270447,0.220459,0.162903,down
569405,-3.183594,5.980469,7.613281,0.279297,-0.291016,-0.144531,0.922913,0.270447,0.220459,0.162903,down
569410,-3.144531,5.945312,7.652344,0.279297,-0.291016,-0.144531,0.922974,0.271912,0.219482,0.161438,down
569415,-3.144531,5.945312,7.6875,0.279297,-0.291016,-0.144531,0.922913,0.272888,0.219055,0.160706,down
569420,-3.144531,5.90625,7.691406,0.279297,-0.291016,-0.144531,0.922791,0.273865,0.21875,0.159973,down
569425,-3.144531,5.945312,7.652344,0.628906,-0.259766,-0.134766,0.922546,0.275391,0.218445,0.159058,down
569430,-3.183594,5.980469,7.613281,0.720703,-0.248047,-0.138672,0.922546,0.275391,0.218445,0.159058,down
