timestamp,ax,ay,az,gx,gy,gz,qw,qx,qy,qz,label
63837,6.613281,2.511719,6.617187,-0.035156,-0.046875,-0.109375,0.270447,0.411682,0.025391,0.869934,down
63842,6.648437,2.511719,6.582031,-0.035156,-0.046875,-0.109375,0.271301,0.411804,0.025513,0.869568,down
63847,6.652344,2.511719,6.65625,0.007813,-0.080078,-0.105469,0.271301,0.411804,0.025513,0.869568,down
63852,6.691406,2.511719,6.621094,0.007813,-0.080078,-0.105469,0.27179,0.412048,0.025574,0.869263,down
63857,6.652344,2.433594,6.507812,0.007813,-0.080078,-0.105469,0.272034,0.412231,0.025696,0.869141,down
63862,6.6875,2.433594,6.542969,0.072266,-0.068359,-0.121094,0.272278,0.412354,0.025818,0.869019,down
63867,6.726562,2.433594,6.582031,0.072266,-0.068359,-0.121094,0.272461,0.412537,0.026062,0.868835,down
63872,6.769531,2.433594,6.582031,0.123047,-0.046875,-0.138672,0.272644,0.41272,0.026306,0.868652,down
63878,6.847656,2.511719,6.507812,0.123047,-0.046875,-0.138672,0.273071,0.413025,0.0271,0.868408,down
63883,6.847656,2.589844,6.507812,0.134766,0.0,-0.160156,0.273315,0.413086,0.027588,0.868286,down
63888,6.847656,2.511719,6.46875,0.117188,0.013672,-0.173828,0.27356,0.413147,0.028076,0.868164,down
63894,6.804687,2.589844,6.351562,0.117188,0.013672,-0.173828,0.273804,0.413147,0.028442,0.868042,down
63899,6.769531,2.703125,6.351562,0.117188,0.013672,-0.173828,0.27417,0.413086,0.02887,0.86792,down
63905,6.730469,2.742188,6.316406,0.046875,0.044922,-0.222656,0.27417,0.413086,0.02887,0.86792,down
63911,6.769531,2.703125,6.351562,0.033203,0.046875,-0.234375,0.27417,0.413086,0.02887,0.86792,down
63917,6.847656,2.816406,6.351562,0.033203,0.046875,-0.234375,0.275574,0.412781,0.029968,0.867615,down
63922,6.808594,2.894531,6.277344,0.011719,0.078125,-0.253906,0.275574,0.412781,0.029968,0.867615,down
63927,6.769531,3.085938,6.351562,0.011719,0.078125,-0.253906,0.276611,0.412476,0.030701,0.867371,down
63932,6.765625,3.125,6.390625,0.011719,0.078125,-0.253906,0.277161,0.412292,0.031067,0.86731,down
63938,6.769531,3.125,6.46875,0.068359,0.056641,-0.210937,0.277161,0.412292,0.031067,0.86731,down
63943,6.726562,3.203125,6.507812,0.068359,0.056641,-0.210937,0.278442,0.411865,0.032349,0.867065,down
63949,6.652344,3.125,6.507812,0.068359,0.056641,-0.210937,0.278687,0.411804,0.032715,0.867004,down
63954,6.652344,3.125,6.507812,0.0625,0.019531,-0.105469,0.27887,0.411743,0.03302,0.866943,down
63959,6.6875,3.125,6.46875,0.0625,0.019531,-0.105469,0.278992,0.411743,0.033203,0.866882,down
63964,6.726562,3.085938,6.507812,0.0625,0.019531,-0.105469,0.279114,0.411804,0.033325,0.866821,down
63969,6.765625,3.085938,6.429687,0.0625,0.019531,-0.105469,0.279114,0.411804,0.033325,0.866821,down
63974,6.765625,3.085938,6.429687,-0.009766,-0.074219,-0.021484,0.279114,0.411804,0.033325,0.866821,down
63980,6.847656,3.125,6.429687,-0.009766,-0.074219,-0.021484,0.279358,0.412231,0.033264,0.866577,down
63985,6.925781,3.125,6.46875,-0.009766,-0.074219,-0.021484,0.279419,0.412354,0.033264,0.866455,down
63991,6.921875,3.164063,6.429687,0.011719,-0.066406,-0.056641,0.279419,0.412354,0.033264,0.866455,down
63996,6.960937,3.164063,6.46875,0.03125,-0.041016,-0.064453,0.279419,0.412354,0.033264,0.866455,down
64001,6.960937,3.203125,6.46875,0.033203,-0.009766,-0.068359,0.279419,0.412354,0.033264,0.866455,down
64006,6.996094,3.203125,6.46875,0.033203,-0.009766,-0.068359,0.279907,0.412659,0.03363,0.86615,down
64011,6.996094,3.238281,6.542969,0.048828,0.066406,-0.080078,0.279907,0.412659,0.03363,0.86615,down
64016,6.960937,3.164063,6.582031,0.048828,0.091797,-0.082031,0.279907,0.412659,0.03363,0.86615,down
64022,6.84375,3.203125,6.582031,0.048828,0.091797,-0.082031,0.280334,0.411865,0.03479,0.866333,down
64027,6.808594,3.203125,6.621094,0.048828,0.091797,-0.082031,0.280334,0.411865,0.03479,0.866333,down
64032,6.769531,3.203125,6.621094,0.054687,0.166016,-0.058594,0.280334,0.411865,0.03479,0.866333,down
64037,6.769531,3.203125,6.660156,0.054687,0.166016,-0.058594,0.280457,0.411194,0.035461,0.866577,down
64042,6.726562,3.238281,6.660156,0.054687,0.166016,-0.058594,0.280518,0.410889,0.035767,0.86676,down
64048,6.804687,3.238281,6.699219,0.046875,0.166016,-0.042969,0.280518,0.410889,0.035767,0.86676,down
64053,6.765625,3.238281,6.734375,0.046875,0.166016,-0.042969,0.28064,0.40979,0.036621,0.867126,down
64059,6.765625,3.277344,6.699219,0.042969,0.160156,-0.041016,0.28064,0.409485,0.036865,0.86731,down
64064,6.765625,3.238281,6.699219,0.042969,0.160156,-0.041016,0.280701,0.409119,0.03717,0.867432,down
64069,6.765625,3.238281,6.734375,0.035156,0.158203,-0.039063,0.280701,0.409119,0.03717,0.867432,down
64075,6.804687,3.238281,6.734375,0.035156,0.158203,-0.039063,0.280762,0.408447,0.037659,0.867737,down
64080,6.765625,3.164063,6.734375,0.035156,0.183594,-0.046875,0.280762,0.408447,0.037659,0.867737,down
64086,6.804687,3.203125,6.734375,0.015625,0.181641,-0.044922,0.280762,0.408447,0.037659,0.867737,down
64091,6.730469,3.046875,6.738281,-0.015625,0.181641,-0.050781,0.280762,0.408447,0.037659,0.867737,down
64096,6.730469,3.085938,6.773437,-0.0625,0.177734,-0.066406,0.280762,0.408447,0.037659,0.867737,down
64101,6.769531,3.046875,6.699219,-0.101563,0.175781,-0.068359,0.280762,0.408447,0.037659,0.867737,down
64107,6.769531,2.972656,6.734375,-0.146484,0.181641,-0.082031,0.280762,0.408447,0.037659,0.867737,down
64112,6.730469,2.894531,6.816406,-0.171875,0.173828,-0.085937,0.280762,0.408447,0.037659,0.867737,down
64118,6.769531,2.894531,6.8125,-0.1875,0.167969,-0.097656,0.280762,0.408447,0.037659,0.867737,down
64123,6.730469,2.894531,6.773437,-0.175781,0.201172,-0.099609,0.280762,0.408447,0.037659,0.867737,down
64128,6.730469,2.816406,6.777344,-0.175781,0.201172,-0.099609,0.283325,0.403076,0.03772,0.869385,down
64133,6.730469,2.894531,6.773437,-0.136719,0.234375,-0.103516,0.283325,0.403076,0.03772,0.869385,down
64138,6.730469,2.933594,6.773437,-0.136719,0.234375,-0.103516,0.283691,0.402466,0.037659,0.869568,down
64143,6.804687,2.894531,6.925781,-0.126953,0.263672,-0.109375,0.283691,0.402466,0.037659,0.869568,down
64148,6.804687,2.894531,6.925781,-0.126953,0.263672,-0.109375,0.284729,0.40033,0.037903,0.870178,down
64153,6.84375,2.972656,7.15625,-0.126953,0.263672,-0.109375,0.284729,0.40033,0.037903,0.870178,down
64158,6.84375,3.046875,7.234375,-0.070312,0.355469,-0.144531,0.285461,0.39856,0.038452,0.870728,down
64163,6.84375,3.046875,7.539062,-0.070312,0.355469,-0.144531,0.285767,0.397644,0.038818,0.871033,down
64168,6.769531,3.085938,7.582031,-0.052734,0.455078,-0.164062,0.285767,0.397644,0.038818,0.871033,down
64173,6.730469,3.085938,7.617187,-0.052734,0.455078,-0.164062,0.286194,0.396545,0.039246,0.871399,down
64178,6.691406,3.085938,7.699219,-0.128906,0.470703,-0.160156,0.286194,0.396545,0.039246,0.871399,down
64184,6.574219,3.085938,7.84375,-0.128906,0.470703,-0.160156,0.287354,0.393127,0.040039,0.872498,down
64189,6.421875,3.046875,7.964844,-0.128906,0.470703,-0.160156,0.287842,0.392029,0.0401,0.872864,down
64194,6.421875,3.046875,7.964844,-0.306641,0.482422,-0.167969,0.288391,0.390686,0.040039,0.87323,down
64200,6.269531,3.085938,8.113281,-0.306641,0.482422,-0.167969,0.289063,0.389404,0.039795,0.873657,down
64207,6.230469,3.046875,8.152344,-0.410156,0.472656,-0.181641,0.289063,0.389404,0.039795,0.873657,down
64212,6.191406,3.007813,8.191406,-0.460937,0.458984,-0.197266,0.289063,0.389404,0.039795,0.873657,down
64218,6.117187,3.007813,8.1875,-0.511719,0.439453,-0.210937,0.289063,0.389404,0.039795,0.873657,down
64223,6.117187,2.894531,8.34375,-0.511719,0.439453,-0.210937,0.292297,0.383911,0.037964,0.875061,down
64228,6.078125,2.816406,8.386719,-0.625,0.363281,-0.244141,0.292297,0.383911,0.037964,0.875061,down
64233,6.039062,2.742188,8.425781,-0.625,0.363281,-0.244141,0.294495,0.381165,0.036438,0.87561,down
64238,5.925781,2.742188,8.382813,-0.625,0.363281,-0.244141,0.296631,0.378662,0.034851,0.876038,down
64243,5.886719,2.703125,8.464844,-0.625,0.363281,-0.244141,0.296631,0.378662,0.034851,0.876038,down
64248,5.886719,2.625,8.421875,-0.570312,0.324219,-0.259766,0.296631,0.378662,0.034851,0.876038,down
64253,5.925781,2.550781,8.460938,-0.570312,0.324219,-0.259766,0.299866,0.375,0.032532,0.876587,down
64258,5.925781,2.511719,8.464844,-0.570312,0.324219,-0.259766,0.300964,0.37384,0.03186,0.87677,down
64263,5.808594,2.433594,8.34375,-0.570312,0.324219,-0.259766,0.300964,0.37384,0.03186,0.87677,down
64268,5.734375,2.433594,8.34375,-0.542969,0.341797,-0.289063,0.300964,0.37384,0.03186,0.87677,down
64273,5.734375,2.398438,8.226563,-0.542969,0.341797,-0.289063,0.303101,0.371399,0.030518,0.877075,down
64278,5.734375,2.398438,8.226563,-0.535156,0.339844,-0.302734,0.303101,0.371399,0.030518,0.877075,down
64283,5.695312,2.433594,8.191406,-0.535156,0.339844,-0.302734,0.304199,0.370178,0.029907,0.877197,down
64288,5.542969,2.664063,8.148438,-0.492187,0.355469,-0.357422,0.306519,0.367798,0.028809,0.877441,down
64293,5.542969,2.664063,8.148438,-0.492187,0.355469,-0.357422,0.306519,0.367798,0.028809,0.877441,down
64298,5.464844,2.742188,8.148438,-0.46875,0.351563,-0.382813,0.309021,0.365479,0.027954,0.877563,down
64304,5.503906,2.742188,8.109375,-0.423828,0.277344,-0.412109,0.311584,0.363525,0.027344,0.877502,down
64310,5.425781,2.78125,7.804687,-0.423828,0.277344,-0.412109,0.312805,0.362671,0.026978,0.877441,down
64315,5.464844,2.703125,7.769531,-0.416016,0.091797,-0.390625,0.314026,0.362,0.02655,0.877258,down
64320,5.542969,2.816406,7.730469,-0.423828,-0.007813,-0.357422,0.314026,0.362,0.02655,0.877258,down
64326,5.695312,2.703125,7.65625,-0.427734,-0.105469,-0.330078,0.314026,0.362,0.02655,0.877258,down
64332,5.695312,2.742188,7.539062,-0.419922,-0.181641,-0.304688,0.314026,0.362,0.02655,0.877258,down
64337,5.808594,2.742188,7.304687,-0.400391,-0.234375,-0.289063,0.314026,0.362,0.02655,0.877258,down
64343,5.925781,2.816406,7.15625,-0.378906,-0.28125,-0.273438,0.314026,0.362,0.02655,0.877258,down
64348,5.964844,2.816406,7.160156,-0.353516,-0.320313,-0.253906,0.320313,0.361816,0.022278,0.875183,down
64353,6.039062,2.855469,7.0,-0.353516,-0.320313,-0.253906,0.321289,0.362183,0.021484,0.874695,down
64358,6.039062,2.855469,6.855469,-0.335938,-0.298828,-0.259766,0.322083,0.362549,0.020752,0.874268,down
64363,6.078125,2.894531,6.695312,-0.335938,-0.298828,-0.259766,0.322998,0.362915,0.02002,0.873779,down
64368,6.078125,2.933594,6.695312,-0.335938,-0.298828,-0.259766,0.323853,0.363281,0.019348,0.873352,down
64373,6.078125,2.933594,6.660156,-0.322266,-0.277344,-0.263672,0.323853,0.363281,0.019348,0.873352,down
64378,6.078125,2.933594,6.582031,-0.3125,-0.267578,-0.244141,0.323853,0.363281,0.019348,0.873352,down
64384,6.0,2.933594,6.507812,-0.3125,-0.267578,-0.244141,0.327271,0.364502,0.016602,0.871643,down
64390,6.039062,2.933594,6.46875,-0.300781,-0.255859,-0.210937,0.328003,0.364807,0.01593,0.871277,down
64395,6.039062,2.933594,6.433594,-0.300781,-0.255859,-0.210937,0.328674,0.365051,0.015381,0.870911,down
64401,6.0,2.894531,6.351562,-0.300781,-0.255859,-0.210937,0.329285,0.365356,0.014771,0.870544,down
64406,6.0,2.933594,6.394531,-0.257813,-0.271484,-0.154297,0.329285,0.365356,0.014771,0.870544,down
64412,5.964844,2.855469,6.351562,-0.248047,-0.275391,-0.132812,0.330444,0.366028,0.013489,0.869873,down
64418,6.039062,2.816406,6.355469,-0.242187,-0.289063,-0.103516,0.330444,0.366028,0.013489,0.869873,down
64423,6.0,2.816406,6.234375,-0.236328,-0.283203,-0.074219,0.330444,0.366028,0.013489,0.869873,down
64428,6.039062,2.742188,6.238281,-0.236328,-0.283203,-0.074219,0.331665,0.367249,0.011536,0.868896,down
64434,6.039062,2.742188,6.238281,-0.234375,-0.289063,-0.044922,0.331665,0.367249,0.011536,0.868896,down
64439,6.078125,2.816406,6.199219,-0.220703,-0.300781,-0.035156,0.332581,0.36853,0.009521,0.868042,down
64444,6.078125,2.78125,6.238281,-0.167969,-0.298828,-0.027344,0.332581,0.36853,0.009521,0.868042,down
64449,6.117187,2.703125,6.195312,-0.167969,-0.298828,-0.027344,0.333008,0.369507,0.008362,0.867493,down
64454,6.078125,2.78125,6.121094,-0.167969,-0.298828,-0.027344,0.333008,0.369507,0.008362,0.867493,down
64459,6.15625,2.78125,6.121094,-0.056641,-0.285156,-0.033203,0.33313,0.369995,0.007935,0.867249,down
64464,6.15625,2.742188,6.121094,-0.056641,-0.285156,-0.033203,0.333374,0.371094,0.007324,0.866638,down
64469,6.1875,2.78125,6.160156,-0.056641,-0.285156,-0.033203,0.333374,0.371094,0.007324,0.866638,down
64474,6.191406,2.816406,6.160156,-0.056641,-0.285156,-0.033203,0.333435,0.37207,0.00708,0.866211,down
64479,6.226562,2.855469,6.199219,0.068359,-0.171875,-0.041016,0.333435,0.37207,0.00708,0.866211,down
64484,6.15625,2.894531,6.160156,0.068359,-0.171875,-0.041016,0.333496,0.372559,0.007141,0.865967,down
64489,6.078125,3.007813,6.160156,0.078125,-0.148437,-0.029297,0.333496,0.372559,0.007141,0.865967,down
64494,6.117187,3.007813,6.238281,0.072266,-0.119141,-0.029297,0.333435,0.37323,0.007324,0.865723,down
64499,6.039062,3.046875,6.234375,0.072266,-0.119141,-0.029297,0.333374,0.37384,0.007507,0.865479,down
64504,6.0,3.164063,6.238281,0.072266,-0.119141,-0.029297,0.333374,0.37384,0.007507,0.865479,down
64509,6.0,3.164063,6.277344,0.072266,-0.119141,-0.029297,0.333252,0.37439,0.007629,0.865295,down
64514,6.039062,3.125,6.3125,0.072266,-0.119141,-0.029297,0.333252,0.37439,0.007629,0.865295,down
64519,6.039062,3.164063,6.3125,-0.013672,-0.134766,0.037109,0.333252,0.37439,0.007629,0.865295,down
64525,6.078125,3.046875,6.316406,-0.013672,-0.134766,0.037109,0.333008,0.375244,0.007324,0.865051,down
64530,6.15625,2.933594,6.3125,-0.013672,-0.134766,0.037109,0.332886,0.375427,0.00708,0.86499,down
64535,6.15625,2.933594,6.3125,-0.066406,-0.146484,0.074219,0.332764,0.375671,0.006775,0.864929,down
64541,6.191406,2.816406,6.277344,-0.066406,-0.146484,0.074219,0.332642,0.375916,0.006531,0.864868,down
64546,6.191406,2.742188,6.273437,-0.066406,-0.146484,0.074219,0.33252,0.37616,0.006226,0.864807,down
64552,6.230469,2.742188,6.316406,-0.021484,-0.113281,0.087891,0.33252,0.37616,0.006226,0.864807,down
64557,6.191406,2.664063,6.355469,0.0,-0.09375,0.089844,0.33252,0.37616,0.006226,0.864807,down
64563,6.269531,2.664063,6.394531,0.070312,-0.052734,0.064453,0.33252,0.37616,0.006226,0.864807,down
64568,6.269531,2.703125,6.433594,0.070312,-0.052734,0.064453,0.331665,0.376892,0.005737,0.864807,down
64574,6.308594,2.703125,6.46875,0.099609,-0.009766,0.054687,0.331665,0.376892,0.005737,0.864807,down
64579,6.308594,2.703125,6.621094,0.126953,0.021484,0.050781,0.331665,0.376892,0.005737,0.864807,down
64584,6.308594,2.78125,6.660156,0.119141,0.070312,0.042969,0.330933,0.377075,0.006409,0.865051,down
64589,6.308594,2.78125,6.738281,0.119141,0.070312,0.042969,0.330688,0.377014,0.006714,0.865112,down
64594,6.230469,2.742188,6.773437,0.119141,0.070312,0.042969,0.330444,0.376892,0.007019,0.865295,down
64599,6.15625,2.703125,6.851562,0.070312,0.085937,0.027344,0.330444,0.376892,0.007019,0.865295,down
64604,6.191406,2.664063,6.925781,-0.015625,0.080078,0.023437,0.3302,0.376587,0.007446,0.865479,down
64609,6.191406,2.625,6.890625,-0.015625,0.080078,0.023437,0.330017,0.37616,0.007507,0.865723,down
64614,6.191406,2.589844,6.921875,-0.087891,0.050781,0.029297,0.330017,0.37616,0.007507,0.865723,down
64619,6.269531,2.511719,6.960937,-0.087891,0.050781,0.029297,0.330017,0.375793,0.007263,0.865906,down
64624,6.230469,2.550781,7.039062,-0.087891,0.050781,0.029297,0.330017,0.375793,0.007263,0.865906,down
64629,6.230469,2.511719,7.003906,-0.142578,0.044922,0.013672,0.330017,0.375793,0.007263,0.865906,down
64634,6.269531,2.511719,7.078125,-0.142578,0.044922,0.013672,0.3302,0.375122,0.00647,0.86615,down
64639,6.269531,2.472656,7.117187,-0.142578,0.044922,0.013672,0.330322,0.374878,0.006287,0.866211,down
64644,6.347656,2.472656,7.238281,-0.142578,0.044922,0.013672,0.330322,0.374878,0.006287,0.866211,down
64649,6.347656,2.472656,7.277344,-0.076172,0.087891,-0.005859,0.330322,0.374878,0.006287,0.866211,down
64654,6.347656,2.472656,7.304687,-0.076172,0.087891,-0.005859,0.330444,0.374329,0.006042,0.866394,down
64660,6.347656,2.472656,7.277344,-0.072266,0.101563,-0.007813,0.330566,0.373718,0.005981,0.866638,down
64665,6.308594,2.433594,7.277344,-0.056641,0.111328,-0.007813,0.330627,0.373413,0.005981,0.86676,down
64670,6.269531,2.433594,7.238281,-0.056641,0.111328,-0.007813,0.330627,0.373108,0.005981,0.866882,down
64675,6.230469,2.433594,7.15625,-0.044922,0.082031,-0.001953,0.330627,0.373108,0.005981,0.866882,down
64680,6.269531,2.359375,7.160156,-0.044922,0.082031,-0.001953,0.330688,0.37262,0.00592,0.867065,down
64685,6.347656,2.359375,7.15625,-0.044922,0.082031,-0.001953,0.330688,0.372437,0.005859,0.867126,down
64690,6.308594,2.359375,7.195312,-0.044922,0.082031,-0.001953,0.330688,0.372314,0.005798,0.867187,down
64695,6.308594,2.398438,7.121094,-0.044922,0.082031,-0.001953,0.330627,0.372253,0.005798,0.867249,down
64700,6.308594,2.398438,7.121094,0.005859,0.029297,0.019531,0.330566,0.372131,0.005798,0.86731,down
64705,6.308594,2.472656,7.117187,0.005859,0.029297,0.019531,0.330444,0.37207,0.00592,0.867371,down
64710,6.347656,2.472656,7.160156,0.005859,0.029297,0.019531,0.330383,0.371948,0.006042,0.867432,down
64715,6.347656,2.550781,7.078125,0.070312,0.082031,-0.003906,0.330383,0.371948,0.006042,0.867432,down
64720,6.347656,2.550781,7.078125,0.058594,0.09375,-0.015625,0.330261,0.371643,0.006531,0.867615,down
64726,6.308594,2.664063,7.160156,0.058594,0.09375,-0.015625,0.330261,0.37146,0.006775,0.867676,down
64732,6.347656,2.625,7.199219,-0.003906,0.123047,-0.025391,0.330261,0.37146,0.006775,0.867676,down
64737,6.382812,2.625,7.195312,-0.035156,0.123047,-0.027344,0.330261,0.37146,0.006775,0.867676,down
64742,6.308594,2.625,7.238281,-0.064453,0.138672,-0.029297,0.330261,0.37146,0.006775,0.867676,down
64748,6.308594,2.550781,7.195312,-0.087891,0.140625,-0.039063,0.330261,0.37146,0.006775,0.867676,down
64753,6.230469,2.589844,7.160156,-0.101563,0.130859,-0.025391,0.330261,0.37146,0.006775,0.867676,down
64758,6.230469,2.550781,7.199219,-0.113281,0.115234,-0.009766,0.330261,0.37146,0.006775,0.867676,down
64763,6.269531,2.511719,7.199219,-0.113281,0.115234,-0.009766,0.330261,0.37146,0.006775,0.867676,down
64768,6.308594,2.472656,7.15625,-0.113281,0.115234,-0.009766,0.330933,0.368713,0.006653,0.868591,down
64773,6.269531,2.433594,7.195312,-0.058594,0.080078,0.007813,0.330933,0.368713,0.006653,0.868591,down
64779,6.269531,2.511719,7.117187,-0.015625,0.080078,0.015625,0.330872,0.368042,0.006714,0.868896,down
64784,6.269531,2.511719,7.117187,-0.015625,0.080078,0.015625,0.330872,0.368042,0.006714,0.868896,down
64790,6.269531,2.589844,7.078125,0.166016,0.089844,0.021484,0.330872,0.368042,0.006714,0.868896,down
64795,6.269531,2.589844,7.078125,0.191406,0.095703,0.029297,0.330322,0.367737,0.007751,0.869263,down
64801,6.269531,2.933594,7.082031,0.191406,0.095703,0.029297,0.330078,0.367615,0.00824,0.869385,down
64806,6.269531,3.007813,7.121094,0.195312,0.103516,0.029297,0.330078,0.367615,0.00824,0.869385,down
64811,6.269531,3.046875,7.15625,0.164062,0.09375,0.033203,0.330078,0.367615,0.00824,0.869385,down
64817,6.269531,3.007813,7.160156,0.164062,0.09375,0.033203,0.329346,0.367371,0.009644,0.869751,down
64822,6.230469,2.933594,7.15625,0.054687,0.097656,0.041016,0.329346,0.367371,0.009644,0.869751,down
64827,6.15625,2.894531,7.238281,-0.001953,0.085937,0.041016,0.329346,0.367371,0.009644,0.869751,down
64833,6.191406,2.855469,7.195312,-0.060547,0.080078,0.054687,0.329346,0.367371,0.009644,0.869751,down
64839,6.117187,2.742188,7.277344,-0.060547,0.080078,0.054687,0.328857,0.366577,0.009766,0.870239,down
64845,6.191406,2.78125,7.308594,-0.125,0.074219,0.083984,0.328857,0.366577,0.009766,0.870239,down
64850,6.15625,2.742188,7.347656,-0.125,0.074219,0.083984,0.328613,0.365723,0.008972,0.870728,down
64855,6.117187,2.742188,7.304687,-0.125,0.074219,0.083984,0.328491,0.36554,0.008789,0.87085,down
64860,6.15625,2.742188,7.347656,-0.037109,0.064453,0.095703,0.328491,0.36554,0.008789,0.87085,down
64865,6.117187,2.742188,7.347656,-0.037109,0.064453,0.095703,0.328125,0.365112,0.008606,0.871155,down
64871,6.117187,2.625,7.347656,-0.037109,0.064453,0.095703,0.327881,0.36499,0.008667,0.871338,down
64876,6.15625,2.625,7.347656,0.0625,0.066406,0.097656,0.327576,0.364807,0.008728,0.871521,down
64881,6.15625,2.625,7.304687,0.068359,0.070312,0.101563,0.327576,0.364807,0.008728,0.871521,down
64886,6.117187,2.625,7.304687,0.066406,0.068359,0.107422,0.327576,0.364807,0.008728,0.871521,down
64891,6.15625,2.589844,7.425781,0.066406,0.068359,0.107422,0.326721,0.364502,0.009155,0.871948,down
64896,6.117187,2.625,7.386719,0.044922,0.064453,0.109375,0.326416,0.36438,0.009216,0.872131,down
64901,6.078125,2.589844,7.425781,0.033203,0.070312,0.111328,0.326416,0.36438,0.009216,0.872131,down
64907,6.078125,2.589844,7.382812,0.033203,0.070312,0.111328,0.326416,0.36438,0.009216,0.872131,down
64913,6.0,2.589844,7.425781,0.033203,0.070312,0.111328,0.325562,0.363953,0.009338,0.87262,down
64918,6.0,2.589844,7.5,0.001953,0.066406,0.099609,0.325562,0.363953,0.009338,0.87262,down
64923,5.964844,2.511719,7.421875,-0.007813,0.0625,0.091797,0.325562,0.363953,0.009338,0.87262,down
64928,6.039062,2.472656,7.425781,-0.007813,0.0625,0.091797,0.325562,0.363953,0.009338,0.87262,down
64933,6.039062,2.433594,7.386719,-0.007813,0.0625,0.091797,0.324646,0.363342,0.009216,0.87323,down
64939,6.039062,2.433594,7.386719,0.0,0.021484,0.087891,0.324646,0.363342,0.009216,0.87323,down
64944,6.078125,2.472656,7.382812,0.003906,0.027344,0.087891,0.32428,0.363159,0.009094,0.873413,down
64949,6.078125,2.472656,7.382812,0.003906,0.027344,0.087891,0.324036,0.363098,0.009033,0.873535,down
64955,6.078125,2.511719,7.382812,0.027344,0.03125,0.099609,0.324036,0.363098,0.009033,0.873535,down
64960,6.078125,2.664063,7.421875,0.027344,0.03125,0.099609,0.323303,0.362854,0.009033,0.873901,down
64965,6.117187,2.703125,7.421875,0.029297,0.041016,0.119141,0.322937,0.362793,0.009033,0.874084,down
64970,6.039062,2.78125,7.421875,0.033203,0.044922,0.123047,0.322937,0.362793,0.009033,0.874084,down
64975,6.078125,2.816406,7.460937,0.033203,0.044922,0.123047,0.322327,0.36261,0.009094,0.87439,down
64981,6.0,2.855469,7.5,0.013672,0.027344,0.144531,0.32196,0.362549,0.009033,0.874512,down
64986,6.0,2.816406,7.5,-0.013672,0.019531,0.166016,0.321594,0.362488,0.008972,0.874695,down
64992,6.0,2.78125,7.542969,-0.013672,0.019531,0.166016,0.321228,0.362427,0.008789,0.874817,down
64997,6.078125,2.703125,7.542969,-0.013672,0.019531,0.166016,0.320862,0.362427,0.008484,0.875,down
65003,6.117187,2.664063,7.464844,-0.111328,-0.03125,0.1875,0.320862,0.362427,0.008484,0.875,down
65008,6.117187,2.625,7.421875,-0.146484,-0.039063,0.191406,0.320862,0.362427,0.008484,0.875,down
65014,6.117187,2.589844,7.308594,-0.164062,-0.039063,0.193359,0.320862,0.362427,0.008484,0.875,down
65019,6.15625,2.511719,7.34375,-0.189453,-0.050781,0.1875,0.320862,0.362427,0.008484,0.875,down
65025,6.117187,2.511719,7.382812,-0.199219,-0.044922,0.191406,0.320862,0.362427,0.008484,0.875,down
65031,6.078125,2.511719,7.34375,-0.199219,-0.044922,0.191406,0.318909,0.362061,0.004578,0.875916,down
65036,6.0,2.433594,7.347656,-0.195312,-0.037109,0.193359,0.318665,0.362,0.004028,0.876038,down
65042,5.886719,2.433594,7.273437,-0.195312,-0.037109,0.193359,0.318359,0.361877,0.003418,0.87616,down
65049,5.847656,2.320313,7.347656,-0.175781,-0.023437,0.199219,0.318359,0.361877,0.003418,0.87616,down
65055,5.886719,2.242188,7.34375,-0.171875,-0.025391,0.193359,0.318359,0.361877,0.003418,0.87616,down
65060,5.925781,2.207031,7.382812,-0.171875,-0.025391,0.193359,0.3172,0.361511,0.00116,0.876709,down
65065,6.0,2.128906,7.425781,-0.164062,-0.027344,0.197266,0.3172,0.361511,0.00116,0.876709,down
65070,6.0,2.128906,7.425781,-0.164062,-0.027344,0.197266,0.316589,0.361389,0.000122,0.877014,down
65075,5.964844,2.015625,7.308594,-0.164062,-0.027344,0.197266,0.316589,0.361389,0.000122,0.877014,down
65080,5.886719,1.976563,7.304687,-0.126953,-0.097656,0.251953,0.316589,0.361389,0.000122,0.877014,down
65085,5.886719,1.898438,7.34375,-0.089844,-0.121094,0.267578,0.315796,0.361511,-0.001038,0.877258,down
65091,5.847656,2.050781,7.199219,-0.089844,-0.121094,0.267578,0.314758,0.361816,-0.002014,0.877502,down
65096,5.847656,2.050781,7.199219,-0.001953,-0.162109,0.308594,0.314087,0.362183,-0.002441,0.877625,down
65101,5.847656,2.050781,7.199219,-0.001953,-0.162109,0.308594,0.313293,0.36261,-0.002808,0.877686,down
65108,5.886719,2.167969,7.347656,-0.001953,-0.162109,0.308594,0.312561,0.363098,-0.003052,0.877747,down
65113,5.925781,2.242188,7.277344,0.171875,-0.275391,0.363281,0.312561,0.363098,-0.003052,0.877747,down
65118,5.964844,2.320313,7.277344,0.203125,-0.296875,0.380859,0.312561,0.363098,-0.003052,0.877747,down
65123,6.117187,2.433594,7.238281,0.212891,-0.333984,0.386719,0.312561,0.363098,-0.003052,0.877747,down
65129,6.078125,2.472656,7.078125,0.201172,-0.345703,0.421875,0.312561,0.363098,-0.003052,0.877747,down
65135,6.117187,2.550781,6.921875,0.082031,-0.359375,0.46875,0.312561,0.363098,-0.003052,0.877747,down
65140,6.039062,2.398438,6.777344,0.082031,-0.359375,0.46875,0.306213,0.368042,-0.004272,0.87793,down
65145,6.078125,2.359375,6.738281,-0.125,-0.441406,0.513672,0.304993,0.368896,-0.004944,0.877991,down
65150,6.078125,2.320313,6.773437,-0.125,-0.441406,0.513672,0.303894,0.369751,-0.00592,0.877991,down
65155,6.117187,2.242188,6.621094,-0.125,-0.441406,0.513672,0.302856,0.370605,-0.007141,0.877991,down
65160,6.117187,2.167969,6.539062,-0.373047,-0.441406,0.548828,0.301147,0.371887,-0.010437,0.877991,down
65165,6.078125,1.785156,6.273437,-0.373047,-0.441406,0.548828,0.301147,0.371887,-0.010437,0.877991,down
65170,6.039062,1.667969,6.199219,-0.636719,-0.365234,0.572266,0.301147,0.371887,-0.010437,0.877991,down
65175,5.964844,1.476563,6.238281,-0.636719,-0.365234,0.572266,0.299744,0.372681,-0.014404,0.878113,down
65180,6.191406,1.246094,6.238281,-0.603516,-0.279297,0.560547,0.299072,0.372925,-0.016602,0.878174,down
65185,6.230469,1.171875,6.273437,-0.603516,-0.279297,0.560547,0.298401,0.373108,-0.018555,0.878296,down
65190,6.308594,1.171875,6.3125,-0.419922,-0.140625,0.53125,0.297607,0.373169,-0.020691,0.878479,down
65195,6.230469,1.285156,6.394531,-0.419922,-0.140625,0.53125,0.296814,0.373169,-0.022339,0.878723,down
65200,6.421875,1.132813,6.542969,-0.419922,-0.140625,0.53125,0.296021,0.373108,-0.023621,0.878967,down
65206,6.460937,1.019531,6.617187,-0.054687,0.076172,0.451172,0.295044,0.372986,-0.02478,0.879333,down
65211,6.308594,1.054688,6.894531,-0.054687,0.076172,0.451172,0.293213,0.372559,-0.025696,0.880127,down
65217,6.382812,1.246094,7.234375,-0.054687,0.076172,0.451172,0.292236,0.372375,-0.025635,0.880493,down
65222,6.382812,1.324219,7.195312,0.349609,0.152344,0.347656,0.292236,0.372375,-0.025635,0.880493,down
65228,6.308594,1.4375,7.117187,0.431641,0.177734,0.310547,0.292236,0.372375,-0.025635,0.880493,down
65233,6.191406,1.324219,7.039062,0.431641,0.177734,0.310547,0.289001,0.37207,-0.023621,0.881775,down
65238,6.15625,1.285156,7.0,0.509766,0.1875,0.228516,0.289001,0.37207,-0.023621,0.881775,down
65243,6.117187,1.4375,7.15625,0.505859,0.169922,0.207031,0.289001,0.37207,-0.023621,0.881775,down
65248,6.117187,1.628906,7.273437,0.494141,0.111328,0.191406,0.289001,0.37207,-0.023621,0.881775,down
65253,6.078125,1.628906,7.199219,0.494141,0.111328,0.191406,0.285217,0.37207,-0.019531,0.883118,down
65258,6.039062,1.667969,7.039062,0.400391,0.085937,0.173828,0.284424,0.372131,-0.018677,0.883301,down
65264,6.0,1.628906,6.890625,0.335938,0.078125,0.171875,0.284424,0.372131,-0.018677,0.883301,down
65270,5.925781,1.554688,6.964844,0.253906,0.070312,0.183594,0.284424,0.372131,-0.018677,0.883301,down
65275,5.964844,1.515625,7.15625,0.205078,0.044922,0.179687,0.284424,0.372131,-0.018677,0.883301,down
65280,6.0,1.59375,7.308594,0.21875,-0.039063,0.173828,0.284424,0.372131,-0.018677,0.883301,down
65285,5.964844,1.667969,7.304687,0.21875,-0.039063,0.173828,0.281189,0.372498,-0.016357,0.884277,down
65290,5.964844,1.476563,7.347656,0.21875,-0.039063,0.173828,0.280579,0.372803,-0.015991,0.884338,down
65295,6.0,1.363281,7.5,0.267578,-0.121094,0.166016,0.280579,0.372803,-0.015991,0.884338,down
65300,6.078125,1.324219,7.582031,0.306641,-0.185547,0.140625,0.278687,0.37439,-0.014771,0.884277,down
65305,6.191406,1.363281,7.695312,0.306641,-0.185547,0.140625,0.278687,0.37439,-0.014771,0.884277,down
65310,6.191406,1.363281,7.660156,0.306641,-0.185547,0.140625,0.278015,0.375244,-0.014099,0.884155,down
65316,6.191406,1.363281,7.621094,0.464844,-0.326172,-0.007813,0.278015,0.375244,-0.014099,0.884155,down
65321,6.191406,1.4375,7.542969,0.464844,-0.326172,-0.007813,0.276672,0.378052,-0.011902,0.883423,down
65326,6.15625,1.4375,7.460937,0.464844,-0.326172,-0.007813,0.276367,0.379272,-0.010925,0.882996,down
65331,6.117187,1.4375,7.460937,0.443359,-0.324219,-0.130859,0.276367,0.379272,-0.010925,0.882996,down
65336,6.039062,1.554688,7.421875,0.443359,-0.324219,-0.130859,0.276062,0.381165,-0.009216,0.882263,down
65342,5.925781,1.554688,7.464844,0.443359,-0.324219,-0.130859,0.276062,0.38208,-0.008484,0.881897,down
65347,5.886719,1.554688,7.578125,0.257813,-0.330078,-0.179687,0.276062,0.38208,-0.008484,0.881897,down
65353,5.847656,1.59375,7.582031,0.201172,-0.357422,-0.191406,0.276062,0.38208,-0.008484,0.881897,down
65358,5.886719,1.59375,7.464844,0.142578,-0.392578,-0.207031,0.27655,0.384888,-0.007019,0.880554,down
65363,5.886719,1.59375,7.582031,0.080078,-0.416016,-0.220703,0.27655,0.384888,-0.007019,0.880554,down
65369,6.0,1.515625,7.660156,0.039063,-0.431641,-0.246094,0.27655,0.384888,-0.007019,0.880554,down
65374,6.039062,1.402344,7.578125,0.039063,-0.431641,-0.246094,0.277893,0.387878,-0.006775,0.878784,down
65380,6.117187,1.363281,7.5,0.039063,-0.431641,-0.246094,0.279236,0.389709,-0.006836,0.877563,down
65385,6.117187,1.402344,7.5,0.039063,-0.431641,-0.246094,0.279236,0.389709,-0.006836,0.877563,down
65390,6.117187,1.402344,7.539062,-0.048828,-0.433594,-0.451172,0.279236,0.389709,-0.006836,0.877563,down
65395,6.15625,1.402344,7.425781,-0.048828,-0.433594,-0.451172,0.281006,0.391602,-0.006836,0.87616,down
65401,6.0,1.4375,7.273437,-0.048828,-0.433594,-0.451172,0.283203,0.393372,-0.006653,0.874634,down
65406,5.925781,1.515625,7.277344,-0.060547,-0.402344,-0.548828,0.283203,0.393372,-0.006653,0.874634,down
65411,5.964844,1.59375,7.238281,-0.060547,-0.402344,-0.548828,0.285767,0.395081,-0.006409,0.873047,down
65416,5.886719,1.554688,7.199219,-0.060547,-0.402344,-0.548828,0.286987,0.395813,-0.006287,0.872314,down
65421,5.847656,1.59375,7.304687,-0.164062,-0.423828,-0.582031,0.286987,0.395813,-0.006287,0.872314,down
65426,5.808594,1.554688,7.347656,-0.208984,-0.439453,-0.580078,0.288513,0.396667,-0.006287,0.871399,down
65431,5.734375,1.59375,7.382812,-0.208984,-0.439453,-0.580078,0.291321,0.398254,-0.006653,0.869751,down
65436,5.695312,1.476563,7.277344,-0.306641,-0.478516,-0.583984,0.291321,0.398254,-0.006653,0.869751,down
65441,5.734375,1.363281,7.273437,-0.306641,-0.478516,-0.583984,0.292969,0.399109,-0.007019,0.868774,down
65446,5.773437,1.210938,7.382812,-0.326172,-0.501953,-0.59375,0.292969,0.399109,-0.007019,0.868774,down
65452,5.734375,1.210938,7.34375,-0.326172,-0.501953,-0.59375,0.297607,0.401672,-0.008301,0.866028,down
65457,5.734375,1.210938,7.34375,-0.232422,-0.544922,-0.632812,0.299255,0.402649,-0.008606,0.86499,down
65462,5.734375,1.210938,7.234375,-0.232422,-0.544922,-0.632812,0.300781,0.403687,-0.008789,0.864014,down
65469,5.65625,1.285156,7.15625,-0.232422,-0.544922,-0.632812,0.302307,0.404724,-0.008789,0.862976,down
65474,5.65625,1.363281,7.15625,-0.021484,-0.541016,-0.705078,0.302307,0.404724,-0.008789,0.862976,down
65479,5.582031,1.515625,7.0,0.039063,-0.523437,-0.744141,0.302307,0.404724,-0.008789,0.862976,down
65484,5.582031,1.628906,7.003906,0.101563,-0.505859,-0.773437,0.302307,0.404724,-0.008789,0.862976,down
65489,5.503906,1.898438,7.078125,0.101563,-0.505859,-0.773437,0.302307,0.404724,-0.008789,0.862976,down
65494,5.464844,1.898438,7.039062,0.101563,-0.505859,-0.773437,0.31012,0.410583,-0.006226,0.857422,down
65499,5.464844,1.898438,7.039062,0.128906,-0.515625,-0.857422,0.311768,0.411804,-0.005432,0.856262,down
65504,5.464844,1.898438,7.039062,0.087891,-0.541016,-0.871094,0.313416,0.412964,-0.0047,0.855103,down
65509,5.351562,2.128906,7.003906,0.087891,-0.541016,-0.871094,0.313416,0.412964,-0.0047,0.855103,down
65514,5.351562,2.167969,6.964844,0.013672,-0.560547,-0.904297,0.317261,0.415405,-0.003662,0.852478,down
65519,5.351562,2.167969,6.964844,-0.177734,-0.601562,-0.949219,0.319397,0.416504,-0.003418,0.851196,down
65525,5.273437,2.089844,6.855469,-0.177734,-0.601562,-0.949219,0.321655,0.417603,-0.003357,0.849792,down
65531,5.195312,2.050781,6.890625,-0.388672,-0.628906,-1.044922,0.321655,0.417603,-0.003357,0.849792,down
65536,5.121094,2.015625,6.855469,-0.388672,-0.628906,-1.044922,0.329346,0.420715,-0.003906,0.845276,down
65541,5.082031,2.015625,6.816406,-0.388672,-0.628906,-1.044922,0.329346,0.420715,-0.003906,0.845276,down
65546,5.042969,2.089844,6.777344,-0.404297,-0.630859,-1.160156,0.332458,0.421814,-0.004089,0.843506,down
65551,5.003906,2.089844,6.695312,-0.404297,-0.630859,-1.160156,0.337891,0.423706,-0.004395,0.840393,down
65556,4.96875,2.167969,6.695312,-0.380859,-0.662109,-1.248047,0.337891,0.423706,-0.004395,0.840393,down
65561,5.003906,2.242188,6.65625,-0.380859,-0.662109,-1.248047,0.340942,0.424805,-0.004456,0.838623,down
65566,5.082031,2.242188,6.65625,-0.34375,-0.691406,-1.310547,0.340942,0.424805,-0.004456,0.838623,down
65571,5.160156,2.242188,6.65625,-0.34375,-0.691406,-1.310547,0.347107,0.427002,-0.004333,0.834961,down
65576,5.3125,2.320313,6.660156,-0.34375,-0.691406,-1.310547,0.353027,0.42926,-0.004028,0.831299,down
65582,5.65625,2.511719,6.429687,-0.34375,-0.691406,-1.310547,0.356262,0.430542,-0.003784,0.829285,down
65587,5.65625,2.664063,6.507812,-0.3125,-0.769531,-1.419922,0.359497,0.431824,-0.00354,0.827209,down
65592,5.695312,2.664063,6.429687,-0.357422,-0.785156,-1.433594,0.359497,0.431824,-0.00354,0.827209,down
65597,5.734375,2.703125,6.394531,-0.376953,-0.789062,-1.443359,0.359497,0.431824,-0.00354,0.827209,down
65603,5.773437,2.972656,6.234375,-0.376953,-0.789062,-1.443359,0.369507,0.435669,-0.003174,0.820801,down
65608,5.808594,2.972656,6.15625,-0.404297,-0.8125,-1.501953,0.372925,0.43689,-0.003113,0.818542,down
65613,5.847656,3.085938,6.15625,-0.404297,-0.8125,-1.501953,0.376831,0.438293,-0.003052,0.81604,down
65618,5.886719,3.277344,6.011719,-0.404297,-0.8125,-1.501953,0.380066,0.439453,-0.002991,0.813904,down
65623,5.773437,3.316406,5.890625,-0.414062,-0.824219,-1.5625,0.380066,0.439453,-0.002991,0.813904,down
65628,5.734375,3.394531,5.851562,-0.396484,-0.816406,-1.582031,0.380066,0.439453,-0.002991,0.813904,down
65633,5.617187,3.507813,5.738281,-0.396484,-0.816406,-1.582031,0.380066,0.439453,-0.002991,0.813904,down
65638,5.617187,3.507813,5.777344,-0.417969,-0.792969,-1.623047,0.380066,0.439453,-0.002991,0.813904,down
65643,5.695312,3.585938,5.707031,-0.447266,-0.783203,-1.638672,0.380066,0.439453,-0.002991,0.813904,down
65649,5.734375,3.8125,5.738281,-0.447266,-0.783203,-1.638672,0.4021,0.446655,-0.002075,0.799255,down
65655,5.734375,4.042969,5.8125,-0.501953,-0.736328,-1.662109,0.4021,0.446655,-0.002075,0.799255,down
65660,5.734375,4.042969,5.8125,-0.505859,-0.722656,-1.666016,0.409851,0.448547,-0.001831,0.79425,down
65665,5.695312,4.195312,5.929687,-0.541016,-0.708984,-1.681641,0.409851,0.448547,-0.001831,0.79425,down
65671,5.582031,4.503906,6.046875,-0.541016,-0.708984,-1.681641,0.417786,0.450195,-0.001709,0.789185,down
65676,5.542969,4.542969,6.046875,-0.716797,-0.732422,-1.693359,0.417786,0.450195,-0.001709,0.789185,down
65681,5.464844,4.390625,6.160156,-0.845703,-0.775391,-1.701172,0.430359,0.452148,-0.00293,0.78125,down
65686,5.386719,4.160156,6.273437,-0.845703,-0.775391,-1.701172,0.430359,0.452148,-0.00293,0.78125,down
65691,5.386719,4.121094,6.355469,-1.019531,-0.861328,-1.740234,0.435242,0.452698,-0.003784,0.778198,down
65696,5.351562,4.042969,6.472656,-1.019531,-0.861328,-1.740234,0.439636,0.453247,-0.0047,0.775391,down
65701,5.234375,4.121094,6.351562,-1.019531,-0.861328,-1.740234,0.444275,0.453796,-0.005676,0.772461,down
65707,5.351562,4.082031,6.429687,-0.929687,-0.912109,-1.792969,0.448364,0.454346,-0.00647,0.769714,down
65712,5.542969,4.121094,6.511719,-0.929687,-0.912109,-1.792969,0.457581,0.45575,-0.007996,0.763428,down
65717,5.582031,4.234375,6.46875,-0.753906,-0.884766,-1.830078,0.462097,0.456604,-0.008484,0.760254,down
65723,5.542969,4.695312,6.390625,-0.753906,-0.884766,-1.830078,0.465942,0.457397,-0.008667,0.757385,down
65728,5.503906,4.847656,6.316406,-0.542969,-0.912109,-1.880859,0.465942,0.457397,-0.008667,0.757385,down
65733,5.425781,5.039062,6.199219,-0.472656,-0.925781,-1.902344,0.465942,0.457397,-0.008667,0.757385,down
65738,5.425781,5.191406,6.160156,-0.472656,-0.925781,-1.902344,0.478333,0.460754,-0.008362,0.747559,down
65743,5.3125,5.347656,6.046875,-0.472656,-0.925781,-1.902344,0.478333,0.460754,-0.008362,0.747559,down
65748,5.3125,5.347656,6.046875,-0.525391,-0.96875,-1.955078,0.478333,0.460754,-0.008362,0.747559,down
65753,5.195312,5.230469,5.929687,-0.525391,-0.96875,-1.955078,0.478333,0.460754,-0.008362,0.747559,down
65758,5.195312,5.078125,5.894531,-0.525391,-0.96875,-1.955078,0.478333,0.460754,-0.008362,0.747559,down
65763,5.042969,5.0,5.933594,-0.757812,-1.009766,-2.03125,0.478333,0.460754,-0.008362,0.747559,down
65768,4.96875,4.886719,5.855469,-0.898437,-1.007813,-2.058594,0.500122,0.466064,-0.008423,0.729797,down
65774,5.273437,4.234375,6.011719,-0.898437,-1.007813,-2.058594,0.500122,0.466064,-0.008423,0.729797,down
65781,5.386719,4.195312,6.117187,-1.185547,-0.974609,-2.222656,0.500122,0.466064,-0.008423,0.729797,down
65786,5.386719,4.234375,6.277344,-1.115234,-0.935547,-2.318359,0.500122,0.466064,-0.008423,0.729797,down
65791,5.195312,4.195312,6.316406,-1.115234,-0.935547,-2.318359,0.526001,0.468018,-0.01178,0.710083,down
65796,5.121094,4.121094,6.355469,-1.115234,-0.935547,-2.318359,0.531616,0.468262,-0.012207,0.705627,down
65802,5.082031,4.160156,6.429687,-0.720703,-1.015625,-2.376953,0.531616,0.468262,-0.012207,0.705627,down
65808,5.042969,4.464844,6.390625,-0.720703,-1.015625,-2.376953,0.547119,0.470459,-0.012024,0.692261,down
65813,4.890625,4.808594,6.199219,-0.720703,-1.015625,-2.376953,0.551147,0.471558,-0.011597,0.688293,down
65818,4.890625,4.808594,6.199219,-0.279297,-1.208984,-2.339844,0.555969,0.473267,-0.010925,0.683228,down
65824,4.777344,5.078125,5.96875,-0.279297,-1.208984,-2.339844,0.559814,0.474915,-0.010376,0.678955,down
65829,4.738281,5.191406,5.855469,-0.279297,-1.208984,-2.339844,0.564453,0.477112,-0.009705,0.673523,down
65835,4.585937,5.421875,5.589844,-0.279297,-1.208984,-2.339844,0.564453,0.477112,-0.009705,0.673523,down
65840,4.585937,5.421875,5.589844,-0.189453,-1.466797,-2.28125,0.57196,0.481079,-0.00885,0.664307,down
65845,4.585937,5.421875,5.589844,-0.238281,-1.484375,-2.277344,0.57605,0.483276,-0.008545,0.65918,down
65850,4.621094,5.925781,5.242187,-0.238281,-1.484375,-2.277344,0.57605,0.483276,-0.008545,0.65918,down
65856,4.777344,6.113281,5.203125,-0.306641,-1.503906,-2.291016,0.584167,0.487244,-0.008362,0.649109,down
65861,4.8125,6.570312,5.050781,-0.523437,-1.458984,-2.330078,0.592896,0.490479,-0.008606,0.638611,down
65866,4.929687,6.839844,4.972656,-0.523437,-1.458984,-2.330078,0.592896,0.490479,-0.008606,0.638611,down
65871,4.96875,6.917969,4.933594,-0.523437,-1.458984,-2.330078,0.597473,0.491577,-0.008972,0.633423,down
65876,4.929687,7.074219,4.898437,-0.9375,-1.34375,-2.40625,0.597473,0.491577,-0.008972,0.633423,down
65881,4.851562,7.152344,4.742187,-1.091797,-1.306641,-2.435547,0.597473,0.491577,-0.008972,0.633423,down
65886,4.8125,7.152344,4.742187,-1.091797,-1.306641,-2.435547,0.61261,0.493286,-0.010803,0.617493,down
65891,4.777344,7.152344,4.742187,-1.091797,-1.306641,-2.435547,0.618469,0.493164,-0.011841,0.611694,down
65897,4.660156,7.035156,4.742187,-1.791016,-1.199219,-2.53125,0.618469,0.493164,-0.011841,0.611694,down
65902,4.394531,6.6875,4.898437,-1.791016,-1.199219,-2.53125,0.635559,0.490845,-0.015686,0.595703,down
65907,4.429687,6.570312,5.011719,-1.943359,-1.189453,-2.525391,0.635559,0.490845,-0.015686,0.595703,down
65912,4.394531,6.457031,5.164062,-1.943359,-1.189453,-2.525391,0.642212,0.489502,-0.017517,0.589661,down
65917,4.394531,6.304687,5.320312,-1.908203,-1.1875,-2.474609,0.642212,0.489502,-0.017517,0.589661,down
65922,4.507812,5.847656,5.546875,-1.908203,-1.1875,-2.474609,0.653748,0.486938,-0.020752,0.578857,down
65927,4.507812,5.847656,5.546875,-1.835938,-1.197266,-2.4375,0.659424,0.485657,-0.0224,0.573425,down
65932,4.546875,5.765625,5.703125,-1.835938,-1.197266,-2.4375,0.664917,0.484558,-0.023926,0.567932,down
65937,4.699219,5.730469,6.050781,-1.564453,-1.210938,-2.363281,0.670105,0.483643,-0.025391,0.562439,down
65942,4.585937,5.882812,6.121094,-1.34375,-1.207031,-2.332031,0.679749,0.482727,-0.027527,0.551514,down
65947,4.46875,5.996094,6.050781,-1.34375,-1.207031,-2.332031,0.679749,0.482727,-0.027527,0.551514,down
65952,4.394531,6.226562,6.007812,-0.792969,-1.193359,-2.294922,0.687988,0.483521,-0.028259,0.540466,down
65957,4.125,6.765625,5.855469,-0.792969,-1.193359,-2.294922,0.691284,0.484497,-0.028015,0.535278,down
65962,3.972656,6.953125,5.777344,-0.792969,-1.193359,-2.294922,0.69458,0.485962,-0.027527,0.529724,down
65967,3.78125,7.261719,5.664062,-0.792969,-1.193359,-2.294922,0.69458,0.485962,-0.027527,0.529724,down
65972,3.664063,7.683594,5.472656,0.003906,-1.207031,-2.339844,0.69458,0.485962,-0.027527,0.529724,down
65977,3.78125,7.800781,5.355469,0.003906,-1.207031,-2.339844,0.703613,0.490906,-0.02533,0.513123,down
65982,3.933594,7.917969,5.242187,-0.226562,-1.177734,-2.359375,0.703613,0.490906,-0.02533,0.513123,down
65987,4.164062,8.027344,5.203125,-0.457031,-1.146484,-2.376953,0.706909,0.49231,-0.024658,0.507263,down
65992,4.429687,8.371094,5.128906,-0.457031,-1.146484,-2.376953,0.713562,0.493713,-0.023987,0.49646,down
65997,4.507812,8.484375,5.089844,-0.960937,-1.09375,-2.4375,0.713562,0.493713,-0.023987,0.49646,down
66002,4.507812,8.484375,5.089844,-0.960937,-1.09375,-2.4375,0.717896,0.493652,-0.023987,0.490173,down
66007,4.546875,8.5625,5.011719,-1.242188,-1.068359,-2.478516,0.717896,0.493652,-0.023987,0.490173,down
66012,4.546875,8.5625,5.011719,-1.507813,-1.044922,-2.533203,0.72644,0.492065,-0.024658,0.479126,down
66017,4.699219,8.296875,4.898437,-1.507813,-1.044922,-2.533203,0.731567,0.490356,-0.02533,0.472961,down
66023,4.699219,7.683594,4.898437,-1.986328,-0.972656,-2.689453,0.742798,0.485596,-0.026917,0.460144,down
66028,4.621094,7.300781,5.011719,-1.986328,-0.972656,-2.689453,0.748596,0.482788,-0.027527,0.453613,down
66034,4.316406,7.148437,5.164062,-1.986328,-0.972656,-2.689453,0.753784,0.480164,-0.02771,0.447693,down
66039,4.316406,7.148437,5.164062,-1.902344,-0.591797,-2.994141,0.759766,0.477112,-0.027588,0.440857,down
66044,3.933594,7.148437,5.320312,-1.6875,-0.498047,-3.042969,0.759766,0.477112,-0.027588,0.440857,down
66049,3.816406,7.070312,5.511719,-1.6875,-0.498047,-3.042969,0.759766,0.477112,-0.027588,0.440857,down
66054,3.664063,7.222656,5.585937,-1.240234,-0.369141,-3.058594,0.759766,0.477112,-0.027588,0.440857,down
66059,3.511719,7.414062,5.625,-0.953125,-0.332031,-3.025391,0.759766,0.477112,-0.027588,0.440857,down
66065,3.242188,7.757812,5.855469,-0.953125,-0.332031,-3.025391,0.783325,0.467346,-0.020813,0.409302,down
66071,3.207031,7.914062,5.894531,-0.484375,-0.40625,-2.855469,0.783325,0.467346,-0.020813,0.409302,down
66077,3.167969,7.988281,5.777344,-0.3125,-0.576172,-2.625,0.783325,0.467346,-0.020813,0.409302,down
66082,3.128906,8.179688,5.703125,-0.3125,-0.576172,-2.625,0.793274,0.466248,-0.014954,0.391296,down
66087,3.128906,8.179688,5.703125,-0.357422,-0.677734,-2.519531,0.796204,0.466248,-0.013489,0.385315,down
66092,3.128906,8.261719,5.703125,-0.455078,-0.765625,-2.425781,0.799011,0.466187,-0.012451,0.3797,down
66097,3.128906,8.261719,5.703125,-0.572266,-0.898437,-2.369141,0.80188,0.465942,-0.011719,0.373779,down
66102,3.089844,8.601563,5.511719,-0.697266,-0.964844,-2.376953,0.80188,0.465942,-0.011719,0.373779,down
66107,2.976563,9.066406,5.394531,-0.697266,-0.964844,-2.376953,0.807556,0.465271,-0.010925,0.362244,down
66112,2.898438,8.988281,5.28125,-0.935547,-0.980469,-2.396484,0.814148,0.46344,-0.010803,0.349609,down
66117,2.785156,9.253906,5.128906,-0.935547,-0.980469,-2.396484,0.814148,0.46344,-0.010803,0.349609,down
66122,2.628906,9.484375,4.898437,-1.054688,-0.982422,-2.513672,0.814148,0.46344,-0.010803,0.349609,down
66127,2.59375,9.527344,4.820312,-1.054688,-0.982422,-2.513672,0.820557,0.460999,-0.010803,0.337708,down
66132,2.4375,9.597656,4.707031,-1.457031,-0.873047,-2.777344,0.820557,0.460999,-0.010803,0.337708,down
66137,2.554688,9.527344,4.859375,-1.457031,-0.873047,-2.777344,0.828247,0.457031,-0.010559,0.323975,down
66142,2.554688,9.597656,4.859375,-1.544922,-0.75,-2.875,0.831909,0.454834,-0.010315,0.317749,down
66147,2.324219,9.714844,4.898437,-1.544922,-0.75,-2.875,0.836304,0.451965,-0.009888,0.31012,down
66152,1.980469,9.9375,5.128906,-1.544922,-0.75,-2.875,0.840149,0.449402,-0.009338,0.303406,down
66158,1.863281,10.058594,5.28125,-1.447266,-0.652344,-2.761719,0.840149,0.449402,-0.009338,0.303406,down
66163,1.863281,10.058594,5.28125,-1.347656,-0.646484,-2.630859,0.847168,0.444519,-0.008179,0.290955,down
66168,1.824219,9.976563,5.320312,-1.230469,-0.632812,-2.472656,0.847168,0.444519,-0.008179,0.290955,down
66173,1.558594,9.636719,5.320312,-1.148438,-0.609375,-2.294922,0.847168,0.444519,-0.008179,0.290955,down
66178,1.519531,9.558594,5.394531,-1.080078,-0.591797,-2.095703,0.858643,0.43634,-0.00647,0.268799,down
66183,1.519531,9.527344,5.546875,-0.804687,-0.601562,-1.736328,0.858643,0.43634,-0.00647,0.268799,down
66188,1.441406,9.523438,5.546875,-0.804687,-0.601562,-1.736328,0.862854,0.433533,-0.006287,0.259888,down
66193,1.480469,9.554688,5.625,-0.804687,-0.601562,-1.736328,0.864258,0.432861,-0.006287,0.256104,down
66198,1.558594,9.59375,5.625,-0.164062,-0.675781,-1.402344,0.86554,0.432678,-0.006348,0.252136,down
66203,1.558594,9.59375,5.625,0.033203,-0.697266,-1.345703,0.866455,0.432922,-0.006348,0.248657,down
66208,1.671875,9.675781,5.546875,0.203125,-0.720703,-1.320313,0.866455,0.432922,-0.006348,0.248657,down
66213,1.75,9.75,5.433594,0.203125,-0.720703,-1.320313,0.867676,0.434631,-0.006348,0.24115,down
66219,1.824219,10.054688,5.242187,0.203125,-0.720703,-1.320313,0.867981,0.435852,-0.006226,0.237854,down
66224,1.789063,10.253906,5.089844,0.560547,-0.748047,-1.326172,0.868225,0.437317,-0.006104,0.234314,down
66230,1.75,10.632813,4.859375,0.560547,-0.748047,-1.326172,0.868347,0.438965,-0.00592,0.230713,down
66236,1.710938,10.824219,4.707031,0.53125,-0.755859,-1.324219,0.868347,0.438965,-0.00592,0.230713,down
66241,1.632813,11.015625,4.628906,0.425781,-0.75,-1.316406,0.868347,0.438965,-0.00592,0.230713,down
66247,1.632813,11.203125,4.4375,0.291016,-0.738281,-1.302734,0.868347,0.438965,-0.00592,0.230713,down
66253,1.671875,11.324219,4.398437,-0.041016,-0.720703,-1.25,0.868347,0.438965,-0.00592,0.230713,down
66258,1.632813,11.476563,4.359375,-0.041016,-0.720703,-1.25,0.870911,0.444641,-0.005981,0.209229,down
66263,1.671875,11.480469,4.324219,-0.041016,-0.720703,-1.25,0.870911,0.444641,-0.005981,0.209229,down
66268,1.671875,11.480469,4.324219,-0.041016,-0.720703,-1.25,0.870911,0.444641,-0.005981,0.209229,down
66273,1.632813,11.363281,4.398437,-0.589844,-0.697266,-1.111328,0.870911,0.444641,-0.005981,0.209229,down
66278,1.671875,11.207031,4.476562,-0.798828,-0.679687,-1.068359,0.875854,0.440796,-0.008301,0.19635,down
66284,1.75,10.332031,4.589844,-0.798828,-0.679687,-1.068359,0.877441,0.438843,-0.009155,0.193481,down
66289,1.789063,10.136719,4.667969,-1.154297,-0.617187,-0.910156,0.87915,0.436646,-0.010071,0.190674,down
66294,1.75,10.015625,4.707031,-1.111328,-0.570312,-0.855469,0.87915,0.436646,-0.010071,0.190674,down
66299,1.710938,10.015625,4.628906,-1.111328,-0.570312,-0.855469,0.882263,0.432434,-0.011719,0.185669,down
66306,1.632813,10.054688,4.707031,-1.111328,-0.570312,-0.855469,0.882263,0.432434,-0.011719,0.185669,down
66311,1.632813,10.058594,4.78125,-0.625,-0.412109,-0.695312,0.882263,0.432434,-0.011719,0.185669,down
66316,1.632813,10.054688,4.820312,-0.371094,-0.363281,-0.646484,0.882263,0.432434,-0.011719,0.185669,down
66321,1.632813,10.25,4.742187,-0.371094,-0.363281,-0.646484,0.882263,0.432434,-0.011719,0.185669,down
66326,1.632813,10.332031,4.707031,0.181641,-0.283203,-0.53125,0.882263,0.432434,-0.011719,0.185669,down
66331,1.632813,10.476563,4.742187,0.417969,-0.25,-0.46875,0.882263,0.432434,-0.011719,0.185669,down
66336,1.597656,10.636719,4.742187,0.417969,-0.25,-0.46875,0.885803,0.430054,-0.013184,0.173706,down
66342,1.632813,10.714844,4.667969,0.417969,-0.25,-0.46875,0.885803,0.430054,-0.013184,0.173706,down
66348,1.671875,10.785156,4.589844,0.814453,-0.173828,-0.248047,0.883667,0.435486,-0.012451,0.171326,down
66353,1.710938,10.597656,4.476562,0.814453,-0.173828,-0.248047,0.883667,0.435486,-0.012451,0.171326,down
66358,1.824219,10.480469,4.515625,0.814453,-0.173828,-0.248047,0.882874,0.437195,-0.012207,0.170959,down
66363,1.902344,10.328125,4.550781,0.642578,-0.097656,-0.027344,0.881592,0.439941,-0.012024,0.170715,down
66369,2.09375,9.90625,4.515625,0.642578,-0.097656,-0.027344,0.880981,0.441101,-0.012024,0.170776,down
66374,2.210938,9.449219,4.515625,0.642578,-0.097656,-0.027344,0.880615,0.441772,-0.012024,0.170959,down
66379,2.210938,9.449219,4.515625,0.228516,-0.007813,0.150391,0.880249,0.442383,-0.012085,0.171326,down
66385,2.324219,9.140625,4.628906,0.228516,-0.007813,0.150391,0.879944,0.44281,-0.012146,0.171692,down
66391,2.402344,8.988281,4.667969,0.228516,-0.007813,0.150391,0.879578,0.443298,-0.012207,0.172241,down
66396,2.324219,8.949219,4.628906,0.265625,0.0625,0.191406,0.879578,0.443298,-0.012207,0.172241,down
66402,2.324219,8.871094,4.550781,0.322266,0.070312,0.191406,0.879578,0.443298,-0.012207,0.172241,down
66407,2.324219,8.640625,4.628906,0.373047,0.087891,0.199219,0.879578,0.443298,-0.012207,0.172241,down
66412,2.285156,8.644531,4.667969,0.373047,0.087891,0.199219,0.877869,0.445862,-0.01178,0.174316,down
66418,2.285156,8.71875,4.667969,0.445312,0.111328,0.207031,0.877869,0.445862,-0.01178,0.174316,down
66423,2.246094,8.71875,4.707031,0.441406,0.113281,0.210937,0.877869,0.445862,-0.01178,0.174316,down
66428,2.246094,8.71875,4.707031,0.441406,0.113281,0.210937,0.875671,0.44928,-0.010864,0.176819,down
66433,2.210938,8.722656,4.78125,0.441406,0.113281,0.210937,0.875671,0.44928,-0.010864,0.176819,down
66438,2.171875,8.640625,4.820312,0.279297,0.117188,0.212891,0.875671,0.44928,-0.010864,0.176819,down
66443,2.132813,8.566406,4.898437,0.183594,0.121094,0.205078,0.875671,0.44928,-0.010864,0.176819,down
66448,2.054688,8.488281,4.933594,0.183594,0.121094,0.205078,0.874512,0.450562,-0.010315,0.179321,down
66453,1.980469,8.367188,5.011719,0.183594,0.121094,0.205078,0.874512,0.450562,-0.010315,0.179321,down
66458,1.941406,8.296875,5.089844,-0.193359,0.134766,0.175781,0.874512,0.450562,-0.010315,0.179321,down
66463,1.980469,8.183594,5.164062,-0.193359,0.134766,0.175781,0.874756,0.449463,-0.010193,0.180969,down
66468,1.980469,8.0625,5.203125,-0.193359,0.134766,0.175781,0.874756,0.449463,-0.010193,0.180969,down
66473,1.941406,7.917969,5.242187,-0.318359,0.138672,0.148437,0.874756,0.449463,-0.010193,0.180969,down
66478,1.980469,7.796875,5.242187,-0.318359,0.138672,0.148437,0.875549,0.447205,-0.010071,0.182556,down
66483,1.980469,7.796875,5.203125,-0.318359,0.138672,0.148437,0.875854,0.446411,-0.010071,0.183044,down
66488,1.902344,7.644531,5.242187,-0.318359,0.138672,0.148437,0.875854,0.446411,-0.010071,0.183044,down
66493,1.941406,7.601562,5.355469,-0.318359,0.162109,0.130859,0.875854,0.446411,-0.010071,0.183044,down
66498,1.941406,7.566406,5.394531,-0.318359,0.162109,0.130859,0.87677,0.444031,-0.009827,0.184509,down
66503,1.902344,7.492187,5.433594,-0.318359,0.162109,0.130859,0.877014,0.443359,-0.009644,0.184998,down
66508,1.789063,7.53125,5.394531,-0.318359,0.162109,0.130859,0.877014,0.443359,-0.009644,0.184998,down
66513,1.75,7.492187,5.433594,-0.205078,0.224609,0.119141,0.877014,0.443359,-0.009644,0.184998,down
66518,1.710938,7.53125,5.585937,-0.205078,0.224609,0.119141,0.877441,0.442078,-0.009094,0.186035,down
66524,1.632813,7.566406,5.546875,-0.173828,0.240234,0.111328,0.877747,0.44104,-0.008362,0.187073,down
66529,1.597656,7.492187,5.546875,-0.103516,0.279297,0.107422,0.877808,0.440613,-0.007874,0.187683,down
66534,1.558594,7.601562,5.625,-0.103516,0.279297,0.107422,0.877869,0.440247,-0.007385,0.188232,down
66539,1.519531,7.601562,5.703125,-0.103516,0.279297,0.107422,0.87793,0.440002,-0.006958,0.188782,down
66544,1.519531,7.53125,5.777344,-0.035156,0.271484,0.126953,0.87793,0.439697,-0.006409,0.189453,down
66550,1.519531,7.535156,5.855469,-0.035156,0.271484,0.126953,0.877869,0.439575,-0.006042,0.189941,down
66555,1.558594,7.535156,5.855469,-0.035156,0.271484,0.126953,0.877747,0.439514,-0.005554,0.190613,down
66561,1.558594,7.566406,5.929687,0.101563,0.220703,0.15625,0.877747,0.439514,-0.005554,0.190613,down
66566,1.558594,7.601562,5.894531,0.146484,0.210937,0.162109,0.877747,0.439514,-0.005554,0.190613,down
66571,1.558594,7.679687,5.816406,0.146484,0.210937,0.162109,0.877075,0.440063,-0.004395,0.192505,down
66577,1.597656,7.722656,5.777344,0.212891,0.195312,0.183594,0.877075,0.440063,-0.004395,0.192505,down
66583,1.558594,7.722656,5.816406,0.246094,0.189453,0.199219,0.877075,0.440063,-0.004395,0.192505,down
66588,1.558594,7.878906,5.816406,0.273438,0.181641,0.197266,0.87616,0.441162,-0.003357,0.194336,down
66593,1.558594,7.878906,5.855469,0.273438,0.181641,0.197266,0.875732,0.44165,-0.003052,0.194946,down
66598,1.519531,7.917969,5.816406,0.273438,0.181641,0.197266,0.875305,0.4422,-0.002686,0.195679,down
66604,1.480469,7.957031,5.738281,0.271484,0.175781,0.212891,0.875305,0.4422,-0.002686,0.195679,down
66610,1.441406,7.957031,5.777344,0.271484,0.175781,0.212891,0.874146,0.443604,-0.001831,0.197632,down
66615,1.441406,7.917969,5.777344,0.193359,0.158203,0.210937,0.874146,0.443604,-0.001831,0.197632,down
66620,1.441406,7.917969,5.777344,0.169922,0.160156,0.201172,0.873535,0.444336,-0.001343,0.198914,down
66626,1.519531,7.914062,5.777344,0.169922,0.160156,0.201172,0.87323,0.44458,-0.001099,0.199524,down
66632,1.519531,7.878906,5.816406,0.091797,0.175781,0.195312,0.87323,0.44458,-0.001099,0.199524,down
66637,1.519531,7.878906,5.816406,0.046875,0.183594,0.195312,0.87323,0.44458,-0.001099,0.199524,down
66642,1.558594,7.757812,5.777344,0.015625,0.197266,0.197266,0.87323,0.44458,-0.001099,0.199524,down
66647,1.558594,7.722656,5.816406,0.001953,0.216797,0.207031,0.87323,0.44458,-0.001099,0.199524,down
66652,1.597656,7.644531,5.855469,0.025391,0.212891,0.222656,0.87323,0.44458,-0.001099,0.199524,down
66657,1.597656,7.601562,5.816406,0.058594,0.208984,0.234375,0.87323,0.44458,-0.001099,0.199524,down
66663,1.632813,7.566406,5.855469,0.09375,0.197266,0.246094,0.871765,0.444885,0.000793,0.205078,down
66668,1.597656,7.605469,5.894531,0.09375,0.197266,0.246094,0.871765,0.444885,0.000793,0.205078,down
66674,1.597656,7.601562,5.855469,0.205078,0.162109,0.275391,0.870972,0.44574,0.00116,0.206726,down
66679,1.597656,7.605469,5.894531,0.205078,0.162109,0.275391,0.870544,0.446228,0.001343,0.207397,down
66684,1.597656,7.644531,5.816406,0.205078,0.162109,0.275391,0.869995,0.447021,0.001526,0.20813,down
66689,1.597656,7.683594,5.816406,0.445312,0.095703,0.269531,0.869995,0.447021,0.001526,0.20813,down
66694,1.558594,7.757812,5.703125,0.466797,0.070312,0.277344,0.869324,0.447937,0.001709,0.208923,down
66699,1.597656,7.839844,5.703125,0.466797,0.070312,0.277344,0.868042,0.449829,0.001953,0.210205,down
66705,1.597656,7.878906,5.664062,0.466797,0.070312,0.277344,0.86731,0.450867,0.002014,0.210815,down
66711,1.597656,7.957031,5.664062,0.457031,0.023437,0.25,0.86731,0.450867,0.002014,0.210815,down
66716,1.597656,8.105469,5.511719,0.457031,0.023437,0.25,0.866028,0.45282,0.002075,0.211914,down
66721,1.632813,8.101563,5.511719,0.390625,0.007813,0.236328,0.866028,0.45282,0.002075,0.211914,down
66727,1.597656,8.222656,5.472656,0.333984,0.001953,0.226562,0.866028,0.45282,0.002075,0.211914,down
66732,1.597656,8.300781,5.394531,0.273438,-0.001953,0.230469,0.866028,0.45282,0.002075,0.211914,down
66738,1.632813,8.222656,5.394531,0.15625,0.003906,0.216797,0.866028,0.45282,0.002075,0.211914,down
66743,1.632813,8.21875,5.320312,0.15625,0.003906,0.216797,0.863708,0.456177,0.001709,0.214417,down
66749,1.671875,8.179688,5.355469,0.074219,0.0,0.191406,0.863708,0.456177,0.001709,0.214417,down
66754,1.632813,8.101563,5.320312,0.074219,0.0,0.191406,0.862976,0.456848,0.001221,0.215759,down
66759,1.632813,8.023438,5.28125,0.074219,0.0,0.191406,0.862976,0.456848,0.001221,0.215759,down
66764,1.632813,8.023438,5.28125,0.021484,0.013672,0.164062,0.862976,0.456848,0.001221,0.215759,down
66769,1.671875,7.984375,5.394531,0.021484,0.013672,0.164062,0.86261,0.457092,0.000854,0.216797,down
66774,1.710938,8.023438,5.394531,0.001953,0.035156,0.15625,0.86261,0.457092,0.000854,0.216797,down
