timestamp,ax,ay,az,gx,gy,gz,qw,qx,qy,qz,label
453681,7.472656,4.769531,5.023437,-0.048828,0.037109,-0.101563,0.56665,0.503601,-0.085815,0.646484,down
453686,7.472656,4.769531,5.023437,-0.048828,0.037109,-0.101563,0.56665,0.503601,-0.085815,0.646484,down
453692,7.429687,4.769531,5.058594,-0.048828,0.037109,-0.101563,0.568787,0.502502,-0.085327,0.645508,down
453698,7.429687,4.769531,4.984375,-0.035156,0.029297,-0.09375,0.568787,0.502502,-0.085327,0.645508,down
453703,7.472656,4.769531,5.023437,-0.035156,0.029297,-0.09375,0.569458,0.502319,-0.085083,0.645142,down
453708,7.429687,4.769531,5.023437,-0.035156,0.029297,-0.09375,0.569641,0.502258,-0.084961,0.64502,down
453713,7.351562,4.847656,5.023437,-0.035156,0.029297,-0.09375,0.569641,0.502258,-0.084961,0.64502,down
453718,7.394531,4.847656,4.984375,0.0,0.025391,-0.082031,0.569641,0.502258,-0.084961,0.64502,down
453723,7.429687,4.886719,4.945312,0.017578,0.023437,-0.078125,0.569946,0.502197,-0.084717,0.644836,down
453729,7.433594,4.886719,4.90625,0.017578,0.023437,-0.078125,0.57019,0.502197,-0.084412,0.644653,down
453734,7.351562,4.886719,4.867187,0.013672,0.017578,-0.070312,0.570312,0.502258,-0.084229,0.644531,down
453740,7.3125,4.847656,4.867187,0.013672,0.017578,-0.070312,0.570374,0.502197,-0.084167,0.64447,down
453745,7.351562,4.847656,4.867187,-0.005859,0.011719,-0.064453,0.570557,0.502197,-0.084045,0.644348,down
453751,7.394531,4.886719,4.867187,-0.009766,0.011719,-0.056641,0.570557,0.502197,-0.084045,0.644348,down
453756,7.3125,4.886719,4.90625,-0.017578,0.013672,-0.058594,0.570557,0.502197,-0.084045,0.644348,down
453762,7.3125,4.921875,4.90625,-0.021484,0.023437,-0.0625,0.570557,0.502197,-0.084045,0.644348,down
453767,7.277344,4.847656,4.90625,-0.025391,0.017578,-0.056641,0.570557,0.502197,-0.084045,0.644348,down
453773,7.15625,4.886719,4.945312,-0.021484,0.021484,-0.054687,0.570557,0.502197,-0.084045,0.644348,down
453778,7.238281,4.847656,4.867187,-0.017578,0.023437,-0.052734,0.57135,0.501953,-0.08374,0.643921,down
453783,7.238281,4.847656,4.90625,-0.017578,0.023437,-0.052734,0.571472,0.501892,-0.083679,0.64386,down
453789,7.3125,4.886719,4.867187,-0.019531,0.029297,-0.044922,0.571472,0.501892,-0.083679,0.64386,down
453794,7.3125,4.886719,4.867187,-0.017578,0.029297,-0.044922,0.571838,0.501709,-0.083496,0.643677,down
453799,7.277344,4.847656,4.867187,-0.007813,0.033203,-0.046875,0.57196,0.501648,-0.083435,0.643677,down
453804,7.273437,4.808594,4.90625,-0.007813,0.033203,-0.046875,0.572021,0.501587,-0.083374,0.643616,down
453809,7.277344,4.847656,4.867187,-0.007813,0.033203,-0.046875,0.572083,0.501526,-0.083191,0.643616,down
453815,7.234375,4.886719,4.945312,-0.007813,0.033203,-0.046875,0.572144,0.501526,-0.083069,0.643616,down
453820,7.238281,4.847656,4.984375,0.054687,0.042969,-0.033203,0.572144,0.501526,-0.083069,0.643616,down
453825,7.234375,4.847656,4.945312,0.076172,0.044922,-0.029297,0.572144,0.501526,-0.083069,0.643616,down
453830,7.199219,4.808594,4.984375,0.076172,0.044922,-0.029297,0.572144,0.501587,-0.082458,0.643616,down
453835,7.199219,4.808594,4.984375,0.076172,0.044922,-0.029297,0.572083,0.501648,-0.082214,0.643677,down
453840,7.238281,4.808594,4.945312,0.121094,0.046875,-0.021484,0.572083,0.501648,-0.082214,0.643677,down
453845,7.277344,4.847656,4.90625,0.121094,0.052734,-0.021484,0.572083,0.501648,-0.082214,0.643677,down
453850,7.273437,4.921875,4.945312,0.121094,0.052734,-0.021484,0.572083,0.501648,-0.082214,0.643677,down
453855,7.238281,4.921875,4.90625,0.095703,0.052734,-0.035156,0.572083,0.501648,-0.082214,0.643677,down
453860,7.238281,4.921875,4.867187,0.085937,0.052734,-0.029297,0.572083,0.501648,-0.082214,0.643677,down
453866,7.195312,4.921875,4.867187,0.085937,0.052734,-0.029297,0.571716,0.502075,-0.080627,0.64386,down
453871,7.160156,4.921875,4.90625,0.080078,0.042969,-0.025391,0.571716,0.502075,-0.080627,0.64386,down
453876,7.15625,4.921875,4.945312,0.080078,0.048828,-0.027344,0.571716,0.502075,-0.080627,0.64386,down
453882,7.160156,4.921875,4.867187,0.054687,0.064453,-0.019531,0.571716,0.502075,-0.080627,0.64386,down
453888,7.007812,4.886719,4.90625,0.054687,0.064453,-0.019531,0.571716,0.502075,-0.080627,0.64386,down
453893,7.011719,4.808594,4.90625,0.046875,0.056641,-0.015625,0.571716,0.502075,-0.080627,0.64386,down
453898,6.96875,4.769531,4.945312,0.048828,0.054687,-0.009766,0.571716,0.502075,-0.080627,0.64386,down
453903,6.96875,4.695312,5.023437,0.048828,0.054687,-0.009766,0.571533,0.502075,-0.079285,0.644165,down
453908,7.050781,4.695312,5.058594,0.048828,0.054687,-0.009766,0.571533,0.502075,-0.079102,0.644226,down
453914,7.085937,4.730469,5.023437,0.064453,0.042969,-0.003906,0.571411,0.502136,-0.078796,0.644287,down
453919,7.199219,4.695312,4.945312,0.064453,0.042969,-0.003906,0.571411,0.502136,-0.078552,0.644348,down
453924,7.195312,4.65625,4.945312,0.064453,0.042969,-0.003906,0.57135,0.502136,-0.078308,0.64447,down
453929,7.199219,4.65625,4.984375,0.064453,0.042969,-0.003906,0.57135,0.502136,-0.078308,0.64447,down
453934,7.195312,4.617187,4.945312,0.117188,0.09375,-0.021484,0.57135,0.502136,-0.078308,0.64447,down
453939,7.050781,4.65625,4.945312,0.117188,0.09375,-0.021484,0.571167,0.502136,-0.077332,0.644714,down
453944,7.046875,4.617187,5.023437,0.117188,0.09375,-0.021484,0.571167,0.502136,-0.077332,0.644714,down
453949,7.011719,4.578125,4.984375,0.103516,0.121094,-0.021484,0.571167,0.502136,-0.077332,0.644714,down
453955,6.929687,4.5,4.984375,0.103516,0.121094,-0.021484,0.571045,0.502014,-0.076233,0.645081,down
453961,6.855469,4.5,5.023437,0.103516,0.121094,-0.021484,0.570984,0.501953,-0.075928,0.645203,down
453966,6.777344,4.464844,5.023437,0.082031,0.150391,-0.035156,0.570984,0.501831,-0.0755,0.645325,down
453971,6.8125,4.464844,5.058594,0.066406,0.148437,-0.037109,0.570984,0.501831,-0.0755,0.645325,down
453976,6.851562,4.425781,5.136719,0.066406,0.148437,-0.037109,0.571045,0.501526,-0.074829,0.645569,down
453982,6.894531,4.425781,5.136719,0.025391,0.162109,-0.054687,0.571045,0.501526,-0.074829,0.645569,down
453987,6.894531,4.464844,5.175781,0.015625,0.162109,-0.074219,0.571045,0.501526,-0.074829,0.645569,down
453992,6.96875,4.425781,5.136719,0.015625,0.154297,-0.111328,0.571045,0.501526,-0.074829,0.645569,down
453998,7.050781,4.464844,5.175781,0.015625,0.154297,-0.111328,0.571045,0.501526,-0.074829,0.645569,down
454003,7.046875,4.5,5.175781,0.011719,0.121094,-0.162109,0.571045,0.501526,-0.074829,0.645569,down
454008,7.089844,4.5,5.25,-0.001953,0.099609,-0.173828,0.571045,0.501526,-0.074829,0.645569,down
454013,7.089844,4.5,5.25,-0.001953,0.099609,-0.173828,0.57251,0.500244,-0.072327,0.645569,down
454019,7.15625,4.5,5.289062,0.007813,0.0625,-0.205078,0.57251,0.500244,-0.072327,0.645569,down
454024,7.195312,4.578125,5.214844,0.007813,0.0625,-0.205078,0.573608,0.5,-0.071289,0.644897,down
454029,7.195312,4.539062,5.214844,0.007813,0.0625,-0.205078,0.573975,0.499939,-0.070984,0.644653,down
454034,7.273437,4.617187,5.175781,-0.060547,0.060547,-0.232422,0.573975,0.499939,-0.070984,0.644653,down
454039,7.390625,4.617187,5.023437,-0.060547,0.060547,-0.232422,0.574951,0.499634,-0.070435,0.644104,down
454044,7.429687,4.65625,5.023437,-0.060547,0.060547,-0.232422,0.5755,0.499451,-0.07019,0.643799,down
454049,7.542969,4.730469,5.023437,-0.060547,0.060547,-0.232422,0.576172,0.499268,-0.069946,0.643372,down
454054,7.621094,4.847656,5.023437,-0.060547,0.060547,-0.232422,0.576172,0.499268,-0.069946,0.643372,down
454059,7.660156,4.921875,5.023437,-0.126953,0.037109,-0.333984,0.576172,0.499268,-0.069946,0.643372,down
454064,7.699219,4.960937,5.058594,-0.126953,0.037109,-0.333984,0.578186,0.498718,-0.069214,0.642029,down
454069,7.773437,5.078125,5.058594,-0.126953,0.037109,-0.333984,0.578918,0.498596,-0.06897,0.641479,down
454074,7.816406,5.304687,5.136719,-0.126953,0.037109,-0.333984,0.578918,0.498596,-0.06897,0.641479,down
454079,7.855469,5.421875,5.136719,-0.060547,-0.019531,-0.365234,0.578918,0.498596,-0.06897,0.641479,down
454084,7.816406,5.460937,5.25,-0.060547,-0.019531,-0.365234,0.580994,0.498474,-0.068054,0.639771,down
454089,7.777344,5.496094,5.214844,-0.060547,-0.019531,-0.365234,0.580994,0.498474,-0.068054,0.639771,down
454094,7.695312,5.496094,5.214844,-0.015625,-0.037109,-0.306641,0.580994,0.498474,-0.068054,0.639771,down
454100,7.621094,5.574219,5.25,-0.015625,-0.037109,-0.306641,0.582703,0.498718,-0.067139,0.638184,down
454106,7.472656,5.574219,5.214844,-0.015625,-0.037109,-0.306641,0.58313,0.498718,-0.066956,0.637756,down
454111,7.46875,5.574219,5.25,-0.072266,-0.052734,-0.216797,0.583618,0.498779,-0.066833,0.637268,down
454116,7.429687,5.535156,5.25,-0.089844,-0.058594,-0.179687,0.583618,0.498779,-0.066833,0.637268,down
454122,7.355469,5.460937,5.289062,-0.089844,-0.058594,-0.179687,0.584473,0.498718,-0.066833,0.636536,down
454127,7.316406,5.460937,5.289062,-0.089844,-0.056641,-0.136719,0.584473,0.498718,-0.066833,0.636536,down
454133,7.316406,5.460937,5.289062,-0.078125,-0.064453,-0.125,0.584473,0.498718,-0.066833,0.636536,down
454139,7.195312,5.421875,5.367187,-0.0625,-0.060547,-0.111328,0.585632,0.498779,-0.067078,0.635437,down
454144,7.160156,5.421875,5.367187,-0.0625,-0.060547,-0.111328,0.585632,0.498779,-0.067078,0.635437,down
454149,7.15625,5.382812,5.367187,-0.027344,-0.054687,-0.099609,0.585632,0.498779,-0.067078,0.635437,down
454155,7.089844,5.34375,5.328125,-0.027344,-0.054687,-0.099609,0.586243,0.498962,-0.067139,0.634705,down
454160,7.050781,5.304687,5.367187,-0.011719,-0.044922,-0.099609,0.586487,0.499023,-0.067078,0.63446,down
454166,6.96875,5.304687,5.328125,-0.011719,-0.044922,-0.099609,0.586609,0.499084,-0.067078,0.634277,down
454171,6.894531,5.304687,5.328125,-0.021484,-0.044922,-0.09375,0.586609,0.499084,-0.067078,0.634277,down
454176,6.851562,5.304687,5.289062,-0.021484,-0.044922,-0.09375,0.587036,0.499146,-0.067078,0.63385,down
454181,6.855469,5.269531,5.289062,-0.056641,-0.039063,-0.085937,0.587036,0.499146,-0.067078,0.63385,down
454187,6.894531,5.230469,5.25,-0.068359,-0.041016,-0.076172,0.587036,0.499146,-0.067078,0.63385,down
454192,6.851562,5.230469,5.25,-0.068359,-0.041016,-0.076172,0.587646,0.499084,-0.067322,0.63324,down
454197,6.8125,5.191406,5.25,-0.082031,-0.039063,-0.068359,0.587646,0.499084,-0.067322,0.63324,down
454202,6.855469,5.152344,5.25,-0.072266,-0.037109,-0.070312,0.587646,0.499084,-0.067322,0.63324,down
454208,6.894531,5.113281,5.214844,-0.068359,-0.023437,-0.068359,0.587646,0.499084,-0.067322,0.63324,down
454213,6.894531,5.039062,5.214844,-0.068359,-0.023437,-0.068359,0.587646,0.499084,-0.067322,0.63324,down
454218,6.890625,4.960937,5.25,-0.068359,-0.023437,-0.068359,0.588684,0.498901,-0.067688,0.632446,down
454223,6.855469,4.921875,5.214844,-0.013672,-0.013672,-0.078125,0.588684,0.498901,-0.067688,0.632446,down
454229,6.929687,5.0,5.175781,0.007813,-0.007813,-0.082031,0.589172,0.498962,-0.067444,0.631958,down
454234,6.972656,5.039062,5.058594,0.007813,-0.007813,-0.082031,0.589172,0.498962,-0.067444,0.631958,down
454239,7.046875,5.078125,4.984375,0.048828,0.011719,-0.091797,0.589172,0.498962,-0.067444,0.631958,down
454244,7.046875,5.078125,4.984375,0.048828,0.011719,-0.091797,0.589417,0.499084,-0.067139,0.631714,down
454250,7.089844,5.152344,4.867187,0.066406,0.017578,-0.113281,0.5896,0.499207,-0.066589,0.631409,down
454255,7.089844,5.152344,4.867187,0.097656,0.03125,-0.132812,0.5896,0.499207,-0.066589,0.631409,down
454260,7.011719,5.191406,4.832031,0.097656,0.03125,-0.132812,0.589844,0.499451,-0.065857,0.631104,down
454265,7.007812,5.269531,4.753906,0.097656,0.03125,-0.132812,0.589905,0.499573,-0.065552,0.630981,down
454270,7.011719,5.269531,4.675781,0.105469,0.025391,-0.126953,0.589905,0.499573,-0.065552,0.630981,down
454275,6.929687,5.269531,4.675781,0.105469,0.025391,-0.126953,0.590088,0.499878,-0.064819,0.630676,down
454280,7.011719,5.304687,4.714844,0.105469,0.025391,-0.126953,0.590149,0.5,-0.064453,0.630554,down
454285,7.011719,5.230469,4.714844,0.105469,0.025391,-0.126953,0.59021,0.500061,-0.064148,0.630432,down
454290,7.011719,5.230469,4.714844,0.089844,0.089844,-0.091797,0.59021,0.500061,-0.064148,0.630432,down
454295,6.972656,5.191406,4.753906,0.089844,0.089844,-0.091797,0.590393,0.500061,-0.063354,0.630371,down
454301,7.007812,5.152344,4.753906,0.089844,0.089844,-0.091797,0.590393,0.500061,-0.062988,0.630432,down
454306,7.007812,5.152344,4.753906,0.109375,0.128906,-0.082031,0.590454,0.5,-0.0625,0.630432,down
454312,7.007812,5.191406,4.675781,0.109375,0.128906,-0.082031,0.590454,0.5,-0.062073,0.630493,down
454318,7.007812,5.269531,4.753906,0.109375,0.128906,-0.082031,0.590454,0.499939,-0.061584,0.630615,down
454323,7.046875,5.304687,4.792969,0.119141,0.128906,-0.056641,0.590454,0.499939,-0.061584,0.630615,down
454328,6.972656,5.304687,4.792969,0.140625,0.144531,-0.058594,0.590454,0.499939,-0.061584,0.630615,down
454333,7.011719,5.34375,4.867187,0.175781,0.150391,-0.050781,0.590454,0.499939,-0.061584,0.630615,down
454338,6.851562,5.34375,4.792969,0.175781,0.150391,-0.050781,0.590454,0.499939,-0.061584,0.630615,down
454343,6.816406,5.304687,4.832031,0.175781,0.150391,-0.050781,0.590149,0.499878,-0.05896,0.631165,down
454349,6.734375,5.34375,4.867187,0.232422,0.197266,-0.068359,0.590149,0.499878,-0.05896,0.631165,down
454355,6.664062,5.304687,4.867187,0.236328,0.205078,-0.078125,0.589905,0.499939,-0.057617,0.63147,down
454360,6.625,5.230469,4.90625,0.236328,0.205078,-0.078125,0.589783,0.5,-0.056885,0.631592,down
454365,6.585937,5.230469,4.90625,0.220703,0.181641,-0.095703,0.589783,0.5,-0.056885,0.631592,down
454370,6.625,5.304687,5.023437,0.230469,0.15625,-0.091797,0.589539,0.500061,-0.055359,0.631897,down
454376,6.664062,5.34375,5.136719,0.230469,0.15625,-0.091797,0.589355,0.500244,-0.053955,0.63208,down
454381,6.699219,5.34375,5.175781,0.21875,0.130859,-0.105469,0.589294,0.500366,-0.053284,0.63208,down
454387,6.738281,5.34375,5.214844,0.21875,0.115234,-0.105469,0.589294,0.500366,-0.053284,0.63208,down
454392,6.695312,5.34375,5.214844,0.21875,0.115234,-0.105469,0.589172,0.500671,-0.052002,0.63208,down
454397,6.664062,5.382812,5.214844,0.255859,0.076172,-0.126953,0.589172,0.500671,-0.052002,0.63208,down
454403,6.667969,5.382812,5.175781,0.285156,0.054687,-0.121094,0.589172,0.500671,-0.052002,0.63208,down
454408,6.628906,5.382812,5.175781,0.314453,0.025391,-0.115234,0.588745,0.501587,-0.049988,0.631836,down
454413,6.628906,5.382812,5.175781,0.333984,-0.005859,-0.099609,0.588562,0.502075,-0.049316,0.631714,down
454418,6.625,5.460937,5.097656,0.333984,-0.005859,-0.099609,0.588562,0.502075,-0.049316,0.631714,down
454423,6.625,5.460937,5.097656,0.34375,-0.013672,-0.068359,0.587952,0.503113,-0.048096,0.631531,down
454428,6.585937,5.535156,5.097656,0.34375,-0.013672,-0.068359,0.587952,0.503113,-0.048096,0.631531,down
454434,6.507812,5.382812,5.136719,0.330078,-0.015625,-0.041016,0.58728,0.50415,-0.046997,0.63147,down
454440,6.550781,5.382812,5.136719,0.347656,0.021484,-0.017578,0.58728,0.50415,-0.046997,0.63147,down
454445,6.511719,5.34375,5.023437,0.347656,0.021484,-0.017578,0.586121,0.505615,-0.045288,0.631531,down
454450,6.429687,5.269531,5.058594,0.347656,0.021484,-0.017578,0.585754,0.506042,-0.044739,0.631531,down
454455,6.433594,5.191406,5.023437,0.347656,0.021484,-0.017578,0.585754,0.506042,-0.044739,0.631531,down
454460,6.472656,5.152344,5.023437,0.324219,-0.015625,-0.048828,0.585754,0.506042,-0.044739,0.631531,down
454465,6.507812,5.191406,5.023437,0.324219,-0.015625,-0.048828,0.584778,0.50769,-0.043091,0.631226,down
454470,6.507812,5.230469,4.984375,0.324219,-0.015625,-0.048828,0.584778,0.50769,-0.043091,0.631226,down
454475,6.585937,5.304687,4.984375,0.384766,-0.115234,-0.111328,0.584778,0.50769,-0.043091,0.631226,down
454480,6.734375,5.421875,4.945312,0.384766,-0.115234,-0.111328,0.583801,0.509888,-0.041382,0.630432,down
454485,6.777344,5.460937,4.945312,0.384766,-0.115234,-0.111328,0.583496,0.510742,-0.040771,0.630066,down
454490,6.773437,5.535156,4.867187,0.384766,-0.115234,-0.111328,0.583496,0.510742,-0.040771,0.630066,down
454495,6.777344,5.535156,4.832031,0.478516,-0.132812,-0.175781,0.583496,0.510742,-0.040771,0.630066,down
454500,6.738281,5.496094,4.792969,0.478516,-0.132812,-0.175781,0.582581,0.513428,-0.038513,0.628906,down
454505,6.738281,5.496094,4.832031,0.464844,-0.142578,-0.183594,0.582581,0.513428,-0.038513,0.628906,down
454510,6.695312,5.460937,4.792969,0.464844,-0.142578,-0.183594,0.582275,0.514343,-0.037781,0.62854,down
454515,6.585937,5.382812,4.753906,0.457031,-0.140625,-0.185547,0.582275,0.514343,-0.037781,0.62854,down
454520,6.585937,5.382812,4.753906,0.457031,-0.140625,-0.185547,0.58136,0.517029,-0.035583,0.627258,down
454525,6.546875,5.382812,4.675781,0.457031,-0.140625,-0.185547,0.58136,0.517029,-0.035583,0.627258,down
454530,6.507812,5.34375,4.714844,0.427734,-0.191406,-0.1875,0.58136,0.517029,-0.035583,0.627258,down
454536,6.585937,5.460937,4.753906,0.427734,-0.191406,-0.1875,0.580566,0.519836,-0.03363,0.625793,down
454541,6.695312,5.496094,4.714844,0.480469,-0.216797,-0.212891,0.580261,0.520935,-0.032898,0.625183,down
454546,6.773437,5.613281,4.640625,0.480469,-0.216797,-0.212891,0.580017,0.521851,-0.032288,0.624695,down
454551,6.894531,5.804687,4.484375,0.480469,-0.216797,-0.212891,0.579651,0.523132,-0.031433,0.624023,down
454557,6.96875,5.917969,4.371094,0.480469,-0.216797,-0.212891,0.579346,0.524231,-0.03064,0.623413,down
454562,6.96875,5.957031,4.371094,0.560547,-0.238281,-0.273438,0.579346,0.524231,-0.03064,0.623413,down
454568,6.96875,5.957031,4.292969,0.548828,-0.238281,-0.271484,0.579346,0.524231,-0.03064,0.623413,down
454573,6.933594,5.957031,4.292969,0.548828,-0.238281,-0.271484,0.578491,0.52771,-0.028076,0.621338,down
454578,6.894531,5.957031,4.253906,0.492187,-0.214844,-0.263672,0.578491,0.52771,-0.028076,0.621338,down
454583,6.851562,5.957031,4.253906,0.451172,-0.201172,-0.257813,0.578491,0.52771,-0.028076,0.621338,down
454588,6.8125,5.917969,4.21875,0.404297,-0.195312,-0.236328,0.578491,0.52771,-0.028076,0.621338,down
454593,6.816406,5.84375,4.179687,0.404297,-0.195312,-0.236328,0.578491,0.52771,-0.028076,0.621338,down
454599,6.8125,5.804687,4.179687,0.404297,-0.195312,-0.236328,0.577637,0.53241,-0.024658,0.618286,down
454605,6.929687,5.804687,4.253906,0.263672,-0.193359,-0.21875,0.577637,0.53241,-0.024658,0.618286,down
454610,6.929687,5.804687,4.253906,0.255859,-0.183594,-0.222656,0.577637,0.53241,-0.024658,0.618286,down
454615,6.929687,5.804687,4.253906,0.255859,-0.183594,-0.222656,0.577576,0.534424,-0.023437,0.616638,down
454620,7.046875,5.804687,4.253906,0.314453,-0.177734,-0.251953,0.577576,0.535156,-0.022888,0.616028,down
454626,7.160156,5.882812,4.21875,0.314453,-0.177734,-0.251953,0.577515,0.53656,-0.021851,0.614868,down
454632,7.089844,5.957031,4.140625,0.314453,-0.177734,-0.251953,0.577454,0.537354,-0.021179,0.614258,down
454638,7.121094,5.996094,4.101562,0.396484,-0.1875,-0.289063,0.577454,0.537354,-0.021179,0.614258,down
454643,7.117187,6.109375,4.0625,0.433594,-0.214844,-0.298828,0.577454,0.537354,-0.021179,0.614258,down
454648,7.195312,6.1875,4.0625,0.457031,-0.224609,-0.298828,0.577148,0.5401,-0.019043,0.612183,down
454653,7.160156,6.226562,4.0625,0.464844,-0.216797,-0.314453,0.577148,0.5401,-0.019043,0.612183,down
454658,7.199219,6.265625,4.0625,0.457031,-0.226562,-0.304688,0.577148,0.5401,-0.019043,0.612183,down
454663,7.195312,6.339844,3.988281,0.457031,-0.226562,-0.304688,0.577148,0.5401,-0.019043,0.612183,down
454669,7.195312,6.339844,4.027344,0.416016,-0.210937,-0.292969,0.577148,0.5401,-0.019043,0.612183,down
454674,7.195312,6.378906,4.027344,0.375,-0.203125,-0.292969,0.577148,0.5401,-0.019043,0.612183,down
454680,7.195312,6.339844,3.988281,0.326172,-0.195312,-0.289063,0.577148,0.5401,-0.019043,0.612183,down
454685,7.195312,6.339844,3.988281,0.232422,-0.171875,-0.275391,0.576538,0.54657,-0.014038,0.607178,down
454690,7.195312,6.339844,3.988281,0.232422,-0.171875,-0.275391,0.57666,0.54718,-0.01355,0.606506,down
454695,7.195312,6.378906,4.027344,0.232422,-0.171875,-0.275391,0.576782,0.547729,-0.013123,0.605896,down
454701,7.195312,6.339844,4.101562,0.130859,-0.15625,-0.261719,0.576782,0.547729,-0.013123,0.605896,down
454706,7.195312,6.378906,4.101562,0.121094,-0.154297,-0.263672,0.577209,0.548767,-0.012329,0.604614,down
454712,7.195312,6.417969,4.027344,0.121094,-0.154297,-0.263672,0.577637,0.549561,-0.01178,0.603455,down
454717,7.234375,6.492187,3.988281,0.121094,-0.154297,-0.263672,0.577942,0.549927,-0.011414,0.602844,down
454723,7.273437,6.53125,3.988281,0.132812,-0.166016,-0.265625,0.577942,0.549927,-0.011414,0.602844,down
454729,7.238281,6.53125,3.949219,0.136719,-0.167969,-0.267578,0.578369,0.550781,-0.010803,0.601624,down
454734,7.277344,6.648437,3.796875,0.136719,-0.167969,-0.267578,0.578369,0.550781,-0.010803,0.601624,down
454740,7.199219,6.683594,3.835938,0.154297,-0.189453,-0.267578,0.578369,0.550781,-0.010803,0.601624,down
454745,7.234375,6.761719,3.796875,0.154297,-0.203125,-0.257813,0.578369,0.550781,-0.010803,0.601624,down
454750,7.238281,6.839844,3.757813,0.140625,-0.214844,-0.242187,0.578369,0.550781,-0.010803,0.601624,down
454755,7.199219,6.875,3.757813,0.140625,-0.214844,-0.242187,0.579407,0.553345,-0.009399,0.598328,down
454761,7.234375,6.875,3.835938,0.046875,-0.193359,-0.197266,0.579407,0.553345,-0.009399,0.598328,down
454766,7.15625,6.839844,3.796875,0.046875,-0.193359,-0.197266,0.580139,0.554504,-0.009094,0.596558,down
454771,7.089844,6.839844,3.796875,0.046875,-0.193359,-0.197266,0.580383,0.554749,-0.009094,0.596069,down
454776,7.050781,6.722656,3.910156,0.046875,-0.193359,-0.197266,0.58075,0.554932,-0.009155,0.595581,down
454781,7.011719,6.648437,3.871094,-0.078125,-0.107422,-0.148437,0.581055,0.554993,-0.009216,0.595154,down
454786,7.046875,6.609375,3.910156,-0.078125,-0.107422,-0.148437,0.581421,0.555054,-0.009277,0.594849,down
454791,7.011719,6.609375,3.871094,-0.078125,-0.107422,-0.148437,0.581848,0.554993,-0.009399,0.594421,down
454796,7.007812,6.570312,3.910156,-0.107422,-0.076172,-0.140625,0.581848,0.554993,-0.009399,0.594421,down
454801,7.011719,6.53125,3.910156,-0.107422,-0.076172,-0.140625,0.582581,0.554871,-0.009521,0.593811,down
454806,6.929687,6.609375,3.835938,-0.107422,-0.076172,-0.140625,0.582581,0.554871,-0.009521,0.593811,down
454811,6.894531,6.609375,3.796875,-0.072266,-0.048828,-0.140625,0.582947,0.55481,-0.009583,0.593506,down
454816,6.929687,6.609375,3.871094,-0.072266,-0.048828,-0.140625,0.583618,0.554749,-0.009583,0.592896,down
454821,6.816406,6.648437,3.835938,-0.072266,-0.048828,-0.140625,0.583618,0.554749,-0.009583,0.592896,down
454826,6.777344,6.648437,3.796875,-0.072266,-0.048828,-0.140625,0.584167,0.554687,-0.009521,0.592407,down
454831,6.734375,6.609375,3.835938,-0.072266,-0.048828,-0.140625,0.584167,0.554687,-0.009521,0.592407,down
454836,6.738281,6.570312,3.871094,-0.056641,-0.013672,-0.115234,0.584717,0.554565,-0.009399,0.59198,down
454841,6.667969,6.570312,3.949219,-0.056641,-0.013672,-0.115234,0.585022,0.554443,-0.009399,0.591858,down
454846,6.667969,6.53125,3.988281,-0.056641,-0.013672,-0.115234,0.585266,0.55426,-0.00946,0.591736,down
454851,6.628906,6.492187,4.0625,-0.056641,-0.013672,-0.115234,0.585266,0.55426,-0.00946,0.591736,down
454856,6.667969,6.457031,4.140625,-0.15625,0.023437,-0.080078,0.585999,0.553711,-0.009644,0.591553,down
454862,6.667969,6.417969,4.179687,-0.15625,0.023437,-0.080078,0.586365,0.553406,-0.009766,0.591431,down
454868,6.667969,6.378906,4.179687,-0.197266,0.033203,-0.09375,0.586792,0.55304,-0.009888,0.59137,down
454874,6.667969,6.339844,4.179687,-0.193359,0.025391,-0.091797,0.586792,0.55304,-0.009888,0.59137,down
454879,6.699219,6.339844,4.140625,-0.181641,0.013672,-0.091797,0.586792,0.55304,-0.009888,0.59137,down
454884,6.664062,6.378906,4.101562,-0.167969,0.015625,-0.103516,0.586792,0.55304,-0.009888,0.59137,down
454889,6.695312,6.417969,4.0625,-0.154297,0.007813,-0.113281,0.586792,0.55304,-0.009888,0.59137,down
454894,6.695312,6.417969,4.0625,-0.152344,0.007813,-0.103516,0.586792,0.55304,-0.009888,0.59137,down
454899,6.695312,6.417969,4.0625,-0.152344,0.007813,-0.103516,0.586792,0.55304,-0.009888,0.59137,down
454904,6.695312,6.378906,4.0625,-0.152344,0.007813,-0.103516,0.5896,0.551147,-0.01062,0.590332,down
454909,6.695312,6.378906,4.101562,-0.173828,0.023437,-0.091797,0.5896,0.551147,-0.01062,0.590332,down
454914,6.625,6.339844,4.101562,-0.185547,0.048828,-0.087891,0.5896,0.551147,-0.01062,0.590332,down
454919,6.667969,6.339844,4.179687,-0.185547,0.048828,-0.087891,0.5896,0.551147,-0.01062,0.590332,down
454924,6.664062,6.339844,4.21875,-0.185547,0.048828,-0.087891,0.591248,0.549805,-0.011047,0.589905,down
454930,6.625,6.378906,4.253906,-0.208984,0.052734,-0.082031,0.591248,0.549805,-0.011047,0.589905,down
454935,6.585937,6.417969,4.292969,-0.208984,0.052734,-0.082031,0.592102,0.549072,-0.011292,0.589722,down
454941,6.625,6.457031,4.292969,-0.203125,0.033203,-0.089844,0.592102,0.549072,-0.011292,0.589722,down
454946,6.625,6.457031,4.332031,-0.15625,0.005859,-0.099609,0.592102,0.549072,-0.011292,0.589722,down
454951,6.625,6.570312,4.21875,-0.15625,0.005859,-0.099609,0.59375,0.547913,-0.01178,0.589172,down
454956,6.667969,6.648437,4.253906,-0.123047,-0.035156,-0.097656,0.59375,0.547913,-0.01178,0.589172,down
454961,6.699219,6.648437,4.253906,-0.123047,-0.035156,-0.097656,0.594116,0.547729,-0.011902,0.588928,down
454966,6.664062,6.679687,4.253906,-0.136719,-0.046875,-0.103516,0.594116,0.547729,-0.011902,0.588928,down
454971,6.625,6.71875,4.140625,-0.136719,-0.046875,-0.103516,0.595154,0.547363,-0.012268,0.588257,down
454976,6.585937,6.71875,4.179687,-0.15625,-0.056641,-0.099609,0.595154,0.547363,-0.012268,0.588257,down
454981,6.585937,6.761719,4.253906,-0.15625,-0.056641,-0.099609,0.59552,0.54718,-0.012451,0.588013,down
454986,6.585937,6.722656,4.292969,-0.201172,-0.058594,-0.099609,0.59552,0.54718,-0.012451,0.588013,down
454991,6.664062,6.722656,4.292969,-0.201172,-0.058594,-0.099609,0.596741,0.546631,-0.013184,0.58728,down
454996,6.699219,6.648437,4.371094,-0.236328,-0.083984,-0.095703,0.596741,0.546631,-0.013184,0.58728,down
455001,6.699219,6.683594,4.371094,-0.236328,-0.083984,-0.095703,0.59729,0.546387,-0.01355,0.586975,down
455006,6.734375,6.648437,4.371094,-0.244141,-0.078125,-0.097656,0.59729,0.546387,-0.01355,0.586975,down
455011,6.699219,6.609375,4.371094,-0.248047,-0.082031,-0.089844,0.598694,0.545654,-0.014648,0.586182,down
455016,6.734375,6.609375,4.410156,-0.220703,-0.095703,-0.060547,0.598694,0.545654,-0.014648,0.586182,down
455021,6.699219,6.609375,4.371094,-0.220703,-0.095703,-0.060547,0.599121,0.54541,-0.015015,0.585937,down
455026,6.667969,6.609375,4.371094,-0.220703,-0.095703,-0.060547,0.599548,0.545227,-0.015442,0.585693,down
455031,6.625,6.652344,4.332031,-0.220703,-0.095703,-0.060547,0.599915,0.545105,-0.015808,0.585449,down
455036,6.546875,6.683594,4.332031,-0.181641,-0.111328,-0.046875,0.600586,0.544861,-0.016602,0.584961,down
455041,6.507812,6.679687,4.253906,-0.181641,-0.111328,-0.046875,0.600586,0.544861,-0.016602,0.584961,down
455046,6.546875,6.683594,4.253906,-0.181641,-0.111328,-0.046875,0.60083,0.5448,-0.016907,0.584717,down
455051,6.546875,6.683594,4.253906,-0.089844,-0.128906,-0.027344,0.60083,0.5448,-0.016907,0.584717,down
455056,6.546875,6.722656,4.140625,-0.089844,-0.128906,-0.027344,0.601196,0.544922,-0.017517,0.584229,down
455061,6.546875,6.722656,4.140625,-0.089844,-0.128906,-0.027344,0.601501,0.544983,-0.018127,0.583801,down
455066,6.472656,6.683594,4.101562,-0.089844,-0.128906,-0.027344,0.601501,0.544983,-0.018127,0.583801,down
455072,6.472656,6.648437,4.027344,-0.119141,-0.119141,0.015625,0.601501,0.544983,-0.018127,0.583801,down
455077,6.472656,6.609375,3.988281,-0.119141,-0.119141,0.015625,0.60199,0.545044,-0.019287,0.583252,down
455082,6.546875,6.609375,3.988281,-0.119141,-0.119141,0.015625,0.602112,0.544983,-0.019592,0.58313,down
455087,6.589844,6.53125,3.988281,-0.125,-0.097656,0.029297,0.602112,0.544983,-0.019592,0.58313,down
455092,6.589844,6.53125,3.988281,-0.105469,-0.089844,0.042969,0.602356,0.544922,-0.020386,0.582947,down
455098,6.585937,6.339844,4.0625,-0.105469,-0.089844,0.042969,0.602417,0.544861,-0.020691,0.582886,down
455103,6.589844,6.300781,4.0625,-0.068359,-0.060547,0.048828,0.602478,0.544861,-0.020996,0.582825,down
455109,6.628906,6.300781,4.101562,-0.042969,-0.048828,0.052734,0.602478,0.544861,-0.020996,0.582825,down
455114,6.589844,6.265625,4.101562,-0.019531,-0.046875,0.0625,0.602478,0.544861,-0.020996,0.582825,down
455120,6.628906,6.265625,4.101562,-0.001953,-0.039063,0.0625,0.602478,0.544861,-0.020996,0.582825,down
455126,6.625,6.226562,4.0625,0.015625,-0.03125,0.0625,0.602478,0.544861,-0.020996,0.582825,down
455131,6.628906,6.300781,4.101562,0.037109,-0.03125,0.0625,0.602478,0.544861,-0.020996,0.582825,down
455137,6.625,6.339844,4.101562,0.046875,-0.041016,0.0625,0.602112,0.545105,-0.021973,0.582947,down
455142,6.628906,6.300781,4.101562,0.046875,-0.041016,0.0625,0.601807,0.545349,-0.022156,0.583008,down
455147,6.667969,6.265625,4.0625,0.017578,-0.039063,0.074219,0.601807,0.545349,-0.022156,0.583008,down
455152,6.699219,6.300781,4.0625,0.017578,-0.039063,0.074219,0.601624,0.545471,-0.0224,0.58313,down
455157,6.734375,6.300781,4.0625,-0.003906,-0.03125,0.085937,0.60144,0.545532,-0.022583,0.583191,down
455162,6.773437,6.265625,3.988281,-0.019531,-0.025391,0.089844,0.601379,0.545532,-0.022766,0.583252,down
455167,6.855469,6.300781,3.988281,-0.019531,-0.025391,0.089844,0.601379,0.545532,-0.022766,0.583252,down
455173,6.855469,6.300781,3.988281,-0.060547,-0.011719,0.095703,0.601257,0.545471,-0.023254,0.583435,down
455178,6.972656,6.300781,4.027344,-0.060547,-0.011719,0.095703,0.601196,0.545349,-0.023437,0.583557,down
455183,7.011719,6.265625,4.027344,-0.076172,0.013672,0.101563,0.601196,0.545349,-0.023437,0.583557,down
455189,7.085937,6.226562,4.027344,-0.076172,0.013672,0.101563,0.601135,0.545105,-0.023926,0.583862,down
455195,7.085937,6.1875,4.0625,-0.091797,0.060547,0.109375,0.601135,0.545105,-0.023926,0.583862,down
455200,7.15625,6.148437,4.0625,-0.095703,0.078125,0.119141,0.601135,0.545105,-0.023926,0.583862,down
455206,7.160156,6.109375,4.179687,-0.095703,0.09375,0.126953,0.601135,0.545105,-0.023926,0.583862,down
455211,7.117187,6.074219,4.21875,-0.095703,0.09375,0.126953,0.601074,0.544006,-0.024719,0.584961,down
455217,7.117187,6.109375,4.21875,-0.111328,0.152344,0.142578,0.601013,0.543213,-0.025024,0.585754,down
455222,7.15625,6.109375,4.292969,-0.111328,0.152344,0.142578,0.600952,0.542725,-0.025085,0.586243,down
455228,7.15625,6.074219,4.371094,-0.111328,0.152344,0.142578,0.600891,0.542297,-0.025146,0.586731,down
455233,7.234375,6.109375,4.410156,-0.095703,0.238281,0.1875,0.600769,0.541748,-0.025208,0.587341,down
455238,7.234375,6.148437,4.410156,-0.095703,0.238281,0.1875,0.600647,0.541199,-0.025269,0.587952,down
455244,7.273437,6.148437,4.410156,-0.095703,0.238281,0.1875,0.600586,0.54071,-0.025269,0.588501,down
455249,7.351562,6.1875,4.371094,-0.130859,0.283203,0.181641,0.600525,0.540039,-0.02533,0.589172,down
455254,7.390625,6.148437,4.332031,-0.140625,0.298828,0.181641,0.600525,0.540039,-0.02533,0.589172,down
455259,7.46875,6.226562,4.371094,-0.140625,0.298828,0.181641,0.600464,0.538757,-0.02533,0.590454,down
455264,7.542969,6.226562,4.332031,-0.177734,0.322266,0.166016,0.600464,0.538757,-0.02533,0.590454,down
455269,7.539062,6.300781,4.332031,-0.199219,0.339844,0.162109,0.600525,0.537231,-0.02533,0.591736,down
455275,7.578125,6.417969,4.484375,-0.210937,0.351563,0.166016,0.600525,0.537231,-0.02533,0.591736,down
455280,7.582031,6.53125,4.484375,-0.232422,0.376953,0.171875,0.600525,0.537231,-0.02533,0.591736,down
455286,7.578125,6.570312,4.523437,-0.236328,0.396484,0.185547,0.600525,0.537231,-0.02533,0.591736,down
455292,7.582031,6.683594,4.640625,-0.251953,0.431641,0.195312,0.600525,0.537231,-0.02533,0.591736,down
455297,7.578125,6.683594,4.714844,-0.277344,0.498047,0.230469,0.600952,0.53241,-0.025391,0.595642,down
455303,7.578125,6.683594,4.714844,-0.306641,0.535156,0.257813,0.601074,0.530151,-0.025391,0.597534,down
455308,7.65625,6.683594,4.714844,-0.341797,0.582031,0.283203,0.601135,0.528625,-0.025391,0.598755,down
455314,7.925781,6.492187,4.832031,-0.341797,0.582031,0.283203,0.601257,0.527283,-0.025391,0.599854,down
455320,8.042969,6.457031,4.90625,-0.429687,0.681641,0.339844,0.601257,0.527283,-0.025391,0.599854,down
455325,8.238281,6.417969,4.984375,-0.457031,0.755859,0.363281,0.601257,0.527283,-0.025391,0.599854,down
455330,8.347656,6.417969,4.90625,-0.460937,0.84375,0.402344,0.601257,0.527283,-0.025391,0.599854,down
455336,8.382813,6.457031,4.945312,-0.460937,0.84375,0.402344,0.601624,0.519958,-0.025452,0.605835,down
455342,8.34375,6.53125,4.984375,-0.419922,1.066406,0.431641,0.601624,0.519958,-0.025452,0.605835,down
455347,8.273438,6.53125,5.058594,-0.369141,1.130859,0.433594,0.601624,0.515442,-0.024902,0.609741,down
455352,8.199219,6.722656,5.136719,-0.369141,1.130859,0.433594,0.60144,0.510864,-0.023804,0.61377,down
455357,8.15625,6.839844,5.214844,-0.289063,1.226563,0.431641,0.60144,0.510864,-0.023804,0.61377,down
455362,8.121094,6.914062,5.214844,-0.224609,1.263672,0.431641,0.601196,0.508301,-0.022949,0.61615,down
455367,8.082031,7.105469,5.328125,-0.224609,1.263672,0.431641,0.600708,0.503906,-0.021118,0.620361,down
455372,8.042969,7.222656,5.40625,-0.224609,1.263672,0.431641,0.600281,0.501526,-0.019958,0.622681,down
455377,8.082031,7.335937,5.441406,-0.224609,1.263672,0.431641,0.600281,0.501526,-0.019958,0.622681,down
455382,8.082031,7.414062,5.441406,-0.173828,1.376953,0.480469,0.600281,0.501526,-0.019958,0.622681,down
455387,8.15625,7.488281,5.519531,-0.173828,1.376953,0.480469,0.598999,0.494263,-0.016418,0.629822,down
455392,8.199219,7.566406,5.480469,-0.173828,1.376953,0.480469,0.598999,0.494263,-0.016418,0.629822,down
455397,8.238281,7.488281,5.441406,-0.345703,1.478516,0.533203,0.598267,0.488464,-0.014465,0.635071,down
455402,8.382813,7.105469,5.597656,-0.345703,1.478516,0.533203,0.598083,0.484924,-0.013672,0.637878,down
455407,8.421875,6.761719,5.789062,-0.345703,1.478516,0.533203,0.598083,0.484924,-0.013672,0.637878,down
455412,8.421875,6.761719,5.789062,-0.757812,1.699219,0.630859,0.598022,0.481384,-0.013062,0.640625,down
455417,8.503906,6.53125,5.941406,-0.853516,1.8125,0.675781,0.598022,0.481384,-0.013062,0.640625,down
455422,8.347656,6.300781,6.171875,-0.898437,1.945313,0.693359,0.598022,0.481384,-0.013062,0.640625,down
455427,8.347656,6.300781,6.171875,-0.919922,2.103516,0.726562,0.598022,0.468323,-0.01123,0.65033,down
455433,7.960937,6.1875,6.285156,-0.9375,2.240234,0.740234,0.5979,0.458069,-0.009277,0.657715,down
455439,7.429687,6.417969,6.363281,-0.9375,2.240234,0.740234,0.597717,0.452698,-0.007996,0.66156,down
455444,7.199219,6.570312,6.402344,-0.798828,2.730469,0.775391,0.597717,0.452698,-0.007996,0.66156,down
455449,7.050781,6.609375,6.363281,-0.695312,2.902344,0.751953,0.597046,0.441162,-0.004211,0.669983,down
455456,6.851562,6.683594,6.285156,-0.591797,3.09375,0.703125,0.597046,0.441162,-0.004211,0.669983,down
455461,6.546875,6.796875,6.210937,-0.591797,3.09375,0.703125,0.597046,0.441162,-0.004211,0.669983,down
455467,6.316406,6.757812,6.054687,-0.474609,3.355469,0.599609,0.597046,0.441162,-0.004211,0.669983,down
455472,6.164062,6.648437,5.902344,-0.496094,3.496094,0.517578,0.594604,0.409058,0.01239,0.692078,down
455477,5.589844,6.613281,5.558594,-0.496094,3.496094,0.517578,0.594421,0.401978,0.016296,0.696289,down
455482,5.285156,6.570312,5.558594,-0.496094,3.496094,0.517578,0.594421,0.401978,0.016296,0.696289,down
455487,5.128906,6.574219,5.671875,-0.707031,3.556641,0.345703,0.594421,0.401978,0.016296,0.696289,down
455492,5.128906,6.574219,5.671875,-0.789062,3.46875,0.306641,0.594238,0.387329,0.023743,0.704468,down
455497,4.9375,6.570312,6.4375,-0.789062,3.46875,0.306641,0.594238,0.387329,0.023743,0.704468,down
455502,4.863281,6.570312,7.363281,-0.828125,3.353516,0.267578,0.594421,0.373169,0.030273,0.711731,down
455507,4.863281,6.570312,7.363281,-0.828125,3.353516,0.267578,0.594421,0.373169,0.030273,0.711731,down
455512,4.171875,6.761719,7.324219,-0.917969,3.380859,0.201172,0.594421,0.373169,0.030273,0.711731,down
455517,3.980469,7.03125,7.285156,-0.917969,3.380859,0.201172,0.594849,0.350891,0.039856,0.722107,down
455522,3.828125,7.070312,7.511719,-1.207031,3.046875,0.347656,0.594849,0.350891,0.039856,0.722107,down
455527,3.675781,7.105469,7.816406,-1.207031,3.046875,0.347656,0.595032,0.335693,0.045166,0.728882,down
455533,3.214844,6.953125,7.929687,-1.207031,3.046875,0.347656,0.595032,0.321289,0.048279,0.735107,down
455538,2.984375,6.992187,7.894531,-1.583984,2.828125,0.611328,0.59491,0.312988,0.049377,0.738708,down
455543,2.753906,7.070312,7.851562,-1.638672,2.625,0.75,0.594543,0.30542,0.049927,0.742126,down
455549,2.5625,7.070312,8.207031,-1.654297,2.392578,0.886719,0.594055,0.299316,0.049927,0.744995,down
455554,2.410156,6.300781,8.8125,-1.654297,2.392578,0.886719,0.593262,0.292725,0.049561,0.748291,down
455559,2.179688,5.882812,8.695313,-1.65625,2.064453,1.140625,0.593262,0.292725,0.049561,0.748291,down
455565,2.027344,5.421875,8.738281,-1.613281,1.857422,1.269531,0.593262,0.292725,0.049561,0.748291,down
455570,1.988281,5.078125,8.699219,-1.613281,1.857422,1.269531,0.593262,0.292725,0.049561,0.748291,down
455576,1.875,4.695312,8.660156,-1.544922,1.626953,1.388672,0.589294,0.274841,0.046509,0.758301,down
455581,1.875,4.695312,8.660156,-1.21875,1.152344,1.578125,0.585205,0.265625,0.043274,0.764893,down
455586,1.796875,4.117187,8.8125,-1.21875,1.152344,1.578125,0.585205,0.265625,0.043274,0.764893,down
455592,1.796875,4.117187,8.8125,-0.587891,0.546875,1.710938,0.579895,0.26001,0.040039,0.771057,down
455597,1.796875,3.660156,9.078125,-0.587891,0.546875,1.710938,0.573425,0.258972,0.03772,0.776367,down
455602,1.875,3.734375,9.199219,-0.587891,0.546875,1.710938,0.573425,0.258972,0.03772,0.776367,down
455607,1.875,3.8125,9.195313,-0.587891,0.546875,1.710938,0.569641,0.260315,0.036926,0.778687,down
455612,1.875,3.851563,9.121094,1.296875,-1.191406,1.966797,0.569641,0.260315,0.036926,0.778687,down
455617,1.949219,3.925781,8.777344,1.296875,-1.191406,1.966797,0.56073,0.26709,0.035889,0.782898,down
455623,1.914063,3.890625,8.65625,1.503906,-1.53125,2.033203,0.550842,0.27771,0.034668,0.786255,down
455628,1.949219,3.925781,8.507813,1.503906,-1.53125,2.033203,0.550842,0.27771,0.034668,0.786255,down
455634,1.988281,3.964844,8.351563,1.675781,-2.160156,2.207031,0.54071,0.290466,0.032349,0.788818,down
455640,1.875,3.734375,7.78125,1.675781,-2.160156,2.207031,0.534912,0.298279,0.030457,0.789917,down
455645,1.796875,3.582031,7.46875,1.638672,-2.994141,2.458984,0.534912,0.298279,0.030457,0.789917,down
455651,1.796875,3.46875,7.203125,1.550781,-3.242188,2.546875,0.534912,0.298279,0.030457,0.789917,down
455657,1.914063,3.046875,6.859375,1.423828,-3.449219,2.611328,0.534912,0.298279,0.030457,0.789917,down
455662,2.027344,2.777344,6.59375,1.226563,-3.716797,2.701172,0.534912,0.298279,0.030457,0.789917,down
455667,2.140625,2.511719,6.320312,1.226563,-3.716797,2.701172,0.504761,0.341187,0.013367,0.792847,down
455672,2.140625,2.511719,6.320312,1.212891,-3.798828,2.693359,0.498535,0.35022,0.008728,0.792908,down
455677,2.449219,2.355469,5.789062,1.212891,-3.798828,2.693359,0.498535,0.35022,0.008728,0.792908,down
455682,2.832031,2.546875,5.753906,1.267578,-3.900391,2.683594,0.485657,0.369019,-0.000732,0.792419,down
455687,2.832031,2.546875,5.753906,1.267578,-3.900391,2.683594,0.485657,0.369019,-0.000732,0.792419,down
455692,2.753906,1.820313,5.792969,1.556641,-4.511719,2.646484,0.485657,0.369019,-0.000732,0.792419,down
455698,2.71875,1.285156,5.515625,1.791016,-4.646484,2.685547,0.485657,0.369019,-0.000732,0.792419,down
455703,2.601563,1.128906,5.292969,1.791016,-4.646484,2.685547,0.44989,0.423462,-0.024719,0.785889,down
455708,2.488281,1.324219,4.984375,2.058594,-4.953125,2.882813,0.441711,0.435303,-0.029358,0.783936,down
455713,2.488281,1.054688,4.984375,2.058594,-4.953125,2.882813,0.441711,0.435303,-0.029358,0.783936,down
455718,2.488281,1.054688,4.984375,2.087891,-5.210937,2.986328,0.434021,0.446289,-0.033691,0.78186,down
455723,2.640625,0.863281,5.132812,2.087891,-5.210937,2.986328,0.425415,0.458374,-0.038696,0.779358,down
455728,3.636719,0.210937,4.5625,2.070313,-5.378906,3.136719,0.416504,0.470581,-0.043884,0.776611,down
455733,3.636719,0.210937,4.5625,2.087891,-5.310547,3.146484,0.407104,0.483032,-0.049255,0.773682,down
455738,3.636719,0.210937,4.5625,2.087891,-5.310547,3.146484,0.388367,0.506592,-0.059448,0.767456,down
455743,4.859375,0.59375,3.910156,2.167969,-4.980469,2.988281,0.388367,0.506592,-0.059448,0.767456,down
455748,5.628906,0.289063,3.296875,2.167969,-4.980469,2.988281,0.370178,0.528442,-0.068359,0.760986,down
455753,6.125,-0.363281,3.183594,2.167969,-4.980469,2.988281,0.361206,0.538879,-0.072388,0.757568,down
455758,6.507812,-0.554687,3.105469,2.230469,-4.246094,2.548828,0.361206,0.538879,-0.072388,0.757568,down
455763,6.773437,0.097656,3.183594,2.230469,-4.246094,2.548828,0.35199,0.549194,-0.075989,0.75415,down
455768,6.546875,0.019531,3.222656,2.230469,-4.246094,2.548828,0.335388,0.567078,-0.080261,0.747986,down
455773,6.546875,0.019531,3.222656,2.230469,-4.246094,2.548828,0.335388,0.567078,-0.080261,0.747986,down
455778,6.089844,-0.554687,3.527344,2.671875,-3.679688,2.023438,0.335388,0.567078,-0.080261,0.747986,down
455783,5.019531,-1.664063,3.527344,2.648438,-3.511719,1.986328,0.318909,0.584106,-0.082275,0.741882,down
455788,5.019531,-1.664063,3.527344,2.648438,-3.511719,1.986328,0.318909,0.584106,-0.082275,0.741882,down
455793,4.859375,-1.742188,2.722656,2.685547,-3.171875,1.955078,0.302246,0.599854,-0.083496,0.736145,down
455798,5.363281,-0.9375,2.035156,2.685547,-3.171875,1.955078,0.284851,0.615295,-0.084106,0.730225,down
455803,5.742187,-0.25,1.765625,2.685547,-3.171875,1.955078,0.277344,0.622009,-0.084229,0.727356,down
455808,6.242187,0.480469,1.535156,2.685547,-3.171875,1.955078,0.277344,0.622009,-0.084229,0.727356,down
455813,6.242187,0.480469,1.535156,2.773438,-3.310547,1.644531,0.26886,0.629883,-0.084229,0.723816,down
455818,6.851562,0.976562,1.421875,2.876953,-3.310547,1.416016,0.261353,0.637024,-0.08374,0.720337,down
455823,6.851562,0.976562,1.421875,3.105469,-3.228516,1.136719,0.253723,0.64447,-0.082581,0.716553,down
455829,8.542969,2.050781,1.421875,3.105469,-3.228516,1.136719,0.245911,0.6521,-0.080261,0.712646,down
455834,9.070313,2.125,1.496094,3.548828,-2.773438,0.490234,0.231628,0.665649,-0.072815,0.705627,down
455840,8.582031,1.285156,1.269531,3.548828,-2.773438,0.490234,0.224976,0.671631,-0.067932,0.702637,down
455845,8.195313,1.09375,1.039063,3.224609,-1.474609,-0.152344,0.224976,0.671631,-0.067932,0.702637,down
455851,7.925781,1.015625,0.921875,2.755859,-1.164063,-0.269531,0.224976,0.671631,-0.067932,0.702637,down
455857,7.433594,0.554687,1.535156,2.097656,-1.017578,-0.359375,0.224976,0.671631,-0.067932,0.702637,down
455863,7.046875,0.519531,2.226563,0.667969,-0.759766,-0.476562,0.224976,0.671631,-0.067932,0.702637,down
455868,6.664062,0.554687,2.570313,0.667969,-0.759766,-0.476562,0.207275,0.689819,-0.047363,0.692017,down
455873,6.007812,0.25,2.683594,0.667969,-0.759766,-0.476562,0.207275,0.689819,-0.047363,0.692017,down
455878,6.007812,0.25,2.683594,0.667969,-0.759766,-0.476562,0.207275,0.689819,-0.047363,0.692017,down
455883,5.863281,0.136719,2.648438,-0.376953,-0.525391,-0.595703,0.207275,0.689819,-0.047363,0.692017,down
455888,5.863281,0.136719,2.648438,-0.373047,-0.630859,-0.658203,0.211426,0.692444,-0.046448,0.688232,down
455893,5.863281,0.136719,2.648438,-0.048828,-0.884766,-0.839844,0.213013,0.693542,-0.046143,0.686646,down
455899,6.664062,1.933594,2.378906,-0.048828,-0.884766,-0.839844,0.216064,0.696838,-0.044128,0.682495,down
455904,6.933594,2.28125,2.1875,0.490234,-0.9375,-1.117188,0.217102,0.69873,-0.042236,0.680298,down
455909,7.273437,2.625,1.804688,0.490234,-0.9375,-1.117188,0.217957,0.700562,-0.039917,0.678284,down
455915,7.5,2.816406,1.726563,0.490234,-0.9375,-1.117188,0.218811,0.702698,-0.036743,0.676025,down
455920,7.621094,2.894531,1.6875,0.921875,-0.882812,-1.513672,0.218811,0.702698,-0.036743,0.676025,down
455926,7.773437,2.894531,1.765625,0.880859,-0.833984,-1.619141,0.218811,0.702698,-0.036743,0.676025,down
455931,7.886719,3.007813,2.035156,0.880859,-0.833984,-1.619141,0.222107,0.70874,-0.025696,0.669128,down
455936,7.886719,3.121094,2.035156,0.271484,-0.615234,-1.767578,0.222107,0.70874,-0.025696,0.669128,down
455941,7.8125,3.277344,2.035156,-0.210937,-0.421875,-1.806641,0.222107,0.70874,-0.025696,0.669128,down
455946,7.660156,3.46875,1.957031,-0.210937,-0.421875,-1.806641,0.23114,0.711487,-0.017212,0.663391,down
455952,7.351562,3.46875,1.878906,-0.210937,-0.421875,-1.806641,0.236206,0.71106,-0.016052,0.662048,down
455958,7.3125,3.3125,1.878906,-2.056641,0.136719,-1.808594,0.249512,0.708252,-0.016174,0.660156,down
455963,7.3125,3.3125,1.878906,-2.839844,0.376953,-1.822266,0.249512,0.708252,-0.016174,0.660156,down
455968,7.3125,3.3125,2.035156,-2.839844,0.376953,-1.822266,0.257568,0.706055,-0.017212,0.659485,down
455973,7.316406,3.3125,2.109375,-3.226563,0.566406,-1.882813,0.265442,0.703613,-0.018555,0.658875,down
455978,7.160156,3.277344,2.226563,-3.226563,0.566406,-1.882813,0.27478,0.7005,-0.020264,0.658325,down
455983,6.285156,2.96875,2.609375,-3.226563,0.566406,-1.882813,0.292053,0.694275,-0.023376,0.657349,down
455988,5.933594,2.96875,2.722656,-3.226563,0.566406,-1.882813,0.292053,0.694275,-0.023376,0.657349,down
455993,5.933594,2.96875,2.722656,-3.087891,0.427734,-1.998047,0.300781,0.691223,-0.02478,0.656616,down
455998,5.742187,3.007813,2.761719,-2.914063,0.238281,-2.035156,0.300781,0.691223,-0.02478,0.656616,down
456003,5.667969,3.160156,2.800781,-2.744141,0.019531,-2.068359,0.300781,0.691223,-0.02478,0.656616,down
456008,5.667969,3.160156,2.800781,-2.611328,-0.171875,-2.107422,0.325562,0.684326,-0.027832,0.651855,down
456013,5.902344,4.117187,3.066406,-2.484375,-0.267578,-2.162109,0.341125,0.681274,-0.028992,0.646973,down
456018,5.820312,4.695312,2.683594,-2.484375,-0.267578,-2.162109,0.341125,0.681274,-0.028992,0.646973,down
456023,6.050781,4.921875,2.417969,-2.484375,-0.267578,-2.162109,0.348877,0.679993,-0.029053,0.644287,down
456028,6.355469,5.152344,2.035156,-2.128906,-0.291016,-2.400391,0.348877,0.679993,-0.029053,0.644287,down
456033,6.816406,5.613281,1.382813,-2.132813,-0.246094,-2.492188,0.348877,0.679993,-0.029053,0.644287,down
456038,6.816406,5.613281,1.382813,-2.132813,-0.246094,-2.492188,0.379639,0.674011,-0.027222,0.633118,down
456043,6.777344,5.804687,1.269531,-2.132813,-0.246094,-2.492188,0.379639,0.674011,-0.027222,0.633118,down
456048,6.777344,5.613281,1.304688,-2.958984,0.148437,-2.871094,0.379639,0.674011,-0.027222,0.633118,down
456053,6.777344,5.613281,1.304688,-2.958984,0.148437,-2.871094,0.397461,0.669006,-0.026428,0.627502,down
456058,7.199219,5.382812,1.535156,-2.958984,0.148437,-2.871094,0.397461,0.669006,-0.026428,0.627502,down
456063,6.695312,5.078125,2.492188,-3.189453,0.251953,-2.982422,0.417603,0.662109,-0.02594,0.621765,down
456068,6.695312,5.078125,2.492188,-3.189453,0.251953,-2.982422,0.417603,0.662109,-0.02594,0.621765,down
456073,5.054687,5.382812,3.835938,-3.693359,0.470703,-3.296875,0.417603,0.662109,-0.02594,0.621765,down
456079,4.441406,5.496094,4.410156,-3.712891,0.283203,-3.308594,0.417603,0.662109,-0.02594,0.621765,down
456084,4.097656,5.53125,4.984375,-3.712891,0.283203,-3.308594,0.473572,0.639587,-0.02533,0.60498,down
456089,3.867188,5.652344,5.519531,-3.445313,-0.099609,-3.169922,0.483948,0.63562,-0.025574,0.600952,down
456094,3.714844,5.917969,5.980469,-3.445313,-0.099609,-3.169922,0.493103,0.632263,-0.025818,0.596985,down
456099,3.367188,6.570312,6.246094,-3.0,-0.349609,-3.021484,0.503113,0.628845,-0.026001,0.592224,down
456104,3.40625,6.957031,5.863281,-2.871094,-0.441406,-2.964844,0.51239,0.625793,-0.026184,0.587463,down
456109,4.097656,7.605469,4.292969,-2.871094,-0.441406,-2.964844,0.51239,0.625793,-0.026184,0.587463,down
456114,4.097656,7.605469,4.292969,-2.826172,-0.529297,-2.939453,0.520447,0.62323,-0.026367,0.58313,down
456119,4.402344,7.910156,3.71875,-2.826172,-0.529297,-2.939453,0.529297,0.620422,-0.026733,0.578064,down
456124,4.402344,7.910156,3.71875,-3.103516,-0.605469,-2.957031,0.537903,0.617676,-0.027222,0.573059,down
456129,4.402344,7.910156,3.71875,-3.103516,-0.605469,-2.957031,0.546631,0.614685,-0.027832,0.567932,down
456134,5.4375,8.328125,2.683594,-3.414063,-0.365234,-3.007813,0.555908,0.611206,-0.028564,0.562622,down
456139,5.4375,8.328125,2.683594,-3.414063,-0.365234,-3.007813,0.574463,0.603088,-0.030029,0.552612,down
456144,5.628906,8.328125,2.648438,-3.414063,-0.365234,-3.007813,0.5849,0.597717,-0.030762,0.547424,down
456149,5.589844,8.257813,2.722656,-4.046875,0.125,-3.052734,0.5849,0.597717,-0.030762,0.547424,down
456154,5.550781,8.066406,2.761719,-4.046875,0.125,-3.052734,0.605835,0.585449,-0.03241,0.537781,down
456159,5.628906,7.910156,2.992188,-4.527344,0.353516,-3.105469,0.605835,0.585449,-0.03241,0.537781,down
456164,5.859375,7.839844,3.644531,-4.527344,0.353516,-3.105469,0.626221,0.571838,-0.034302,0.528809,down
456169,5.820312,7.796875,4.179687,-4.527344,0.353516,-3.105469,0.626221,0.571838,-0.034302,0.528809,down
456174,5.820312,7.796875,4.179687,-4.6875,0.380859,-3.222656,0.638184,0.563416,-0.0354,0.523437,down
456180,5.703125,7.71875,5.175781,-4.587891,0.316406,-3.277344,0.658508,0.549072,-0.037048,0.513367,down
456185,5.703125,7.988281,5.40625,-4.587891,0.316406,-3.277344,0.658508,0.549072,-0.037048,0.513367,down
456190,5.703125,7.988281,5.40625,-3.960938,0.044922,-3.402344,0.658508,0.549072,-0.037048,0.513367,down
456196,5.972656,8.367188,5.671875,-3.960938,0.044922,-3.402344,0.687805,0.529053,-0.03833,0.495544,down
456201,6.011719,9.171875,5.828125,-3.960938,0.044922,-3.402344,0.696594,0.523499,-0.038269,0.489136,down
456207,6.089844,9.597656,5.75,-2.960938,-0.160156,-3.476563,0.696594,0.523499,-0.038269,0.489136,down
456212,6.242187,10.058594,5.519531,-2.589844,-0.158203,-3.490234,0.696594,0.523499,-0.038269,0.489136,down
456217,6.472656,11.089844,5.214844,-2.208984,-0.113281,-3.478516,0.696594,0.523499,-0.038269,0.489136,down
456222,6.472656,11.667969,5.136719,-1.800781,-0.058594,-3.441406,0.696594,0.523499,-0.038269,0.489136,down
456227,6.433594,12.125,5.136719,-1.363281,0.015625,-3.40625,0.696594,0.523499,-0.038269,0.489136,down
456233,6.433594,12.125,5.136719,-0.884766,0.130859,-3.353516,0.738037,0.502197,-0.028137,0.449768,down
456238,6.164062,13.121094,4.945312,-0.884766,0.130859,-3.353516,0.738037,0.502197,-0.028137,0.449768,down
456243,6.203125,13.960938,4.523437,-0.412109,0.244141,-3.292969,0.746399,0.500488,-0.020081,0.438232,down
456248,6.203125,13.960938,4.523437,-0.412109,0.244141,-3.292969,0.746399,0.500488,-0.020081,0.438232,down
456253,6.011719,15.417969,4.101562,0.273438,0.392578,-3.152344,0.752686,0.500793,-0.010193,0.427246,down
456259,5.933594,15.691406,4.101562,0.451172,0.378906,-2.978516,0.758057,0.501587,-0.000427,0.41687,down
456264,5.933594,15.875,4.0625,0.451172,0.378906,-2.978516,0.758057,0.501587,-0.000427,0.41687,down
456269,5.898437,15.992188,4.027344,-0.273438,0.296875,-2.628906,0.758057,0.501587,-0.000427,0.41687,down
456274,5.820312,16.035156,4.027344,-0.273438,0.296875,-2.628906,0.766846,0.499756,0.011108,0.402527,down
456279,5.820312,15.796875,4.332031,-0.273438,0.296875,-2.628906,0.770691,0.497681,0.013916,0.397705,down
456284,5.78125,15.496094,4.523437,-1.351563,0.107422,-2.220703,0.770691,0.497681,0.013916,0.397705,down
456289,5.667969,15.148438,4.675781,-1.351563,0.107422,-2.220703,0.778259,0.492187,0.017151,0.389587,down
456294,5.550781,14.847656,4.832031,-1.351563,0.107422,-2.220703,0.782104,0.488953,0.017883,0.385925,down
456299,5.398437,14.121094,5.214844,-1.351563,0.107422,-2.220703,0.782104,0.488953,0.017883,0.385925,down
456304,5.4375,13.808594,5.480469,-1.869141,-0.203125,-1.642578,0.782104,0.488953,0.017883,0.385925,down
456309,5.398437,13.199219,5.789062,-1.869141,-0.203125,-1.642578,0.793823,0.478149,0.017883,0.375366,down
456314,5.398437,13.199219,5.789062,-1.869141,-0.203125,-1.642578,0.793823,0.478149,0.017883,0.375366,down
456319,5.359375,12.972656,5.789062,-1.644531,-0.310547,-1.392578,0.793823,0.478149,0.017883,0.375366,down
456324,5.359375,12.972656,5.789062,-1.220703,-0.421875,-1.210938,0.803101,0.469727,0.016357,0.366211,down
456329,5.285156,12.507813,5.828125,-1.220703,-0.421875,-1.210938,0.803101,0.469727,0.016357,0.366211,down
456334,5.285156,12.507813,5.828125,-0.984375,-0.464844,-1.148438,0.805481,0.467834,0.015808,0.363403,down
456339,5.359375,11.285156,5.75,-0.984375,-0.464844,-1.148438,0.809265,0.465576,0.015015,0.357849,down
456344,5.398437,10.898438,5.480469,-0.984375,-0.464844,-1.148438,0.809265,0.465576,0.015015,0.357849,down
456349,5.398437,10.707031,5.367187,-0.984375,-0.464844,-1.148438,0.811951,0.464905,0.014771,0.352661,down
456354,5.359375,10.632813,5.289062,-0.984375,-0.464844,-1.148438,0.811951,0.464905,0.014771,0.352661,down
456359,5.246094,10.667969,5.136719,-0.095703,-0.429687,-0.900391,0.813904,0.465088,0.014893,0.347839,down
456364,5.128906,10.515625,5.023437,-0.095703,-0.429687,-0.900391,0.813904,0.465088,0.014893,0.347839,down
456369,5.015625,10.59375,4.867187,-0.095703,-0.429687,-0.900391,0.814758,0.465454,0.015076,0.345398,down
456375,4.863281,10.402344,4.714844,-0.013672,-0.398438,-0.751953,0.814758,0.465454,0.015076,0.345398,down
456380,4.902344,10.210938,4.792969,-0.013672,-0.398438,-0.751953,0.816772,0.466431,0.01532,0.339233,down
456385,4.863281,10.132813,4.832031,-0.013672,-0.398438,-0.751953,0.817383,0.466553,0.015259,0.337646,down
456390,4.710937,10.058594,4.792969,-0.142578,-0.330078,-0.613281,0.817383,0.466553,0.015259,0.337646,down
456395,4.710937,10.058594,4.792969,-0.162109,-0.332031,-0.580078,0.818787,0.466492,0.015076,0.33429,down
456401,4.210937,9.636719,4.90625,-0.162109,-0.332031,-0.580078,0.819458,0.466431,0.014893,0.332703,down
456408,4.132812,9.476563,4.945312,-0.183594,-0.384766,-0.527344,0.819458,0.466431,0.014893,0.332703,down
456413,4.019531,9.515625,5.058594,-0.179687,-0.410156,-0.515625,0.819458,0.466431,0.014893,0.332703,down
456419,3.867188,9.554688,5.058594,-0.208984,-0.433594,-0.472656,0.822205,0.466003,0.013184,0.32666,down
456424,3.828125,9.480469,5.058594,-0.208984,-0.433594,-0.472656,0.822205,0.466003,0.013184,0.32666,down
456429,3.828125,9.449219,5.214844,-0.335938,-0.490234,-0.375,0.822205,0.466003,0.013184,0.32666,down
456434,3.789063,9.332031,5.25,-0.392578,-0.507812,-0.314453,0.822205,0.466003,0.013184,0.32666,down
456439,3.714844,9.289063,5.289062,-0.392578,-0.507812,-0.314453,0.824402,0.464905,0.010498,0.322693,down
456444,3.714844,9.175781,5.328125,-0.320313,-0.535156,-0.1875,0.824402,0.464905,0.010498,0.322693,down
456449,3.714844,9.097656,5.480469,-0.320313,-0.535156,-0.1875,0.825684,0.464172,0.008179,0.320496,down
456454,3.675781,8.910156,5.519531,-0.320313,-0.535156,-0.1875,0.826172,0.463989,0.00708,0.319519,down
456459,3.597656,8.828125,5.558594,-0.175781,-0.527344,-0.144531,0.826599,0.463867,0.006042,0.318665,down
456464,3.597656,8.792969,5.597656,-0.175781,-0.527344,-0.144531,0.826965,0.463867,0.004822,0.317688,down
456469,3.597656,8.714844,5.597656,-0.054687,-0.539062,-0.144531,0.827271,0.463928,0.003784,0.316772,down
456474,3.558594,8.605469,5.597656,-0.054687,-0.539062,-0.144531,0.827515,0.464172,0.002808,0.315857,down
456479,3.558594,8.566406,5.597656,-0.054687,-0.539062,-0.144531,0.827637,0.464539,0.001892,0.314941,down
456485,3.558594,8.5625,5.632812,0.025391,-0.515625,-0.134766,0.827637,0.464539,0.001892,0.314941,down
456490,3.558594,8.484375,5.671875,0.025391,-0.515625,-0.134766,0.827942,0.46582,-0.000916,0.312195,down
456496,3.40625,8.449219,5.480469,0.025391,-0.515625,-0.134766,0.828064,0.466248,-0.001648,0.311401,down
456501,3.328125,8.445313,5.519531,0.033203,-0.453125,-0.125,0.828064,0.466248,-0.001648,0.311401,down
456507,3.292969,8.449219,5.558594,0.029297,-0.453125,-0.121094,0.828064,0.466248,-0.001648,0.311401,down
456512,3.136719,8.527344,5.480469,0.029297,-0.453125,-0.121094,0.828247,0.467407,-0.004028,0.309021,down
456517,3.0625,8.410156,5.480469,0.015625,-0.470703,-0.119141,0.828247,0.467407,-0.004028,0.309021,down
456522,3.023438,8.449219,5.480469,0.039063,-0.484375,-0.111328,0.828247,0.467407,-0.004028,0.309021,down
456527,2.945313,8.367188,5.40625,0.039063,-0.484375,-0.111328,0.828247,0.467407,-0.004028,0.309021,down
456532,2.984375,8.371094,5.367187,0.113281,-0.507812,-0.101563,0.828247,0.467407,-0.004028,0.309021,down
456538,3.023438,8.371094,5.328125,0.136719,-0.523437,-0.076172,0.828247,0.467407,-0.004028,0.309021,down
456543,3.0625,8.367188,5.289062,0.136719,-0.523437,-0.076172,0.828186,0.470642,-0.009216,0.304199,down
456548,3.0625,8.328125,5.175781,0.171875,-0.511719,-0.029297,0.828186,0.470642,-0.009216,0.304199,down
456553,3.0625,8.332031,5.097656,0.169922,-0.488281,-0.001953,0.828186,0.470642,-0.009216,0.304199,down
456558,3.0625,8.292969,5.097656,0.160156,-0.462891,0.035156,0.828186,0.470642,-0.009216,0.304199,down
456563,3.0625,8.261719,5.058594,0.160156,-0.462891,0.035156,0.828186,0.470642,-0.009216,0.304199,down
456568,3.0625,8.222656,5.023437,0.160156,-0.462891,0.035156,0.827148,0.473999,-0.01355,0.301636,down
456574,3.0625,8.222656,5.023437,0.091797,-0.349609,0.125,0.826965,0.474426,-0.014343,0.301453,down
456579,3.0625,8.222656,5.023437,0.042969,-0.324219,0.138672,0.826782,0.474792,-0.015137,0.301331,down
456584,3.101563,8.023438,4.90625,0.042969,-0.324219,0.138672,0.826782,0.474792,-0.015137,0.301331,down
456589,3.0625,7.988281,4.867187,-0.011719,-0.302734,0.142578,0.826782,0.474792,-0.015137,0.301331,down
456594,3.0625,7.988281,4.867187,-0.167969,-0.257813,0.148437,0.826538,0.47522,-0.017578,0.301147,down
456599,3.136719,7.683594,4.984375,-0.167969,-0.257813,0.148437,0.826599,0.475098,-0.018433,0.301147,down
456604,3.136719,7.644531,5.058594,-0.167969,-0.257813,0.148437,0.826721,0.474915,-0.019226,0.301086,down
456610,3.136719,7.566406,5.136719,-0.25,-0.251953,0.125,0.826721,0.474915,-0.019226,0.301086,down
456615,3.101563,7.5625,5.175781,-0.25,-0.251953,0.125,0.827026,0.474304,-0.020935,0.301025,down
456621,3.136719,7.488281,5.289062,-0.25,-0.251953,0.125,0.827454,0.473572,-0.022766,0.300903,down
456626,3.136719,7.453125,5.328125,-0.279297,-0.289063,0.113281,0.827698,0.473145,-0.023682,0.300781,down
456631,3.136719,7.414062,5.367187,-0.263672,-0.300781,0.103516,0.827942,0.472778,-0.024658,0.300598,down
456637,3.175781,7.335937,5.441406,-0.263672,-0.300781,0.103516,0.828125,0.472473,-0.025574,0.300476,down
456642,3.214844,7.21875,5.40625,-0.212891,-0.292969,0.099609,0.828125,0.472473,-0.025574,0.300476,down
456647,3.214844,7.222656,5.441406,-0.189453,-0.291016,0.089844,0.828491,0.472046,-0.027405,0.30011,down
456652,3.292969,7.144531,5.40625,-0.162109,-0.291016,0.083984,0.828613,0.471863,-0.028198,0.299927,down
456657,3.292969,7.105469,5.441406,-0.144531,-0.277344,0.072266,0.828613,0.471863,-0.028198,0.299927,down
456663,3.328125,7.070312,5.367187,-0.115234,-0.261719,0.054687,0.828613,0.471863,-0.028198,0.299927,down
456668,3.328125,7.035156,5.328125,-0.076172,-0.253906,0.042969,0.828613,0.471863,-0.028198,0.299927,down
456674,3.40625,7.070312,5.328125,-0.076172,-0.253906,0.042969,0.828613,0.471863,-0.028198,0.299927,down
456679,3.367188,7.070312,5.328125,0.072266,-0.197266,-0.011719,0.828613,0.471863,-0.028198,0.299927,down
456684,3.40625,7.070312,5.289062,0.072266,-0.197266,-0.011719,0.828796,0.472107,-0.03186,0.298645,down
456690,3.328125,7.144531,5.214844,0.072266,-0.197266,-0.011719,0.828674,0.472473,-0.032227,0.29834,down
456695,3.367188,7.140625,5.175781,0.136719,-0.154297,-0.044922,0.82843,0.473206,-0.032532,0.297852,down
456700,3.328125,7.261719,5.175781,0.181641,-0.107422,-0.064453,0.82843,0.473206,-0.032532,0.297852,down
456705,3.253906,7.378906,5.097656,0.181641,-0.107422,-0.064453,0.828247,0.473694,-0.032593,0.297607,down
456710,3.214844,7.453125,5.058594,0.181641,-0.107422,-0.064453,0.827942,0.474548,-0.032532,0.297119,down
456715,3.136719,7.457031,5.097656,0.181641,-0.107422,-0.064453,0.827759,0.474976,-0.032532,0.296875,down
456720,3.101563,7.488281,5.175781,0.181641,-0.107422,-0.064453,0.827759,0.474976,-0.032532,0.296875,down
456725,3.136719,7.5625,5.25,0.144531,-0.089844,-0.083984,0.827759,0.474976,-0.032532,0.296875,down
456730,3.101563,7.5625,5.25,0.119141,-0.083984,-0.085937,0.827515,0.475769,-0.032471,0.296326,down
456735,3.136719,7.640625,5.214844,0.119141,-0.083984,-0.085937,0.827393,0.476379,-0.032471,0.295776,down
456740,3.101563,7.601562,5.25,0.119141,-0.083984,-0.085937,0.827393,0.476379,-0.032471,0.295776,down
456745,3.136719,7.644531,5.328125,0.0625,-0.111328,-0.095703,0.827332,0.476624,-0.032471,0.295471,down
456750,3.175781,7.640625,5.328125,0.0625,-0.111328,-0.095703,0.827332,0.477051,-0.032593,0.294861,down
456755,3.175781,7.679687,5.328125,0.095703,-0.123047,-0.089844,0.827332,0.477051,-0.032593,0.294861,down
456760,3.253906,7.71875,5.328125,0.095703,-0.123047,-0.089844,0.827271,0.477356,-0.032715,0.294495,down
456765,3.292969,7.757812,5.289062,0.095703,-0.123047,-0.089844,0.827209,0.477661,-0.032776,0.294189,down
456770,3.328125,7.796875,5.328125,0.109375,-0.128906,-0.099609,0.827209,0.477661,-0.032776,0.294189,down
456776,3.367188,7.761719,5.25,0.109375,-0.121094,-0.09375,0.827209,0.477661,-0.032776,0.294189,down
456782,3.367188,7.761719,5.289062,0.109375,-0.121094,-0.09375,0.826965,0.478882,-0.032959,0.292847,down
456788,3.445313,7.71875,5.25,0.128906,-0.105469,-0.107422,0.826965,0.478882,-0.032959,0.292847,down
456794,3.445313,7.757812,5.25,0.123047,-0.087891,-0.103516,0.826965,0.478882,-0.032959,0.292847,down
456800,3.445313,7.722656,5.214844,0.128906,-0.076172,-0.097656,0.826599,0.480225,-0.032837,0.291626,down
456805,3.40625,7.722656,5.25,0.128906,-0.076172,-0.097656,0.826599,0.480225,-0.032837,0.291626,down
456810,3.40625,7.761719,5.25,0.140625,-0.060547,-0.09375,0.826599,0.480225,-0.032837,0.291626,down
456815,3.367188,7.757812,5.214844,0.164062,-0.046875,-0.103516,0.826599,0.480225,-0.032837,0.291626,down
456820,3.367188,7.71875,5.214844,0.181641,-0.041016,-0.105469,0.826294,0.481262,-0.032471,0.290833,down
456825,3.292969,7.71875,5.25,0.181641,-0.041016,-0.105469,0.826111,0.481689,-0.032288,0.290588,down
456830,3.292969,7.761719,5.214844,0.181641,-0.041016,-0.105469,0.825989,0.482117,-0.032104,0.290344,down
456835,3.253906,7.757812,5.175781,0.208984,-0.050781,-0.107422,0.825989,0.482117,-0.032104,0.290344,down
456840,3.328125,7.757812,5.136719,0.214844,-0.085937,-0.101563,0.825623,0.483032,-0.031799,0.289795,down
456845,3.367188,7.800781,5.136719,0.214844,-0.085937,-0.101563,0.825439,0.483582,-0.031677,0.28949,down
456850,3.40625,7.871094,5.097656,0.21875,-0.109375,-0.103516,0.825256,0.48407,-0.031555,0.289185,down
456856,3.523438,7.90625,5.058594,0.21875,-0.109375,-0.103516,0.82489,0.485107,-0.031433,0.288635,down
456861,3.558594,7.90625,5.058594,0.203125,-0.097656,-0.091797,0.824646,0.485657,-0.031372,0.288269,down
456866,3.558594,7.984375,5.023437,0.203125,-0.097656,-0.091797,0.824463,0.486145,-0.031311,0.288025,down
456871,3.558594,7.984375,5.023437,0.203125,-0.097656,-0.091797,0.824341,0.486511,-0.03125,0.287781,down
456876,3.558594,8.027344,4.984375,0.160156,-0.064453,-0.082031,0.824158,0.487,-0.031189,0.287476,down
456881,3.558594,8.027344,5.023437,0.160156,-0.064453,-0.082031,0.824036,0.487305,-0.031128,0.287292,down
456886,3.558594,8.0625,5.058594,0.160156,-0.064453,-0.082031,0.823914,0.48761,-0.031006,0.287048,down
456892,3.484375,8.144531,5.023437,0.160156,-0.064453,-0.082031,0.823853,0.487793,-0.030945,0.286926,down
456897,3.484375,8.101563,5.023437,0.083984,-0.03125,-0.0625,0.823792,0.488037,-0.030884,0.286743,down
456902,3.484375,8.0625,4.984375,0.066406,-0.035156,-0.054687,0.823792,0.488037,-0.030884,0.286743,down
456908,3.484375,8.023438,5.136719,0.066406,-0.035156,-0.054687,0.823792,0.488037,-0.030884,0.286743,down
456913,3.40625,8.023438,5.136719,0.039063,-0.035156,-0.050781,0.823792,0.488037,-0.030884,0.286743,down
456918,3.445313,7.988281,5.175781,0.041016,-0.029297,-0.037109,0.823792,0.488037,-0.030884,0.286743,down
456924,3.445313,7.949219,5.136719,0.041016,-0.029297,-0.037109,0.823669,0.488708,-0.030701,0.286072,down
456929,3.40625,7.910156,5.097656,0.041016,-0.029297,-0.037109,0.823669,0.488708,-0.030701,0.286072,down
456935,3.367188,7.910156,5.136719,0.046875,-0.033203,-0.023437,0.823669,0.488708,-0.030701,0.286072,down
456940,3.367188,7.910156,5.136719,0.046875,-0.033203,-0.023437,0.823547,0.489014,-0.030701,0.285828,down
456945,3.367188,7.910156,5.136719,0.0625,-0.037109,-0.017578,0.823486,0.489136,-0.03064,0.285767,down
456950,3.367188,7.90625,5.175781,0.0625,-0.037109,-0.017578,0.823425,0.489258,-0.03064,0.285706,down
456956,3.40625,7.949219,5.175781,0.091797,-0.035156,-0.021484,0.823425,0.489258,-0.03064,0.285706,down
456962,3.40625,7.949219,5.175781,0.101563,-0.027344,-0.019531,0.823181,0.489868,-0.03064,0.285461,down
456967,3.40625,8.023438,5.214844,0.101563,-0.027344,-0.019531,0.823059,0.490112,-0.030579,0.2854,down
456972,3.367188,7.984375,5.175781,0.091797,-0.011719,-0.019531,0.822937,0.490295,-0.030518,0.2854,down
456978,3.328125,8.066406,5.214844,0.080078,0.001953,-0.023437,0.822937,0.490295,-0.030518,0.2854,down
456984,3.292969,8.105469,5.25,0.076172,0.005859,-0.027344,0.822937,0.490295,-0.030518,0.2854,down
456989,3.292969,8.066406,5.175781,0.072266,0.007813,-0.019531,0.822937,0.490295,-0.030518,0.2854,down
456994,3.292969,8.027344,5.214844,0.0625,0.011719,-0.029297,0.822937,0.490295,-0.030518,0.2854,down
457000,3.292969,8.023438,5.289062,0.044922,0.021484,-0.035156,0.822937,0.490295,-0.030518,0.2854,down
457005,3.253906,8.023438,5.25,0.044922,0.021484,-0.035156,0.822571,0.491089,-0.029907,0.285217,down
457010,3.328125,7.984375,5.289062,0.056641,0.029297,-0.023437,0.822571,0.491089,-0.029907,0.285217,down
457015,3.292969,7.90625,5.214844,0.056641,0.029297,-0.023437,0.822449,0.491272,-0.029602,0.285156,down
457020,3.292969,7.871094,5.175781,0.056641,0.029297,-0.023437,0.822388,0.491394,-0.02948,0.285156,down
457026,3.328125,7.835937,5.214844,0.076172,0.037109,-0.017578,0.822388,0.491394,-0.02948,0.285156,down
