timestamp,ax,ay,az,gx,gy,gz,qw,qx,qy,qz,label
62901,9.371094,2.550781,1.71875,-0.152344,0.103516,-0.267578,0.251709,0.651184,-0.014709,0.71582,down
62906,9.40625,2.625,1.679688,0.046875,0.15625,-0.332031,0.251709,0.651184,-0.014709,0.71582,down
62911,9.335938,2.742188,1.601563,0.160156,0.193359,-0.353516,0.251709,0.651184,-0.014709,0.71582,down
62917,9.300781,3.007813,1.71875,0.265625,0.230469,-0.386719,0.251709,0.651184,-0.014709,0.71582,down
62922,9.257813,3.164063,1.71875,0.371094,0.261719,-0.414062,0.251709,0.651184,-0.014709,0.71582,down
62928,9.222656,3.238281,1.679688,0.427734,0.304688,-0.445312,0.251709,0.651184,-0.014709,0.71582,down
62934,9.0625,3.507813,1.792969,0.451172,0.341797,-0.466797,0.251709,0.651184,-0.014709,0.71582,down
62940,8.953125,3.546875,1.949219,0.367188,0.353516,-0.486328,0.255371,0.648499,-0.005066,0.717102,down
62945,8.878906,3.507813,1.984375,0.367188,0.353516,-0.486328,0.25592,0.647644,-0.001648,0.717651,down
62950,8.71875,3.507813,2.0625,0.367188,0.353516,-0.486328,0.25647,0.647156,-0.000122,0.717896,down
62956,8.566406,3.585938,2.023438,0.367188,0.353516,-0.486328,0.257141,0.646667,0.000977,0.71814,down
62961,8.535156,3.585938,2.023438,-0.068359,0.289063,-0.435547,0.257141,0.646667,0.000977,0.71814,down
62966,8.535156,3.585938,2.023438,-0.171875,0.257813,-0.410156,0.258911,0.645447,0.002563,0.718567,down
62972,8.644531,3.46875,2.0625,-0.171875,0.257813,-0.410156,0.26001,0.644897,0.002991,0.718689,down
62978,8.722656,3.429688,2.0625,-0.328125,0.162109,-0.373047,0.26001,0.644897,0.002991,0.718689,down
62983,8.800781,3.277344,2.0625,-0.359375,0.140625,-0.363281,0.26001,0.644897,0.002991,0.718689,down
62988,8.839844,3.238281,2.140625,-0.361328,0.134766,-0.365234,0.26001,0.644897,0.002991,0.718689,down
62993,8.917969,3.164063,2.140625,-0.361328,0.134766,-0.365234,0.26001,0.644897,0.002991,0.718689,down
62999,8.917969,3.125,2.140625,-0.261719,0.15625,-0.388672,0.26001,0.644897,0.002991,0.718689,down
63004,8.984375,3.164063,2.175781,-0.087891,0.205078,-0.398438,0.26001,0.644897,0.002991,0.718689,down
63010,8.914063,3.164063,2.253906,-0.087891,0.205078,-0.398438,0.268188,0.641296,0.004578,0.718872,down
63015,8.914063,3.164063,2.253906,0.001953,0.240234,-0.398438,0.268982,0.640808,0.005249,0.718994,down
63020,8.957031,3.164063,2.175781,0.001953,0.240234,-0.398438,0.269714,0.64032,0.006226,0.719177,down
63025,8.679688,3.238281,2.175781,0.136719,0.318359,-0.404297,0.270203,0.639832,0.007202,0.719421,down
63030,8.679688,3.238281,2.175781,0.199219,0.332031,-0.421875,0.270691,0.639343,0.008423,0.719666,down
63036,8.53125,3.429688,2.140625,0.28125,0.320313,-0.439453,0.270691,0.639343,0.008423,0.719666,down
63041,8.492188,3.546875,2.175781,0.28125,0.320313,-0.439453,0.270691,0.639343,0.008423,0.719666,down
63047,8.417969,3.621094,2.175781,0.28125,0.320313,-0.439453,0.269714,0.637329,0.016602,0.72168,down
63053,8.414063,3.660156,2.214844,0.265625,0.273438,-0.478516,0.269714,0.637329,0.016602,0.72168,down
63058,8.417969,3.738281,2.140625,0.232422,0.267578,-0.488281,0.269714,0.637329,0.016602,0.72168,down
63065,8.53125,3.8125,2.214844,0.183594,0.214844,-0.507812,0.269714,0.637329,0.016602,0.72168,down
63070,8.601563,3.851563,2.292969,0.183594,0.214844,-0.507812,0.267578,0.635376,0.026123,0.723877,down
63075,8.601563,3.890625,2.367188,0.160156,0.191406,-0.511719,0.266418,0.634399,0.031189,0.724976,down
63080,8.71875,3.890625,2.40625,0.160156,0.191406,-0.511719,0.266113,0.633911,0.033325,0.725403,down
63085,8.640625,3.851563,2.40625,0.160156,0.191406,-0.511719,0.265991,0.633423,0.035217,0.725769,down
63090,8.5625,3.890625,2.40625,0.035156,0.222656,-0.550781,0.265991,0.633423,0.035217,0.725769,down
63095,8.496094,3.851563,2.367188,0.035156,0.222656,-0.550781,0.266174,0.632874,0.037231,0.726135,down
63100,8.496094,3.851563,2.367188,-0.027344,0.228516,-0.5625,0.266663,0.631714,0.040527,0.726746,down
63105,8.453125,3.8125,2.332031,-0.027344,0.228516,-0.5625,0.266663,0.631714,0.040527,0.726746,down
63110,8.453125,3.8125,2.332031,-0.027344,0.238281,-0.589844,0.266663,0.631714,0.040527,0.726746,down
63116,8.492188,3.699219,2.367188,-0.027344,0.238281,-0.589844,0.268494,0.629944,0.045105,0.727356,down
63121,8.453125,3.8125,2.332031,-0.027344,0.238281,-0.589844,0.269165,0.629333,0.04657,0.7276,down
63126,8.453125,3.8125,2.332031,0.029297,0.324219,-0.65625,0.269897,0.628601,0.048157,0.727783,down
63131,8.5625,3.777344,2.332031,0.029297,0.324219,-0.65625,0.270874,0.627808,0.049988,0.728027,down
63137,8.71875,3.8125,2.332031,0.029297,0.324219,-0.65625,0.271606,0.627136,0.051575,0.72821,down
63143,8.683594,3.851563,2.292969,0.111328,0.421875,-0.777344,0.271606,0.627136,0.051575,0.72821,down
63149,8.71875,3.8125,2.332031,0.150391,0.464844,-0.822266,0.273499,0.625427,0.055542,0.728699,down
63154,8.644531,4.042969,2.332031,0.150391,0.464844,-0.822266,0.273499,0.625427,0.055542,0.728699,down
63160,8.453125,4.195312,2.292969,0.259766,0.576172,-0.949219,0.273499,0.625427,0.055542,0.728699,down
63165,8.296875,4.3125,2.367188,0.259766,0.576172,-0.949219,0.277466,0.621399,0.065063,0.729797,down
63170,7.914062,4.695312,2.367188,0.224609,0.591797,-0.958984,0.277466,0.621399,0.065063,0.729797,down
63175,7.800781,4.773437,2.445313,0.224609,0.591797,-0.958984,0.278503,0.6203,0.067566,0.730164,down
63180,7.765625,4.925781,2.445313,0.123047,0.486328,-0.919922,0.278503,0.6203,0.067566,0.730164,down
63185,7.613281,4.773437,2.484375,0.123047,0.486328,-0.919922,0.282166,0.617004,0.074585,0.730835,down
63190,7.570312,4.734375,2.523438,0.123047,0.486328,-0.919922,0.283264,0.616028,0.076355,0.731079,down
63195,7.769531,4.925781,2.558594,0.123047,0.486328,-0.919922,0.283264,0.616028,0.076355,0.731079,down
63200,7.917969,4.886719,2.636719,-0.197266,0.341797,-0.792969,0.283264,0.616028,0.076355,0.731079,down
63205,7.996094,4.808594,2.789063,-0.197266,0.341797,-0.792969,0.287476,0.612976,0.080811,0.731506,down
63210,8.070313,4.695312,2.828125,-0.197266,0.341797,-0.792969,0.289001,0.611877,0.081909,0.731689,down
63215,8.296875,4.464844,2.789063,-0.197266,0.341797,-0.792969,0.289001,0.611877,0.081909,0.731689,down
63220,8.335938,4.390625,2.867188,-0.375,0.460937,-0.818359,0.289001,0.611877,0.081909,0.731689,down
63225,8.457031,4.351562,2.828125,-0.375,0.460937,-0.818359,0.294495,0.608093,0.084961,0.732361,down
63230,8.605469,4.273437,2.753906,-0.375,0.460937,-0.818359,0.294495,0.608093,0.084961,0.732361,down
63235,8.640625,4.273437,2.753906,-0.341797,0.597656,-0.943359,0.296692,0.606384,0.086243,0.732666,down
63241,8.679688,4.390625,2.714844,-0.341797,0.597656,-0.943359,0.300659,0.603271,0.088928,0.733337,down
63247,8.492188,4.582031,2.714844,-0.341797,0.597656,-0.943359,0.302551,0.601685,0.090393,0.733704,down
63252,8.378906,4.773437,2.636719,-0.205078,0.761719,-1.111328,0.302551,0.601685,0.090393,0.733704,down
63257,8.179688,5.0,2.636719,-0.130859,0.775391,-1.148438,0.302551,0.601685,0.090393,0.733704,down
63262,7.878906,5.308594,2.675781,-0.130859,0.775391,-1.148438,0.308655,0.596252,0.096558,0.734802,down
63267,7.878906,5.308594,2.675781,-0.130859,0.775391,-1.148438,0.308655,0.596252,0.096558,0.734802,down
63273,7.878906,5.308594,2.675781,-0.021484,0.710937,-1.175781,0.3125,0.592896,0.101318,0.735229,down
63278,7.878906,5.308594,2.675781,0.0,0.630859,-1.130859,0.314392,0.591431,0.103455,0.735291,down
63283,7.796875,5.539062,3.019531,0.0,0.630859,-1.130859,0.314392,0.591431,0.103455,0.735291,down
63288,7.878906,5.578125,3.210938,-0.042969,0.630859,-1.099609,0.318115,0.588318,0.107727,0.735535,down
63293,7.996094,5.539062,3.289063,-0.226562,0.669922,-1.044922,0.318115,0.588318,0.107727,0.735535,down
63298,8.257813,5.308594,3.328125,-0.226562,0.669922,-1.044922,0.318115,0.588318,0.107727,0.735535,down
63304,8.53125,5.15625,3.363281,-0.226562,0.669922,-1.044922,0.324036,0.582764,0.112854,0.736633,down
63309,8.71875,5.0,3.363281,-0.554687,0.785156,-1.050781,0.324036,0.582764,0.112854,0.736633,down
63315,9.101563,4.808594,3.328125,-0.601562,0.875,-1.089844,0.324036,0.582764,0.112854,0.736633,down
63320,9.21875,4.773437,3.363281,-0.576172,1.089844,-1.189453,0.331299,0.575623,0.116943,0.738403,down
63325,9.261719,4.808594,3.441406,-0.576172,1.089844,-1.189453,0.336365,0.569824,0.120361,0.740051,down
63330,9.335938,5.191406,3.441406,-0.576172,1.089844,-1.189453,0.336365,0.569824,0.120361,0.740051,down
63335,9.300781,5.308594,3.363281,-0.576172,1.089844,-1.189453,0.339111,0.566284,0.122803,0.74115,down
63340,9.179688,5.421875,3.289063,-0.189453,1.828125,-1.597656,0.34137,0.562988,0.125305,0.742187,down
63346,8.984375,5.5,3.171875,-0.189453,1.828125,-1.597656,0.346375,0.554749,0.132507,0.744812,down
63351,8.492188,6.152344,2.90625,-0.189453,1.828125,-1.597656,0.349121,0.549927,0.137207,0.746277,down
63357,8.070313,6.457031,2.945313,-0.189453,1.828125,-1.597656,0.351318,0.545837,0.141541,0.747375,down
63362,7.953125,6.496094,2.980469,0.263672,2.087891,-1.960938,0.351318,0.545837,0.141541,0.747375,down
63367,7.917969,6.574219,3.171875,0.263672,2.132813,-2.044922,0.351318,0.545837,0.141541,0.747375,down
63372,7.730469,6.992187,3.363281,0.263672,2.132813,-2.044922,0.358887,0.532227,0.156921,0.750549,down
63377,7.535156,7.148437,3.480469,0.0625,2.289063,-2.171875,0.358887,0.532227,0.156921,0.750549,down
63382,7.265625,7.414062,3.519531,-0.126953,2.373047,-2.210938,0.358887,0.532227,0.156921,0.750549,down
63387,7.265625,7.414062,3.519531,-0.308594,2.494141,-2.244141,0.368042,0.515991,0.172058,0.754089,down
63392,6.421875,7.335937,3.632813,-0.308594,2.494141,-2.244141,0.368042,0.515991,0.172058,0.754089,down
63397,6.421875,7.335937,3.632813,-0.470703,2.587891,-2.234375,0.371704,0.509705,0.176697,0.755554,down
63403,5.65625,7.179687,3.210938,-0.470703,2.587891,-2.234375,0.375366,0.503296,0.180786,0.757019,down
63409,5.082031,7.183594,3.363281,-1.021484,2.292969,-1.871094,0.382874,0.490173,0.1875,0.760254,down
63414,5.234375,7.601562,4.359375,-1.021484,2.292969,-1.871094,0.382874,0.490173,0.1875,0.760254,down
63419,5.386719,7.605469,4.933594,-1.357422,1.828125,-1.498047,0.382874,0.490173,0.1875,0.760254,down
63425,5.582031,7.492187,5.511719,-1.541016,1.705078,-1.349609,0.382874,0.490173,0.1875,0.760254,down
63431,5.695312,7.496094,5.625,-1.65625,1.640625,-1.234375,0.400146,0.461975,0.192017,0.767822,down
63436,5.695312,7.378906,5.625,-1.654297,1.558594,-1.136719,0.403748,0.456177,0.191711,0.769531,down
63441,5.695312,7.261719,5.625,-1.654297,1.558594,-1.136719,0.406616,0.451355,0.19165,0.770874,down
63447,5.617187,6.839844,5.511719,-1.654297,1.558594,-1.136719,0.409607,0.446289,0.191772,0.772156,down
63452,5.65625,6.6875,5.546875,-1.179688,1.605469,-1.261719,0.412842,0.440857,0.192383,0.773437,down
63457,5.503906,6.570312,5.703125,-1.179688,1.605469,-1.261719,0.415466,0.43634,0.19342,0.774353,down
63463,5.386719,6.308594,5.394531,-1.179688,1.605469,-1.261719,0.418274,0.431152,0.195251,0.775208,down
63468,5.386719,6.308594,5.394531,-0.6875,1.972656,-1.587891,0.418274,0.431152,0.195251,0.775208,down
63474,5.160156,6.453125,5.128906,-0.6875,1.972656,-1.587891,0.421021,0.425964,0.19751,0.776062,down
63479,4.660156,7.257812,5.011719,-0.736328,2.175781,-1.693359,0.426758,0.414612,0.202759,0.77771,down
63484,4.660156,7.257812,5.011719,-0.736328,2.175781,-1.693359,0.426758,0.414612,0.202759,0.77771,down
63489,4.085937,7.757812,5.511719,-0.800781,2.208984,-1.673828,0.432434,0.402649,0.207825,0.779541,down
63494,3.78125,7.839844,5.703125,-0.800781,2.208984,-1.673828,0.435181,0.396362,0.210205,0.78064,down
63500,3.433594,7.917969,6.351562,-0.800781,2.208984,-1.673828,0.440002,0.384644,0.213806,0.782776,down
63505,3.359375,7.878906,6.542969,-0.800781,2.208984,-1.673828,0.440002,0.384644,0.213806,0.782776,down
63510,3.207031,7.683594,6.851562,-1.095703,1.642578,-1.033203,0.440002,0.384644,0.213806,0.782776,down
63515,3.050781,7.03125,7.34375,-1.201172,1.353516,-0.884766,0.446228,0.370361,0.214844,0.785828,down
63520,3.089844,6.878906,7.460937,-1.201172,1.353516,-0.884766,0.446228,0.370361,0.214844,0.785828,down
63525,3.167969,6.765625,7.582031,-1.248047,0.730469,-0.677734,0.446228,0.370361,0.214844,0.785828,down
63531,3.28125,6.417969,7.765625,-1.171875,0.4375,-0.626953,0.446228,0.370361,0.214844,0.785828,down
63536,3.28125,6.265625,7.699219,-1.019531,-0.091797,-0.601562,0.452271,0.361511,0.211731,0.787354,down
63541,3.511719,6.113281,7.617187,-1.019531,-0.091797,-0.601562,0.456604,0.358704,0.208496,0.786987,down
63546,3.664063,5.996094,7.695312,-1.019531,-0.091797,-0.601562,0.456604,0.358704,0.208496,0.786987,down
63551,3.78125,5.691406,7.460937,-0.802734,-0.521484,-0.599609,0.460571,0.358154,0.205566,0.785706,down
63556,3.816406,5.804687,7.304687,-0.466797,-0.740234,-0.578125,0.462708,0.358582,0.204102,0.784668,down
63561,3.855469,5.84375,7.15625,-0.347656,-0.787109,-0.552734,0.462708,0.358582,0.204102,0.784668,down
63566,3.894531,5.996094,6.894531,-0.347656,-0.787109,-0.552734,0.466064,0.360046,0.201965,0.782532,down
63572,4.085937,6.304687,6.316406,-0.347656,-0.787109,-0.552734,0.46759,0.360901,0.200989,0.781494,down
63577,3.972656,6.378906,6.199219,-0.361328,-0.710937,-0.443359,0.469177,0.361694,0.199829,0.780457,down
63582,4.046875,6.378906,6.046875,-0.386719,-0.591797,-0.421875,0.469177,0.361694,0.199829,0.780457,down
63587,4.085937,6.265625,5.855469,-0.386719,-0.591797,-0.421875,0.469177,0.361694,0.199829,0.780457,down
63593,3.933594,6.191406,5.855469,-0.386719,-0.591797,-0.421875,0.47345,0.362671,0.196899,0.778137,down
63599,3.972656,6.304687,5.738281,-0.361328,-0.201172,-0.480469,0.47345,0.362671,0.196899,0.778137,down
63604,3.855469,6.308594,5.511719,-0.361328,-0.048828,-0.537109,0.47345,0.362671,0.196899,0.778137,down
63609,3.855469,6.308594,5.511719,-0.361328,-0.048828,-0.537109,0.47345,0.362671,0.196899,0.778137,down
63614,3.855469,6.308594,5.511719,-0.380859,0.095703,-0.621094,0.478699,0.360107,0.195984,0.776367,down
63619,3.855469,6.308594,5.511719,-0.335938,0.322266,-0.732422,0.480347,0.358765,0.196289,0.775879,down
63624,3.972656,7.21875,6.160156,-0.335938,0.322266,-0.732422,0.480347,0.358765,0.196289,0.775879,down
63629,3.933594,7.113281,6.351562,-0.296875,0.46875,-0.726562,0.48175,0.3573,0.196777,0.775574,down
63634,3.855469,7.074219,6.160156,-0.384766,0.498047,-0.693359,0.48175,0.3573,0.196777,0.775574,down
63640,3.894531,7.113281,6.582031,-0.384766,0.498047,-0.693359,0.486084,0.352112,0.198303,0.774902,down
63646,3.855469,6.953125,6.542969,-0.841797,0.429687,-0.423828,0.486084,0.352112,0.198303,0.774902,down
63651,3.816406,6.769531,6.429687,-0.841797,0.429687,-0.423828,0.488708,0.348145,0.197693,0.775146,down
63656,3.703125,6.570312,6.507812,-0.972656,0.386719,-0.341797,0.488708,0.348145,0.197693,0.775146,down
63661,3.703125,6.570312,6.507812,-0.972656,0.386719,-0.341797,0.492371,0.341736,0.194153,0.776611,down
63666,3.742188,6.417969,6.621094,-0.972656,0.386719,-0.341797,0.492371,0.341736,0.194153,0.776611,down
63671,3.78125,6.34375,6.695312,-1.185547,0.318359,-0.089844,0.492371,0.341736,0.194153,0.776611,down
63677,3.855469,5.996094,6.65625,-1.185547,0.318359,-0.089844,0.495422,0.335083,0.188843,0.77887,down
63682,3.816406,5.84375,6.65625,-1.083984,0.363281,-0.050781,0.496338,0.332764,0.187012,0.779724,down
63688,3.855469,5.769531,6.734375,-1.083984,0.363281,-0.050781,0.496948,0.330933,0.18573,0.780396,down
63693,3.78125,5.730469,6.734375,-0.814453,0.429687,-0.056641,0.497498,0.328979,0.18457,0.781128,down
63698,3.703125,5.769531,6.738281,-0.814453,0.429687,-0.056641,0.497986,0.327026,0.183777,0.78186,down
63704,3.742188,5.84375,6.695312,-0.507812,0.503906,-0.068359,0.497986,0.327026,0.183777,0.78186,down
63709,3.625,6.035156,6.738281,-0.371094,0.542969,-0.066406,0.498535,0.323669,0.183167,0.78302,down
63715,3.589844,6.417969,6.855469,-0.255859,0.5625,-0.058594,0.498535,0.323669,0.183167,0.78302,down
63721,3.550781,6.535156,6.964844,-0.166016,0.568359,0.005859,0.498535,0.323669,0.183167,0.78302,down
63726,3.511719,6.609375,6.921875,-0.166016,0.568359,0.005859,0.49823,0.317932,0.184387,0.785278,down
63731,3.398438,6.765625,6.925781,-0.232422,0.542969,0.089844,0.49823,0.317932,0.184387,0.785278,down
63736,3.359375,6.957031,6.851562,-0.232422,0.542969,0.089844,0.497986,0.316589,0.184631,0.78595,down
63741,3.242188,6.992187,6.890625,-0.314453,0.511719,0.144531,0.497986,0.316589,0.184631,0.78595,down
63746,3.242188,7.070312,6.851562,-0.314453,0.511719,0.144531,0.497314,0.313782,0.184753,0.787415,down
63751,3.167969,7.113281,6.890625,-0.314453,0.511719,0.144531,0.496704,0.311096,0.184387,0.789001,down
63756,3.128906,7.035156,6.890625,-0.314453,0.511719,0.144531,0.496704,0.311096,0.184387,0.789001,down
63761,3.089844,7.035156,6.890625,-0.482422,0.525391,0.207031,0.496704,0.311096,0.184387,0.789001,down
63766,3.089844,7.03125,6.8125,-0.482422,0.525391,0.207031,0.496033,0.308105,0.183716,0.79071,down
63771,3.050781,6.878906,6.921875,-0.541016,0.546875,0.226562,0.495422,0.304749,0.182617,0.792664,down
63776,3.089844,6.800781,6.964844,-0.541016,0.546875,0.226562,0.495422,0.304749,0.182617,0.792664,down
63781,3.089844,6.726562,6.960937,-0.708984,0.601562,0.273438,0.495422,0.304749,0.182617,0.792664,down
63786,3.207031,6.496094,6.960937,-0.708984,0.601562,0.273438,0.494751,0.301025,0.181152,0.794861,down
63792,3.207031,6.417969,6.855469,-0.75,0.638672,0.291016,0.49408,0.296814,0.179321,0.797241,down
63797,3.089844,6.265625,6.8125,-0.814453,0.728516,0.298828,0.493713,0.29425,0.178284,0.798645,down
63802,3.242188,5.996094,6.921875,-0.814453,0.728516,0.298828,0.493408,0.291931,0.177429,0.799927,down
63807,3.207031,5.996094,6.960937,-0.814453,0.728516,0.298828,0.493042,0.289612,0.176697,0.801147,down
63812,3.207031,5.996094,6.960937,-0.757812,0.898437,0.273438,0.492554,0.286743,0.175903,0.802612,down
63817,3.128906,5.996094,7.0,-0.738281,0.960937,0.269531,0.492126,0.283875,0.175354,0.804077,down
63823,2.9375,5.84375,7.199219,-0.738281,0.960937,0.269531,0.491699,0.281555,0.175049,0.805176,down
63828,2.9375,5.84375,7.199219,-0.652344,1.052734,0.232422,0.49115,0.278503,0.174744,0.806641,down
63833,2.976563,5.804687,7.238281,-0.652344,1.052734,0.232422,0.49115,0.278503,0.174744,0.806641,down
63839,2.898438,5.804687,7.234375,-0.632812,1.097656,0.222656,0.490662,0.275818,0.174683,0.807861,down
63844,2.820313,5.730469,7.277344,-0.632812,1.097656,0.222656,0.490662,0.275818,0.174683,0.807861,down
63849,2.820313,5.730469,7.277344,-0.660156,1.244141,0.181641,0.489136,0.266602,0.174744,0.81189,down
63855,2.628906,5.691406,7.238281,-0.703125,1.296875,0.160156,0.489136,0.266602,0.174744,0.81189,down
63860,2.59375,5.691406,7.277344,-0.703125,1.296875,0.160156,0.489136,0.266602,0.174744,0.81189,down
63866,2.476563,5.769531,7.273437,-0.837891,1.402344,0.111328,0.489136,0.266602,0.174744,0.81189,down
63871,2.476563,5.769531,7.34375,-0.982422,1.480469,0.058594,0.489136,0.266602,0.174744,0.81189,down
63877,2.402344,5.769531,7.578125,-0.982422,1.480469,0.058594,0.487183,0.243591,0.174255,0.820312,down
63882,2.324219,5.730469,7.578125,-1.111328,1.546875,0.021484,0.487061,0.238708,0.173828,0.821899,down
63887,2.210938,5.613281,7.65625,-1.169922,1.576172,0.003906,0.487,0.234497,0.173462,0.823242,down
63892,2.09375,5.5,7.84375,-1.169922,1.576172,0.003906,0.487,0.229309,0.172852,0.824829,down
63897,1.980469,5.578125,8.039063,-1.169922,1.576172,0.003906,0.486938,0.224915,0.172363,0.826172,down
63902,1.824219,5.578125,8.1875,-1.255859,1.609375,0.029297,0.486877,0.219727,0.171692,0.827759,down
63908,1.632813,5.460937,8.230469,-1.255859,1.609375,0.029297,0.486816,0.215271,0.171021,0.829102,down
63913,1.597656,5.191406,8.609375,-1.255859,1.609375,0.029297,0.486633,0.210083,0.170227,0.830688,down
63919,1.597656,5.191406,8.765625,-1.324219,1.515625,0.109375,0.486633,0.210083,0.170227,0.830688,down
63924,1.519531,5.117187,8.691406,-1.341797,1.476563,0.121094,0.486267,0.200867,0.168335,0.833618,down
63930,1.25,5.0,8.691406,-1.355469,1.460938,0.136719,0.486267,0.200867,0.168335,0.833618,down
63935,1.175781,4.847656,8.808594,-1.359375,1.400391,0.167969,0.486267,0.200867,0.168335,0.833618,down
63940,1.097656,4.695312,8.886719,-1.345703,1.341797,0.193359,0.486267,0.200867,0.168335,0.833618,down
63945,1.136719,4.582031,8.992188,-1.316406,1.296875,0.21875,0.486267,0.200867,0.168335,0.833618,down
63951,1.097656,4.464844,8.992188,-1.316406,1.296875,0.21875,0.484131,0.174622,0.161072,0.842102,down
63956,0.984375,4.390625,9.03125,-1.316406,1.296875,0.21875,0.484131,0.174622,0.161072,0.842102,down
63961,0.945312,4.390625,9.035156,-1.130859,1.166016,0.251953,0.484131,0.174622,0.161072,0.842102,down
63966,0.945312,4.390625,9.070313,-1.130859,1.166016,0.251953,0.483154,0.166748,0.158691,0.844727,down
63971,0.945312,4.390625,9.070313,-1.130859,1.166016,0.251953,0.483154,0.166748,0.158691,0.844727,down
63976,0.867187,4.3125,9.035156,-1.083984,1.154297,0.246094,0.483154,0.166748,0.158691,0.844727,down
63981,0.867187,4.3125,9.035156,-1.007813,1.166016,0.232422,0.481445,0.155762,0.155884,0.848328,down
63986,0.792969,4.195312,8.914063,-1.001953,1.191406,0.203125,0.481445,0.155762,0.155884,0.848328,down
63991,0.636719,4.195312,8.730469,-0.998047,1.216797,0.179687,0.480469,0.148499,0.154358,0.850464,down
63997,0.675781,4.195312,8.726563,-0.998047,1.234375,0.152344,0.479492,0.140625,0.152893,0.8526,down
64002,0.5625,4.273437,8.84375,-0.998047,1.234375,0.152344,0.479126,0.13678,0.152222,0.853577,down
64007,0.410156,4.273437,8.84375,-0.998047,1.234375,0.152344,0.478821,0.132996,0.15155,0.854431,down
64012,0.292969,4.273437,8.882813,-0.998047,1.234375,0.152344,0.478821,0.132996,0.15155,0.854431,down
64017,0.179687,4.273437,8.992188,-1.089844,1.306641,0.027344,0.478394,0.124695,0.149963,0.856201,down
64023,-0.128906,4.464844,9.269531,-1.089844,1.306641,0.027344,0.47821,0.120789,0.149048,0.857056,down
64028,-0.128906,4.464844,9.269531,-1.257813,1.212891,0.015625,0.478088,0.116577,0.147888,0.85791,down
64034,-0.242187,4.273437,9.113281,-1.257813,1.212891,0.015625,0.477966,0.112549,0.146545,0.858765,down
64039,-0.320313,4.160156,9.269531,-1.257813,1.212891,0.015625,0.477966,0.112549,0.146545,0.858765,down
64046,-0.242187,4.082031,9.300781,-1.539063,1.0,0.097656,0.477966,0.112549,0.146545,0.858765,down
64051,-0.242187,3.96875,9.335938,-1.576172,0.923828,0.115234,0.477966,0.112549,0.146545,0.858765,down
64056,-0.203125,3.738281,9.375,-1.601563,0.837891,0.140625,0.477966,0.112549,0.146545,0.858765,down
64061,-0.203125,3.777344,9.453125,-1.601563,0.837891,0.140625,0.477051,0.093079,0.135681,0.863342,down
64067,-0.242187,3.699219,9.457031,-1.552734,0.671875,0.195312,0.477051,0.093079,0.135681,0.863342,down
64072,-0.203125,3.394531,9.230469,-1.523438,0.583984,0.205078,0.477051,0.093079,0.135681,0.863342,down
64078,-0.164062,3.238281,9.148438,-1.523438,0.583984,0.205078,0.47583,0.080994,0.125183,0.866821,down
64084,-0.128906,3.007813,9.269531,-1.419922,0.337891,0.255859,0.475464,0.078552,0.122498,0.867615,down
64089,-0.128906,3.007813,9.269531,-1.384766,0.257813,0.265625,0.475037,0.076233,0.11969,0.868469,down
64094,-0.164062,2.664063,9.191406,-1.384766,0.257813,0.265625,0.475037,0.076233,0.11969,0.868469,down
64099,-0.164062,2.664063,9.191406,-1.292969,0.117188,0.314453,0.474609,0.07428,0.116943,0.869202,down
64104,-0.203125,2.664063,8.953125,-1.292969,0.117188,0.314453,0.474609,0.07428,0.116943,0.869202,down
64109,-0.320313,2.472656,8.914063,-1.191406,-0.025391,0.4375,0.472961,0.06958,0.108765,0.871582,down
64115,-0.625,2.089844,8.957031,-1.191406,-0.025391,0.4375,0.472107,0.06842,0.106018,0.872437,down
64120,-0.777344,2.089844,9.035156,-1.052734,-0.210937,0.609375,0.472107,0.06842,0.106018,0.872437,down
64125,-0.742187,2.167969,9.113281,-0.955078,-0.308594,0.710937,0.472107,0.06842,0.106018,0.872437,down
64130,-0.816406,2.050781,9.226563,-0.8125,-0.421875,0.828125,0.472107,0.06842,0.106018,0.872437,down
64135,-0.855469,1.820313,9.300781,-0.8125,-0.421875,0.828125,0.466736,0.067566,0.096008,0.876587,down
64140,-0.816406,1.859375,9.417969,-0.494141,-0.697266,1.097656,0.466736,0.067566,0.096008,0.876587,down
64146,-0.742187,2.015625,9.609375,-0.494141,-0.697266,1.097656,0.46228,0.070129,0.091736,0.879211,down
64152,-0.664062,2.128906,9.917969,-0.494141,-0.697266,1.097656,0.456787,0.075134,0.088074,0.882019,down
64157,-0.816406,2.089844,9.757813,-0.494141,-0.697266,1.097656,0.456787,0.075134,0.088074,0.882019,down
64162,-0.855469,1.898438,9.457031,0.076172,-1.462891,1.753906,0.449524,0.08252,0.084412,0.885437,down
64167,-0.894531,1.9375,9.113281,0.076172,-1.462891,1.753906,0.449524,0.08252,0.084412,0.885437,down
64172,-0.777344,2.28125,8.847656,0.255859,-1.90625,2.435547,0.449524,0.08252,0.084412,0.885437,down
64177,-0.703125,2.433594,8.847656,0.302734,-2.035156,2.675781,0.440308,0.091797,0.080383,0.889526,down
64183,-0.894531,1.707031,8.84375,0.302734,-2.035156,2.675781,0.428772,0.102844,0.075928,0.894348,down
64189,-0.703125,0.710937,9.269531,0.302734,-2.035156,2.675781,0.422668,0.108459,0.07373,0.896729,down
64196,-0.472656,0.40625,9.191406,0.521484,-2.451172,3.285156,0.422668,0.108459,0.07373,0.896729,down
64201,-0.703125,0.789062,8.460938,0.675781,-2.507813,3.447266,0.422668,0.108459,0.07373,0.896729,down
64206,-0.625,0.902344,8.808594,0.675781,-2.507813,3.447266,0.400635,0.128845,0.067383,0.904602,down
64211,-0.625,0.902344,8.808594,1.267578,-2.794922,3.833984,0.392395,0.136536,0.065979,0.907227,down
64217,-0.359375,0.902344,9.1875,1.599609,-2.957031,4.009766,0.383545,0.14502,0.065063,0.909729,down
64222,-0.359375,0.902344,9.1875,1.921875,-3.089844,4.175781,0.37384,0.154419,0.064697,0.912231,down
64227,-0.011719,0.328125,8.847656,1.921875,-3.089844,4.175781,0.37384,0.154419,0.064697,0.912231,down
64232,-0.011719,0.328125,8.847656,2.521484,-3.375,4.541016,0.353455,0.174438,0.06543,0.916687,down
64237,0.410156,1.132813,8.808594,2.521484,-3.375,4.541016,0.330078,0.197327,0.067749,0.920593,down
64242,0.714844,1.285156,8.613281,3.128906,-3.980469,5.087891,0.330078,0.197327,0.067749,0.920593,down
64247,0.675781,1.171875,8.460938,3.128906,-3.980469,5.087891,0.316467,0.210815,0.069336,0.922302,down
64252,0.675781,1.171875,8.460938,3.214844,-4.228516,5.171875,0.304749,0.222595,0.070557,0.92334,down
64257,0.867187,0.828125,8.347656,3.339844,-4.478516,5.25,0.304749,0.222595,0.070557,0.92334,down
64262,0.867187,0.828125,8.347656,3.220703,-4.744141,5.261719,0.278198,0.250122,0.073059,0.9245,down
64267,1.632813,-0.054687,8.0,3.220703,-4.744141,5.261719,0.265076,0.264282,0.073669,0.924377,down
64272,1.632813,-0.054687,8.0,3.048828,-5.058594,5.169922,0.252075,0.278564,0.073975,0.923767,down
64277,2.859375,-0.707031,7.964844,3.048828,-5.058594,5.169922,0.23877,0.293579,0.074219,0.922668,down
64282,2.976563,-0.285156,7.808594,3.378906,-5.222656,4.654297,0.23877,0.293579,0.074219,0.922668,down
64288,3.207031,-0.132812,7.578125,3.378906,-5.222656,4.654297,0.201233,0.337646,0.077026,0.91626,down
64293,3.972656,-0.972656,6.890625,3.378906,-5.222656,4.654297,0.201233,0.337646,0.077026,0.91626,down
64298,3.972656,-0.972656,6.890625,3.615234,-5.224609,4.1875,0.189514,0.352051,0.078918,0.913208,down
64303,4.085937,-0.628906,6.507812,3.615234,-5.224609,4.1875,0.178162,0.366272,0.081177,0.909668,down
64308,4.085937,-0.628906,6.507812,3.589844,-5.289062,3.472656,0.156555,0.394897,0.086365,0.901184,down
64313,4.621094,0.863281,5.050781,3.589844,-5.289062,3.472656,0.146423,0.409241,0.088928,0.896179,down
64318,4.738281,1.132813,4.824219,3.589844,-5.289062,3.472656,0.13739,0.422913,0.091125,0.891052,down
64323,4.929687,1.402344,4.628906,2.964844,-5.367187,2.767578,0.128174,0.437805,0.093262,0.88501,down
64328,5.234375,2.128906,4.707031,2.964844,-5.367187,2.767578,0.128174,0.437805,0.093262,0.88501,down
64333,5.234375,2.128906,4.707031,2.730469,-5.353516,2.542969,0.121155,0.450012,0.094788,0.8797,down
64338,5.3125,2.28125,4.628906,2.730469,-5.353516,2.542969,0.114319,0.46283,0.096069,0.873779,down
64344,5.3125,2.28125,4.628906,2.181641,-5.158203,2.082031,0.102539,0.487671,0.097839,0.86145,down
64349,5.621094,2.894531,4.246094,2.181641,-5.158203,2.082031,0.102539,0.487671,0.097839,0.86145,down
64354,5.582031,2.816406,4.515625,1.283203,-5.185547,1.517578,0.093811,0.511475,0.097961,0.848511,down
64359,5.847656,2.320313,4.859375,1.283203,-5.185547,1.517578,0.093811,0.511475,0.097961,0.848511,down
64365,6.421875,1.628906,4.859375,1.283203,-5.185547,1.517578,0.088623,0.534424,0.096191,0.835022,down
64370,6.421875,1.628906,4.859375,1.283203,-5.185547,1.517578,0.088623,0.534424,0.096191,0.835022,down
64376,6.503906,1.132813,4.898437,0.332031,-5.376953,0.847656,0.086853,0.557312,0.092834,0.820496,down
64381,6.503906,1.132813,4.898437,-0.099609,-5.314453,0.421875,0.087036,0.568237,0.090942,0.813171,down
64386,7.34375,-0.398438,4.324219,-0.099609,-5.314453,0.421875,0.087036,0.568237,0.090942,0.813171,down
64391,7.53125,-1.050781,3.863281,-0.123047,-5.115234,0.238281,0.088684,0.588928,0.087463,0.798523,down
64397,7.765625,-1.394531,2.789063,0.035156,-4.332031,0.048828,0.088684,0.588928,0.087463,0.798523,down
64402,7.914062,-0.628906,1.792969,0.220703,-3.847656,0.013672,0.088684,0.588928,0.087463,0.798523,down
64407,7.769531,0.097656,1.371094,0.220703,-3.847656,0.013672,0.090759,0.613342,0.085327,0.779907,down
64413,7.570312,0.863281,1.105469,1.107422,-3.115234,-0.185547,0.090759,0.613342,0.085327,0.779907,down
64418,7.347656,1.746094,0.835937,1.107422,-3.115234,-0.185547,0.089478,0.632812,0.089294,0.763916,down
64423,7.378906,1.859375,0.644531,1.107422,-3.115234,-0.185547,0.088623,0.638611,0.09198,0.75885,down
64428,7.492187,2.320313,0.414062,1.910156,-3.066406,-0.662109,0.087646,0.644775,0.095703,0.753235,down
64433,7.492187,2.320313,0.414062,1.910156,-3.066406,-0.662109,0.087646,0.644775,0.095703,0.753235,down
64438,7.34375,2.972656,0.261719,2.103516,-3.087891,-0.830078,0.087646,0.644775,0.095703,0.753235,down
64443,7.34375,2.972656,0.261719,2.210938,-3.101563,-0.96875,0.085571,0.656677,0.104675,0.741943,down
64448,7.417969,3.238281,0.148437,2.210938,-3.101563,-0.96875,0.084717,0.66272,0.109924,0.735901,down
64453,7.417969,3.238281,0.148437,1.419922,-3.119141,-1.244141,0.084534,0.674072,0.119202,0.72406,down
64458,7.6875,2.703125,0.109375,1.419922,-3.119141,-1.244141,0.085999,0.679626,0.122803,0.718079,down
64463,8.03125,2.742188,0.148437,0.054687,-2.996094,-1.419922,0.085999,0.679626,0.122803,0.718079,down
64468,8.03125,2.703125,0.148437,-0.705078,-2.849609,-1.53125,0.088867,0.685059,0.125427,0.712097,down
64473,8.070313,2.816406,-0.160156,-0.705078,-2.849609,-1.53125,0.09845,0.693665,0.126892,0.702209,down
64478,7.878906,2.742188,-0.160156,-0.705078,-2.849609,-1.53125,0.104614,0.69696,0.126465,0.69812,down
64483,7.726562,2.664063,-0.160156,-2.050781,-2.03125,-1.796875,0.104614,0.69696,0.126465,0.69812,down
64488,7.53125,2.589844,-0.351563,-2.050781,-2.03125,-1.796875,0.119263,0.701782,0.124634,0.691223,down
64493,7.53125,3.085938,-0.390625,-2.050781,-2.03125,-1.796875,0.127747,0.703308,0.123596,0.688293,down
64498,7.6875,3.46875,-0.542969,-2.050781,-2.03125,-1.796875,0.127747,0.703308,0.123596,0.688293,down
64503,7.378906,3.507813,-0.542969,-1.734375,-0.896484,-1.974609,0.127747,0.703308,0.123596,0.688293,down
64508,7.226562,4.003906,-0.582031,-1.734375,-0.896484,-1.974609,0.147949,0.704895,0.123474,0.682617,down
64513,7.074219,4.425781,-0.695312,-1.734375,-0.896484,-1.974609,0.153748,0.7052,0.12439,0.680847,down
64518,6.960937,5.191406,-0.464844,-1.068359,-0.927734,-2.085938,0.153748,0.7052,0.12439,0.680847,down
64523,6.804687,5.386719,-0.273438,-1.068359,-0.927734,-2.085938,0.165771,0.706177,0.127502,0.676392,down
64528,6.539062,5.5,-0.199219,-1.068359,-0.927734,-2.085938,0.165771,0.706177,0.127502,0.676392,down
64533,6.539062,5.5,-0.199219,-0.804687,-0.970703,-2.212891,0.170837,0.706726,0.129333,0.674255,down
64538,6.347656,5.652344,-0.3125,-0.804687,-0.970703,-2.212891,0.17627,0.707275,0.131531,0.671875,down
64543,6.347656,5.652344,-0.3125,-0.884766,-1.048828,-2.339844,0.18811,0.708435,0.135803,0.666565,down
64548,6.347656,5.652344,-0.3125,-0.884766,-1.048828,-2.339844,0.18811,0.708435,0.135803,0.666565,down
64554,6.078125,4.734375,-0.273438,-0.884766,-1.048828,-2.339844,0.202393,0.709106,0.138672,0.661011,down
64559,6.039062,4.464844,-0.3125,-2.162109,-1.064453,-2.646484,0.211731,0.708984,0.139526,0.658081,down
64565,6.039062,4.3125,-0.082031,-2.162109,-1.064453,-2.646484,0.219116,0.708557,0.140015,0.656006,down
64570,6.15625,4.503906,-0.042969,-2.382813,-0.853516,-2.830078,0.228394,0.707703,0.140625,0.653625,down
64575,6.226562,4.964844,0.109375,-2.292969,-0.773437,-2.900391,0.228394,0.707703,0.140625,0.653625,down
64581,6.1875,5.308594,0.339844,-2.292969,-0.773437,-2.900391,0.247192,0.705383,0.142639,0.648865,down
64586,6.160156,5.921875,0.722656,-2.292969,-0.773437,-2.900391,0.247192,0.705383,0.142639,0.648865,down
64591,6.0,6.347656,0.875,-1.578125,-0.714844,-3.095703,0.247192,0.705383,0.142639,0.648865,down
64596,5.886719,6.726562,0.953125,-1.240234,-0.701172,-3.148438,0.247192,0.705383,0.142639,0.648865,down
64601,5.582031,7.339844,0.914062,-1.240234,-0.701172,-3.148438,0.247192,0.705383,0.142639,0.648865,down
64606,5.3125,7.679687,0.835937,-1.240234,-0.701172,-3.148438,0.28479,0.700623,0.156372,0.635254,down
64611,4.96875,7.914062,0.796875,-0.539062,-0.796875,-3.205078,0.28479,0.700623,0.156372,0.635254,down
64616,4.777344,8.222656,0.761719,-0.466797,-0.904297,-3.173828,0.28479,0.700623,0.156372,0.635254,down
64621,4.507812,8.484375,0.605469,-0.466797,-0.904297,-3.173828,0.28479,0.700623,0.156372,0.635254,down
64626,4.46875,8.484375,0.722656,-0.466797,-0.904297,-3.173828,0.309937,0.699463,0.172729,0.620361,down
64632,4.46875,8.484375,0.722656,-0.894531,-1.263672,-3.109375,0.31665,0.699341,0.176086,0.61615,down
64637,4.238281,8.644531,0.835937,-1.259766,-1.339844,-3.105469,0.31665,0.699341,0.176086,0.61615,down
64642,4.238281,8.644531,0.835937,-1.691406,-1.351563,-3.121094,0.331909,0.698486,0.181091,0.607605,down
64647,4.277344,8.40625,0.605469,-1.691406,-1.351563,-3.121094,0.340454,0.697388,0.182556,0.603638,down
64652,4.277344,8.40625,0.605469,-2.542969,-1.189453,-3.105469,0.349731,0.695862,0.18335,0.599915,down
64657,4.007812,7.417969,0.03125,-2.542969,-1.189453,-3.105469,0.359741,0.693726,0.183777,0.596313,down
64663,4.085937,7.339844,0.183594,-2.943359,-1.054688,-2.986328,0.359741,0.693726,0.183777,0.596313,down
64668,4.164062,7.496094,0.375,-2.943359,-1.054688,-2.986328,0.389465,0.686096,0.183655,0.586426,down
64673,4.199219,7.71875,0.414062,-2.943359,-1.054688,-2.986328,0.398621,0.683472,0.183838,0.583252,down
64678,3.972656,8.222656,0.453125,-2.943359,-1.054688,-2.986328,0.398621,0.683472,0.183838,0.583252,down
64683,3.816406,8.449219,0.492187,-2.095703,-0.878906,-2.830078,0.398621,0.683472,0.183838,0.583252,down
64688,3.625,8.640625,0.605469,-1.785156,-0.931641,-2.796875,0.415894,0.678467,0.185059,0.57666,down
64693,3.511719,9.140625,0.453125,-1.785156,-0.931641,-2.796875,0.423767,0.676331,0.186157,0.572998,down
64698,3.511719,9.140625,0.453125,-1.527344,-0.917969,-2.777344,0.430847,0.674561,0.187561,0.569336,down
64703,3.398438,9.328125,0.261719,-1.527344,-0.917969,-2.777344,0.4375,0.672974,0.18927,0.565613,down
64708,3.089844,10.09375,-0.503906,-1.240234,-0.933594,-2.71875,0.444092,0.671509,0.191101,0.561584,down
64713,3.089844,10.09375,-0.503906,-1.306641,-1.039063,-2.693359,0.444092,0.671509,0.191101,0.561584,down
64719,3.167969,9.976563,-0.695312,-1.306641,-1.039063,-2.693359,0.464905,0.666809,0.195251,0.548706,down
64724,3.28125,9.488281,-0.8125,-1.306641,-1.039063,-2.693359,0.464905,0.666809,0.195251,0.548706,down
64729,3.128906,9.40625,-0.886719,-1.306641,-1.039063,-2.693359,0.480103,0.66217,0.195801,0.541077,down
64734,3.207031,9.144531,-0.925781,-1.306641,-1.039063,-2.693359,0.489502,0.65863,0.195374,0.537048,down
64739,3.167969,8.75,-0.964844,-3.496094,-1.003906,-3.042969,0.489502,0.65863,0.195374,0.537048,down
64744,3.128906,8.484375,-1.003906,-3.496094,-1.003906,-3.042969,0.510071,0.649475,0.193726,0.529663,down
64749,3.089844,8.179688,-1.003906,-3.496094,-1.003906,-3.042969,0.520935,0.643982,0.192566,0.526123,down
64754,2.976563,7.644531,-0.8125,-4.25,-0.763672,-3.373047,0.533142,0.637451,0.191345,0.522278,down
64759,3.050781,6.652344,-0.3125,-4.25,-0.763672,-3.373047,0.54541,0.630554,0.190186,0.518372,down
64764,3.050781,6.378906,0.109375,-4.25,-0.763672,-3.373047,0.555542,0.624756,0.189392,0.514954,down
64769,3.050781,6.269531,0.492187,-3.851563,-0.699219,-3.585938,0.555542,0.624756,0.189392,0.514954,down
64774,2.859375,6.378906,0.875,-3.851563,-0.699219,-3.585938,0.567749,0.617676,0.188782,0.510376,down
64779,2.628906,6.609375,1.144531,-2.773438,-0.560547,-3.619141,0.576904,0.612366,0.188782,0.50647,down
64784,2.363281,7.296875,1.566406,-2.773438,-0.560547,-3.619141,0.576904,0.612366,0.188782,0.50647,down
64789,2.363281,7.296875,1.566406,-2.179688,-0.5,-3.615234,0.576904,0.612366,0.188782,0.50647,down
64794,1.941406,8.144531,1.757813,-2.179688,-0.5,-3.615234,0.602722,0.598083,0.193665,0.491394,down
64799,1.671875,8.601563,1.832031,-2.179688,-0.5,-3.615234,0.61499,0.592468,0.2005,0.480225,down
64804,1.289063,9.449219,1.527344,-2.179688,-0.5,-3.615234,0.620056,0.590576,0.205139,0.473999,down
64810,0.675781,10.136719,1.179688,-2.179688,-0.5,-3.615234,0.624207,0.589417,0.210144,0.467712,down
64816,0.292969,10.859375,1.027344,0.712891,-0.552734,-3.726563,0.624207,0.589417,0.210144,0.467712,down
64822,0.253906,11.164063,0.988281,0.837891,-0.671875,-3.755859,0.624207,0.589417,0.210144,0.467712,down
64827,0.0625,11.550781,0.988281,0.738281,-0.789062,-3.783203,0.624207,0.589417,0.210144,0.467712,down
64832,0.0625,11.550781,0.988281,0.419922,-0.855469,-3.78125,0.638611,0.588196,0.231262,0.438904,down
64837,-0.011719,11.972656,0.875,0.419922,-0.855469,-3.78125,0.638611,0.588196,0.231262,0.438904,down
64843,0.140625,12.203125,0.722656,-0.046875,-0.898437,-3.783203,0.643066,0.587158,0.23584,0.431396,down
64848,0.140625,12.203125,0.722656,-1.328125,-0.917969,-3.789063,0.654236,0.582214,0.242676,0.417297,down
64853,0.484375,12.929688,0.644531,-1.328125,-0.917969,-3.789063,0.661011,0.578125,0.244934,0.410828,down
64858,0.484375,12.773438,0.988281,-1.328125,-0.917969,-3.789063,0.668701,0.572937,0.246521,0.404846,down
64864,0.5625,12.546875,1.296875,-3.945313,-0.837891,-3.685547,0.668701,0.572937,0.246521,0.404846,down
64869,0.636719,12.320313,1.566406,-3.945313,-0.837891,-3.685547,0.696777,0.549805,0.247192,0.388794,down
64874,0.675781,11.824219,1.984375,-3.945313,-0.837891,-3.685547,0.696777,0.549805,0.247192,0.388794,down
64879,0.675781,11.824219,1.984375,-4.871094,-0.5625,-3.646484,0.706909,0.540039,0.246582,0.38446,down
64884,0.675781,11.589844,2.214844,-4.871094,-0.5625,-3.646484,0.717346,0.529297,0.245789,0.380554,down
64889,0.101563,9.675781,3.59375,-5.435547,-0.302734,-3.611328,0.727844,0.517944,0.244873,0.376831,down
64894,0.101563,9.675781,3.59375,-5.509766,-0.234375,-3.568359,0.738647,0.505615,0.243835,0.37323,down
64899,0.101563,9.675781,3.59375,-5.261719,-0.046875,-3.558594,0.748779,0.49353,0.242859,0.369751,down
64904,-0.933594,8.023438,4.972656,-5.261719,-0.046875,-3.558594,0.748779,0.49353,0.242859,0.369751,down
64909,-1.125,8.027344,5.433594,-5.261719,-0.046875,-3.558594,0.768982,0.468201,0.241577,0.362122,down
64914,-1.125,8.140625,5.855469,-4.664062,-0.138672,-3.648438,0.785522,0.446838,0.241211,0.35376,down
64919,-1.085938,8.335938,6.238281,-3.896484,-0.212891,-3.847656,0.794312,0.435486,0.241455,0.348022,down
64924,-0.933594,8.484375,6.699219,-3.896484,-0.212891,-3.847656,0.801758,0.425903,0.242065,0.342346,down
64929,-0.894531,8.484375,6.773437,-3.896484,-0.212891,-3.847656,0.801758,0.425903,0.242065,0.342346,down
64934,-0.894531,8.484375,6.773437,-3.291016,-0.15625,-4.111328,0.80835,0.417358,0.242981,0.33667,down
64939,-0.96875,8.523438,6.699219,-3.291016,-0.15625,-4.111328,0.815125,0.408508,0.244385,0.330078,down
64944,-1.160156,8.90625,6.699219,-2.958984,-0.107422,-4.498047,0.815125,0.408508,0.244385,0.330078,down
64949,-1.160156,8.90625,6.699219,-2.921875,-0.113281,-4.773437,0.828613,0.390686,0.248169,0.31488,down
64954,-1.738281,10.210938,7.234375,-3.076172,-0.064453,-5.087891,0.842529,0.370972,0.253052,0.297363,down
64959,-1.929688,10.785156,7.195312,-3.076172,-0.064453,-5.087891,0.849915,0.359314,0.25592,0.288147,down
64964,-2.15625,10.636719,6.316406,-4.701172,0.353516,-6.246094,0.849915,0.359314,0.25592,0.288147,down
64969,-2.464844,9.75,6.046875,-4.701172,0.353516,-6.246094,0.858948,0.343933,0.259216,0.276978,down
64974,-2.464844,9.75,6.046875,-5.4375,0.371094,-6.574219,0.875061,0.313354,0.264038,0.257629,down
64979,-2.769531,9.328125,6.351562,-5.4375,0.371094,-6.574219,0.875061,0.313354,0.264038,0.257629,down
64984,-3.460938,8.371094,7.808594,-5.4375,0.371094,-6.574219,0.875061,0.313354,0.264038,0.257629,down
64989,-4.417969,7.796875,8.886719,-6.882812,0.591797,-7.023437,0.8927,0.274414,0.268372,0.236145,down
64995,-5.375,6.535156,10.457031,-6.882812,0.591797,-7.023437,0.909424,0.230347,0.272095,0.214111,down
65001,-6.140625,4.425781,12.027344,-6.882812,0.591797,-7.023437,0.915955,0.210999,0.273071,0.204773,down
65007,-6.679687,4.160156,12.828125,-6.914062,0.251953,-6.337891,0.915955,0.210999,0.273071,0.204773,down
65013,-7.828125,4.195312,13.667969,-6.318359,0.076172,-6.039062,0.928223,0.170959,0.273621,0.185364,down
65018,-8.324219,4.503906,13.785156,-4.515625,-0.365234,-5.621094,0.928223,0.170959,0.273621,0.185364,down
65023,-8.785156,5.15625,13.902344,-4.515625,-0.365234,-5.621094,0.937805,0.137085,0.272705,0.165283,down
65029,-9.167969,5.84375,14.019531,-2.257813,-1.296875,-5.408203,0.937805,0.137085,0.272705,0.165283,down
65034,-9.398438,6.417969,13.941406,-2.257813,-1.296875,-5.408203,0.945435,0.113525,0.269714,0.143127,down
65039,-9.589844,7.835937,12.859375,-1.259766,-1.732422,-5.339844,0.948792,0.106323,0.267029,0.131287,down
65044,-9.589844,7.835937,12.859375,-0.421875,-2.214844,-5.236328,0.951904,0.101501,0.263489,0.118835,down
65049,-9.589844,7.835937,12.859375,-0.421875,-2.214844,-5.236328,0.958008,0.097351,0.253357,0.092651,down
65054,-8.324219,10.746094,11.449219,-0.421875,-2.214844,-5.236328,0.958008,0.097351,0.253357,0.092651,down
65059,-8.019531,10.863281,11.0625,1.123047,-3.212891,-4.712891,0.963318,0.097656,0.240723,0.067017,down
65064,-7.710937,10.554688,10.757813,0.310547,-3.146484,-4.15625,0.963318,0.097656,0.240723,0.067017,down
65069,-6.714844,10.019531,10.101563,0.310547,-3.146484,-4.15625,0.965881,0.097046,0.233704,0.054749,down
65074,-6.640625,8.910156,9.875,-0.591797,-2.980469,-3.773438,0.970337,0.090332,0.221313,0.036133,down
65079,-6.679687,7.375,9.917969,-2.554688,-2.707031,-3.130859,0.970337,0.090332,0.221313,0.036133,down
65084,-6.410156,6.878906,10.179688,-3.070313,-2.630859,-2.871094,0.972778,0.082947,0.214539,0.027832,down
65089,-5.910156,6.726562,10.761719,-3.070313,-2.630859,-2.871094,0.976746,0.066284,0.203125,0.016174,down
65094,-5.910156,6.726562,10.761719,-3.070313,-2.630859,-2.871094,0.976746,0.066284,0.203125,0.016174,down
65099,-5.910156,5.804687,11.257813,-3.398438,-2.425781,-2.466797,0.976746,0.066284,0.203125,0.016174,down
65104,-5.910156,5.804687,11.257813,-3.289063,-2.423828,-2.296875,0.981812,0.038696,0.185913,0.002319,down
65109,-5.796875,4.582031,11.710938,-3.289063,-2.423828,-2.296875,0.981812,0.038696,0.185913,0.002319,down
65114,-5.796875,4.582031,11.710938,-2.394531,-2.496094,-2.046875,0.983215,0.030823,0.179932,-0.001953,down
65119,-5.796875,3.429688,11.445313,-2.394531,-2.496094,-2.046875,0.985718,0.020935,0.166931,-0.010681,down
65124,-5.492187,3.699219,11.261719,-2.394531,-2.496094,-2.046875,0.986816,0.019226,0.160217,-0.014771,down
65129,-5.03125,3.890625,11.066406,0.621094,-3.082031,-1.425781,0.986816,0.019226,0.160217,-0.014771,down
65134,-4.570312,4.042969,10.90625,0.621094,-3.082031,-1.425781,0.987915,0.019226,0.152588,-0.019043,down
65139,-4.265625,4.195312,10.644531,1.082031,-3.082031,-1.203125,0.989929,0.023071,0.137207,-0.02655,down
65144,-3.957031,4.273437,10.414063,1.082031,-3.082031,-1.203125,0.990723,0.026062,0.130066,-0.029419,down
65149,-3.957031,4.273437,10.414063,1.583984,-2.875,-0.552734,0.990723,0.026062,0.130066,-0.029419,down
65154,-3.957031,4.273437,10.414063,1.583984,-2.875,-0.552734,0.991516,0.029663,0.122375,-0.032043,down
65159,-3.230469,4.042969,9.835938,1.511719,-2.775391,-0.376953,0.991516,0.029663,0.122375,-0.032043,down
65164,-2.925781,3.546875,9.609375,1.380859,-2.679688,-0.248047,0.992798,0.036194,0.108582,-0.035645,down
65169,-2.925781,3.546875,9.609375,1.380859,-2.679688,-0.248047,0.992798,0.036194,0.108582,-0.035645,down
65174,-2.925781,3.546875,9.609375,0.988281,-2.460938,-0.041016,0.993835,0.041504,0.095703,-0.037598,down
65179,-2.769531,3.125,8.769531,0.75,-2.365234,0.160156,0.993835,0.041504,0.095703,-0.037598,down
65184,-2.425781,3.164063,8.6875,0.75,-2.365234,0.160156,0.994751,0.045288,0.083435,-0.03833,down
65189,-2.195313,2.972656,8.6875,0.75,-2.365234,0.160156,0.995178,0.047119,0.077148,-0.03833,down
65194,-1.929688,2.511719,8.304688,0.916016,-2.283203,0.345703,0.995178,0.047119,0.077148,-0.03833,down
65199,-1.929688,2.511719,8.304688,0.916016,-2.283203,0.345703,0.996033,0.053955,0.060486,-0.037109,down
65204,-1.738281,2.359375,7.65625,0.916016,-2.283203,0.345703,0.996033,0.053955,0.060486,-0.037109,down
65209,-1.621094,2.28125,7.925781,1.714844,-2.142578,0.849609,0.996033,0.053955,0.060486,-0.037109,down
65214,-1.085938,2.242188,9.109375,1.714844,-2.142578,0.849609,0.996277,0.061035,0.0495,-0.034912,down
65219,-0.625,2.207031,9.6875,1.714844,-2.142578,0.849609,0.996338,0.065674,0.043701,-0.033264,down
65224,-0.128906,2.167969,9.992188,2.544922,-2.070313,1.244141,0.996338,0.065674,0.043701,-0.033264,down
65229,0.179687,2.28125,10.140625,2.544922,-2.070313,1.244141,0.996094,0.077393,0.03186,-0.02887,down
65235,0.636719,2.320313,10.070313,2.544922,-2.070313,1.244141,0.995789,0.083801,0.026428,-0.026367,down
65240,0.636719,2.320313,10.070313,2.753906,-1.880859,1.439453,0.995422,0.089966,0.021606,-0.023804,down
65245,0.753906,2.359375,9.953125,2.753906,-1.880859,1.439453,0.994934,0.096619,0.016602,-0.020996,down
65250,0.792969,2.359375,9.300781,2.724609,-1.673828,1.550781,0.994385,0.103516,0.011719,-0.017639,down
65255,0.792969,2.359375,9.300781,2.716797,-1.595703,1.574219,0.993774,0.110168,0.007141,-0.014587,down
65261,0.601562,2.398438,9.230469,2.650391,-1.505859,1.572266,0.99231,0.123352,-0.001465,-0.008057,down
65267,0.484375,2.128906,8.886719,2.650391,-1.505859,1.572266,0.99231,0.123352,-0.001465,-0.008057,down
65272,0.140625,2.359375,8.308594,2.650391,-1.505859,1.572266,0.990601,0.136414,-0.009216,-0.002014,down
65277,0.179687,2.703125,8.382813,2.564453,-1.216797,1.287109,0.990601,0.136414,-0.009216,-0.002014,down
65282,0.292969,2.933594,8.386719,2.519531,-1.1875,1.15625,0.990601,0.136414,-0.009216,-0.002014,down
65288,0.410156,3.125,8.230469,2.470703,-1.134766,1.009766,0.990601,0.136414,-0.009216,-0.002014,down
65293,0.5625,3.203125,7.808594,2.470703,-1.134766,1.009766,0.990601,0.136414,-0.009216,-0.002014,down
65298,0.636719,3.277344,7.726562,2.404297,-0.978516,0.707031,0.990601,0.136414,-0.009216,-0.002014,down
65303,0.984375,3.546875,7.84375,2.341797,-0.888672,0.578125,0.990601,0.136414,-0.009216,-0.002014,down
65308,1.097656,3.585938,7.925781,2.269531,-0.787109,0.46875,0.990601,0.136414,-0.009216,-0.002014,down
