timestamp,ax,ay,az,gx,gy,gz,qw,qx,qy,qz,label
219552,7.914062,2.28125,5.511719,-0.222656,-0.435547,-0.613281,0.182739,0.489075,-0.000549,0.852844,down
219558,7.875,2.207031,5.625,-0.222656,-0.435547,-0.613281,0.182739,0.489075,-0.000549,0.852844,down
219564,8.261719,2.128906,5.664062,0.107422,-0.509766,-0.625,0.182739,0.489075,-0.000549,0.852844,down
219569,8.414063,2.050781,5.738281,0.119141,-0.546875,-0.667969,0.182739,0.489075,-0.000549,0.852844,down
219574,8.53125,2.015625,5.625,0.119141,-0.546875,-0.667969,0.187622,0.493408,0.002319,0.849304,down
219580,8.605469,1.976563,5.585937,-0.080078,-0.587891,-0.710937,0.187622,0.493408,0.002319,0.849304,down
219585,8.800781,1.9375,5.511719,-0.080078,-0.587891,-0.710937,0.192017,0.496948,0.00415,0.846252,down
219590,8.878906,1.898438,5.511719,-0.361328,-0.607422,-0.736328,0.192017,0.496948,0.00415,0.846252,down
219595,8.953125,1.859375,5.433594,-0.460937,-0.617187,-0.755859,0.194031,0.498169,0.004211,0.845093,down
219601,9.144531,1.859375,5.242187,-0.501953,-0.607422,-0.773437,0.195862,0.499146,0.004028,0.844055,down
219606,9.179688,2.050781,5.089844,-0.501953,-0.607422,-0.773437,0.200134,0.501099,0.003418,0.841919,down
219611,9.105469,2.167969,4.933594,-0.445312,-0.566406,-0.800781,0.200134,0.501099,0.003418,0.841919,down
219616,8.988281,2.242188,4.933594,-0.390625,-0.527344,-0.810547,0.200134,0.501099,0.003418,0.841919,down
219621,8.917969,2.398438,4.820312,-0.390625,-0.527344,-0.810547,0.206543,0.503845,0.003174,0.838745,down
219626,8.53125,2.511719,4.628906,-0.390625,-0.527344,-0.810547,0.206543,0.503845,0.003174,0.838745,down
219632,8.339844,2.625,4.589844,-0.117188,-0.414062,-0.796875,0.210266,0.505432,0.004028,0.836853,down
219637,8.339844,2.625,4.589844,-0.03125,-0.392578,-0.769531,0.211975,0.506226,0.0047,0.835937,down
219642,8.113281,2.742188,4.667969,-0.03125,-0.392578,-0.769531,0.211975,0.506226,0.0047,0.835937,down
219647,8.113281,2.742188,4.667969,0.046875,-0.378906,-0.75,0.214905,0.507751,0.006409,0.834229,down
219653,8.070313,2.855469,4.742187,0.046875,-0.378906,-0.75,0.216125,0.508606,0.007385,0.833435,down
219659,8.339844,3.203125,4.667969,0.046875,-0.378906,-0.75,0.216125,0.508606,0.007385,0.833435,down
219665,8.339844,3.277344,4.628906,-0.011719,-0.416016,-0.5625,0.216125,0.508606,0.007385,0.833435,down
219670,8.339844,3.316406,4.550781,-0.011719,-0.416016,-0.5625,0.219482,0.511108,0.009644,0.830994,down
219675,8.335938,3.238281,4.550781,-0.011719,-0.416016,-0.5625,0.220642,0.511963,0.010132,0.830139,down
219681,8.414063,3.203125,4.515625,-0.142578,-0.458984,-0.517578,0.2229,0.51355,0.010437,0.828552,down
219686,8.414063,3.203125,4.359375,-0.28125,-0.498047,-0.503906,0.224304,0.514465,0.010376,0.827576,down
219692,8.457031,3.085938,4.285156,-0.28125,-0.498047,-0.503906,0.225586,0.515198,0.010193,0.826782,down
219697,8.566406,2.972656,4.324219,-0.28125,-0.498047,-0.503906,0.22699,0.51593,0.009949,0.825928,down
219703,8.5625,2.894531,4.359375,-0.394531,-0.472656,-0.519531,0.22699,0.51593,0.009949,0.825928,down
219709,8.535156,2.816406,4.359375,-0.373047,-0.453125,-0.529297,0.22699,0.51593,0.009949,0.825928,down
219714,8.496094,2.816406,4.398437,-0.373047,-0.453125,-0.529297,0.231384,0.518066,0.009094,0.823425,down
219719,8.492188,2.742188,4.324219,-0.300781,-0.400391,-0.548828,0.231384,0.518066,0.009094,0.823425,down
219724,8.492188,2.703125,4.324219,-0.242187,-0.376953,-0.554687,0.231384,0.518066,0.009094,0.823425,down
219729,8.417969,2.78125,4.285156,-0.242187,-0.376953,-0.554687,0.235596,0.519836,0.009094,0.821106,down
219735,8.339844,2.78125,4.285156,-0.242187,-0.376953,-0.554687,0.235596,0.519836,0.009094,0.821106,down
219740,8.335938,2.816406,4.246094,0.03125,-0.28125,-0.628906,0.235596,0.519836,0.009094,0.821106,down
219745,8.261719,3.007813,4.285156,0.03125,-0.28125,-0.628906,0.239502,0.521545,0.010742,0.818848,down
219750,8.21875,3.085938,4.359375,0.03125,-0.28125,-0.628906,0.240601,0.522095,0.011597,0.818176,down
219755,8.21875,3.164063,4.324219,0.03125,-0.28125,-0.628906,0.241638,0.522644,0.012573,0.817505,down
219760,8.300781,3.203125,4.324219,0.166016,-0.214844,-0.623047,0.242615,0.523071,0.013611,0.816895,down
219766,8.414063,3.277344,4.324219,0.164062,-0.189453,-0.597656,0.243469,0.52356,0.014648,0.816345,down
219771,8.453125,3.316406,4.207031,0.164062,-0.189453,-0.597656,0.245483,0.524475,0.016907,0.815125,down
219777,8.414063,3.355469,4.207031,0.164062,-0.189453,-0.597656,0.246277,0.52478,0.017761,0.814636,down
219783,8.375,3.355469,4.167969,0.039063,-0.177734,-0.554687,0.246277,0.52478,0.017761,0.814636,down
219789,8.261719,3.394531,4.167969,-0.025391,-0.173828,-0.542969,0.246277,0.52478,0.017761,0.814636,down
219795,8.183594,3.429688,4.207031,-0.085937,-0.164062,-0.537109,0.246277,0.52478,0.017761,0.814636,down
219800,7.839844,3.429688,4.167969,-0.138672,-0.150391,-0.53125,0.246277,0.52478,0.017761,0.814636,down
219805,7.800781,3.394531,4.167969,-0.138672,-0.150391,-0.53125,0.251648,0.526001,0.020691,0.812134,down
219811,7.769531,3.355469,4.167969,-0.21875,-0.166016,-0.519531,0.251648,0.526001,0.020691,0.812134,down
219816,7.839844,3.355469,4.207031,-0.21875,-0.166016,-0.519531,0.255493,0.526428,0.021484,0.810608,down
219821,7.953125,3.277344,4.285156,-0.21875,-0.166016,-0.519531,0.256714,0.52655,0.021667,0.810181,down
219826,8.03125,3.355469,4.285156,-0.267578,-0.167969,-0.539062,0.256714,0.52655,0.021667,0.810181,down
219831,8.074219,3.394531,4.324219,-0.267578,-0.167969,-0.539062,0.259583,0.526733,0.021912,0.809143,down
219837,8.257813,3.316406,4.4375,-0.267578,-0.167969,-0.539062,0.260803,0.526733,0.022095,0.808716,down
219842,8.417969,3.316406,4.398437,-0.267578,-0.167969,-0.539062,0.262268,0.526733,0.022278,0.808228,down
219847,8.378906,3.316406,4.398437,-0.271484,-0.074219,-0.578125,0.262268,0.526733,0.022278,0.808228,down
219852,8.378906,3.429688,4.359375,-0.259766,-0.041016,-0.578125,0.262268,0.526733,0.022278,0.808228,down
219857,8.335938,3.429688,4.4375,-0.259766,-0.041016,-0.578125,0.266541,0.526367,0.02301,0.807068,down
219863,8.378906,3.429688,4.550781,-0.259766,-0.041016,-0.578125,0.267944,0.526123,0.023376,0.806763,down
219869,8.339844,3.429688,4.550781,-0.269531,0.003906,-0.615234,0.267944,0.526123,0.023376,0.806763,down
219874,8.222656,3.429688,4.550781,-0.257813,0.023437,-0.626953,0.267944,0.526123,0.023376,0.806763,down
219880,8.261719,3.429688,4.550781,-0.244141,0.021484,-0.636719,0.267944,0.526123,0.023376,0.806763,down
219885,8.261719,3.394531,4.476562,-0.212891,0.035156,-0.658203,0.267944,0.526123,0.023376,0.806763,down
219890,8.296875,3.394531,4.4375,-0.212891,0.035156,-0.658203,0.275513,0.52478,0.025391,0.805054,down
219896,8.492188,3.394531,4.359375,-0.212891,0.035156,-0.658203,0.275513,0.52478,0.025391,0.805054,down
219901,8.53125,3.394531,4.324219,-0.185547,0.035156,-0.664062,0.275513,0.52478,0.025391,0.805054,down
219906,8.535156,3.507813,4.285156,-0.177734,0.050781,-0.662109,0.281555,0.52356,0.027832,0.80365,down
219912,8.414063,3.660156,3.941406,-0.177734,0.050781,-0.662109,0.282898,0.523254,0.028381,0.803345,down
219917,8.414063,3.660156,3.941406,-0.177734,0.050781,-0.662109,0.282898,0.523254,0.028381,0.803345,down
219922,8.378906,3.585938,3.976563,-0.166016,0.089844,-0.634766,0.284363,0.522827,0.029053,0.803101,down
219927,8.378906,3.585938,3.976563,-0.166016,0.089844,-0.634766,0.284363,0.522827,0.029053,0.803101,down
219933,8.300781,3.621094,4.054687,-0.201172,0.052734,-0.609375,0.288635,0.521729,0.030762,0.802185,down
219938,8.300781,3.8125,4.359375,-0.201172,0.052734,-0.609375,0.289978,0.521423,0.03125,0.80188,down
219944,8.300781,3.8125,4.515625,-0.175781,0.0625,-0.591797,0.289978,0.521423,0.03125,0.80188,down
219950,8.222656,3.851563,4.667969,-0.175781,0.0625,-0.591797,0.289978,0.521423,0.03125,0.80188,down
219955,8.179688,3.8125,4.820312,-0.076172,0.105469,-0.585937,0.289978,0.521423,0.03125,0.80188,down
219961,8.183594,3.699219,5.011719,-0.023437,0.125,-0.574219,0.289978,0.521423,0.03125,0.80188,down
219966,8.183594,3.699219,5.011719,-0.023437,0.125,-0.574219,0.297058,0.519348,0.035645,0.800476,down
219971,8.179688,3.699219,4.933594,-0.023437,0.125,-0.574219,0.297058,0.519348,0.035645,0.800476,down
219976,8.152344,3.699219,4.933594,0.017578,0.150391,-0.529297,0.297058,0.519348,0.035645,0.800476,down
219981,8.183594,3.660156,4.933594,0.017578,0.150391,-0.529297,0.29895,0.518555,0.037537,0.800171,down
219987,8.183594,3.660156,4.933594,-0.009766,0.152344,-0.515625,0.300842,0.517822,0.039246,0.799866,down
219992,8.179688,3.621094,4.972656,-0.001953,0.146484,-0.507812,0.301819,0.517395,0.0401,0.799744,down
219997,8.183594,3.585938,4.933594,-0.001953,0.146484,-0.507812,0.302673,0.517029,0.040894,0.799622,down
220002,8.21875,3.585938,4.898437,-0.001953,0.146484,-0.507812,0.303589,0.516602,0.041809,0.7995,down
220008,8.148438,3.585938,4.933594,-0.001953,0.146484,-0.507812,0.304504,0.516174,0.042786,0.799377,down
220013,8.113281,3.585938,4.972656,0.064453,0.222656,-0.542969,0.304504,0.516174,0.042786,0.799377,down
220018,7.914062,3.585938,5.089844,0.089844,0.263672,-0.560547,0.304504,0.516174,0.042786,0.799377,down
220023,7.800781,3.507813,5.089844,0.115234,0.328125,-0.574219,0.304504,0.516174,0.042786,0.799377,down
220029,7.457031,3.429688,5.089844,0.154297,0.386719,-0.583984,0.304504,0.516174,0.042786,0.799377,down
220034,7.148437,3.394531,4.972656,0.160156,0.453125,-0.599609,0.304504,0.516174,0.042786,0.799377,down
220039,6.765625,3.316406,4.515625,0.160156,0.453125,-0.599609,0.309753,0.512085,0.050476,0.799561,down
220044,6.613281,3.277344,4.515625,0.123047,0.494141,-0.601562,0.309753,0.512085,0.050476,0.799561,down
220049,6.613281,3.277344,4.78125,0.099609,0.404297,-0.59375,0.309753,0.512085,0.050476,0.799561,down
220054,6.730469,3.238281,5.011719,0.09375,0.298828,-0.582031,0.309753,0.512085,0.050476,0.799561,down
220059,7.074219,3.238281,5.472656,0.09375,0.298828,-0.582031,0.309753,0.512085,0.050476,0.799561,down
220064,7.308594,3.238281,5.585937,0.09375,0.298828,-0.582031,0.314392,0.508362,0.056885,0.799683,down
220070,7.496094,3.238281,5.625,0.052734,0.070312,-0.568359,0.314392,0.508362,0.056885,0.799683,down
220076,7.796875,3.125,5.585937,0.052734,0.070312,-0.568359,0.314392,0.508362,0.056885,0.799683,down
220081,7.914062,3.125,5.546875,0.259766,-0.027344,-0.644531,0.314392,0.508362,0.056885,0.799683,down
220086,7.953125,3.238281,5.546875,0.259766,-0.027344,-0.644531,0.318359,0.507996,0.06134,0.798035,down
220092,8.109375,3.429688,5.472656,0.259766,-0.027344,-0.644531,0.320007,0.508301,0.064331,0.796936,down
220097,8.179688,3.621094,5.355469,0.259766,-0.027344,-0.644531,0.320862,0.508423,0.065979,0.796387,down
220102,8.222656,3.738281,5.355469,0.375,0.080078,-0.775391,0.320862,0.508423,0.065979,0.796387,down
220107,8.222656,3.738281,5.355469,0.355469,0.126953,-0.814453,0.322876,0.508362,0.069702,0.795288,down
220112,8.222656,4.234375,5.394531,0.355469,0.126953,-0.814453,0.323975,0.508118,0.071594,0.7948,down
220117,8.222656,4.234375,5.394531,0.324219,0.269531,-0.896484,0.325195,0.507751,0.073608,0.794373,down
220122,8.261719,4.351562,5.320312,0.306641,0.339844,-0.929687,0.32666,0.50708,0.075989,0.793945,down
220128,8.535156,4.695312,5.320312,0.306641,0.339844,-0.929687,0.32782,0.50647,0.07782,0.793701,down
220133,8.644531,4.847656,5.394531,0.244141,0.392578,-0.980469,0.32782,0.50647,0.07782,0.793701,down
220139,8.839844,4.886719,5.472656,0.214844,0.414062,-1.003906,0.32782,0.50647,0.07782,0.793701,down
220144,8.914063,5.0,5.546875,0.193359,0.433594,-1.019531,0.32782,0.50647,0.07782,0.793701,down
220149,8.988281,5.230469,5.625,0.193359,0.433594,-1.019531,0.334106,0.50293,0.086243,0.79248,down
220154,9.023438,5.386719,5.546875,0.121094,0.496094,-1.041016,0.334106,0.50293,0.086243,0.79248,down
220160,9.023438,5.460937,5.433594,0.087891,0.542969,-1.072266,0.334106,0.50293,0.086243,0.79248,down
220166,9.140625,5.5,5.664062,0.042969,0.560547,-1.097656,0.341431,0.497864,0.094299,0.791626,down
220171,9.140625,5.613281,5.738281,0.042969,0.560547,-1.097656,0.341431,0.497864,0.094299,0.791626,down
220176,9.0625,5.691406,5.664062,-0.011719,0.693359,-1.183594,0.341431,0.497864,0.094299,0.791626,down
220181,9.0625,5.691406,5.664062,-0.011719,0.693359,-1.183594,0.345581,0.49469,0.098328,0.791321,down
220186,9.023438,6.1875,5.664062,-0.011719,0.693359,-1.183594,0.345581,0.49469,0.098328,0.791321,down
220191,8.984375,6.378906,5.703125,0.003906,0.826172,-1.271484,0.350037,0.491028,0.102722,0.791077,down
220196,8.875,6.574219,5.664062,0.013672,0.882812,-1.318359,0.354675,0.486694,0.107605,0.791077,down
220201,8.679688,6.957031,5.394531,0.013672,0.882812,-1.318359,0.357056,0.484314,0.110046,0.791077,down
220206,8.640625,7.070312,5.394531,0.013672,0.882812,-1.318359,0.357056,0.484314,0.110046,0.791077,down
220211,8.496094,7.148437,5.472656,-0.275391,1.134766,-1.380859,0.357056,0.484314,0.110046,0.791077,down
220216,8.417969,7.261719,5.433594,-0.275391,1.134766,-1.380859,0.362183,0.478943,0.114685,0.791382,down
220221,8.21875,7.261719,5.511719,-0.384766,1.205078,-1.355469,0.367676,0.472534,0.118713,0.792114,down
220226,8.074219,7.261719,5.546875,-0.384766,1.205078,-1.355469,0.367676,0.472534,0.118713,0.792114,down
220232,7.878906,7.453125,5.703125,-0.591797,1.361328,-1.308594,0.367676,0.472534,0.118713,0.792114,down
220238,7.878906,7.453125,5.703125,-0.728516,1.507813,-1.195313,0.376038,0.461121,0.123596,0.794128,down
220243,7.457031,7.261719,5.929687,-0.728516,1.507813,-1.195313,0.378662,0.457031,0.124939,0.795105,down
220248,7.347656,7.300781,5.929687,-0.751953,1.630859,-1.083984,0.378662,0.457031,0.124939,0.795105,down
220254,7.152344,7.375,6.238281,-0.751953,1.675781,-1.029297,0.378662,0.457031,0.124939,0.795105,down
220259,7.035156,7.375,6.277344,-0.728516,1.71875,-0.96875,0.385742,0.443848,0.128906,0.798462,down
220264,6.996094,7.375,6.351562,-0.716797,1.746094,-0.931641,0.385742,0.443848,0.128906,0.798462,down
220269,6.882812,7.492187,6.351562,-0.712891,1.763672,-0.896484,0.385742,0.443848,0.128906,0.798462,down
220274,6.652344,7.535156,6.429687,-0.712891,1.763672,-0.896484,0.385742,0.443848,0.128906,0.798462,down
220280,6.539062,7.496094,6.390625,-0.667969,1.763672,-0.833984,0.385742,0.443848,0.128906,0.798462,down
220285,6.421875,7.566406,6.351562,-0.605469,1.738281,-0.808594,0.385742,0.443848,0.128906,0.798462,down
220290,6.347656,7.644531,6.429687,-0.599609,1.693359,-0.763672,0.385742,0.443848,0.128906,0.798462,down
220295,6.269531,7.335937,6.660156,-0.599609,1.693359,-0.763672,0.385742,0.443848,0.128906,0.798462,down
220300,6.191406,7.296875,6.660156,-0.634766,1.560547,-0.65625,0.385742,0.443848,0.128906,0.798462,down
220305,6.15625,7.21875,6.621094,-0.636719,1.5,-0.605469,0.385742,0.443848,0.128906,0.798462,down
220311,6.078125,7.109375,6.582031,-0.636719,1.5,-0.605469,0.4021,0.400391,0.140991,0.811218,down
220316,6.0,7.109375,6.507812,-0.636719,1.5,-0.605469,0.403259,0.396729,0.141846,0.812317,down
220321,6.0,7.109375,6.507812,-0.515625,1.384766,-0.527344,0.404236,0.393127,0.142761,0.813416,down
220326,6.0,7.109375,6.507812,-0.515625,1.361328,-0.5,0.405212,0.389648,0.143616,0.814453,down
220331,5.808594,6.992187,6.238281,-0.515625,1.361328,-0.5,0.405212,0.389648,0.143616,0.814453,down
220336,5.734375,7.074219,6.160156,-0.515625,1.339844,-0.474609,0.405212,0.389648,0.143616,0.814453,down
220341,5.582031,7.261719,6.085937,-0.496094,1.326172,-0.410156,0.408691,0.375793,0.14679,0.818665,down
220346,5.386719,7.296875,6.238281,-0.496094,1.326172,-0.410156,0.408691,0.375793,0.14679,0.818665,down
220351,5.386719,7.296875,6.277344,-0.496094,1.326172,-0.410156,0.409241,0.372498,0.147583,0.819763,down
220356,5.273437,7.339844,6.199219,-0.353516,1.337891,-0.279297,0.409241,0.372498,0.147583,0.819763,down
220362,5.082031,7.414062,6.046875,-0.296875,1.367188,-0.220703,0.409241,0.372498,0.147583,0.819763,down
220367,4.929687,7.453125,6.007812,-0.265625,1.398438,-0.101563,0.410034,0.362549,0.150513,0.823303,down
220372,4.851562,7.453125,6.046875,-0.265625,1.398438,-0.101563,0.409729,0.355957,0.152527,0.825928,down
220377,4.777344,7.414062,6.046875,-0.265625,1.398438,-0.101563,0.409729,0.355957,0.152527,0.825928,down
220382,4.699219,7.378906,6.046875,-0.392578,1.400391,0.033203,0.409729,0.355957,0.152527,0.825928,down
220388,4.546875,7.300781,6.121094,-0.392578,1.400391,0.033203,0.408875,0.346252,0.154541,0.830078,down
220393,4.46875,7.113281,6.160156,-0.546875,1.412109,0.078125,0.408569,0.342834,0.154907,0.831604,down
220399,4.394531,6.917969,6.351562,-0.644531,1.419922,0.076172,0.408569,0.342834,0.154907,0.831604,down
220405,4.238281,6.765625,6.429687,-0.732422,1.431641,0.087891,0.408569,0.342834,0.154907,0.831604,down
220410,4.085937,6.570312,6.507812,-0.8125,1.4375,0.101563,0.408569,0.342834,0.154907,0.831604,down
220415,4.125,6.457031,6.582031,-0.853516,1.443359,0.130859,0.408569,0.342834,0.154907,0.831604,down
220421,3.972656,6.1875,6.617187,-0.853516,1.443359,0.130859,0.407532,0.323914,0.154053,0.839783,down
220426,3.972656,6.074219,6.621094,-0.921875,1.466797,0.191406,0.407532,0.323914,0.154053,0.839783,down
220432,4.046875,5.921875,6.621094,-0.941406,1.488281,0.242187,0.407532,0.323914,0.154053,0.839783,down
220437,3.855469,5.347656,6.8125,-0.941406,1.488281,0.242187,0.406616,0.311829,0.152283,0.845154,down
220442,3.855469,5.347656,6.8125,-0.939453,1.503906,0.285156,0.406128,0.3078,0.151672,0.846924,down
220447,3.894531,5.15625,6.851562,-0.939453,1.503906,0.285156,0.40564,0.303772,0.151001,0.848755,down
220452,3.742188,5.117187,6.738281,-0.851562,1.585938,0.369141,0.404846,0.299561,0.150452,0.850708,down
220457,3.742188,5.117187,6.738281,-0.730469,1.583984,0.369141,0.404053,0.295532,0.150146,0.8526,down
220462,3.511719,5.15625,6.65625,-0.730469,1.583984,0.369141,0.403076,0.291626,0.150024,0.85437,down
220467,3.398438,5.191406,6.617187,-0.730469,1.583984,0.369141,0.400818,0.283813,0.150574,0.857971,down
220472,3.359375,5.269531,6.621094,-0.730469,1.583984,0.369141,0.399719,0.280579,0.151001,0.859436,down
220477,3.128906,5.460937,6.734375,-0.232422,1.458984,0.380859,0.399719,0.280579,0.151001,0.859436,down
220482,3.128906,5.539062,6.734375,-0.232422,1.458984,0.380859,0.398438,0.277039,0.151733,0.861084,down
220487,2.9375,5.769531,6.65625,-0.197266,1.423828,0.380859,0.398438,0.277039,0.151733,0.861084,down
220493,2.9375,5.921875,6.542969,-0.197266,1.423828,0.380859,0.394653,0.267883,0.15387,0.865356,down
220498,2.9375,5.921875,6.542969,-0.246094,1.265625,0.373047,0.393433,0.265015,0.154419,0.866699,down
220503,2.976563,5.921875,6.507812,-0.246094,1.265625,0.373047,0.392212,0.262085,0.154846,0.868042,down
220509,2.859375,5.960937,6.46875,-0.246094,1.265625,0.373047,0.391113,0.259277,0.154907,0.869385,down
220514,2.898438,5.960937,6.542969,-0.583984,1.105469,0.394531,0.390076,0.256348,0.154724,0.870728,down
220519,2.898438,5.921875,6.578125,-0.763672,1.048828,0.408203,0.38916,0.253479,0.154053,0.872131,down
220524,2.859375,5.882812,6.542969,-0.763672,1.048828,0.408203,0.388245,0.250244,0.152832,0.873657,down
220529,2.785156,5.652344,6.539062,-0.763672,1.048828,0.408203,0.388245,0.250244,0.152832,0.873657,down
220534,2.667969,5.652344,6.511719,-1.378906,1.021484,0.525391,0.388245,0.250244,0.152832,0.873657,down
220540,2.667969,5.613281,6.429687,-1.546875,1.033203,0.566406,0.388245,0.250244,0.152832,0.873657,down
220545,2.628906,5.269531,6.578125,-1.546875,1.033203,0.566406,0.388245,0.250244,0.152832,0.873657,down
220551,2.628906,5.0,6.578125,-1.546875,1.033203,0.566406,0.38446,0.233093,0.140808,0.88208,down
220557,2.59375,4.65625,6.65625,-1.947266,1.177734,0.667969,0.38446,0.233093,0.140808,0.88208,down
220562,2.59375,4.65625,6.65625,-1.947266,1.177734,0.667969,0.382751,0.224915,0.13385,0.885986,down
220567,2.4375,4.195312,6.777344,-1.947266,1.177734,0.667969,0.382751,0.224915,0.13385,0.885986,down
220572,2.285156,4.160156,6.851562,-1.910156,1.332031,0.617187,0.382751,0.224915,0.13385,0.885986,down
220577,2.019531,3.890625,7.15625,-1.861328,1.394531,0.585937,0.379517,0.206543,0.120667,0.893738,down
220582,1.710938,3.660156,7.660156,-1.861328,1.394531,0.585937,0.379517,0.206543,0.120667,0.893738,down
220587,1.597656,3.429688,8.0,-1.744141,1.394531,0.570312,0.378601,0.201355,0.117493,0.895691,down
220592,1.519531,3.203125,8.113281,-1.744141,1.394531,0.570312,0.377747,0.196838,0.114746,0.897461,down
220597,1.328125,3.046875,8.082031,-1.763672,1.310547,0.636719,0.376831,0.192078,0.111816,0.899231,down
220603,1.25,2.78125,8.382813,-1.763672,1.310547,0.636719,0.374878,0.183533,0.106018,0.902527,down
220608,1.25,2.703125,8.5,-1.724609,1.212891,0.738281,0.373535,0.178894,0.102661,0.904419,down
220614,1.136719,2.78125,8.53125,-1.724609,1.212891,0.738281,0.372375,0.175232,0.099976,0.905884,down
220619,1.136719,2.894531,8.804688,-1.527344,1.169922,0.828125,0.370789,0.171204,0.097107,0.907593,down
220624,1.214844,3.125,9.109375,-1.527344,1.169922,0.828125,0.369202,0.167419,0.094543,0.909241,down
220630,1.136719,3.316406,8.84375,-1.251953,1.146484,0.894531,0.369202,0.167419,0.094543,0.909241,down
220635,0.984375,3.699219,8.648438,-1.142578,1.134766,0.9375,0.369202,0.167419,0.094543,0.909241,down
220640,0.867187,3.738281,8.5,-1.076172,1.113281,0.974609,0.363464,0.156921,0.088379,0.914001,down
220645,0.792969,3.777344,8.464844,-1.023438,1.087891,1.009766,0.363464,0.156921,0.088379,0.914001,down
220651,0.714844,3.890625,8.460938,-0.980469,1.048828,1.041016,0.363464,0.156921,0.088379,0.914001,down
220656,0.5625,3.546875,8.382813,-0.980469,1.048828,1.041016,0.363464,0.156921,0.088379,0.914001,down
220661,0.675781,3.777344,8.269531,-0.980469,1.048828,1.041016,0.354248,0.144287,0.081238,0.920349,down
220666,0.445312,3.777344,8.191406,-1.195313,0.935547,1.132813,0.354248,0.144287,0.081238,0.920349,down
220671,0.636719,3.507813,7.882812,-1.195313,0.935547,1.132813,0.349365,0.138123,0.076477,0.923584,down
220676,0.792969,3.546875,7.765625,-1.626953,0.845703,1.152344,0.349365,0.138123,0.076477,0.923584,down
220681,0.792969,3.546875,7.765625,-1.841797,0.796875,1.128906,0.34491,0.132019,0.069946,0.926697,down
220686,0.792969,3.546875,7.765625,-2.027344,0.761719,1.080078,0.342834,0.128723,0.065857,0.928223,down
220691,1.097656,2.398438,8.109375,-2.027344,0.761719,1.080078,0.342834,0.128723,0.065857,0.928223,down
220697,1.136719,1.859375,8.230469,-2.242188,0.839844,0.943359,0.339111,0.121643,0.056519,0.931152,down
220703,1.214844,1.246094,8.308594,-2.197266,1.033203,0.933594,0.339111,0.121643,0.056519,0.931152,down
220708,1.214844,1.246094,8.308594,-2.197266,1.033203,0.933594,0.333984,0.109558,0.042847,0.935181,down
220713,0.945312,0.863281,8.957031,-1.765625,1.177734,1.054688,0.331726,0.10498,0.038757,0.936707,down
220718,1.023438,0.902344,9.335938,-1.441406,1.251953,1.126953,0.331726,0.10498,0.038757,0.936707,down
220723,0.636719,1.054688,9.148438,-1.441406,1.251953,1.126953,0.326843,0.096863,0.033569,0.939514,down
220728,0.332031,1.285156,9.035156,-1.441406,1.251953,1.126953,0.32428,0.093323,0.032166,0.940796,down
220733,0.179687,1.554688,8.84375,-0.601562,1.302734,1.253906,0.321167,0.089417,0.031189,0.942261,down
220738,0.101563,1.667969,8.808594,-0.601562,1.302734,1.253906,0.318359,0.086426,0.030762,0.943481,down
220743,-0.011719,1.4375,8.992188,-0.601562,1.302734,1.253906,0.315186,0.083618,0.030701,0.944824,down
220748,-0.011719,1.554688,8.882813,-0.140625,0.892578,1.355469,0.311646,0.081055,0.030823,0.946228,down
220753,0.0625,1.59375,8.769531,-0.166016,0.761719,1.390625,0.311646,0.081055,0.030823,0.946228,down
220758,0.140625,1.515625,8.613281,-0.166016,0.761719,1.390625,0.305115,0.077332,0.03064,0.948669,down
220764,0.675781,1.019531,7.65625,-0.166016,0.761719,1.390625,0.301941,0.075562,0.03009,0.949829,down
220769,0.984375,0.902344,7.808594,-0.65625,0.736328,1.371094,0.298645,0.073547,0.029114,0.95105,down
220774,1.136719,0.902344,7.964844,-0.789062,0.777344,1.310547,0.298645,0.073547,0.029114,0.95105,down
220779,1.175781,0.902344,8.042969,-0.953125,0.861328,1.257813,0.298645,0.073547,0.029114,0.95105,down
220784,1.175781,0.902344,8.191406,-0.953125,0.861328,1.257813,0.298645,0.073547,0.029114,0.95105,down
220789,1.023438,0.902344,8.304688,-1.095703,0.957031,1.193359,0.298645,0.073547,0.029114,0.95105,down
220794,1.023438,0.902344,8.304688,-1.205078,1.087891,1.138672,0.284363,0.059143,0.019531,0.956665,down
220799,0.253906,0.632812,8.652344,-1.349609,1.275391,1.109375,0.28186,0.055298,0.017151,0.957703,down
220805,-0.164062,-0.207031,9.296875,-1.349609,1.275391,1.109375,0.279297,0.051392,0.014771,0.95874,down
220811,-0.433594,-0.4375,9.339844,-1.214844,1.21875,1.177734,0.279297,0.051392,0.014771,0.95874,down
220816,-0.894531,-0.476562,9.652344,-1.083984,1.083984,1.261719,0.279297,0.051392,0.014771,0.95874,down
220821,-0.96875,-0.667969,9.957031,-1.033203,0.857422,1.347656,0.279297,0.051392,0.014771,0.95874,down
220826,-0.933594,-0.667969,9.996094,-0.939453,0.603516,1.429688,0.279297,0.051392,0.014771,0.95874,down
220832,-1.125,-0.246094,9.339844,-0.939453,0.603516,1.429688,0.263672,0.03656,0.004272,0.963928,down
220838,-0.96875,0.097656,9.148438,-0.824219,0.115234,1.640625,0.263672,0.03656,0.004272,0.963928,down
220843,-0.894531,0.214844,8.914063,-0.785156,0.039063,1.669922,0.256165,0.034241,0.000305,0.966003,down
220848,-0.855469,0.289063,9.074219,-0.785156,0.039063,1.669922,0.248108,0.03302,-0.003662,0.968201,down
220853,-0.664062,0.136719,9.265625,-0.785156,0.039063,1.669922,0.244568,0.032593,-0.00531,0.969055,down
220858,-0.664062,-0.324219,9.609375,-0.5625,-0.078125,1.544922,0.24054,0.032288,-0.007019,0.970093,down
220863,-0.550781,-0.515625,9.800781,-0.5625,-0.078125,1.544922,0.237122,0.032166,-0.008362,0.970947,down
220868,-0.742187,-1.320313,10.222656,-0.390625,-0.078125,1.402344,0.237122,0.032166,-0.008362,0.970947,down
220874,-1.007813,-1.742188,10.601563,-0.390625,-0.078125,1.402344,0.230286,0.032104,-0.010498,0.972534,down
220879,-1.007813,-1.742188,10.601563,-0.125,-0.251953,1.328125,0.227112,0.032471,-0.011169,0.973267,down
220885,-1.351563,-1.816406,10.839844,-0.125,-0.251953,1.328125,0.223816,0.033203,-0.011536,0.973999,down
220892,-1.582031,-1.855469,10.378906,-0.125,-0.251953,1.328125,0.223816,0.033203,-0.011536,0.973999,down
220897,-1.738281,-1.585938,10.414063,0.275391,-0.644531,1.388672,0.223816,0.033203,-0.011536,0.973999,down
220903,-1.660156,-1.546875,10.417969,0.367188,-0.841797,1.460938,0.209961,0.040222,-0.010742,0.976807,down
220908,-1.738281,-1.855469,10.339844,0.367188,-0.841797,1.460938,0.20575,0.043701,-0.010376,0.9776,down
220913,-1.546875,-2.160156,10.261719,0.515625,-1.535156,1.556641,0.20575,0.043701,-0.010376,0.9776,down
220919,-1.316406,-2.390625,10.335938,0.515625,-1.535156,1.556641,0.198181,0.051392,-0.009644,0.97876,down
220924,-1.125,-2.429688,10.105469,0.515625,-1.535156,1.556641,0.198181,0.051392,-0.009644,0.97876,down
220929,-1.125,-2.429688,10.105469,0.515625,-1.535156,1.556641,0.198181,0.051392,-0.009644,0.97876,down
220934,-1.125,-2.582031,10.074219,0.966797,-2.080078,1.443359,0.198181,0.051392,-0.009644,0.97876,down
220940,-0.625,-2.738281,10.21875,0.966797,-2.080078,1.443359,0.183228,0.072021,-0.006042,0.980408,down
220945,-0.511719,-3.003906,10.378906,0.966797,-2.080078,1.443359,0.179565,0.077698,-0.004333,0.980652,down
220951,-0.394531,-3.003906,10.335938,1.429688,-2.140625,1.394531,0.179565,0.077698,-0.004333,0.980652,down
220957,-0.394531,-2.890625,10.339844,1.787109,-2.21875,1.355469,0.179565,0.077698,-0.004333,0.980652,down
220963,-0.550781,-2.738281,10.21875,1.787109,-2.21875,1.355469,0.164734,0.101868,0.006531,0.981018,down
220968,-0.511719,-2.8125,10.070313,1.787109,-2.21875,1.355469,0.164734,0.101868,0.006531,0.981018,down
220973,-0.472656,-2.738281,9.878906,2.134766,-2.65625,1.347656,0.164734,0.101868,0.006531,0.981018,down
220978,-0.472656,-2.582031,9.613281,2.134766,-2.65625,1.347656,0.153198,0.123596,0.017761,0.980286,down
220983,-0.394531,-2.316406,9.417969,2.134766,-2.65625,1.347656,0.149475,0.131592,0.021606,0.979736,down
220988,-0.28125,-1.664063,9.492188,2.134766,-2.65625,1.347656,0.149475,0.131592,0.021606,0.979736,down
220993,-0.089844,-1.320313,8.992188,2.246094,-3.234375,1.269531,0.149475,0.131592,0.021606,0.979736,down
220998,0.371094,-1.128906,8.726563,2.246094,-3.234375,1.269531,0.141968,0.148926,0.02948,0.978149,down
221003,0.371094,-1.128906,8.726563,2.210938,-3.283203,1.240234,0.141968,0.148926,0.02948,0.978149,down
221009,0.714844,-0.898437,8.804688,2.210938,-3.283203,1.240234,0.138367,0.157654,0.033264,0.977173,down
221014,1.328125,-0.820312,8.386719,2.203125,-3.296875,1.1875,0.131226,0.175598,0.040894,0.974792,down
221019,1.480469,-0.78125,8.386719,2.185547,-3.220703,1.158203,0.127808,0.184265,0.044617,0.973511,down
221024,1.824219,-0.398438,8.148438,2.214844,-3.103516,1.138672,0.120911,0.20105,0.05249,0.970642,down
221030,2.285156,0.480469,8.269531,2.214844,-3.103516,1.138672,0.117493,0.208801,0.056702,0.969238,down
221035,2.285156,1.363281,8.386719,2.214844,-3.103516,1.138672,0.113953,0.216248,0.061218,0.967712,down
221040,2.171875,1.820313,8.226563,2.580078,-2.669922,1.099609,0.110291,0.223816,0.066101,0.966125,down
221046,2.054688,1.9375,8.078125,2.558594,-2.691406,1.115234,0.110291,0.223816,0.066101,0.966125,down
221051,2.054688,2.050781,7.769531,2.470703,-2.775391,1.119141,0.110291,0.223816,0.066101,0.966125,down
221056,2.09375,2.015625,7.621094,2.359375,-2.884766,1.097656,0.110291,0.223816,0.066101,0.966125,down
221061,2.210938,2.050781,7.503906,2.242188,-2.996094,1.064453,0.110291,0.223816,0.066101,0.966125,down
221066,2.402344,1.976563,7.34375,2.128906,-3.083984,1.019531,0.110291,0.223816,0.066101,0.966125,down
221071,2.976563,1.515625,7.503906,2.128906,-3.083984,1.019531,0.110291,0.223816,0.066101,0.966125,down
221077,3.128906,1.476563,7.5,2.128906,-3.083984,1.019531,0.087097,0.278625,0.094849,0.951721,down
221082,3.128906,1.476563,7.5,1.625,-3.382813,0.904297,0.084595,0.287048,0.097534,0.949158,down
221087,3.28125,1.515625,7.578125,1.460938,-3.490234,0.857422,0.082214,0.295898,0.099915,0.946411,down
221093,3.28125,1.515625,7.578125,1.34375,-3.556641,0.8125,0.080139,0.304626,0.101868,0.943604,down
221098,3.320313,1.210938,7.539062,1.34375,-3.556641,0.8125,0.078247,0.313416,0.103638,0.940674,down
221104,3.511719,1.4375,7.308594,1.339844,-3.626953,0.755859,0.078247,0.313416,0.103638,0.940674,down
221110,4.007812,1.707031,5.777344,1.339844,-3.626953,0.755859,0.072632,0.340271,0.109009,0.931152,down
221116,4.199219,1.898438,5.28125,1.511719,-3.503906,0.724609,0.072632,0.340271,0.109009,0.931152,down
221121,4.316406,2.398438,5.085937,1.636719,-3.4375,0.689453,0.068604,0.357605,0.113647,0.924377,down
221126,4.429687,2.972656,5.011719,1.636719,-3.4375,0.689453,0.068604,0.357605,0.113647,0.924377,down
221132,4.429687,3.085938,4.78125,1.890625,-3.240234,0.605469,0.068604,0.357605,0.113647,0.924377,down
221137,4.355469,3.046875,4.707031,1.945313,-3.181641,0.568359,0.068604,0.357605,0.113647,0.924377,down
221143,4.660156,2.816406,4.550781,1.890625,-3.173828,0.53125,0.058228,0.397156,0.129456,0.906677,down
221148,4.617187,2.664063,4.324219,1.890625,-3.173828,0.53125,0.058228,0.397156,0.129456,0.906677,down
221154,4.738281,2.433594,4.207031,1.5,-3.167969,0.4375,0.055237,0.413208,0.134766,0.898926,down
221160,4.96875,2.050781,4.285156,1.5,-3.167969,0.4375,0.054504,0.419739,0.13623,0.895691,down
221165,5.121094,1.9375,4.359375,1.5,-3.167969,0.4375,0.054504,0.419739,0.13623,0.895691,down
221170,5.121094,1.9375,4.359375,0.675781,-3.257813,0.267578,0.054138,0.427063,0.137268,0.89209,down
221176,5.464844,1.324219,4.707031,0.675781,-3.257813,0.267578,0.054565,0.442017,0.137817,0.884705,down
221181,5.578125,1.132813,4.207031,0.675781,-3.257813,0.267578,0.055237,0.449219,0.137451,0.881042,down
221187,5.695312,1.09375,4.015625,-0.085937,-3.210938,0.060547,0.055237,0.449219,0.137451,0.881042,down
221192,5.921875,0.980469,3.863281,-0.087891,-3.146484,-0.001953,0.055237,0.449219,0.137451,0.881042,down
221198,6.15625,1.285156,3.210938,-0.087891,-3.146484,-0.001953,0.058655,0.470764,0.135559,0.869812,down
221204,6.308594,1.667969,3.019531,0.064453,-2.921875,-0.074219,0.060791,0.482727,0.135254,0.863098,down
221209,6.460937,1.9375,3.019531,0.378906,-2.791016,-0.121094,0.061707,0.489258,0.135559,0.859314,down
221214,6.570312,2.320313,3.25,0.378906,-2.791016,-0.121094,0.062317,0.49469,0.136292,0.856079,down
221219,6.691406,3.125,3.019531,0.615234,-2.609375,-0.164062,0.062927,0.500916,0.13739,0.852173,down
221225,6.808594,3.738281,2.945313,0.615234,-2.609375,-0.164062,0.063416,0.50592,0.138428,0.848999,down
221230,6.921875,3.699219,3.171875,0.503906,-2.455078,-0.230469,0.063416,0.50592,0.138428,0.848999,down
221235,7.074219,3.46875,3.632813,0.503906,-2.455078,-0.230469,0.063416,0.50592,0.138428,0.848999,down
221240,7.074219,3.46875,3.632813,0.154297,-2.34375,-0.361328,0.066162,0.521118,0.14093,0.839172,down
221245,7.074219,3.46875,3.632813,-0.082031,-2.294922,-0.445312,0.066162,0.521118,0.14093,0.839172,down
221250,7.226562,3.394531,3.671875,-0.082031,-2.294922,-0.445312,0.067749,0.525757,0.141174,0.836121,down
221255,7.148437,3.355469,3.824219,-0.324219,-2.289063,-0.509766,0.069885,0.530396,0.140991,0.833008,down
221260,7.148437,3.355469,3.824219,-0.552734,-2.263672,-0.578125,0.075378,0.539246,0.139465,0.827087,down
221266,7.109375,3.203125,3.632813,-0.552734,-2.263672,-0.578125,0.078674,0.543457,0.138245,0.824219,down
221271,7.265625,3.46875,3.328125,-0.552734,-2.263672,-0.578125,0.082214,0.547485,0.136841,0.821472,down
221276,7.453125,3.394531,3.25,-1.041016,-2.150391,-0.800781,0.082214,0.547485,0.136841,0.821472,down
221281,7.417969,3.316406,3.058594,-1.033203,-2.103516,-0.869141,0.089844,0.555298,0.133972,0.815857,down
221287,7.226562,3.546875,2.558594,-0.978516,-2.027344,-0.943359,0.089844,0.555298,0.133972,0.815857,down
221292,7.191406,3.546875,2.597656,-0.871094,-1.976563,-1.003906,0.089844,0.555298,0.133972,0.815857,down
221297,7.152344,3.621094,2.597656,-0.759766,-1.953125,-1.058594,0.089844,0.555298,0.133972,0.815857,down
221302,6.960937,3.890625,2.523438,-0.6875,-1.884766,-1.107422,0.089844,0.555298,0.133972,0.815857,down
221307,6.808594,4.160156,2.636719,-0.6875,-1.884766,-1.107422,0.089844,0.555298,0.133972,0.815857,down
221313,6.808594,4.121094,2.597656,-0.6875,-1.884766,-1.107422,0.113159,0.575378,0.130371,0.799438,down
221319,6.804687,4.160156,2.828125,-0.787109,-1.648438,-1.199219,0.113159,0.575378,0.130371,0.799438,down
221324,7.148437,3.96875,3.785156,-0.787109,-1.648438,-1.199219,0.120789,0.58075,0.130066,0.794495,down
221329,7.148437,3.96875,3.785156,-0.886719,-1.634766,-1.25,0.125061,0.583374,0.1297,0.791992,down
221334,7.53125,3.96875,3.710938,-0.964844,-1.599609,-1.306641,0.129395,0.585815,0.129272,0.789551,down
221339,7.914062,4.003906,3.328125,-1.121094,-1.652344,-1.451172,0.133972,0.588196,0.128723,0.787109,down
221345,8.113281,4.042969,2.90625,-1.121094,-1.652344,-1.451172,0.144043,0.592896,0.127502,0.781982,down
221351,8.335938,4.082031,2.753906,-1.121094,-1.652344,-1.451172,0.149353,0.595154,0.12677,0.779358,down
221357,8.335938,4.234375,2.558594,-1.261719,-1.660156,-1.574219,0.149353,0.595154,0.12677,0.779358,down
221362,8.113281,4.734375,2.0625,-1.261719,-1.660156,-1.574219,0.160278,0.599609,0.125427,0.773987,down
221367,8.035156,5.0,1.871094,-1.162109,-1.572266,-1.648438,0.160278,0.599609,0.125427,0.773987,down
221373,7.878906,5.347656,1.757813,-1.162109,-1.572266,-1.648438,0.17157,0.603821,0.124634,0.768372,down
221378,7.769531,5.5,1.566406,-1.046875,-1.609375,-1.724609,0.17157,0.603821,0.124634,0.768372,down
221383,7.53125,5.421875,1.449219,-1.046875,-1.609375,-1.724609,0.182434,0.60791,0.124451,0.762695,down
221389,7.308594,5.191406,1.371094,-1.052734,-1.591797,-1.761719,0.192749,0.611572,0.12439,0.757202,down
221394,7.109375,4.617187,1.410156,-1.300781,-1.578125,-1.798828,0.192749,0.611572,0.12439,0.757202,down
221399,7.417969,4.234375,1.640625,-1.300781,-1.578125,-1.798828,0.20459,0.615051,0.123535,0.751404,down
221404,7.992187,3.929688,1.871094,-1.5625,-1.496094,-1.861328,0.20459,0.615051,0.123535,0.751404,down
221409,8.378906,3.621094,2.023438,-1.632813,-1.402344,-1.894531,0.211121,0.616638,0.122803,0.748413,down
221414,8.222656,3.929688,2.101563,-1.632813,-1.402344,-1.894531,0.22345,0.618835,0.121277,0.743286,down
221419,8.070313,4.003906,2.023438,-1.632813,-1.402344,-1.894531,0.22345,0.618835,0.121277,0.743286,down
221424,8.070313,4.003906,2.023438,-1.607422,-1.285156,-1.941406,0.23053,0.619812,0.120483,0.740417,down
221429,8.152344,4.390625,1.792969,-1.576172,-1.230469,-1.957031,0.236389,0.620483,0.119934,0.738037,down
221434,8.152344,5.539062,1.601563,-1.576172,-1.230469,-1.957031,0.242676,0.621094,0.119507,0.735535,down
221439,8.113281,6.226562,1.71875,-1.195313,-1.125,-2.009766,0.242676,0.621094,0.119507,0.735535,down
221444,7.953125,6.6875,1.910156,-1.195313,-1.125,-2.009766,0.255005,0.622314,0.119263,0.730408,down
221449,7.609375,7.070312,1.832031,-0.775391,-1.205078,-2.058594,0.26123,0.623108,0.119812,0.727417,down
221454,7.417969,7.03125,1.601563,-0.775391,-1.205078,-2.058594,0.266296,0.623962,0.120667,0.724731,down
221459,7.304687,6.957031,1.488281,-0.775391,-1.205078,-2.058594,0.271973,0.625122,0.121826,0.721375,down
221464,7.191406,6.917969,1.335938,-0.8125,-1.351563,-1.988281,0.281799,0.627319,0.12323,0.715454,down
221469,7.414062,6.34375,0.988281,-1.298828,-1.492188,-1.951172,0.281799,0.627319,0.12323,0.715454,down
221474,7.648437,5.960937,0.683594,-1.298828,-1.492188,-1.951172,0.28833,0.628601,0.123291,0.711731,down
221479,7.765625,5.652344,0.453125,-1.298828,-1.492188,-1.951172,0.294434,0.629578,0.122742,0.708435,down
221485,7.914062,5.386719,0.070312,-1.902344,-1.632813,-1.972656,0.294434,0.629578,0.122742,0.708435,down
221491,8.109375,5.730469,0.148437,-1.902344,-1.632813,-1.972656,0.314819,0.631592,0.118225,0.698547,down
221497,8.152344,6.226562,0.183594,-2.210938,-1.537109,-1.962891,0.314819,0.631592,0.118225,0.698547,down
221502,8.152344,6.226562,0.183594,-2.0625,-1.400391,-1.916016,0.329407,0.632202,0.114441,0.691895,down
221507,7.835937,6.917969,0.300781,-2.0625,-1.400391,-1.916016,0.329407,0.632202,0.114441,0.691895,down
221513,7.835937,6.917969,0.300781,-1.800781,-1.306641,-1.863281,0.342102,0.632629,0.112122,0.68573,down
221519,7.835937,6.917969,0.300781,-0.917969,-1.191406,-1.724609,0.347229,0.633179,0.111877,0.682617,down
221524,6.960937,8.5625,0.761719,-0.462891,-1.160156,-1.662109,0.355103,0.635315,0.113525,0.67627,down
221529,6.882812,8.832031,0.796875,-0.462891,-1.160156,-1.662109,0.355103,0.635315,0.113525,0.67627,down
221534,6.730469,9.023438,0.796875,0.164062,-1.095703,-1.533203,0.355103,0.635315,0.113525,0.67627,down
221539,6.574219,9.171875,0.683594,0.164062,-1.095703,-1.533203,0.360718,0.638245,0.116699,0.669983,down
221544,6.308594,9.328125,0.875,-0.066406,-1.017578,-1.572266,0.360718,0.638245,0.116699,0.669983,down
221549,6.191406,8.988281,1.027344,-0.066406,-1.017578,-1.572266,0.366211,0.64093,0.120117,0.663818,down
221555,6.269531,7.757812,1.257813,-0.333984,-0.976562,-1.642578,0.366211,0.64093,0.120117,0.663818,down
221560,6.269531,7.757812,1.257813,-1.287109,-0.955078,-1.761719,0.377991,0.642517,0.122803,0.655151,down
221565,6.539062,7.03125,1.371094,-1.767578,-1.001953,-1.798828,0.384338,0.642029,0.122253,0.652039,down
221570,6.539062,6.800781,1.488281,-1.767578,-1.001953,-1.798828,0.389954,0.641296,0.121155,0.649597,down
221575,6.574219,6.648437,1.640625,-1.767578,-1.001953,-1.798828,0.397522,0.640076,0.119263,0.646545,down
221581,6.652344,6.730469,1.71875,-1.767578,-1.001953,-1.798828,0.403992,0.638916,0.117432,0.643982,down
221586,6.652344,6.730469,1.71875,-2.388672,-1.050781,-1.751953,0.41095,0.637634,0.115356,0.641296,down
221591,6.730469,6.878906,1.832031,-2.388672,-1.050781,-1.751953,0.41095,0.637634,0.115356,0.641296,down
221596,6.347656,7.296875,1.757813,-2.111328,-1.003906,-1.679688,0.41095,0.637634,0.115356,0.641296,down
221601,6.347656,7.296875,1.757813,-1.087891,-0.992187,-1.576172,0.41095,0.637634,0.115356,0.641296,down
221606,6.117187,7.953125,0.953125,-1.087891,-0.992187,-1.576172,0.432556,0.635376,0.111572,0.629883,down
221611,6.15625,8.261719,0.914062,-1.087891,-0.992187,-1.576172,0.436157,0.636292,0.112305,0.626282,down
221616,6.117187,8.605469,0.914062,-1.087891,-0.992187,-1.576172,0.436157,0.636292,0.112305,0.626282,down
221621,6.117187,8.605469,0.914062,0.177734,-1.140625,-1.533203,0.436157,0.636292,0.112305,0.626282,down
221627,5.734375,8.90625,0.683594,0.177734,-1.140625,-1.533203,0.443542,0.640259,0.116272,0.616272,down
221632,5.734375,8.449219,0.53125,0.177734,-1.140625,-1.533203,0.446228,0.641541,0.117859,0.612732,down
221638,5.886719,7.957031,0.492187,-0.330078,-1.011719,-1.664063,0.446228,0.641541,0.117859,0.612732,down
221643,6.0,7.71875,0.453125,-0.791016,-0.962891,-1.689453,0.446228,0.641541,0.117859,0.612732,down
221648,6.078125,7.074219,0.453125,-1.324219,-0.929687,-1.712891,0.446228,0.641541,0.117859,0.612732,down
221653,6.039062,6.796875,0.570312,-1.832031,-0.923828,-1.726563,0.446228,0.641541,0.117859,0.612732,down
221658,5.847656,6.574219,0.796875,-1.832031,-0.923828,-1.726563,0.469116,0.639832,0.118103,0.597168,down
221663,5.808594,6.453125,1.027344,-2.4375,-0.927734,-1.759766,0.469116,0.639832,0.118103,0.597168,down
221668,5.773437,6.992187,1.488281,-2.4375,-0.927734,-1.759766,0.469116,0.639832,0.118103,0.597168,down
221674,5.65625,7.296875,1.640625,-2.4375,-0.927734,-1.759766,0.489746,0.633301,0.112549,0.588562,down
221680,5.503906,7.5625,1.640625,-1.654297,-0.591797,-1.800781,0.489746,0.633301,0.112549,0.588562,down
221685,5.042969,8.027344,1.871094,-1.654297,-0.591797,-1.800781,0.501648,0.62915,0.110657,0.583313,down
221690,4.851562,8.179688,1.949219,-1.128906,-0.572266,-1.839844,0.506348,0.627808,0.110779,0.580688,down
221695,4.851562,8.179688,1.949219,-0.580078,-0.574219,-1.890625,0.510498,0.626953,0.111755,0.577759,down
221700,4.851562,8.179688,1.949219,-0.580078,-0.574219,-1.890625,0.516907,0.627197,0.115784,0.570984,down
221705,4.277344,8.71875,2.253906,-0.580078,-0.574219,-1.890625,0.516907,0.627197,0.115784,0.570984,down
221710,4.199219,8.871094,2.367188,0.345703,-0.746094,-1.978516,0.522034,0.628845,0.120972,0.563354,down
221715,4.164062,8.828125,2.40625,0.050781,-0.839844,-2.021484,0.525024,0.629639,0.123535,0.559204,down
221720,4.164062,8.71875,2.253906,-0.357422,-0.865234,-2.056641,0.525024,0.629639,0.123535,0.559204,down
221725,4.277344,7.957031,2.101563,-0.357422,-0.865234,-2.056641,0.532593,0.629578,0.126709,0.55127,down
221731,4.429687,7.492187,2.101563,-1.431641,-0.988281,-2.115234,0.537537,0.628662,0.127197,0.547424,down
221736,4.929687,6.800781,2.253906,-1.431641,-0.988281,-2.115234,0.543457,0.627075,0.127014,0.543457,down
221741,5.003906,6.730469,2.40625,-2.091797,-1.011719,-2.160156,0.549194,0.625183,0.126404,0.539917,down
221746,5.082031,6.648437,2.558594,-2.091797,-1.011719,-2.160156,0.555725,0.622864,0.125549,0.536133,down
221751,5.195312,6.957031,2.753906,-2.091797,-1.011719,-2.160156,0.562317,0.620361,0.124634,0.532349,down
221756,5.003906,7.222656,2.597656,-2.091797,-1.011719,-2.160156,0.569214,0.617737,0.123901,0.528259,down
221761,4.8125,7.453125,2.484375,-2.091797,-1.011719,-2.160156,0.574951,0.615601,0.123657,0.524536,down
221767,4.507812,8.300781,2.214844,-2.091797,-1.011719,-2.160156,0.580383,0.613831,0.124023,0.520569,down
221772,4.355469,8.722656,2.0625,-0.671875,-0.847656,-2.287109,0.580383,0.613831,0.124023,0.520569,down
221778,4.316406,9.171875,2.023438,-0.671875,-0.847656,-2.287109,0.588989,0.612488,0.126892,0.51178,down
221783,4.316406,9.171875,2.023438,-0.671875,-0.847656,-2.287109,0.588989,0.612488,0.126892,0.51178,down
221788,4.316406,9.332031,1.984375,0.318359,-0.900391,-2.373047,0.588989,0.612488,0.126892,0.51178,down
221793,4.316406,9.332031,1.984375,0.732422,-0.857422,-2.435547,0.596985,0.615234,0.135559,0.496704,down
221798,3.933594,9.90625,1.679688,0.732422,-0.857422,-2.435547,0.596985,0.615234,0.135559,0.496704,down
221803,3.703125,10.054688,1.527344,0.6875,-0.814453,-2.476563,0.601685,0.617432,0.142456,0.486328,down
221809,3.242188,9.980469,0.988281,0.6875,-0.814453,-2.476563,0.601685,0.617432,0.142456,0.486328,down
221815,3.207031,9.789063,0.644531,-1.044922,-0.871094,-2.685547,0.601685,0.617432,0.142456,0.486328,down
221820,3.242188,9.554688,0.492187,-1.044922,-0.871094,-2.685547,0.612915,0.616333,0.150269,0.471008,down
221825,3.242188,9.289063,0.722656,-2.185547,-0.984375,-2.732422,0.612915,0.616333,0.150269,0.471008,down
221830,3.128906,9.171875,1.640625,-2.185547,-0.984375,-2.732422,0.63208,0.607666,0.151917,0.456238,down
221835,2.898438,9.328125,2.023438,-2.453125,-0.972656,-2.660156,0.63208,0.607666,0.151917,0.456238,down
221840,2.707031,9.328125,2.253906,-2.371094,-0.941406,-2.5625,0.639893,0.603455,0.151611,0.450989,down
221845,2.707031,9.328125,2.253906,-2.371094,-0.941406,-2.5625,0.64624,0.599915,0.151367,0.446716,down
221850,1.902344,9.292969,2.484375,-2.201172,-0.912109,-2.433594,0.65271,0.596313,0.151123,0.4422,down
221855,1.902344,9.292969,2.484375,-1.90625,-0.886719,-2.292969,0.658875,0.592957,0.150879,0.437683,down
221860,1.558594,9.867188,2.445313,-1.90625,-0.886719,-2.292969,0.664062,0.590271,0.150818,0.433411,down
221866,1.558594,10.289063,2.445313,-1.90625,-0.886719,-2.292969,0.672241,0.587219,0.151428,0.424622,down
221871,1.597656,10.476563,2.523438,-1.90625,-0.886719,-2.292969,0.675232,0.587158,0.152344,0.419617,down
221876,1.597656,10.675781,2.523438,0.472656,-1.072266,-1.859375,0.677185,0.587891,0.153564,0.414978,down
221882,1.597656,10.746094,2.484375,0.472656,-1.072266,-1.859375,0.678467,0.589172,0.155029,0.410461,down
221887,1.519531,11.203125,2.367188,0.472656,-1.072266,-1.859375,0.679504,0.591125,0.156982,0.405273,down
221894,1.519531,11.320313,2.253906,1.083984,-1.009766,-1.916016,0.679504,0.591125,0.156982,0.405273,down
221899,1.480469,11.476563,2.140625,0.947266,-0.960937,-1.931641,0.679504,0.591125,0.156982,0.405273,down
221904,1.480469,11.28125,2.0625,0.947266,-0.960937,-1.931641,0.679504,0.591125,0.156982,0.405273,down
221909,1.40625,11.054688,1.949219,0.091797,-0.980469,-1.996094,0.679504,0.591125,0.156982,0.405273,down
221914,1.214844,10.742188,1.832031,-0.533203,-1.03125,-2.013672,0.679504,0.591125,0.156982,0.405273,down
221919,1.058594,10.398438,1.679688,-0.533203,-1.03125,-2.013672,0.690796,0.595398,0.166565,0.374878,down
221924,0.753906,10.09375,2.023438,-0.533203,-1.03125,-2.013672,0.690796,0.595398,0.166565,0.374878,down
221929,0.714844,9.9375,2.140625,-0.533203,-1.03125,-2.013672,0.700073,0.590393,0.165222,0.366089,down
221934,0.601562,9.871094,2.214844,-2.261719,-1.398438,-1.908203,0.700073,0.590393,0.165222,0.366089,down
221939,0.410156,9.753906,2.214844,-2.261719,-1.398438,-1.908203,0.711243,0.583374,0.161865,0.357117,down
221944,0.292969,9.753906,2.292969,-2.261719,-1.398438,-1.908203,0.711243,0.583374,0.161865,0.357117,down
221949,0.21875,9.871094,2.332031,-2.289063,-1.384766,-1.710938,0.711243,0.583374,0.161865,0.357117,down
221955,0.21875,9.871094,2.332031,-1.642578,-1.271484,-1.509766,0.726257,0.573669,0.156372,0.345032,down
221960,0.101563,10.25,1.984375,-1.642578,-1.271484,-1.509766,0.726257,0.573669,0.156372,0.345032,down
221965,0.21875,10.597656,1.832031,-0.517578,-1.205078,-1.40625,0.732849,0.570557,0.154114,0.337036,down
221970,0.371094,10.710938,1.949219,0.007813,-1.166016,-1.386719,0.736328,0.57135,0.153809,0.328186,down
221975,0.445312,10.636719,2.0625,0.007813,-1.166016,-1.386719,0.737,0.572571,0.154297,0.324219,down
221980,0.484375,10.785156,2.101563,0.007813,-1.166016,-1.386719,0.737,0.572571,0.154297,0.324219,down
221985,0.445312,10.824219,2.292969,0.707031,-0.910156,-1.466797,0.737488,0.574341,0.155151,0.31958,down
221991,0.332031,10.480469,2.292969,0.417969,-0.876953,-1.482422,0.737915,0.575745,0.156067,0.315674,down
221997,0.027344,10.175781,2.40625,0.417969,-0.876953,-1.482422,0.739807,0.577393,0.157715,0.307312,down
222002,0.027344,9.976563,2.40625,-0.427734,-0.939453,-1.472656,0.741638,0.577087,0.15802,0.303223,down
222007,0.0625,9.828125,2.484375,-0.869141,-0.978516,-1.457031,0.741638,0.577087,0.15802,0.303223,down
222012,-0.011719,9.828125,2.714844,-0.869141,-0.978516,-1.457031,0.741638,0.577087,0.15802,0.303223,down
222018,-0.050781,9.828125,2.867188,-1.417969,-1.050781,-1.382813,0.741638,0.577087,0.15802,0.303223,down
222024,-0.089844,9.828125,2.945313,-1.515625,-1.048828,-1.34375,0.741638,0.577087,0.15802,0.303223,down
222029,-0.089844,9.9375,3.136719,-1.515625,-1.048828,-1.34375,0.741638,0.577087,0.15802,0.303223,down
222035,-0.050781,9.976563,3.25,-1.515625,-1.048828,-1.34375,0.761169,0.563965,0.153015,0.28125,down
222041,-0.050781,10.058594,3.25,-0.771484,-0.970703,-1.324219,0.761169,0.563965,0.153015,0.28125,down
222046,-0.050781,10.332031,3.171875,-0.771484,-0.970703,-1.324219,0.766541,0.560486,0.151489,0.274475,down
222051,0.0625,10.4375,3.289063,-0.515625,-0.925781,-1.355469,0.768616,0.559387,0.151123,0.270996,down
222056,0.0625,10.4375,3.289063,-0.515625,-0.925781,-1.355469,0.768616,0.559387,0.151123,0.270996,down
222061,0.179687,10.332031,3.328125,-0.277344,-0.859375,-1.433594,0.773926,0.557495,0.151306,0.259583,down
222067,0.027344,9.527344,3.480469,-0.277344,-0.859375,-1.433594,0.775757,0.556641,0.15155,0.255798,down
222072,-0.050781,9.175781,3.59375,-0.685547,-0.810547,-1.511719,0.777832,0.55542,0.151672,0.252014,down
222077,-0.050781,8.945313,3.671875,-0.847656,-0.839844,-1.542969,0.780212,0.553772,0.151733,0.248108,down
222083,-0.011719,8.644531,3.785156,-1.027344,-0.857422,-1.556641,0.780212,0.553772,0.151733,0.248108,down
222088,-0.011719,8.601563,3.863281,-1.144531,-0.878906,-1.566406,0.780212,0.553772,0.151733,0.248108,down
222094,-0.050781,8.71875,4.015625,-1.185547,-0.861328,-1.589844,0.780212,0.553772,0.151733,0.248108,down
222099,-0.089844,8.871094,4.09375,-1.123047,-0.841797,-1.636719,0.780212,0.553772,0.151733,0.248108,down
222105,-0.203125,9.214844,3.941406,-0.644531,-0.785156,-1.75,0.780212,0.553772,0.151733,0.248108,down
222110,-0.242187,9.367188,3.785156,-0.644531,-0.785156,-1.75,0.796448,0.54071,0.151428,0.224304,down
222115,-0.203125,9.445313,3.671875,-0.341797,-0.777344,-1.845703,0.80011,0.538696,0.152893,0.215027,down
222120,-0.128906,9.523438,3.824219,-0.341797,-0.777344,-1.845703,0.80011,0.538696,0.152893,0.215027,down
222125,-0.164062,9.828125,3.746094,0.222656,-0.828125,-2.007813,0.802307,0.538757,0.155151,0.204712,down
222130,-0.242187,10.019531,3.746094,0.222656,-0.828125,-2.007813,0.802307,0.538757,0.155151,0.204712,down
222135,-0.359375,10.058594,3.710938,0.349609,-0.935547,-2.115234,0.802307,0.538757,0.155151,0.204712,down
222140,-0.472656,10.171875,3.59375,0.349609,-0.935547,-2.115234,0.804382,0.539307,0.157471,0.193298,down
222146,-0.550781,10.25,3.519531,-0.279297,-1.220703,-2.105469,0.804382,0.539307,0.157471,0.193298,down
222151,-0.625,10.363281,3.328125,-0.279297,-1.220703,-2.105469,0.809448,0.537354,0.158875,0.175537,down
222156,-0.777344,10.359375,3.097656,-0.279297,-1.220703,-2.105469,0.811768,0.535645,0.158447,0.170288,down
222161,-0.933594,10.253906,3.136719,-1.210938,-1.552734,-1.933594,0.814819,0.533142,0.157471,0.164307,down
222166,-0.933594,10.253906,3.136719,-1.210938,-1.552734,-1.933594,0.814819,0.533142,0.157471,0.164307,down
222171,-0.96875,10.175781,3.363281,-1.294922,-1.576172,-1.880859,0.814819,0.533142,0.157471,0.164307,down
222176,-0.96875,10.175781,3.363281,-1.263672,-1.560547,-1.818359,0.820801,0.527832,0.15509,0.153748,down
222181,-1.125,10.210938,3.519531,-1.263672,-1.560547,-1.818359,0.823669,0.525269,0.15387,0.148499,down
222186,-1.238281,10.25,3.785156,-0.9375,-1.527344,-1.759766,0.828674,0.520996,0.151428,0.137451,down
222191,-1.316406,10.332031,3.632813,-0.9375,-1.527344,-1.759766,0.828674,0.520996,0.151428,0.137451,down
222196,-1.351563,10.289063,3.25,0.080078,-1.441406,-1.830078,0.830505,0.519836,0.150452,0.131775,down
222201,-1.46875,10.402344,2.867188,0.433594,-1.435547,-1.865234,0.831848,0.519409,0.149719,0.126038,down
222206,-1.46875,10.402344,2.867188,0.732422,-1.457031,-1.878906,0.832947,0.520508,0.148865,0.114746,down
222211,-1.546875,10.746094,3.097656,0.732422,-1.457031,-1.878906,0.832886,0.521912,0.14856,0.108704,down
222216,-1.507813,11.054688,2.980469,1.0625,-1.345703,-1.875,0.832886,0.521912,0.14856,0.108704,down
222221,-1.582031,11.132813,2.867188,1.095703,-1.294922,-1.845703,0.832581,0.523743,0.148376,0.102173,down
222227,-1.738281,11.246094,2.40625,1.095703,-1.294922,-1.845703,0.831665,0.527405,0.148376,0.09021,down
222232,-1.890625,11.589844,2.445313,1.095703,-1.294922,-1.845703,0.831482,0.528625,0.148376,0.085083,down
222238,-1.851563,11.707031,2.523438,0.392578,-1.205078,-1.611328,0.831543,0.529358,0.148193,0.079712,down
222243,-1.929688,11.703125,2.523438,0.019531,-1.205078,-1.513672,0.831543,0.529358,0.148193,0.079712,down
222248,-2.082031,11.402344,2.484375,0.019531,-1.205078,-1.513672,0.832947,0.528748,0.147217,0.070251,down
222254,-2.082031,11.246094,2.558594,-0.693359,-1.189453,-1.300781,0.832947,0.528748,0.147217,0.070251,down
222259,-2.082031,11.164063,2.597656,-0.964844,-1.199219,-1.205078,0.832947,0.528748,0.147217,0.070251,down
222264,-2.082031,11.164063,2.597656,-1.132813,-1.1875,-1.152344,0.838135,0.522766,0.144348,0.058289,down
222269,-2.121094,10.859375,2.636719,-1.132813,-1.1875,-1.152344,0.838135,0.522766,0.144348,0.058289,down
222274,-2.15625,10.675781,2.714844,-1.34375,-1.183594,-1.09375,0.842468,0.51709,0.141968,0.051453,down
222279,-2.15625,10.675781,2.714844,-1.34375,-1.183594,-1.09375,0.842468,0.51709,0.141968,0.051453,down
222285,-2.15625,10.292969,3.019531,-1.328125,-1.1875,-1.134766,0.847046,0.510925,0.139526,0.044373,down
222291,-2.15625,10.175781,3.480469,-1.091797,-1.330078,-1.369141,0.847046,0.510925,0.139526,0.044373,down
222296,-2.15625,9.867188,3.554688,-1.091797,-1.330078,-1.369141,0.851257,0.505188,0.137085,0.036377,down
222301,-2.195313,9.449219,3.363281,-1.0,-1.347656,-1.451172,0.851257,0.505188,0.137085,0.036377,down
222306,-2.15625,9.214844,3.402344,-0.925781,-1.365234,-1.494141,0.856689,0.497742,0.133667,0.022827,down
222311,-2.121094,8.988281,3.554688,-0.888672,-1.40625,-1.501953,0.856689,0.497742,0.133667,0.022827,down
222316,-2.082031,8.679688,3.785156,-0.888672,-1.40625,-1.501953,0.858459,0.495178,0.132385,0.017639,down
222321,-2.195313,8.605469,3.710938,-0.888672,-1.40625,-1.501953,0.861633,0.49054,0.130066,0.008789,down
222326,-2.273438,8.753906,3.59375,-1.023438,-1.375,-1.433594,0.861633,0.49054,0.130066,0.008789,down
222331,-2.347656,8.828125,3.59375,-1.158203,-1.445313,-1.431641,0.863281,0.487976,0.128906,0.004333,down
222337,-2.386719,8.679688,3.902344,-1.158203,-1.445313,-1.431641,0.867126,0.481812,0.126038,-0.005005,down
222343,-2.539063,8.71875,4.246094,-1.158203,-1.445313,-1.431641,0.86908,0.478577,0.124573,-0.009338,down
222349,-2.539063,8.789063,4.398437,-1.410156,-1.535156,-1.427734,0.86908,0.478577,0.124573,-0.009338,down
222354,-2.539063,8.679688,4.515625,-1.441406,-1.527344,-1.416016,0.86908,0.478577,0.124573,-0.009338,down
222360,-2.65625,8.828125,4.550781,-1.441406,-1.527344,-1.416016,0.875366,0.467834,0.119812,-0.02301,down
222365,-2.65625,8.828125,4.550781,-1.451172,-1.505859,-1.458984,0.877319,0.464233,0.118286,-0.027527,down
222370,-2.65625,8.828125,4.550781,-1.453125,-1.509766,-1.503906,0.879395,0.460388,0.11676,-0.032227,down
222375,-2.539063,8.410156,5.128906,-1.453125,-1.509766,-1.503906,0.879395,0.460388,0.11676,-0.032227,down
222380,-2.539063,8.410156,5.128906,-1.261719,-1.400391,-1.630859,0.882996,0.453308,0.114136,-0.041687,down
222385,-2.539063,7.839844,5.089844,-1.228516,-1.326172,-1.675781,0.882996,0.453308,0.114136,-0.041687,down
222390,-2.578125,7.492187,5.394531,-1.228516,-1.326172,-1.675781,0.886292,0.446289,0.112244,-0.05188,down
222395,-2.617188,7.375,5.433594,-1.228516,-1.326172,-1.675781,0.887695,0.443176,0.111633,-0.056335,down
222401,-2.617188,7.21875,5.433594,-1.251953,-1.173828,-1.775391,0.887695,0.443176,0.111633,-0.056335,down
222406,-2.695313,7.074219,5.355469,-1.314453,-1.048828,-1.8125,0.887695,0.443176,0.111633,-0.056335,down
222412,-3.078125,7.296875,5.320312,-1.314453,-1.048828,-1.8125,0.893494,0.428528,0.110291,-0.076538,down
222417,-3.34375,7.378906,5.472656,-1.275391,-1.099609,-1.792969,0.894775,0.424988,0.110046,-0.081299,down
222423,-3.535156,7.496094,5.855469,-1.275391,-1.099609,-1.792969,0.895935,0.421753,0.109741,-0.085754,down
222428,-3.84375,7.644531,6.085937,-1.275391,-1.099609,-1.792969,0.897095,0.418396,0.109192,-0.090576,down
222435,-3.957031,7.71875,6.121094,-0.980469,-1.265625,-1.667969,0.897095,0.418396,0.109192,-0.090576,down
222441,-4.113281,7.878906,6.046875,-0.728516,-1.414063,-1.509766,0.897095,0.418396,0.109192,-0.090576,down
222446,-4.304687,7.988281,6.046875,-0.728516,-1.414063,-1.509766,0.899841,0.409851,0.106201,-0.105042,down
222451,-4.304687,7.988281,6.046875,-0.568359,-1.517578,-1.417969,0.900452,0.407654,0.104553,-0.10968,down
222456,-4.417969,8.644531,6.390625,-0.460937,-1.611328,-1.320313,0.900452,0.407654,0.104553,-0.10968,down
222462,-4.339844,8.949219,6.507812,-0.460937,-1.611328,-1.320313,0.901062,0.40564,0.102539,-0.11438,down
222468,-4.339844,8.949219,6.507812,-0.396484,-1.646484,-1.158203,0.901978,0.4021,0.0979,-0.123108,down
222473,-4.339844,9.523438,6.121094,-0.640625,-1.734375,-1.015625,0.901978,0.4021,0.0979,-0.123108,down
222478,-4.226562,9.40625,6.160156,-0.794922,-1.771484,-0.986328,0.901978,0.4021,0.0979,-0.123108,down
222484,-3.921875,9.027344,6.238281,-0.794922,-1.771484,-0.986328,0.904785,0.393005,0.087219,-0.138977,down
222490,-3.804688,8.753906,6.238281,-1.138672,-1.837891,-0.921875,0.904785,0.393005,0.087219,-0.138977,down
222495,-3.726563,8.449219,6.277344,-1.298828,-1.828125,-0.880859,0.904785,0.393005,0.087219,-0.138977,down
222500,-3.613281,8.300781,6.316406,-1.298828,-1.828125,-0.880859,0.908508,0.382019,0.078613,-0.149902,down
222506,-3.5,7.957031,6.429687,-1.298828,-1.828125,-0.880859,0.909912,0.377991,0.075989,-0.153137,down
222511,-3.460938,7.835937,6.46875,-1.298828,-1.828125,-0.880859,0.911438,0.373413,0.073181,-0.156555,down
222516,-3.34375,7.601562,6.582031,-1.642578,-1.806641,-0.746094,0.911438,0.373413,0.073181,-0.156555,down
222521,-3.308594,7.492187,6.621094,-1.642578,-1.806641,-0.746094,0.914551,0.364014,0.067505,-0.163025,down
222526,-3.308594,7.453125,6.660156,-1.642578,-1.806641,-0.746094,0.915955,0.359619,0.06488,-0.165894,down
222532,-3.308594,7.375,6.8125,-1.5625,-1.785156,-0.632812,0.918823,0.350342,0.058899,-0.171814,down
222538,-3.117188,6.917969,7.273437,-1.5625,-1.785156,-0.632812,0.919983,0.346436,0.055969,-0.174438,down
222543,-3.117188,6.917969,7.273437,-1.214844,-1.783203,-0.46875,0.921143,0.342651,0.052917,-0.177002,down
222548,-3.117188,6.917969,7.273437,-1.056641,-1.765625,-0.396484,0.921143,0.342651,0.052917,-0.177002,down
222553,-3.117188,6.878906,7.199219,-1.056641,-1.765625,-0.396484,0.922119,0.339233,0.049744,-0.179443,down
222558,-2.808594,6.878906,7.199219,-0.9375,-1.777344,-0.328125,0.923035,0.335999,0.046326,-0.181763,down
222563,-2.808594,6.878906,7.199219,-0.9375,-1.777344,-0.328125,0.923035,0.335999,0.046326,-0.181763,down
222569,-2.617188,6.957031,7.0,-0.779297,-1.746094,-0.246094,0.925171,0.327759,0.03595,-0.187927,down
222574,-2.3125,6.726562,7.195312,-0.779297,-1.746094,-0.246094,0.925781,0.325317,0.032532,-0.189819,down
222579,-2.3125,6.726562,7.195312,-0.636719,-1.695313,-0.271484,0.926331,0.322937,0.029175,-0.191833,down
222586,-2.082031,6.574219,7.117187,-0.574219,-1.660156,-0.306641,0.926331,0.322937,0.029175,-0.191833,down
222592,-1.964844,6.535156,7.195312,-0.505859,-1.634766,-0.347656,0.927429,0.316406,0.018738,-0.198486,down
222597,-1.964844,6.457031,7.121094,-0.308594,-1.564453,-0.443359,0.927429,0.316406,0.018738,-0.198486,down
222602,-1.890625,6.417969,7.078125,-0.308594,-1.564453,-0.443359,0.927551,0.313477,0.012634,-0.202942,down
222607,-1.964844,6.457031,7.160156,-0.308594,-1.564453,-0.443359,0.927551,0.313477,0.012634,-0.202942,down
222612,-2.042969,6.535156,7.277344,-0.138672,-1.548828,-0.527344,0.927307,0.311157,0.00647,-0.208008,down
222617,-2.15625,6.535156,7.234375,0.011719,-1.523438,-0.597656,0.927307,0.311157,0.00647,-0.208008,down
222622,-2.15625,6.378906,7.199219,0.011719,-1.523438,-0.597656,0.926636,0.30957,0.000305,-0.213379,down
222627,-2.15625,6.1875,7.273437,0.011719,-1.523438,-0.597656,0.926208,0.30896,-0.002747,-0.216003,down
222632,-1.964844,6.265625,7.578125,0.191406,-1.640625,-0.658203,0.925659,0.308411,-0.006348,-0.219055,down
222637,-1.929688,6.304687,7.582031,0.253906,-1.65625,-0.666016,0.925659,0.308411,-0.006348,-0.219055,down
222642,-1.8125,6.378906,7.503906,0.253906,-1.65625,-0.666016,0.924438,0.3078,-0.013062,-0.22467,down
222648,-1.429688,6.496094,7.539062,0.253906,-1.65625,-0.666016,0.923706,0.3078,-0.016541,-0.227478,down
222653,-1.277344,6.574219,7.578125,0.478516,-1.673828,-0.660156,0.923706,0.3078,-0.016541,-0.227478,down
222658,-1.125,6.726562,7.421875,0.521484,-1.607422,-0.662109,0.923706,0.3078,-0.016541,-0.227478,down
222663,-1.046875,6.800781,7.304687,0.521484,-1.607422,-0.662109,0.923706,0.3078,-0.016541,-0.227478,down
222668,-1.046875,6.800781,7.304687,0.527344,-1.529297,-0.648437,0.921143,0.308411,-0.0271,-0.235901,down
222673,-0.933594,6.839844,7.195312,0.527344,-1.529297,-0.648437,0.920227,0.308777,-0.030334,-0.238586,down
222679,-0.933594,6.839844,7.195312,0.494141,-1.388672,-0.626953,0.918457,0.309448,-0.036377,-0.243591,down
222684,-0.777344,6.6875,7.195312,0.439453,-1.242188,-0.599609,0.917603,0.309753,-0.039063,-0.245911,down
222689,-0.742187,6.726562,7.121094,0.439453,-1.242188,-0.599609,0.916748,0.310059,-0.041687,-0.248352,down
222696,-0.933594,6.496094,7.304687,0.439453,-1.242188,-0.599609,0.916748,0.310059,-0.041687,-0.248352,down
222701,-0.855469,6.417969,7.234375,0.429687,-1.115234,-0.519531,0.9151,0.310669,-0.04657,-0.252686,down
222706,-0.816406,6.34375,7.234375,0.482422,-1.082031,-0.503906,0.9151,0.310669,-0.04657,-0.252686,down
222711,-0.742187,6.34375,7.304687,0.519531,-1.064453,-0.472656,0.9151,0.310669,-0.04657,-0.252686,down
222716,-0.664062,6.457031,7.347656,0.519531,-1.064453,-0.472656,0.912476,0.312256,-0.053955,-0.258789,down
222722,-0.703125,6.457031,7.347656,0.634766,-0.953125,-0.371094,0.912476,0.312256,-0.053955,-0.258789,down
222727,-0.664062,6.535156,7.304687,0.634766,-0.953125,-0.371094,0.909851,0.314697,-0.060669,-0.263611,down
222732,-0.585937,6.648437,7.34375,0.634766,-0.953125,-0.371094,0.909851,0.314697,-0.060669,-0.263611,down
222737,-0.585937,6.726562,7.421875,0.710937,-0.886719,-0.304688,0.907898,0.316895,-0.065369,-0.266479,down
222742,-0.585937,6.800781,7.425781,0.710937,-0.886719,-0.304688,0.907898,0.316895,-0.065369,-0.266479,down
222747,-0.550781,6.839844,7.421875,0.714844,-0.806641,-0.248047,0.907898,0.316895,-0.065369,-0.266479,down
222753,-0.585937,6.800781,7.539062,0.714844,-0.806641,-0.248047,0.905212,0.32019,-0.071655,-0.270081,down
222759,-0.550781,6.765625,7.578125,0.714844,-0.806641,-0.248047,0.904419,0.321228,-0.073486,-0.271118,down
222764,-0.550781,6.6875,7.503906,0.71875,-0.736328,-0.195312,0.903503,0.322388,-0.075562,-0.272156,down
222769,-0.433594,6.765625,7.308594,0.71875,-0.736328,-0.195312,0.902527,0.32373,-0.07782,-0.273193,down
222775,-0.320313,6.878906,7.234375,0.71875,-0.736328,-0.195312,0.901733,0.324829,-0.079529,-0.273926,down
222780,-0.28125,6.917969,7.121094,0.759766,-0.65625,-0.138672,0.901733,0.324829,-0.079529,-0.273926,down
222786,-0.089844,6.957031,6.890625,0.773437,-0.626953,-0.113281,0.901733,0.324829,-0.079529,-0.273926,down
222791,-0.050781,6.996094,6.8125,0.78125,-0.576172,-0.117188,0.899109,0.328796,-0.085083,-0.276062,down
222796,0.0625,6.953125,6.699219,0.78125,-0.576172,-0.117188,0.898254,0.3302,-0.08667,-0.276672,down
222802,0.140625,7.035156,6.773437,0.873047,-0.339844,-0.150391,0.898254,0.3302,-0.08667,-0.276672,down
222807,0.140625,7.035156,6.890625,0.873047,-0.339844,-0.150391,0.895508,0.335266,-0.090637,-0.278259,down
222812,0.027344,7.070312,6.8125,0.943359,-0.158203,-0.181641,0.895508,0.335266,-0.090637,-0.278259,down
222817,-0.050781,7.074219,6.890625,0.943359,-0.158203,-0.181641,0.89447,0.337463,-0.091675,-0.278687,down
222822,-0.128906,7.109375,6.964844,0.900391,-0.056641,-0.146484,0.89447,0.337463,-0.091675,-0.278687,down
222828,-0.28125,7.113281,7.042969,0.900391,-0.056641,-0.146484,0.892639,0.34137,-0.093079,-0.279236,down
222833,-0.28125,7.113281,7.042969,0.853516,-0.037109,-0.113281,0.891785,0.343323,-0.093689,-0.279419,down
222838,-0.320313,7.148437,7.195312,0.853516,-0.037109,-0.113281,0.890991,0.345154,-0.094238,-0.279541,down
222843,-0.472656,7.222656,7.460937,0.791016,-0.046875,-0.03125,0.890259,0.346924,-0.094849,-0.279541,down
222848,-0.472656,7.222656,7.460937,0.791016,-0.048828,0.023437,0.889526,0.348633,-0.09552,-0.27948,down
222854,-0.664062,7.417969,7.386719,0.791016,-0.048828,0.023437,0.888123,0.352112,-0.097168,-0.278992,down
222859,-0.585937,7.53125,7.234375,0.847656,-0.154297,0.146484,0.888123,0.352112,-0.097168,-0.278992,down
222865,-0.550781,7.800781,7.273437,0.847656,-0.154297,0.146484,0.886658,0.355591,-0.099304,-0.278381,down
222871,-0.550781,7.875,7.15625,0.865234,-0.214844,0.181641,0.886658,0.355591,-0.099304,-0.278381,down
222877,-0.433594,7.914062,6.925781,0.796875,-0.230469,0.175781,0.886658,0.355591,-0.099304,-0.278381,down
222882,-0.320313,7.71875,6.851562,0.796875,-0.230469,0.175781,0.884583,0.360657,-0.102905,-0.277283,down
222888,-0.242187,7.683594,6.773437,0.691406,-0.220703,0.142578,0.884583,0.360657,-0.102905,-0.277283,down
222893,-0.242187,7.601562,6.734375,0.691406,-0.220703,0.142578,0.882629,0.36499,-0.106445,-0.27655,down
222898,-0.242187,7.535156,6.621094,0.691406,-0.220703,0.142578,0.882141,0.365967,-0.107239,-0.276367,down
222903,-0.203125,7.378906,6.46875,0.466797,-0.15625,0.115234,0.881653,0.367004,-0.108154,-0.276184,down
222909,-0.28125,7.335937,6.773437,0.466797,-0.15625,0.115234,0.881287,0.367798,-0.108826,-0.276062,down
222914,-0.320313,7.257812,6.964844,0.466797,-0.15625,0.115234,0.88092,0.368591,-0.109619,-0.27594,down
222919,-0.394531,7.109375,7.234375,0.466797,-0.15625,0.115234,0.88092,0.368591,-0.109619,-0.27594,down
222924,-0.433594,7.03125,7.117187,0.40625,-0.195312,0.164062,0.88092,0.368591,-0.109619,-0.27594,down
222929,-0.511719,6.992187,7.121094,0.462891,-0.193359,0.181641,0.88092,0.368591,-0.109619,-0.27594,down
222935,-0.550781,6.992187,7.078125,0.462891,-0.193359,0.181641,0.88092,0.368591,-0.109619,-0.27594,down
222940,-0.511719,7.070312,7.117187,0.611328,-0.25,0.171875,0.88092,0.368591,-0.109619,-0.27594,down
222945,-0.511719,7.21875,6.964844,0.695312,-0.263672,0.148437,0.88092,0.368591,-0.109619,-0.27594,down
222950,-0.511719,7.183594,6.851562,0.75,-0.269531,0.101563,0.88092,0.368591,-0.109619,-0.27594,down
222956,-0.472656,7.152344,6.773437,0.75,-0.269531,0.101563,0.88092,0.368591,-0.109619,-0.27594,down
222961,-0.320313,7.152344,6.734375,0.75,-0.269531,0.101563,0.876099,0.378357,-0.118896,-0.274231,down
222967,-0.242187,7.152344,6.542969,0.882812,-0.320313,-0.111328,0.876099,0.378357,-0.118896,-0.274231,down
222972,0.027344,7.152344,6.351562,0.882812,-0.320313,-0.111328,0.873047,0.383484,-0.122498,-0.275146,down
222977,0.0625,7.183594,6.316406,0.882812,-0.320313,-0.111328,0.873047,0.383484,-0.122498,-0.275146,down
222982,0.101563,7.183594,6.316406,0.892578,-0.283203,-0.181641,0.873047,0.383484,-0.122498,-0.275146,down
222987,0.0625,7.339844,6.121094,0.916016,-0.251953,-0.1875,0.873047,0.383484,-0.122498,-0.275146,down
222992,0.027344,7.417969,5.96875,0.916016,-0.251953,-0.1875,0.869751,0.389099,-0.12561,-0.276489,down
222998,-0.011719,7.492187,5.894531,0.863281,-0.140625,-0.134766,0.869751,0.389099,-0.12561,-0.276489,down
223003,0.0625,7.566406,5.894531,0.863281,-0.140625,-0.134766,0.866577,0.394714,-0.127991,-0.277283,down
223009,-0.164062,7.757812,5.816406,0.863281,-0.140625,-0.134766,0.865723,0.396362,-0.12854,-0.277344,down
223014,-0.164062,7.761719,6.121094,0.863281,-0.140625,-0.134766,0.864868,0.398071,-0.12915,-0.277283,down
223020,-0.242187,7.796875,5.96875,0.759766,0.019531,0.041016,0.864868,0.398071,-0.12915,-0.277283,down
