timestamp,ax,ay,az,gx,gy,gz,qw,qx,qy,qz,label
548565,7.847656,5.445312,2.863281,-0.007813,-0.023437,0.009766,0.377319,0.589111,0.05426,0.712524,down
548570,7.921875,5.523437,2.824219,-0.007813,-0.023437,0.009766,0.377258,0.589111,0.05426,0.712524,down
548576,7.925781,5.484375,2.863281,0.027344,-0.007813,0.009766,0.377197,0.589172,0.054321,0.712524,down
548581,7.921875,5.484375,2.941406,0.041016,-0.005859,0.005859,0.377197,0.589172,0.054321,0.712524,down
548586,7.886719,5.445312,2.863281,0.058594,0.007813,0.007813,0.377197,0.589172,0.054321,0.712524,down
548591,7.84375,5.484375,2.863281,0.060547,0.009766,0.015625,0.377197,0.589172,0.054321,0.712524,down
548596,7.847656,5.371094,2.902344,0.050781,0.027344,0.021484,0.377197,0.589172,0.054321,0.712524,down
548601,7.882812,5.40625,2.902344,0.029297,0.033203,0.029297,0.377197,0.589172,0.054321,0.712524,down
548607,7.84375,5.332031,2.941406,0.029297,0.033203,0.029297,0.377197,0.589172,0.054321,0.712524,down
548612,7.773437,5.332031,2.941406,0.015625,0.054687,0.025391,0.377197,0.589172,0.054321,0.712524,down
548617,7.773437,5.253906,3.015625,0.021484,0.054687,0.015625,0.377197,0.589172,0.054321,0.712524,down
548623,7.804687,5.253906,2.976563,0.017578,0.0625,-0.003906,0.376038,0.588867,0.05542,0.713257,down
548628,7.847656,5.253906,2.976563,0.017578,0.0625,-0.003906,0.376038,0.588867,0.05542,0.713257,down
548633,7.925781,5.179687,2.976563,0.021484,0.060547,-0.039063,0.376038,0.588867,0.05542,0.713257,down
548638,7.921875,5.253906,2.976563,0.021484,0.066406,-0.042969,0.376038,0.588562,0.05603,0.713501,down
548643,7.964844,5.214844,2.976563,0.021484,0.066406,-0.042969,0.376038,0.588562,0.05603,0.713501,down
548648,7.921875,5.292969,2.976563,0.021484,0.066406,-0.042969,0.376099,0.588379,0.056274,0.713562,down
548654,7.921875,5.253906,2.976563,-0.033203,0.089844,-0.082031,0.376099,0.588379,0.056274,0.713562,down
548659,7.882812,5.292969,3.015625,-0.033203,0.089844,-0.082031,0.376526,0.58783,0.056824,0.713806,down
548664,7.921875,5.253906,3.132813,-0.033203,0.089844,-0.082031,0.376709,0.587585,0.057007,0.713867,down
548669,7.847656,5.253906,3.09375,-0.056641,0.072266,-0.074219,0.376709,0.587585,0.057007,0.713867,down
548674,7.804687,5.253906,3.09375,-0.056641,0.072266,-0.074219,0.377014,0.587219,0.057251,0.713989,down
548680,7.777344,5.371094,3.285156,-0.056641,0.072266,-0.074219,0.377136,0.587097,0.057373,0.71405,down
548685,7.808594,5.371094,3.324219,0.005859,0.048828,-0.046875,0.377197,0.586975,0.057556,0.71405,down
548690,7.808594,5.40625,3.285156,0.048828,0.03125,-0.035156,0.377197,0.586975,0.057556,0.71405,down
548696,7.847656,5.371094,3.246094,0.048828,0.03125,-0.035156,0.377075,0.586914,0.057922,0.714111,down
548701,7.886719,5.40625,3.324219,0.099609,0.009766,-0.017578,0.377075,0.586914,0.057922,0.714111,down
548706,7.925781,5.445312,3.324219,0.123047,0.011719,-0.027344,0.377075,0.586914,0.057922,0.714111,down
548711,7.921875,5.40625,3.324219,0.123047,0.011719,-0.027344,0.376648,0.587158,0.058838,0.714111,down
548716,7.847656,5.445312,3.207031,0.123047,0.011719,-0.027344,0.376526,0.587219,0.059082,0.714111,down
548721,7.84375,5.40625,3.246094,0.099609,0.009766,-0.035156,0.376526,0.587219,0.059082,0.714111,down
548726,7.808594,5.40625,3.246094,0.074219,0.001953,-0.035156,0.376526,0.587219,0.059082,0.714111,down
548731,7.808594,5.484375,3.285156,0.048828,0.001953,-0.046875,0.376526,0.587219,0.059082,0.714111,down
548737,7.808594,5.523437,3.207031,0.027344,-0.001953,-0.054687,0.376526,0.587219,0.059082,0.714111,down
548742,7.773437,5.523437,3.246094,0.0,-0.015625,-0.0625,0.376526,0.587219,0.059082,0.714111,down
548747,7.734375,5.523437,3.246094,-0.029297,-0.027344,-0.076172,0.376526,0.587219,0.059082,0.714111,down
548752,7.734375,5.523437,3.167969,-0.029297,-0.027344,-0.076172,0.376526,0.587219,0.059082,0.714111,down
548757,7.734375,5.523437,3.167969,-0.052734,-0.058594,-0.087891,0.376526,0.587219,0.059082,0.714111,down
548762,7.734375,5.484375,3.207031,-0.052734,-0.0625,-0.076172,0.376526,0.587219,0.059082,0.714111,down
548767,7.804687,5.445312,3.207031,-0.041016,-0.064453,-0.078125,0.376526,0.587219,0.059082,0.714111,down
548772,7.847656,5.332031,3.167969,-0.041016,-0.064453,-0.078125,0.376526,0.587219,0.059082,0.714111,down
548777,7.886719,5.292969,3.132813,-0.027344,-0.060547,-0.0625,0.376526,0.587219,0.059082,0.714111,down
548782,7.886719,5.292969,3.132813,-0.007813,-0.058594,-0.050781,0.376526,0.587219,0.059082,0.714111,down
548787,7.886719,5.332031,3.09375,-0.007813,-0.058594,-0.050781,0.377625,0.58783,0.060547,0.712891,down
548792,7.925781,5.332031,3.015625,-0.007813,-0.058594,-0.050781,0.377625,0.58783,0.060547,0.712891,down
548797,7.882812,5.371094,3.054688,0.101563,-0.042969,-0.050781,0.377625,0.58783,0.060547,0.712891,down
548802,7.921875,5.371094,3.132813,0.142578,-0.054687,-0.050781,0.377625,0.58783,0.060547,0.712891,down
548807,7.925781,5.40625,2.976563,0.142578,-0.054687,-0.050781,0.377625,0.58783,0.060547,0.712891,down
548812,7.882812,5.40625,2.902344,0.142578,-0.054687,-0.050781,0.377014,0.588806,0.062012,0.71228,down
548817,7.882812,5.484375,2.863281,0.251953,-0.056641,-0.072266,0.377014,0.588806,0.062012,0.71228,down
548822,7.921875,5.5625,2.863281,0.261719,-0.050781,-0.078125,0.377014,0.588806,0.062012,0.71228,down
548827,7.882812,5.636719,2.824219,0.261719,-0.050781,-0.078125,0.377014,0.588806,0.062012,0.71228,down
548832,7.925781,5.714844,2.824219,0.261719,-0.050781,-0.078125,0.376038,0.590027,0.064209,0.711609,down
548838,7.84375,5.789062,2.785156,0.166016,-0.023437,-0.105469,0.376038,0.590027,0.064209,0.711609,down
548843,7.84375,5.789062,2.785156,0.166016,-0.023437,-0.105469,0.375854,0.590332,0.065125,0.711365,down
548848,7.808594,5.828125,2.785156,0.166016,-0.023437,-0.105469,0.375916,0.590393,0.065491,0.711243,down
548854,7.808594,5.828125,2.785156,-0.125,-0.001953,-0.121094,0.375916,0.590393,0.065491,0.711243,down
548859,7.804687,5.597656,2.785156,-0.125,-0.001953,-0.121094,0.37677,0.590088,0.065674,0.710999,down
548864,7.847656,5.523437,2.824219,-0.25,0.011719,-0.115234,0.37677,0.590088,0.065674,0.710999,down
548869,7.847656,5.445312,2.863281,-0.25,0.011719,-0.115234,0.377319,0.589783,0.06543,0.710937,down
548874,7.804687,5.40625,2.941406,-0.285156,0.007813,-0.105469,0.377319,0.589783,0.06543,0.710937,down
548879,7.882812,5.214844,3.054688,-0.285156,0.007813,-0.105469,0.378967,0.588989,0.064697,0.710876,down
548884,7.882812,5.101562,3.054688,-0.285156,0.007813,-0.105469,0.378967,0.588989,0.064697,0.710876,down
548889,7.886719,5.101562,3.09375,-0.148437,0.007813,-0.113281,0.378967,0.588989,0.064697,0.710876,down
548894,7.882812,5.023437,3.132813,-0.148437,0.007813,-0.113281,0.380249,0.588318,0.064331,0.710754,down
548899,7.84375,5.023437,3.167969,-0.148437,0.007813,-0.113281,0.380493,0.588257,0.064514,0.710632,down
548904,7.804687,5.0625,3.09375,-0.148437,0.007813,-0.113281,0.380493,0.588257,0.064514,0.710632,down
548909,7.804687,5.101562,3.09375,0.15625,0.019531,-0.152344,0.380493,0.588257,0.064514,0.710632,down
548914,7.808594,5.214844,3.054688,0.15625,0.019531,-0.152344,0.380676,0.58844,0.065979,0.710266,down
548919,7.804687,5.332031,3.09375,0.15625,0.019531,-0.152344,0.380676,0.58844,0.065979,0.710266,down
548924,7.84375,5.371094,3.015625,0.25,0.023437,-0.185547,0.380554,0.588745,0.067566,0.709961,down
548929,7.84375,5.5625,3.015625,0.234375,0.03125,-0.208984,0.380554,0.588745,0.067566,0.709961,down
548934,7.84375,5.675781,2.976563,0.234375,0.03125,-0.208984,0.380554,0.588867,0.068359,0.709778,down
548939,7.847656,5.753906,2.902344,0.234375,0.03125,-0.208984,0.380554,0.588989,0.069092,0.709595,down
548944,7.847656,5.789062,2.824219,0.083984,0.03125,-0.230469,0.380554,0.588989,0.069092,0.709595,down
548950,7.847656,5.789062,2.824219,0.025391,0.033203,-0.238281,0.381104,0.58905,0.070923,0.709045,down
548955,7.84375,5.867187,2.785156,-0.050781,0.041016,-0.248047,0.381531,0.588928,0.07135,0.708923,down
548961,7.808594,5.867187,2.785156,-0.050781,0.041016,-0.248047,0.38208,0.588684,0.071594,0.70874,down
548966,7.734375,5.828125,2.785156,-0.183594,0.052734,-0.248047,0.38208,0.588684,0.071594,0.70874,down
548971,7.660156,5.753906,2.863281,-0.183594,0.052734,-0.248047,0.383423,0.588074,0.071899,0.708496,down
548977,7.621094,5.714844,2.863281,-0.265625,0.041016,-0.244141,0.384155,0.587708,0.071899,0.708435,down
548983,7.542969,5.636719,2.863281,-0.285156,0.042969,-0.232422,0.384155,0.587708,0.071899,0.708435,down
548988,7.539062,5.484375,3.09375,-0.285156,0.042969,-0.232422,0.384155,0.587708,0.071899,0.708435,down
548994,7.539062,5.40625,3.132813,-0.269531,0.019531,-0.201172,0.384155,0.587708,0.071899,0.708435,down
548999,7.503906,5.292969,3.207031,-0.162109,0.019531,-0.177734,0.384155,0.587708,0.071899,0.708435,down
549005,7.464844,5.253906,3.167969,-0.162109,0.019531,-0.177734,0.388245,0.585815,0.071594,0.707764,down
549010,7.503906,5.371094,3.167969,-0.037109,0.019531,-0.162109,0.388611,0.585693,0.071777,0.707642,down
549016,7.582031,5.445312,3.285156,-0.037109,0.019531,-0.162109,0.388855,0.585571,0.072021,0.707581,down
549021,7.621094,5.597656,3.207031,-0.037109,0.019531,-0.162109,0.389038,0.585571,0.072449,0.707458,down
549026,7.621094,5.636719,3.167969,-0.037109,0.019531,-0.162109,0.38916,0.585571,0.072998,0.707336,down
549031,7.578125,5.867187,3.132813,0.177734,0.03125,-0.189453,0.389221,0.585632,0.073608,0.707214,down
549036,7.578125,5.867187,3.132813,0.193359,0.03125,-0.210937,0.389282,0.585693,0.074219,0.707031,down
549041,7.617187,5.980469,3.054688,0.193359,0.03125,-0.210937,0.389343,0.585815,0.074951,0.706848,down
549047,7.578125,6.058594,2.976563,0.189453,0.011719,-0.224609,0.389343,0.585815,0.074951,0.706848,down
549052,7.582031,6.058594,2.941406,0.164062,0.009766,-0.228516,0.389343,0.585815,0.074951,0.706848,down
549057,7.582031,5.980469,2.863281,0.115234,0.003906,-0.240234,0.389343,0.585815,0.074951,0.706848,down
549063,7.578125,6.019531,2.902344,0.056641,-0.011719,-0.232422,0.389343,0.585815,0.074951,0.706848,down
549068,7.503906,6.019531,2.941406,-0.011719,-0.027344,-0.226562,0.389343,0.585815,0.074951,0.706848,down
549074,7.542969,5.867187,3.054688,-0.076172,-0.041016,-0.224609,0.389343,0.585815,0.074951,0.706848,down
549080,7.5,5.789062,3.132813,-0.125,-0.052734,-0.21875,0.389343,0.585815,0.074951,0.706848,down
549085,7.503906,5.714844,3.167969,-0.148437,-0.0625,-0.212891,0.389343,0.585815,0.074951,0.706848,down
549090,7.460937,5.675781,3.167969,-0.148437,-0.0625,-0.212891,0.393127,0.585815,0.07843,0.704407,down
549095,7.390625,5.675781,3.246094,-0.148437,-0.0625,-0.212891,0.393555,0.585754,0.078552,0.704163,down
549100,7.351562,5.636719,3.246094,-0.148437,-0.0625,-0.212891,0.394043,0.585754,0.078796,0.703857,down
549105,7.390625,5.523437,3.207031,0.048828,-0.046875,-0.238281,0.39447,0.585815,0.079163,0.703552,down
549110,7.390625,5.523437,3.285156,0.048828,-0.046875,-0.238281,0.394775,0.585937,0.079651,0.703247,down
549115,7.351562,5.5625,3.285156,0.048828,-0.046875,-0.238281,0.394958,0.58606,0.080261,0.702942,down
549120,7.3125,5.5625,3.246094,0.048828,-0.046875,-0.238281,0.394958,0.58606,0.080261,0.702942,down
549125,7.277344,5.597656,3.285156,0.253906,-0.001953,-0.267578,0.395142,0.586426,0.082092,0.702271,down
549130,7.15625,5.675781,3.167969,0.253906,-0.001953,-0.267578,0.395081,0.586731,0.08313,0.701965,down
549135,7.160156,5.714844,3.09375,0.431641,0.021484,-0.306641,0.395081,0.586731,0.08313,0.701965,down
549140,7.042969,5.714844,3.09375,0.431641,0.021484,-0.306641,0.394836,0.587402,0.085693,0.701233,down
549145,7.0,5.714844,3.054688,0.431641,0.021484,-0.306641,0.394714,0.587708,0.087036,0.700867,down
549150,6.851562,5.675781,3.054688,0.431641,0.021484,-0.306641,0.394531,0.588013,0.088257,0.700562,down
549155,6.894531,5.753906,2.976563,0.5,0.037109,-0.337891,0.394348,0.588379,0.089783,0.700134,down
549160,6.851562,5.675781,2.941406,0.5,0.037109,-0.337891,0.394226,0.588684,0.091187,0.699768,down
549165,6.65625,5.597656,2.941406,0.521484,0.068359,-0.369141,0.394226,0.588684,0.091187,0.699768,down
549171,6.511719,5.523437,2.976563,0.521484,0.068359,-0.369141,0.393921,0.589294,0.094299,0.699036,down
549177,6.507812,5.484375,2.941406,0.486328,0.097656,-0.386719,0.393799,0.589539,0.095825,0.69873,down
549183,6.546875,5.371094,2.941406,0.4375,0.099609,-0.390625,0.393799,0.589539,0.095825,0.69873,down
549188,6.546875,5.253906,2.941406,0.398438,0.109375,-0.400391,0.393799,0.589539,0.095825,0.69873,down
549194,6.699219,5.214844,2.941406,0.40625,0.113281,-0.408203,0.393799,0.589539,0.095825,0.69873,down
549199,6.699219,5.214844,2.941406,0.392578,0.154297,-0.429687,0.393921,0.589966,0.101746,0.697449,down
549204,6.734375,5.179687,2.863281,0.394531,0.207031,-0.4375,0.393921,0.589966,0.101746,0.697449,down
549209,6.734375,5.179687,2.863281,0.425781,0.265625,-0.451172,0.394104,0.589844,0.104858,0.697021,down
549214,6.65625,5.101562,2.824219,0.484375,0.314453,-0.466797,0.394104,0.589844,0.104858,0.697021,down
549219,6.65625,5.101562,2.824219,0.525391,0.361328,-0.488281,0.394104,0.589417,0.108582,0.696777,down
549224,6.589844,4.988281,2.941406,0.525391,0.361328,-0.488281,0.394043,0.589172,0.110657,0.696716,down
549230,6.507812,4.910156,2.902344,0.728516,0.505859,-0.513672,0.394043,0.589172,0.110657,0.696716,down
549235,6.390625,4.949219,2.902344,0.728516,0.505859,-0.513672,0.393127,0.588257,0.118103,0.696777,down
549241,6.238281,4.949219,3.015625,0.728516,0.505859,-0.513672,0.392578,0.588013,0.121033,0.696777,down
549246,6.089844,5.023437,2.976563,1.019531,0.583984,-0.574219,0.392578,0.588013,0.121033,0.696777,down
549251,6.011719,5.101562,2.824219,1.078125,0.650391,-0.597656,0.392578,0.588013,0.121033,0.696777,down
549257,5.851562,5.179687,2.671875,1.078125,0.650391,-0.597656,0.390381,0.587219,0.130981,0.696838,down
549262,5.972656,5.484375,2.289063,1.125,0.626953,-0.638672,0.389526,0.586914,0.134888,0.696838,down
549267,5.96875,5.5625,2.289063,1.140625,0.505859,-0.660156,0.389526,0.586914,0.134888,0.696838,down
549273,6.125,5.714844,2.328125,1.089844,0.371094,-0.683594,0.389526,0.586914,0.134888,0.696838,down
549278,6.546875,5.828125,2.59375,1.089844,0.371094,-0.683594,0.387756,0.587097,0.144592,0.69574,down
549284,6.660156,5.789062,2.671875,0.957031,0.173828,-0.730469,0.387756,0.587097,0.144592,0.69574,down
549289,6.773437,5.867187,2.75,0.900391,0.130859,-0.763672,0.387756,0.587097,0.144592,0.69574,down
549294,7.082031,5.980469,2.785156,0.871094,0.115234,-0.802734,0.387756,0.587097,0.144592,0.69574,down
549299,7.117187,5.90625,2.75,0.867187,0.128906,-0.832031,0.387329,0.588379,0.156311,0.692322,down
549304,7.160156,5.945312,2.710938,0.851562,0.175781,-0.855469,0.387329,0.588379,0.156311,0.692322,down
549309,7.160156,6.25,2.554688,0.851562,0.175781,-0.855469,0.387573,0.588745,0.162476,0.690491,down
549314,7.160156,6.402344,2.480469,0.822266,0.316406,-0.871094,0.387573,0.588745,0.162476,0.690491,down
549319,7.199219,6.632812,2.328125,0.746094,0.382813,-0.855469,0.387573,0.588745,0.162476,0.690491,down
549324,7.15625,6.863281,2.328125,0.646484,0.447266,-0.841797,0.387573,0.588745,0.162476,0.690491,down
549329,7.082031,7.441406,2.289063,0.646484,0.447266,-0.841797,0.388428,0.587463,0.174072,0.688293,down
549335,7.121094,7.585937,2.210938,0.324219,0.738281,-0.875,0.388428,0.587463,0.174072,0.688293,down
549340,7.160156,7.824219,2.058594,0.324219,0.738281,-0.875,0.389587,0.585388,0.179199,0.68811,down
549345,7.234375,8.28125,1.867188,0.292969,0.871094,-0.910156,0.389587,0.585388,0.179199,0.68811,down
549350,7.234375,8.28125,1.867188,0.292969,0.871094,-0.910156,0.391724,0.580322,0.187317,0.688965,down
549355,7.390625,8.777344,2.058594,0.292969,0.871094,-0.910156,0.391724,0.580322,0.187317,0.688965,down
549360,7.542969,9.011719,2.25,0.296875,1.169922,-1.0625,0.391724,0.580322,0.187317,0.688965,down
549365,7.617187,9.550781,2.785156,0.296875,1.169922,-1.0625,0.393372,0.57605,0.193481,0.68988,down
549370,7.65625,9.65625,2.824219,0.296875,1.169922,-1.0625,0.394226,0.573669,0.196899,0.690491,down
549375,7.695312,9.816406,2.863281,0.384766,1.398438,-1.152344,0.394226,0.573669,0.196899,0.690491,down
549380,7.695312,9.816406,2.863281,0.443359,1.533203,-1.193359,0.39563,0.568359,0.204407,0.691833,down
549385,7.695312,10.34375,3.207031,0.474609,1.623047,-1.222656,0.396179,0.565613,0.208313,0.692627,down
549390,7.695312,10.34375,3.207031,0.474609,1.623047,-1.222656,0.396179,0.565613,0.208313,0.692627,down
549395,7.695312,10.34375,3.207031,0.496094,1.664063,-1.248047,0.397949,0.556152,0.221252,0.695251,down
549400,7.542969,10.734375,3.667969,0.496094,1.664063,-1.248047,0.397949,0.556152,0.221252,0.695251,down
549405,7.503906,10.921875,3.515625,0.332031,1.867188,-1.294922,0.399414,0.548767,0.229736,0.69751,down
549410,7.464844,11.121094,3.359375,0.332031,1.867188,-1.294922,0.399414,0.548767,0.229736,0.69751,down
549415,7.390625,11.269531,3.324219,-0.328125,1.904297,-1.253906,0.399414,0.548767,0.229736,0.69751,down
549420,7.425781,11.570313,3.324219,-0.328125,1.904297,-1.253906,0.403381,0.535828,0.239868,0.701904,down
549425,7.425781,11.6875,3.398438,-0.871094,1.921875,-1.224609,0.403381,0.535828,0.239868,0.701904,down
549430,7.3125,11.804688,3.398438,-0.871094,1.921875,-1.224609,0.405457,0.53064,0.24231,0.703796,down
549435,7.234375,11.886719,3.246094,-1.384766,2.082031,-1.191406,0.405457,0.53064,0.24231,0.703796,down
549441,6.890625,11.847656,3.132813,-1.384766,2.082031,-1.191406,0.41272,0.514038,0.246643,0.710327,down
549446,6.660156,11.726563,3.246094,-1.742188,2.271484,-1.146484,0.415771,0.507019,0.24762,0.713257,down
549451,6.355469,11.6875,3.515625,-1.869141,2.412109,-1.123047,0.418701,0.500061,0.248291,0.716248,down
549456,6.007812,11.464844,3.398438,-1.869141,2.412109,-1.123047,0.418701,0.500061,0.248291,0.716248,down
549461,6.007812,11.464844,3.398438,-1.931641,2.568359,-1.109375,0.421143,0.493713,0.24884,0.718994,down
549466,5.894531,11.226563,3.246094,-1.931641,2.568359,-1.109375,0.423828,0.486328,0.249451,0.722229,down
549472,5.664062,10.925781,3.746094,-2.052734,2.71875,-1.044922,0.429138,0.470703,0.250366,0.729126,down
549477,5.664062,10.925781,3.746094,-2.052734,2.71875,-1.044922,0.429138,0.470703,0.250366,0.729126,down
549483,5.28125,10.582031,4.664062,-1.998047,2.804688,-0.982422,0.433777,0.454773,0.251526,0.736084,down
549489,5.242187,10.421875,4.777344,-1.785156,2.886719,-0.943359,0.433777,0.454773,0.251526,0.736084,down
549494,5.050781,10.121094,5.160156,-1.785156,2.886719,-0.943359,0.433777,0.454773,0.251526,0.736084,down
549499,4.976562,10.082031,5.316406,-1.453125,2.867188,-0.953125,0.433777,0.454773,0.251526,0.736084,down
549504,4.898437,10.039063,5.390625,-1.318359,2.855469,-0.964844,0.433777,0.454773,0.251526,0.736084,down
549509,4.707031,10.078125,5.582031,-1.318359,2.855469,-0.964844,0.441895,0.415833,0.258362,0.751709,down
549514,4.628906,9.929688,5.582031,-1.230469,2.779297,-0.958984,0.441895,0.415833,0.258362,0.751709,down
549519,4.515625,9.699219,5.699219,-1.328125,2.734375,-0.947266,0.441895,0.415833,0.258362,0.751709,down
549524,4.363281,9.582031,5.734375,-1.441406,2.677734,-0.921875,0.441895,0.415833,0.258362,0.751709,down
549529,4.09375,9.351563,5.734375,-1.441406,2.677734,-0.921875,0.447021,0.38678,0.264099,0.762085,down
549534,3.980469,9.273438,5.890625,-1.855469,2.546875,-0.824219,0.447021,0.38678,0.264099,0.762085,down
549539,3.980469,9.273438,5.890625,-2.068359,2.470703,-0.765625,0.450134,0.372253,0.264343,0.767395,down
549544,3.980469,9.273438,5.890625,-2.226563,2.414063,-0.726562,0.451965,0.36438,0.263672,0.770325,down
549549,3.632813,8.667969,6.121094,-2.226563,2.414063,-0.726562,0.451965,0.36438,0.263672,0.770325,down
549555,3.480469,8.507813,6.082031,-2.341797,2.367188,-0.705078,0.455566,0.349121,0.261414,0.776001,down
549560,3.480469,8.507813,6.082031,-2.435547,2.320313,-0.666016,0.45752,0.341187,0.259888,0.778931,down
549565,3.136719,7.972656,6.464844,-2.435547,2.320313,-0.666016,0.459351,0.333557,0.258423,0.781616,down
549570,3.097656,7.859375,6.539062,-2.435547,2.320313,-0.666016,0.460999,0.325989,0.25708,0.784302,down
549575,3.058594,7.863281,6.65625,-2.060547,2.283203,-0.6875,0.460999,0.325989,0.25708,0.784302,down
549580,2.792969,7.941406,6.808594,-2.060547,2.283203,-0.6875,0.464111,0.310852,0.254944,0.789307,down
549585,2.792969,7.941406,6.808594,-1.847656,2.238281,-0.703125,0.465637,0.302917,0.254089,0.791748,down
549590,2.523438,7.898437,7.230469,-1.847656,2.238281,-0.703125,0.466858,0.296387,0.25354,0.79364,down
549595,2.410156,7.824219,7.269531,-1.759766,2.205078,-0.707031,0.466858,0.296387,0.25354,0.79364,down
549600,2.410156,7.824219,7.269531,-1.751953,2.179688,-0.703125,0.469299,0.282593,0.252747,0.797485,down
549605,1.949219,7.667969,7.308594,-1.751953,2.179688,-0.703125,0.469299,0.282593,0.252747,0.797485,down
549610,1.757813,7.4375,7.421875,-1.908203,2.070313,-0.677734,0.471863,0.268799,0.251465,0.801147,down
549615,1.757813,7.4375,7.421875,-1.996094,2.009766,-0.65625,0.471863,0.268799,0.251465,0.801147,down
549621,1.71875,7.246094,7.574219,-1.996094,2.009766,-0.65625,0.475891,0.248352,0.247559,0.80658,down
549626,1.527344,7.015625,7.769531,-1.996094,2.009766,-0.65625,0.477356,0.240967,0.245544,0.808533,down
549631,1.527344,6.902344,7.730469,-2.228516,1.726563,-0.544922,0.47876,0.234253,0.24353,0.810364,down
549636,1.488281,6.75,7.730469,-2.251953,1.654297,-0.505859,0.47876,0.234253,0.24353,0.810364,down
549641,1.453125,6.328125,7.730469,-2.251953,1.654297,-0.505859,0.481079,0.222107,0.239258,0.813599,down
549646,1.296875,6.25,7.652344,-2.160156,1.578125,-0.416016,0.481079,0.222107,0.239258,0.813599,down
549651,1.222656,6.175781,7.570312,-2.160156,1.578125,-0.416016,0.483215,0.209534,0.23468,0.817017,down
549656,1.144531,6.097656,7.5,-2.160156,1.578125,-0.416016,0.483948,0.204163,0.232849,0.818481,down
549662,0.839844,5.828125,7.613281,-2.160156,1.578125,-0.416016,0.484619,0.198425,0.231018,0.820007,down
549668,0.800781,5.867187,7.574219,-1.681641,1.488281,-0.283203,0.485168,0.193115,0.229431,0.821411,down
549674,0.609375,5.945312,7.769531,-1.681641,1.488281,-0.283203,0.485596,0.187195,0.227783,0.822937,down
549680,0.570312,5.980469,7.886719,-1.458984,1.419922,-0.230469,0.485596,0.187195,0.227783,0.822937,down
549686,0.492187,5.945312,8.074219,-1.365234,1.369141,-0.201172,0.486328,0.173523,0.224548,0.826416,down
549691,0.261719,5.789062,8.109375,-1.291016,1.224609,-0.140625,0.486328,0.173523,0.224548,0.826416,down
549696,0.226562,5.753906,8.113281,-1.291016,1.224609,-0.140625,0.486511,0.165039,0.222351,0.828613,down
549701,0.1875,5.636719,8.152344,-1.291016,1.224609,-0.140625,0.486511,0.165039,0.222351,0.828613,down
549706,0.148437,5.636719,8.230469,-1.369141,1.054688,-0.083984,0.486694,0.157104,0.219299,0.830872,down
549712,0.035156,5.332031,8.269531,-1.369141,1.054688,-0.083984,0.486816,0.153625,0.217529,0.831909,down
549717,0.035156,5.332031,8.269531,-1.369141,1.054688,-0.083984,0.486816,0.153625,0.217529,0.831909,down
549722,-0.003906,5.292969,8.230469,-1.576172,0.597656,0.046875,0.486938,0.150208,0.215393,0.833008,down
549727,-0.003906,5.292969,8.230469,-1.576172,0.597656,0.046875,0.486938,0.150208,0.215393,0.833008,down
549732,-0.121094,4.949219,8.1875,-1.611328,0.488281,0.080078,0.486938,0.150208,0.215393,0.833008,down
549737,-0.121094,4.949219,8.1875,-1.597656,0.318359,0.191406,0.486938,0.150208,0.215393,0.833008,down
549742,-0.121094,4.832031,8.148438,-1.597656,0.318359,0.191406,0.487183,0.135986,0.201477,0.838806,down
549747,-0.121094,4.757812,8.109375,-1.597656,0.318359,0.191406,0.487,0.133789,0.198547,0.839966,down
549753,0.035156,4.488281,7.886719,-1.597656,0.318359,0.191406,0.486694,0.131836,0.195862,0.841064,down
549758,0.070312,4.410156,7.804687,-1.257813,0.197266,0.333984,0.486328,0.130005,0.193298,0.842163,down
549764,0.148437,4.335937,7.726562,-1.257813,0.197266,0.333984,0.485779,0.127991,0.190552,0.843384,down
549769,0.148437,4.21875,7.808594,-1.115234,0.25,0.369141,0.485779,0.127991,0.190552,0.843384,down
549774,0.226562,4.144531,7.765625,-1.042969,0.283203,0.388672,0.485779,0.127991,0.190552,0.843384,down
549780,0.035156,4.257812,7.730469,-1.017578,0.337891,0.398438,0.485779,0.127991,0.190552,0.843384,down
549785,0.070312,4.183594,7.574219,-1.017578,0.337891,0.398438,0.483154,0.121277,0.182861,0.847595,down
549791,-0.003906,4.105469,7.691406,-0.972656,0.283203,0.513672,0.483154,0.121277,0.182861,0.847595,down
549796,-0.003906,4.105469,7.953125,-0.972656,0.283203,0.513672,0.480286,0.116394,0.177429,0.851074,down
549801,-0.15625,4.027344,8.1875,-0.972656,0.283203,0.513672,0.479248,0.115295,0.175598,0.852173,down
549806,-0.234375,3.800781,8.417969,-0.972656,0.283203,0.513672,0.479248,0.115295,0.175598,0.852173,down
549811,-0.273438,3.605469,8.648438,-0.804687,-0.179687,0.685547,0.479248,0.115295,0.175598,0.852173,down
549816,-0.347656,3.492188,8.691406,-0.804687,-0.179687,0.685547,0.475647,0.11377,0.169312,0.855652,down
549821,-0.347656,3.339844,8.6875,-0.804687,-0.179687,0.685547,0.474365,0.114014,0.167236,0.85675,down
549826,-0.273438,3.109375,8.457031,-0.804687,-0.179687,0.685547,0.474365,0.114014,0.167236,0.85675,down
549831,-0.195312,3.148438,8.335938,-0.496094,-0.617187,0.824219,0.474365,0.114014,0.167236,0.85675,down
549836,-0.195312,3.109375,8.265625,-0.496094,-0.617187,0.824219,0.470154,0.11676,0.161194,0.859802,down
549841,-0.15625,3.109375,8.1875,-0.496094,-0.617187,0.824219,0.468567,0.118164,0.159302,0.86084,down
549846,-0.3125,2.804688,7.84375,-0.496094,-0.617187,0.824219,0.468567,0.118164,0.159302,0.86084,down
549851,-0.121094,2.6875,7.609375,-0.357422,-0.763672,1.013672,0.464966,0.121399,0.155457,0.863098,down
549856,0.226562,3.03125,7.847656,-0.357422,-0.763672,1.013672,0.464966,0.121399,0.155457,0.863098,down
549861,0.226562,3.109375,7.914062,-0.232422,-0.785156,1.132813,0.464966,0.121399,0.155457,0.863098,down
549866,0.1875,3.03125,7.914062,-0.154297,-0.751953,1.203125,0.458069,0.127197,0.150391,0.866821,down
549871,0.300781,2.574219,7.996094,-0.154297,-0.751953,1.203125,0.458069,0.127197,0.150391,0.866821,down
549876,0.300781,2.457031,7.953125,0.082031,-0.671875,1.384766,0.455505,0.12915,0.149109,0.868103,down
549881,0.417969,2.382813,7.84375,0.082031,-0.671875,1.384766,0.452759,0.131165,0.14801,0.869385,down
549886,0.417969,2.382813,7.84375,0.142578,-0.630859,1.439453,0.447021,0.135193,0.146423,0.87207,down
549891,0.457031,2.34375,7.808594,0.142578,-0.630859,1.439453,0.447021,0.135193,0.146423,0.87207,down
549896,0.53125,2.304688,7.613281,0.142578,-0.630859,1.439453,0.447021,0.135193,0.146423,0.87207,down
549902,0.53125,2.304688,7.613281,0.326172,-0.560547,1.548828,0.436829,0.141907,0.145386,0.876343,down
549908,0.800781,2.304688,7.882812,0.326172,-0.560547,1.548828,0.433044,0.144287,0.145508,0.877747,down
549913,0.800781,2.382813,8.035156,0.326172,-0.560547,1.548828,0.429016,0.146912,0.145874,0.879272,down
549919,0.800781,2.574219,8.300781,0.833984,-0.568359,1.802734,0.429016,0.146912,0.145874,0.879272,down
549924,0.800781,2.957031,8.535156,0.939453,-0.652344,1.845703,0.420898,0.152466,0.147034,0.882019,down
549930,0.683594,3.109375,8.574219,0.939453,-0.652344,1.845703,0.420898,0.152466,0.147034,0.882019,down
549936,0.683594,2.839844,8.613281,1.078125,-0.896484,1.947266,0.420898,0.152466,0.147034,0.882019,down
549941,0.683594,2.6875,8.535156,1.099609,-1.162109,2.041016,0.420898,0.152466,0.147034,0.882019,down
549946,0.570312,2.726563,8.414063,1.099609,-1.162109,2.041016,0.403015,0.167786,0.149719,0.887146,down
549951,0.683594,2.6875,8.457031,1.101563,-1.458984,2.193359,0.398376,0.172424,0.150024,0.888306,down
549956,0.683594,2.765625,8.492188,1.101563,-1.458984,2.193359,0.393188,0.177795,0.150269,0.889526,down
549962,0.953125,2.152344,8.570313,1.212891,-1.695313,2.349609,0.388611,0.182678,0.150269,0.890503,down
549968,1.222656,2.0,8.230469,1.212891,-1.695313,2.349609,0.378296,0.194153,0.15033,0.892517,down
549974,1.414063,2.113281,8.269531,1.390625,-1.833984,2.484375,0.378296,0.194153,0.15033,0.892517,down
549979,1.414063,2.113281,8.269531,1.501953,-1.914063,2.544922,0.367065,0.206909,0.150696,0.894287,down
549984,1.796875,2.035156,8.109375,1.501953,-1.914063,2.544922,0.367065,0.206909,0.150696,0.894287,down
549989,1.796875,2.035156,8.109375,1.630859,-1.978516,2.582031,0.355103,0.220764,0.151733,0.89563,down
549994,1.871094,2.382813,8.226563,1.630859,-1.978516,2.582031,0.355103,0.220764,0.151733,0.89563,down
549999,1.871094,2.382813,8.226563,2.087891,-2.203125,2.681641,0.342468,0.235718,0.153809,0.896362,down
550004,2.332031,2.648438,7.882812,2.087891,-2.203125,2.681641,0.33606,0.243591,0.15509,0.896484,down
550009,2.371094,2.726563,7.847656,2.292969,-2.443359,2.708984,0.33606,0.243591,0.15509,0.896484,down
550014,2.484375,2.6875,7.808594,2.394531,-2.601563,2.712891,0.33606,0.243591,0.15509,0.896484,down
550019,2.675781,2.839844,7.6875,2.394531,-2.601563,2.712891,0.33606,0.243591,0.15509,0.896484,down
550025,2.753906,2.996094,7.53125,2.494141,-2.876953,2.705078,0.33606,0.243591,0.15509,0.896484,down
550030,2.867188,2.996094,7.425781,2.492188,-3.035156,2.695313,0.33606,0.243591,0.15509,0.896484,down
550035,2.945313,3.148438,7.1875,2.447266,-3.181641,2.6875,0.33606,0.243591,0.15509,0.896484,down
550040,2.945313,3.1875,6.886719,2.447266,-3.181641,2.6875,0.33606,0.243591,0.15509,0.896484,down
550046,3.097656,3.070313,6.886719,2.394531,-3.382813,2.675781,0.33606,0.243591,0.15509,0.896484,down
550051,3.097656,3.070313,6.886719,2.404297,-3.46875,2.646484,0.276733,0.329102,0.166443,0.887329,down
550056,3.710938,3.109375,7.304687,2.494141,-3.498047,2.589844,0.276733,0.329102,0.166443,0.887329,down
550061,3.710938,3.109375,7.304687,2.558594,-3.455078,2.517578,0.263855,0.350159,0.168396,0.882812,down
550066,4.667969,3.261719,6.882812,2.558594,-3.455078,2.517578,0.251221,0.370911,0.171509,0.877441,down
550071,4.898437,3.644531,7.078125,2.558594,-3.455078,2.517578,0.251221,0.370911,0.171509,0.877441,down
550076,4.9375,3.800781,6.695312,3.095703,-3.341797,2.070313,0.251221,0.370911,0.171509,0.877441,down
550081,4.820312,3.953125,6.160156,3.095703,-3.341797,2.070313,0.238892,0.391174,0.176147,0.871155,down
550087,4.820312,4.105469,5.925781,3.230469,-3.416016,1.839844,0.238892,0.391174,0.176147,0.871155,down
550092,4.476562,4.871094,5.238281,3.230469,-3.416016,1.839844,0.220459,0.422729,0.18573,0.859192,down
550097,4.59375,5.144531,5.085937,3.230469,-3.416016,1.839844,0.220459,0.422729,0.18573,0.859192,down
550102,4.59375,5.144531,5.085937,2.828125,-3.699219,1.650391,0.215881,0.431274,0.188171,0.85553,down
550107,4.785156,5.292969,4.96875,2.828125,-3.699219,1.650391,0.210693,0.441711,0.190735,0.850952,down
550112,5.28125,5.527344,4.511719,2.828125,-3.699219,1.650391,0.210693,0.441711,0.190735,0.850952,down
550118,5.28125,5.527344,4.511719,2.613281,-3.693359,1.589844,0.197388,0.470825,0.195862,0.837219,down
550123,6.234375,5.5625,3.898438,2.613281,-3.693359,1.589844,0.193481,0.479675,0.196777,0.832886,down
550129,6.816406,4.183594,5.582031,2.613281,-3.693359,1.589844,0.189819,0.488281,0.197144,0.828674,down
550134,6.238281,4.566406,3.398438,1.517578,-3.478516,1.544922,0.189819,0.488281,0.197144,0.828674,down
550141,6.585937,5.214844,3.09375,1.488281,-3.160156,1.587891,0.189819,0.488281,0.197144,0.828674,down
550146,7.195312,4.871094,2.785156,1.431641,-3.255859,1.470703,0.176025,0.52124,0.195679,0.811829,down
550151,7.355469,5.523437,2.785156,1.431641,-3.255859,1.470703,0.176025,0.52124,0.195679,0.811829,down
550156,7.394531,5.714844,3.285156,1.269531,-3.125,1.435547,0.176025,0.52124,0.195679,0.811829,down
550161,7.394531,5.714844,3.285156,1.423828,-3.117188,1.289063,0.169861,0.536438,0.194519,0.803406,down
550166,7.882812,5.789062,3.9375,1.423828,-3.117188,1.289063,0.169861,0.536438,0.194519,0.803406,down
550171,7.882812,5.789062,3.9375,1.683594,-2.796875,0.994141,0.16394,0.550842,0.195251,0.794678,down
550176,7.621094,5.675781,3.324219,1.683594,-2.796875,0.994141,0.16394,0.550842,0.195251,0.794678,down
550181,7.882812,5.636719,2.941406,1.761719,-2.671875,0.859375,0.158386,0.563599,0.197632,0.786316,down
550187,7.925781,5.523437,2.785156,1.541016,-2.482422,0.494141,0.158386,0.563599,0.197632,0.786316,down
550192,8.039063,5.332031,2.75,1.541016,-2.482422,0.494141,0.153564,0.575684,0.200684,0.777649,down
550197,7.964844,5.332031,2.710938,0.822266,-2.484375,0.451172,0.153564,0.575684,0.200684,0.777649,down
550202,7.84375,5.179687,2.75,0.492187,-2.548828,0.46875,0.150757,0.586365,0.202209,0.769775,down
550207,7.886719,4.871094,2.785156,0.492187,-2.548828,0.46875,0.150146,0.591797,0.201904,0.765808,down
550212,7.804687,4.640625,2.824219,0.037109,-2.720703,0.537109,0.149902,0.597839,0.200867,0.761414,down
550217,7.777344,4.375,2.785156,0.037109,-2.720703,0.537109,0.150269,0.608276,0.197693,0.753845,down
550222,7.773437,4.183594,2.824219,0.037109,-2.720703,0.537109,0.150635,0.613647,0.195862,0.749878,down
550227,8.0,3.953125,2.863281,0.037109,-2.720703,0.537109,0.150635,0.613647,0.195862,0.749878,down
550232,8.117188,3.914063,2.785156,0.246094,-2.998047,0.513672,0.150635,0.613647,0.195862,0.749878,down
550237,8.269531,4.144531,2.363281,0.246094,-2.998047,0.513672,0.151123,0.625183,0.192383,0.74115,down
550242,8.269531,4.144531,2.363281,0.470703,-2.978516,0.451172,0.151062,0.631226,0.191162,0.736328,down
550248,8.042969,4.449219,1.789063,0.470703,-2.978516,0.451172,0.149841,0.643738,0.190552,0.72583,down
550254,8.042969,4.601562,0.410156,0.470703,-2.978516,0.451172,0.148743,0.648987,0.191101,0.721191,down
550259,8.042969,4.601562,0.410156,1.568359,-2.904297,0.257813,0.147095,0.655518,0.192383,0.715332,down
550265,8.230469,4.871094,-0.125,1.568359,-2.904297,0.257813,0.147095,0.655518,0.192383,0.715332,down
550270,8.269531,5.40625,-0.507812,1.681641,-2.6875,0.195312,0.147095,0.655518,0.192383,0.715332,down
550275,8.191406,5.5625,-0.46875,1.615234,-2.548828,0.179687,0.147095,0.655518,0.192383,0.715332,down
550280,8.160156,5.5625,-0.46875,1.478516,-2.427734,0.191406,0.147095,0.655518,0.192383,0.715332,down
550286,8.121094,5.371094,-0.585937,1.248047,-2.330078,0.210937,0.147095,0.655518,0.192383,0.715332,down
550292,8.082031,4.871094,-0.777344,1.248047,-2.330078,0.210937,0.137268,0.686035,0.200867,0.685669,down
550297,8.042969,4.640625,-0.890625,1.248047,-2.330078,0.210937,0.136597,0.68988,0.201172,0.681824,down
550303,7.960937,4.375,-1.007813,0.263672,-2.201172,0.203125,0.136597,0.68988,0.201172,0.681824,down
550308,7.960937,4.375,-1.007813,0.113281,-2.205078,0.179687,0.13678,0.701782,0.200012,0.669922,down
550314,8.0,4.375,-1.234375,0.113281,-2.205078,0.179687,0.137451,0.705505,0.199097,0.666138,down
550319,8.0,4.375,-1.234375,-0.091797,-2.195313,0.121094,0.138367,0.709167,0.198059,0.662354,down
550325,8.039063,4.335937,-1.273438,-0.072266,-2.185547,0.082031,0.139404,0.71283,0.197021,0.658447,down
550330,8.039063,4.335937,-1.273438,-0.072266,-2.185547,0.082031,0.139404,0.71283,0.197021,0.658447,down
550335,8.039063,4.335937,-1.273438,0.123047,-2.101563,-0.03125,0.141357,0.719788,0.195557,0.650879,down
550342,7.621094,3.992188,-1.925781,0.123047,-2.101563,-0.03125,0.141357,0.719788,0.195557,0.650879,down
550348,7.660156,4.027344,-1.925781,0.580078,-2.001953,-0.148437,0.141357,0.719788,0.195557,0.650879,down
550353,7.777344,4.105469,-1.964844,0.580078,-2.001953,-0.148437,0.142883,0.733643,0.196411,0.634644,down
550359,7.960937,4.183594,-2.195313,0.677734,-1.800781,-0.232422,0.142883,0.736755,0.197266,0.630737,down
550364,8.382813,4.449219,-2.421875,0.654297,-1.679688,-0.291016,0.142883,0.739258,0.198181,0.627563,down
550369,8.542969,4.296875,-2.578125,0.654297,-1.679688,-0.291016,0.142944,0.74176,0.19928,0.624207,down
550375,8.460938,4.335937,-2.652344,0.537109,-1.376953,-0.429687,0.142944,0.74176,0.19928,0.624207,down
550380,8.226563,4.488281,-2.460938,0.449219,-1.271484,-0.490234,0.142944,0.74176,0.19928,0.624207,down
550385,8.191406,4.566406,-2.5,0.333984,-1.1875,-0.544922,0.142944,0.74176,0.19928,0.624207,down
550391,7.964844,4.757812,-2.613281,0.205078,-1.109375,-0.572266,0.142944,0.74176,0.19928,0.624207,down
550396,7.808594,4.949219,-2.578125,0.068359,-1.044922,-0.582031,0.142944,0.74176,0.19928,0.624207,down
550402,7.503906,5.101562,-2.5,0.068359,-1.044922,-0.582031,0.149353,0.753174,0.206177,0.606567,down
550407,7.425781,5.140625,-2.578125,0.068359,-1.044922,-0.582031,0.149353,0.753174,0.206177,0.606567,down
550412,7.355469,5.023437,-2.578125,-0.535156,-1.054688,-0.566406,0.149353,0.753174,0.206177,0.606567,down
550417,7.316406,4.757812,-2.421875,-0.535156,-1.054688,-0.566406,0.153564,0.755371,0.206421,0.602661,down
550423,7.351562,4.566406,-2.347656,-0.617187,-1.068359,-0.585937,0.158691,0.757507,0.206116,0.598816,down
550428,7.464844,4.449219,-2.230469,-0.664062,-1.066406,-0.673828,0.161743,0.758545,0.205933,0.59668,down
550433,7.617187,4.21875,-2.230469,-0.664062,-1.066406,-0.673828,0.164612,0.759521,0.205872,0.594666,down
550438,7.660156,4.183594,-2.269531,-0.664062,-1.066406,-0.673828,0.164612,0.759521,0.205872,0.594666,down
550443,7.660156,4.183594,-2.269531,-0.603516,-1.035156,-0.755859,0.167114,0.760315,0.205933,0.592896,down
550448,7.660156,4.21875,-2.308594,-0.515625,-1.019531,-0.779297,0.167114,0.760315,0.205933,0.592896,down
550453,7.582031,4.449219,-2.421875,-0.412109,-1.007813,-0.798828,0.172424,0.762085,0.206543,0.588867,down
550458,7.460937,4.679687,-2.5,-0.298828,-0.996094,-0.824219,0.174744,0.763,0.207214,0.586853,down
550464,7.460937,4.679687,-2.5,-0.097656,-1.003906,-0.828125,0.178894,0.764832,0.208984,0.58252,down
550469,7.351562,5.253906,-2.652344,-0.097656,-1.003906,-0.828125,0.180786,0.765808,0.210083,0.580261,down
550475,7.316406,5.523437,-2.769531,-0.097656,-1.003906,-0.828125,0.182617,0.766846,0.211243,0.577881,down
550481,7.273437,5.597656,-2.804688,-0.074219,-1.029297,-0.839844,0.182617,0.766846,0.211243,0.577881,down
550486,7.15625,5.636719,-2.804688,-0.166016,-1.027344,-0.851562,0.182617,0.766846,0.211243,0.577881,down
550491,6.855469,5.523437,-2.613281,-0.166016,-1.027344,-0.851562,0.188599,0.769775,0.214233,0.570984,down
550497,6.738281,5.371094,-2.613281,-0.363281,-1.087891,-0.861328,0.188599,0.769775,0.214233,0.570984,down
550502,6.738281,5.253906,-2.5,-0.621094,-1.162109,-0.873047,0.188599,0.769775,0.214233,0.570984,down
550507,7.15625,4.988281,-2.347656,-0.621094,-1.162109,-0.873047,0.196594,0.7724,0.215942,0.564026,down
550512,7.273437,5.0625,-2.386719,-0.621094,-1.162109,-0.873047,0.199646,0.773193,0.216125,0.561707,down
550517,7.355469,5.179687,-2.460938,-0.712891,-1.169922,-0.884766,0.199646,0.773193,0.216125,0.561707,down
550522,7.3125,5.292969,-2.460938,-0.667969,-1.148438,-0.884766,0.209167,0.775574,0.216858,0.554749,down
550527,7.3125,5.597656,-2.578125,-0.667969,-1.148438,-0.884766,0.209167,0.775574,0.216858,0.554749,down
550532,7.273437,5.828125,-2.578125,-0.667969,-1.148438,-0.884766,0.212463,0.776367,0.217346,0.552124,down
550538,7.238281,6.019531,-2.691406,-0.298828,-1.042969,-0.912109,0.212463,0.776367,0.217346,0.552124,down
550543,7.277344,6.480469,-3.113281,-0.298828,-1.042969,-0.912109,0.219604,0.778503,0.219604,0.54541,down
550548,7.238281,6.480469,-3.152344,-0.298828,-1.042969,-0.912109,0.222046,0.779297,0.220764,0.542786,down
550553,7.238281,6.519531,-3.074219,-0.175781,-1.011719,-0.976562,0.222046,0.779297,0.220764,0.542786,down
550558,7.117187,6.632812,-3.152344,-0.175781,-1.011719,-0.976562,0.226318,0.780701,0.222961,0.538147,down
550563,6.972656,6.558594,-3.152344,-0.175781,-1.011719,-0.976562,0.228638,0.781372,0.223877,0.535828,down
550568,6.585937,6.597656,-3.34375,-0.175781,-1.011719,-0.976562,0.231445,0.782104,0.22467,0.533203,down
550573,6.394531,6.636719,-3.382813,-0.578125,-1.140625,-0.896484,0.231445,0.782104,0.22467,0.533203,down
550578,6.238281,6.371094,-3.34375,-0.578125,-1.140625,-0.896484,0.237183,0.783386,0.225403,0.528503,down
550583,6.164062,5.90625,-3.191406,-0.578125,-1.140625,-0.896484,0.237183,0.783386,0.225403,0.528503,down
550588,6.164062,5.90625,-3.191406,-0.800781,-1.273438,-0.884766,0.240356,0.783997,0.225464,0.526062,down
550593,6.316406,5.675781,-3.152344,-0.800781,-1.273438,-0.884766,0.243896,0.784729,0.225403,0.523376,down
550598,6.890625,5.675781,-3.226563,-0.8125,-1.306641,-0.902344,0.247375,0.7854,0.225281,0.520752,down
550603,7.0,5.828125,-3.34375,-0.708984,-1.285156,-0.923828,0.253967,0.786743,0.225647,0.515381,down
550608,7.121094,5.980469,-3.535156,-0.34375,-1.148438,-0.986328,0.253967,0.786743,0.225647,0.515381,down
550613,7.234375,6.558594,-3.878906,-0.162109,-1.107422,-1.011719,0.256897,0.787476,0.226318,0.512512,down
550619,7.234375,6.558594,-3.878906,-0.019531,-1.083984,-1.029297,0.26123,0.788879,0.228455,0.507263,down
550624,7.160156,7.203125,-3.917969,0.0625,-1.113281,-1.0625,0.263367,0.789734,0.230042,0.503967,down
550630,6.96875,7.785156,-4.414062,0.0625,-1.113281,-1.0625,0.265076,0.790466,0.231323,0.501404,down
550635,6.8125,8.164063,-4.644531,0.0625,-1.113281,-1.0625,0.26709,0.791321,0.232666,0.498352,down
550640,6.8125,8.164063,-4.644531,-0.259766,-1.341797,-1.044922,0.269531,0.792175,0.233765,0.495117,down
550646,7.042969,8.011719,-4.339844,-0.259766,-1.341797,-1.044922,0.269531,0.792175,0.233765,0.495117,down
550652,7.082031,7.441406,-4.339844,-0.755859,-1.486328,-0.986328,0.269531,0.792175,0.233765,0.495117,down
550658,7.042969,7.164062,-4.261719,-1.033203,-1.488281,-0.923828,0.269531,0.792175,0.233765,0.495117,down
550663,7.078125,6.941406,-4.183594,-1.445313,-1.449219,-0.828125,0.269531,0.792175,0.233765,0.495117,down
550668,6.96875,6.671875,-4.222656,-1.445313,-1.449219,-0.828125,0.288391,0.795105,0.23291,0.47998,down
550674,6.96875,6.671875,-4.222656,-1.5,-1.314453,-0.791016,0.297791,0.795288,0.230591,0.475037,down
550679,6.660156,6.59375,-3.992188,-1.404297,-1.208984,-0.810547,0.302795,0.795227,0.229431,0.472534,down
550684,6.660156,6.59375,-3.992188,-1.197266,-1.078125,-0.837891,0.306519,0.795105,0.228821,0.470642,down
550689,5.933594,6.902344,-4.148437,-1.197266,-1.078125,-0.837891,0.306519,0.795105,0.228821,0.470642,down
550694,5.933594,6.902344,-4.148437,-0.865234,-0.974609,-0.886719,0.310242,0.794983,0.228577,0.468506,down
550699,5.933594,6.902344,-4.148437,-0.865234,-0.974609,-0.886719,0.31543,0.795288,0.229797,0.463928,down
550705,5.625,7.628906,-3.800781,-0.865234,-0.974609,-0.886719,0.316956,0.795654,0.231201,0.461548,down
550710,5.207031,8.128906,-4.03125,-0.865234,-0.974609,-0.886719,0.318115,0.796082,0.232788,0.459167,down
550716,5.167969,8.359375,-3.957031,0.296875,-0.738281,-0.927734,0.318115,0.796082,0.232788,0.459167,down
550721,5.089844,8.550781,-3.917969,0.267578,-0.765625,-0.890625,0.318115,0.796082,0.232788,0.459167,down
550726,4.976562,8.664063,-3.878906,0.201172,-0.798828,-0.886719,0.318115,0.796082,0.232788,0.459167,down
550731,4.9375,8.625,-3.878906,0.089844,-0.837891,-0.888672,0.318115,0.796082,0.232788,0.459167,down
550736,4.859375,8.664063,-3.800781,-0.097656,-0.876953,-0.880859,0.318115,0.796082,0.232788,0.459167,down
550742,4.785156,8.511719,-3.648438,-0.347656,-0.927734,-0.859375,0.318115,0.796082,0.232788,0.459167,down
550747,4.707031,8.363281,-3.648438,-0.634766,-0.964844,-0.839844,0.318115,0.796082,0.232788,0.459167,down
550753,4.667969,8.207031,-3.648438,-1.109375,-1.048828,-0.800781,0.318115,0.796082,0.232788,0.459167,down
550758,4.667969,8.011719,-3.609375,-1.109375,-1.048828,-0.800781,0.338623,0.798462,0.240295,0.436035,down
550763,4.707031,7.707031,-3.496094,-1.109375,-1.048828,-0.800781,0.338623,0.798462,0.240295,0.436035,down
550768,4.628906,7.589844,-3.457031,-1.128906,-1.005859,-0.871094,0.342529,0.798035,0.239685,0.43396,down
550773,4.554687,7.398437,-3.457031,-1.128906,-1.005859,-0.871094,0.346619,0.797607,0.239258,0.431763,down
550778,4.554687,7.164062,-3.457031,-0.757812,-0.837891,-0.970703,0.350403,0.79718,0.239075,0.429626,down
550784,4.667969,7.246094,-3.457031,-0.757812,-0.837891,-0.970703,0.35614,0.796509,0.239929,0.42572,down
550789,4.746094,7.4375,-3.417969,-0.248047,-0.640625,-1.015625,0.358582,0.796265,0.241028,0.423462,down
550794,4.476562,7.9375,-3.457031,-0.248047,-0.640625,-1.015625,0.360413,0.796082,0.242493,0.421326,down
550799,4.324219,8.167969,-3.457031,-0.248047,-0.640625,-1.015625,0.361633,0.796021,0.243774,0.419678,down
550804,4.171875,8.363281,-3.496094,0.085937,-0.515625,-0.986328,0.362976,0.796021,0.245605,0.41748,down
550810,3.902344,8.890625,-3.609375,0.085937,-0.515625,-0.986328,0.364075,0.796021,0.247009,0.41571,down
550815,3.828125,9.15625,-3.609375,0.085937,-0.515625,-0.986328,0.365417,0.796021,0.248474,0.413635,down
550821,3.828125,9.355469,-3.609375,0.085937,-0.515625,-0.986328,0.366882,0.796021,0.249695,0.411499,down
550826,3.828125,9.316406,-3.574219,-0.341797,-0.771484,-0.935547,0.366882,0.796021,0.249695,0.411499,down
550831,3.902344,9.3125,-3.457031,-0.615234,-0.835937,-0.914062,0.366882,0.796021,0.249695,0.411499,down
550836,3.902344,9.277344,-3.457031,-0.615234,-0.835937,-0.914062,0.366882,0.796021,0.249695,0.411499,down
550841,3.902344,9.277344,-3.457031,-1.082031,-0.927734,-0.945312,0.377625,0.794739,0.251648,0.403076,down
550846,3.902344,9.277344,-3.457031,-1.369141,-0.962891,-0.96875,0.381592,0.793945,0.251465,0.401062,down
550851,3.980469,9.15625,-3.417969,-1.583984,-0.953125,-0.962891,0.38623,0.792786,0.250977,0.399109,down
550856,4.054687,8.285156,-3.417969,-1.707031,-0.947266,-0.943359,0.390991,0.791565,0.250305,0.397339,down
550861,3.863281,8.703125,-3.839844,-1.707031,-0.947266,-0.943359,0.390991,0.791565,0.250305,0.397339,down
550867,3.597656,8.011719,-3.34375,-1.660156,-0.841797,-0.974609,0.390991,0.791565,0.250305,0.397339,down
550872,4.476562,8.28125,-3.113281,-1.660156,-0.841797,-0.974609,0.390991,0.791565,0.250305,0.397339,down
550877,3.941406,7.972656,-3.265625,-1.660156,-0.841797,-0.974609,0.40979,0.786011,0.24823,0.390686,down
550882,4.019531,8.242188,-3.152344,-0.914062,-0.615234,-1.072266,0.40979,0.786011,0.24823,0.390686,down
550887,3.980469,8.972656,-2.996094,-0.914062,-0.615234,-1.072266,0.41626,0.783936,0.249451,0.387207,down
550892,3.828125,9.128906,-2.921875,-0.28125,-0.517578,-1.099609,0.41626,0.783936,0.249451,0.387207,down
550897,3.632813,9.429688,-3.074219,-0.074219,-0.501953,-1.074219,0.41626,0.783936,0.249451,0.387207,down
550903,3.328125,9.777344,-3.152344,0.070312,-0.574219,-1.017578,0.41626,0.783936,0.249451,0.387207,down
550908,3.023438,10.277344,-3.34375,-0.019531,-0.642578,-0.984375,0.422729,0.782715,0.255066,0.379028,down
550913,2.945313,10.460938,-3.417969,-0.019531,-0.642578,-0.984375,0.424011,0.782654,0.256348,0.37677,down
550918,2.945313,10.578125,-3.496094,-0.505859,-0.787109,-0.916016,0.424011,0.782654,0.256348,0.37677,down
550923,2.984375,10.464844,-3.535156,-0.505859,-0.787109,-0.916016,0.427673,0.782227,0.258179,0.372192,down
550929,3.023438,9.8125,-3.535156,-0.505859,-0.787109,-0.916016,0.433899,0.780762,0.258423,0.367981,down
550935,3.023438,9.507813,-3.457031,-1.378906,-0.798828,-0.904297,0.437805,0.77948,0.258179,0.36615,down
550940,3.097656,8.851563,-3.304688,-1.378906,-0.798828,-0.904297,0.441467,0.778198,0.257813,0.364746,down
550946,3.214844,8.359375,-3.265625,-1.378906,-0.798828,-0.904297,0.445923,0.776489,0.257385,0.36322,down
550951,3.214844,8.246094,-3.226563,-1.558594,-0.648437,-0.990234,0.445923,0.776489,0.257385,0.36322,down
550956,3.175781,8.28125,-3.226563,-1.478516,-0.574219,-1.013672,0.445923,0.776489,0.257385,0.36322,down
550961,2.792969,8.816406,-3.417969,-1.242188,-0.492187,-1.054688,0.445923,0.776489,0.257385,0.36322,down
550966,2.410156,9.273438,-3.34375,-0.90625,-0.451172,-1.09375,0.445923,0.776489,0.257385,0.36322,down
550971,2.101563,9.777344,-3.574219,-0.539062,-0.433594,-1.136719,0.445923,0.776489,0.257385,0.36322,down
550976,1.988281,10.082031,-3.765625,-0.226562,-0.470703,-1.132813,0.466553,0.7677,0.26001,0.354065,down
550981,1.988281,10.34375,-3.6875,-0.226562,-0.470703,-1.132813,0.466553,0.7677,0.26001,0.354065,down
550986,1.988281,10.34375,-3.6875,0.015625,-0.671875,-1.076172,0.469604,0.767029,0.262756,0.349304,down
550991,1.988281,10.34375,-3.6875,-0.013672,-0.775391,-1.044922,0.471008,0.766968,0.263916,0.346741,down
550997,2.371094,10.886719,-3.648438,-0.013672,-0.775391,-1.044922,0.471008,0.766968,0.263916,0.346741,down
551002,2.445313,10.847656,-3.648438,-0.013672,-0.775391,-1.044922,0.471008,0.766968,0.263916,0.346741,down
551008,2.523438,10.695313,-3.6875,-0.013672,-0.775391,-1.044922,0.477112,0.766113,0.266113,0.338562,down
551014,2.523438,10.039063,-3.648438,-1.001953,-0.855469,-0.96875,0.477112,0.766113,0.266113,0.338562,down
551019,2.5625,9.699219,-3.496094,-1.001953,-0.855469,-0.96875,0.487854,0.762085,0.265564,0.332703,down
551024,2.601563,9.394531,-3.304688,-1.916016,-0.658203,-0.876953,0.487854,0.762085,0.265564,0.332703,down
551029,2.601563,9.195313,-3.074219,-1.916016,-0.658203,-0.876953,0.497742,0.757202,0.264099,0.330383,down
551034,2.753906,9.050781,-2.804688,-1.916016,-0.658203,-0.876953,0.502136,0.754761,0.26355,0.329712,down
551040,2.90625,8.625,-2.613281,-1.751953,-0.337891,-0.953125,0.506958,0.751953,0.263245,0.328918,down
551045,2.832031,8.589844,-2.613281,-1.751953,-0.337891,-0.953125,0.510803,0.749634,0.263428,0.328186,down
551051,2.292969,9.011719,-2.578125,-1.751953,-0.337891,-0.953125,0.514404,0.747314,0.26416,0.327209,down
551056,1.71875,9.621094,-2.921875,-1.751953,-0.337891,-0.953125,0.516724,0.74585,0.26532,0.326111,down
551062,1.566406,10.121094,-2.882813,-0.175781,-0.134766,-1.171875,0.518555,0.744629,0.26709,0.324524,down
551067,1.414063,10.578125,-2.652344,0.076172,-0.222656,-1.175781,0.518555,0.744629,0.26709,0.324524,down
551073,1.527344,11.0,-2.769531,0.076172,-0.222656,-1.175781,0.521362,0.743286,0.272522,0.31842,down
551078,1.566406,11.039063,-2.730469,0.076172,-0.222656,-1.175781,0.521362,0.743286,0.272522,0.31842,down
551084,1.644531,11.1875,-2.769531,-0.115234,-0.498047,-1.027344,0.521362,0.743286,0.272522,0.31842,down
551089,1.757813,11.117188,-2.652344,-0.115234,-0.498047,-1.027344,0.525146,0.742126,0.276367,0.311646,down
551094,1.796875,11.082031,-2.613281,-0.630859,-0.541016,-0.941406,0.525146,0.742126,0.276367,0.311646,down
551099,1.835938,10.921875,-2.691406,-0.630859,-0.541016,-0.941406,0.529846,0.739929,0.277466,0.307861,down
551104,1.871094,10.738281,-2.691406,-0.630859,-0.541016,-0.941406,0.532898,0.738281,0.277527,0.30658,down
551109,2.027344,10.199219,-2.460938,-0.630859,-0.541016,-0.941406,0.537109,0.73584,0.277222,0.305359,down
551114,2.0625,9.695313,-2.386719,-0.630859,-0.541016,-0.941406,0.537109,0.73584,0.277222,0.305359,down
551119,2.101563,9.316406,-2.308594,-1.867188,-0.417969,-0.912109,0.537109,0.73584,0.277222,0.305359,down
551124,2.027344,8.546875,-2.039063,-1.867188,-0.417969,-0.912109,0.545471,0.730591,0.276489,0.303711,down
551129,2.027344,8.546875,-2.039063,-1.787109,-0.353516,-0.945312,0.549744,0.727783,0.276245,0.302979,down
551134,1.988281,8.433594,-1.964844,-1.787109,-0.353516,-0.945312,0.553772,0.725098,0.276245,0.302185,down
551139,1.988281,8.433594,-1.964844,-1.294922,-0.193359,-1.03125,0.557251,0.722595,0.276672,0.301331,down
551144,1.335938,8.894531,-1.847656,-0.623047,-0.15625,-1.082031,0.557251,0.722595,0.276672,0.301331,down
551149,0.875,9.316406,-2.117188,-0.623047,-0.15625,-1.082031,0.564514,0.717285,0.279907,0.297424,down
551154,0.761719,9.621094,-2.15625,-0.095703,-0.255859,-1.060547,0.564514,0.717285,0.279907,0.297424,down
551159,0.761719,9.964844,-2.117188,-0.095703,-0.255859,-1.060547,0.566895,0.71582,0.282715,0.293701,down
551164,0.800781,10.277344,-2.195313,-0.095703,-0.255859,-1.060547,0.56781,0.715454,0.284119,0.291565,down
551169,0.914062,10.582031,-2.195313,-0.095703,-0.255859,-1.060547,0.56781,0.715454,0.284119,0.291565,down
551174,0.875,10.582031,-2.195313,-0.128906,-0.417969,-1.039063,0.56781,0.715454,0.284119,0.291565,down
551179,0.761719,10.503906,-2.117188,-0.128906,-0.417969,-1.039063,0.569946,0.714478,0.286621,0.28717,down
551184,0.722656,10.3125,-2.039063,-0.347656,-0.449219,-1.021484,0.573486,0.712646,0.288391,0.283081,down
551189,0.609375,10.117188,-2.0,-0.927734,-0.515625,-0.980469,0.573486,0.712646,0.288391,0.283081,down
551194,0.570312,9.773438,-1.847656,-0.927734,-0.515625,-0.980469,0.576172,0.710999,0.28894,0.281128,down
551199,0.570312,9.660156,-1.808594,-0.927734,-0.515625,-0.980469,0.579163,0.709167,0.289063,0.27948,down
551204,0.570312,9.621094,-1.734375,-1.447266,-0.587891,-0.894531,0.582214,0.707214,0.28894,0.278137,down
551209,0.609375,9.699219,-1.734375,-1.447266,-0.587891,-0.894531,0.585754,0.704956,0.288696,0.276794,down
551214,0.609375,9.855469,-1.617188,-1.443359,-0.548828,-0.880859,0.585754,0.704956,0.288696,0.276794,down
551219,0.609375,9.960938,-1.65625,-1.443359,-0.548828,-0.880859,0.592957,0.700134,0.288147,0.27417,down
551224,0.570312,10.195313,-1.734375,-0.96875,-0.365234,-0.921875,0.592957,0.700134,0.288147,0.27417,down
551229,0.339844,10.539063,-1.847656,-0.96875,-0.365234,-0.921875,0.598938,0.695984,0.28833,0.271667,down
551234,0.339844,10.539063,-1.847656,-0.535156,-0.285156,-1.015625,0.601501,0.694153,0.288879,0.270081,down
551239,0.109375,10.847656,-1.886719,-0.535156,-0.285156,-1.015625,0.603333,0.692749,0.289612,0.268616,down
551245,-0.15625,10.964844,-1.773438,-0.419922,-0.300781,-1.03125,0.606934,0.690247,0.291748,0.264771,down
551250,-0.234375,11.1875,-1.582031,-0.419922,-0.300781,-1.03125,0.608459,0.68927,0.292603,0.262817,down
551255,-0.273438,11.269531,-1.464844,-0.419922,-0.300781,-1.03125,0.610107,0.688232,0.293213,0.260925,down
551260,-0.234375,11.304688,-1.425781,-0.738281,-0.619141,-0.976562,0.612427,0.68689,0.29364,0.258728,down
551266,-0.234375,10.921875,-1.273438,-0.738281,-0.619141,-0.976562,0.614929,0.685303,0.293701,0.256775,down
551272,-0.042969,10.195313,-1.121094,-0.738281,-0.619141,-0.976562,0.618103,0.683289,0.293396,0.254822,down
551277,-0.003906,9.777344,-1.082031,-1.513672,-0.833984,-0.988281,0.618103,0.683289,0.293396,0.254822,down
551283,-0.003906,9.777344,-1.082031,-1.59375,-0.800781,-0.974609,0.625732,0.678284,0.292236,0.251038,down
551288,-0.003906,9.777344,-1.082031,-1.539063,-0.738281,-0.945312,0.629639,0.675537,0.291626,0.249268,down
551293,0.035156,9.472656,-0.585937,-1.539063,-0.738281,-0.945312,0.629639,0.675537,0.291626,0.249268,down
551298,-0.042969,9.433594,-0.507812,-1.392578,-0.646484,-0.935547,0.629639,0.675537,0.291626,0.249268,down
551303,-0.082031,9.578125,-0.546875,-1.392578,-0.646484,-0.935547,0.63916,0.668579,0.291016,0.244507,down
551308,-0.464844,10.195313,-0.621094,-1.392578,-0.646484,-0.935547,0.63916,0.668579,0.291016,0.244507,down
551314,-0.65625,10.386719,-0.699219,-0.496094,-0.380859,-0.919922,0.63916,0.668579,0.291016,0.244507,down
551319,-0.808594,10.578125,-0.777344,-0.052734,-0.306641,-1.003906,0.63916,0.668579,0.291016,0.244507,down
551325,-0.886719,10.808594,-0.699219,-0.052734,-0.306641,-1.003906,0.64679,0.663025,0.294617,0.235046,down
551330,-0.925781,10.925781,-0.777344,0.140625,-0.265625,-1.058594,0.647522,0.662537,0.296021,0.232605,down
551335,-0.960937,11.039063,-0.777344,0.074219,-0.253906,-1.089844,0.648193,0.662048,0.297424,0.230286,down
551341,-1.152344,11.230469,-0.546875,0.074219,-0.253906,-1.089844,0.648987,0.661499,0.298645,0.22821,down
551346,-1.460938,11.308594,-0.621094,0.074219,-0.253906,-1.089844,0.650146,0.660522,0.299805,0.226135,down
551351,-1.652344,11.425781,-0.507812,-0.617187,-0.365234,-1.070313,0.650146,0.660522,0.299805,0.226135,down
551356,-1.84375,11.460938,-0.277344,-0.945312,-0.527344,-1.050781,0.650146,0.660522,0.299805,0.226135,down
551361,-1.882813,11.460938,-0.125,-0.945312,-0.527344,-1.050781,0.65686,0.65509,0.301392,0.220276,down
551367,-1.996094,11.535156,0.027344,-0.945312,-0.527344,-1.050781,0.660522,0.652344,0.300842,0.218323,down
551372,-1.882813,11.226563,0.144531,-1.929688,-1.115234,-0.955078,0.660522,0.652344,0.300842,0.218323,down
551378,-1.691406,10.121094,0.335938,-2.148438,-1.304688,-0.955078,0.660522,0.652344,0.300842,0.218323,down
551383,-1.382813,8.628906,0.792969,-2.148438,-1.304688,-0.955078,0.660522,0.652344,0.300842,0.218323,down
551388,-1.308594,8.242188,1.023438,-2.169922,-1.496094,-0.941406,0.660522,0.652344,0.300842,0.218323,down
551393,-1.152344,7.898437,1.253906,-1.966797,-1.482422,-0.916016,0.660522,0.652344,0.300842,0.218323,down
551398,-1.0,7.859375,1.0625,-1.966797,-1.482422,-0.916016,0.689026,0.632019,0.289795,0.20459,down
551404,-1.0,7.859375,1.0625,-1.199219,-1.255859,-0.857422,0.692627,0.629639,0.288147,0.202026,down
551409,-1.078125,8.046875,1.0625,-0.740234,-1.119141,-0.810547,0.695435,0.627991,0.286926,0.199402,down
551414,-1.078125,8.046875,1.0625,-0.287109,-0.974609,-0.792969,0.697449,0.627014,0.286011,0.196594,down
551419,-1.421875,9.355469,0.949219,-0.287109,-0.974609,-0.792969,0.698608,0.62677,0.285583,0.193848,down
551425,-1.917969,10.15625,0.527344,-0.287109,-0.974609,-0.792969,0.698914,0.628357,0.285522,0.187683,down
551430,-2.265625,10.84375,0.640625,-0.287109,-0.974609,-0.792969,0.698364,0.629822,0.285828,0.184204,down
551435,-2.339844,11.148438,0.640625,-0.287109,-0.974609,-0.792969,0.697693,0.631348,0.286133,0.180969,down
551440,-2.417969,11.34375,0.527344,1.144531,-0.871094,-0.851562,0.697693,0.631348,0.286133,0.180969,down
551445,-2.496094,11.34375,0.488281,0.988281,-0.980469,-0.849609,0.696838,0.63324,0.286499,0.177063,down
551450,-2.457031,11.34375,0.410156,0.988281,-0.980469,-0.849609,0.695923,0.636292,0.286499,0.169495,down
551455,-2.378906,11.34375,0.410156,0.988281,-0.980469,-0.849609,0.696228,0.637085,0.286011,0.165955,down
551460,-2.378906,11.308594,0.335938,-0.095703,-1.314453,-0.753906,0.697327,0.637268,0.285095,0.162354,down
551466,-2.226563,11.613281,-0.125,-0.095703,-1.314453,-0.753906,0.699097,0.636719,0.283752,0.15918,down
551471,-2.148438,11.691406,-0.164062,-0.095703,-1.314453,-0.753906,0.70166,0.635376,0.281982,0.156372,down
551477,-1.996094,11.769531,-0.238281,-0.095703,-1.314453,-0.753906,0.704956,0.63324,0.279846,0.15387,down
551482,-1.917969,11.808594,-0.203125,-1.839844,-1.439453,-0.513672,0.708923,0.630432,0.277405,0.151672,down
551487,-1.804688,11.421875,-0.203125,-1.839844,-1.439453,-0.513672,0.708923,0.630432,0.277405,0.151672,down
551492,-1.84375,11.226563,-0.164062,-2.304688,-1.291016,-0.402344,0.708923,0.630432,0.277405,0.151672,down
551497,-1.804688,10.886719,0.027344,-2.4375,-1.197266,-0.341797,0.708923,0.630432,0.277405,0.151672,down
551504,-1.804688,10.0,0.296875,-2.521484,-1.107422,-0.302734,0.708923,0.630432,0.277405,0.151672,down
551510,-1.882813,9.660156,0.449219,-2.462891,-0.916016,-0.257813,0.708923,0.630432,0.277405,0.151672,down
551515,-1.917969,9.394531,0.640625,-2.462891,-0.916016,-0.257813,0.74115,0.601562,0.260071,0.145508,down
551520,-1.957031,9.15625,0.792969,-2.462891,-0.916016,-0.257813,0.744873,0.597778,0.258301,0.145264,down
551525,-1.957031,9.15625,0.792969,-2.462891,-0.916016,-0.257813,0.744873,0.597778,0.258301,0.145264,down
551530,-2.113281,8.929688,1.0625,-2.462891,-0.916016,-0.257813,0.744873,0.597778,0.258301,0.145264,down
551535,-2.1875,8.855469,1.214844,-2.072266,-0.699219,-0.337891,0.75531,0.586792,0.253906,0.143799,down
551540,-2.339844,9.050781,1.367188,-2.072266,-0.699219,-0.337891,0.758057,0.583923,0.25293,0.142883,down
551545,-2.378906,9.390625,1.714844,-2.072266,-0.699219,-0.337891,0.760681,0.581238,0.252014,0.141663,down
551550,-2.417969,9.550781,1.789063,-0.976562,-0.59375,-0.541016,0.760681,0.581238,0.252014,0.141663,down
551555,-2.457031,9.738281,1.90625,-0.976562,-0.59375,-0.541016,0.762756,0.579102,0.251221,0.140381,down
551560,-2.417969,10.199219,1.980469,-0.863281,-0.595703,-0.527344,0.762756,0.579102,0.251221,0.140381,down
551565,-2.457031,10.34375,1.980469,-0.830078,-0.589844,-0.494141,0.768127,0.573914,0.249084,0.136475,down
551570,-2.496094,10.425781,1.945313,-1.037109,-0.621094,-0.423828,0.768127,0.573914,0.249084,0.136475,down
551575,-2.53125,10.464844,1.980469,-1.037109,-0.621094,-0.423828,0.770203,0.571777,0.248108,0.135254,down
551580,-2.609375,10.539063,1.90625,-1.037109,-0.621094,-0.423828,0.774658,0.567139,0.245911,0.133362,down
551585,-2.53125,10.542969,1.980469,-1.777344,-0.765625,-0.371094,0.774658,0.567139,0.245911,0.133362,down
551590,-2.378906,10.3125,2.058594,-2.015625,-0.792969,-0.376953,0.777649,0.563904,0.244385,0.132568,down
551596,-2.226563,10.039063,1.980469,-2.015625,-0.792969,-0.376953,0.784668,0.555908,0.240906,0.131165,down
551602,-2.113281,9.695313,2.289063,-2.015625,-0.792969,-0.376953,0.788208,0.551758,0.239197,0.130676,down
551607,-2.074219,9.390625,2.363281,-2.330078,-0.716797,-0.345703,0.79187,0.547302,0.237427,0.13031,down
551613,-1.996094,8.703125,2.519531,-2.308594,-0.666016,-0.34375,0.79187,0.547302,0.237427,0.13031,down
551619,-2.035156,8.46875,2.59375,-2.242188,-0.603516,-0.349609,0.79187,0.547302,0.237427,0.13031,down
551624,-2.035156,8.28125,2.75,-2.130859,-0.544922,-0.361328,0.79187,0.547302,0.237427,0.13031,down
551629,-2.035156,8.125,2.785156,-1.941406,-0.480469,-0.404297,0.79187,0.547302,0.237427,0.13031,down
551634,-2.113281,8.164063,2.976563,-1.941406,-0.480469,-0.404297,0.79187,0.547302,0.237427,0.13031,down
551640,-2.265625,8.203125,3.015625,-1.398438,-0.345703,-0.542969,0.79187,0.547302,0.237427,0.13031,down
551645,-2.265625,8.203125,3.015625,-1.123047,-0.300781,-0.623047,0.812988,0.519775,0.229675,0.127075,down
551650,-2.304688,8.320313,3.09375,-0.876953,-0.257813,-0.722656,0.812988,0.519775,0.229675,0.127075,down
551655,-2.304688,8.320313,3.09375,-0.683594,-0.222656,-0.798828,0.816101,0.515442,0.229858,0.12439,down
551660,-2.378906,8.816406,3.359375,-0.683594,-0.222656,-0.798828,0.817261,0.513794,0.230286,0.122742,down
551665,-2.378906,8.816406,3.359375,-0.447266,-0.142578,-0.931641,0.818298,0.512268,0.230957,0.120972,down
551670,-2.378906,9.316406,3.324219,-0.441406,-0.070312,-1.064453,0.818298,0.512268,0.230957,0.120972,down
551675,-2.53125,9.617188,3.207031,-0.441406,-0.070312,-1.064453,0.820129,0.509399,0.232788,0.117065,down
551680,-2.570313,9.621094,3.167969,-0.441406,-0.070312,-1.064453,0.821228,0.507629,0.234009,0.114746,down
551685,-2.722656,9.738281,3.207031,-0.683594,-0.041016,-1.158203,0.821228,0.507629,0.234009,0.114746,down
551690,-2.722656,9.738281,3.167969,-0.683594,-0.041016,-1.158203,0.823608,0.50354,0.236267,0.110718,down
551695,-2.800781,9.699219,3.285156,-1.152344,-0.029297,-1.244141,0.823608,0.50354,0.236267,0.110718,down
551700,-2.914063,9.695313,3.359375,-1.152344,-0.029297,-1.244141,0.826965,0.497803,0.238708,0.106567,down
551706,-3.300781,9.773438,3.628906,-1.152344,-0.029297,-1.244141,0.830566,0.491577,0.240723,0.102966,down
551711,-3.375,9.699219,3.628906,-1.3125,-0.121094,-1.050781,0.832764,0.487793,0.241577,0.101074,down
551716,-3.414063,9.816406,3.667969,-1.304688,-0.167969,-0.908203,0.834717,0.484436,0.242126,0.099548,down
551721,-3.453125,9.894531,3.78125,-1.304688,-0.167969,-0.908203,0.836365,0.48175,0.242371,0.09845,down
551727,-3.566406,9.894531,3.820313,-1.304688,-0.167969,-0.908203,0.838257,0.478577,0.242432,0.097473,down
551732,-3.683594,9.773438,3.9375,-1.283203,-0.242187,-0.496094,0.838257,0.478577,0.242432,0.097473,down
551737,-3.566406,9.507813,4.089844,-1.242188,-0.275391,-0.398438,0.838257,0.478577,0.242432,0.097473,down
551742,-3.375,8.933594,4.242187,-1.242188,-0.275391,-0.398438,0.843567,0.469971,0.241455,0.095764,down
551747,-3.375,8.773438,4.320312,-1.072266,-0.291016,-0.316406,0.843567,0.469971,0.241455,0.095764,down
551752,-3.335938,8.628906,4.320312,-0.931641,-0.275391,-0.318359,0.843567,0.469971,0.241455,0.095764,down
551758,-3.105469,8.507813,4.511719,-0.730469,-0.253906,-0.353516,0.843567,0.469971,0.241455,0.095764,down
551763,-3.144531,8.472656,4.472656,-0.535156,-0.232422,-0.398438,0.843567,0.469971,0.241455,0.095764,down
551769,-3.144531,8.433594,4.433594,-0.328125,-0.208984,-0.462891,0.843567,0.469971,0.241455,0.095764,down
551774,-3.03125,8.546875,4.320312,-0.117188,-0.179687,-0.515625,0.843567,0.469971,0.241455,0.095764,down
551780,-3.070313,8.667969,4.28125,0.078125,-0.140625,-0.572266,0.843567,0.469971,0.241455,0.095764,down
551785,-3.105469,8.816406,4.242187,0.242187,-0.105469,-0.623047,0.843567,0.469971,0.241455,0.095764,down
551790,-3.144531,9.007813,4.203125,0.361328,-0.0625,-0.650391,0.849915,0.460388,0.241821,0.085022,down
551795,-3.222656,9.277344,4.128906,0.361328,-0.0625,-0.650391,0.849915,0.460388,0.241821,0.085022,down
551800,-3.222656,9.394531,4.089844,0.386719,-0.007813,-0.625,0.849609,0.460876,0.242554,0.083313,down
551805,-3.335938,9.472656,4.089844,0.386719,-0.007813,-0.625,0.849304,0.461365,0.243347,0.081604,down
551811,-3.414063,9.507813,4.242187,0.306641,-0.003906,-0.574219,0.849304,0.461365,0.243347,0.081604,down
551816,-3.453125,9.472656,4.320312,0.306641,-0.003906,-0.574219,0.848694,0.462158,0.2453,0.077332,down
551821,-3.492188,9.394531,4.394531,0.095703,-0.050781,-0.373047,0.848633,0.462158,0.245667,0.076477,down
551826,-3.492188,9.355469,4.355469,0.056641,-0.087891,-0.294922,0.848633,0.462158,0.245667,0.076477,down
551831,-3.492188,9.238281,4.433594,0.056641,-0.087891,-0.294922,0.848755,0.462097,0.246033,0.074768,down
551836,-3.492188,9.15625,4.511719,0.056641,-0.087891,-0.294922,0.848816,0.462036,0.245972,0.074158,down
551841,-3.492188,9.15625,4.511719,0.052734,-0.158203,-0.144531,0.848877,0.462097,0.24585,0.073608,down
551847,-3.453125,9.15625,4.511719,0.052734,-0.158203,-0.144531,0.848938,0.462158,0.245667,0.073059,down
551852,-3.453125,9.011719,4.511719,0.052734,-0.158203,-0.144531,0.848938,0.462158,0.245667,0.073059,down
551857,-3.453125,9.011719,4.472656,0.107422,-0.195312,-0.091797,0.848938,0.462158,0.245667,0.073059,down
551862,-3.414063,9.007813,4.433594,0.117188,-0.205078,-0.083984,0.848938,0.462158,0.245667,0.073059,down
551867,-3.414063,9.007813,4.433594,0.117188,-0.205078,-0.083984,0.84906,0.462952,0.244446,0.070923,down
551874,-3.335938,8.855469,4.355469,0.117188,-0.205078,-0.083984,0.84906,0.462952,0.244446,0.070923,down
551879,-3.375,9.046875,4.320312,0.017578,-0.236328,-0.101563,0.84906,0.462952,0.244446,0.070923,down
551884,-3.222656,8.320313,4.433594,-0.041016,-0.242187,-0.117188,0.84906,0.462952,0.244446,0.070923,down
551889,-3.144531,8.546875,4.355469,-0.111328,-0.205078,-0.099609,0.84906,0.462952,0.244446,0.070923,down
551895,-3.414063,8.890625,4.320312,-0.119141,-0.183594,-0.058594,0.84906,0.462952,0.244446,0.070923,down
551900,-3.453125,8.972656,4.320312,-0.126953,-0.167969,-0.119141,0.84906,0.462952,0.244446,0.070923,down
551905,-3.453125,8.777344,4.585937,-0.126953,-0.167969,-0.119141,0.850525,0.462097,0.241882,0.067749,down
551910,-3.453125,8.929688,4.511719,-0.126953,-0.167969,-0.119141,0.850708,0.461853,0.241699,0.067322,down
551916,-3.453125,8.929688,4.511719,-0.138672,-0.150391,-0.050781,0.850708,0.461853,0.241699,0.067322,down
551921,-3.566406,8.777344,4.511719,-0.138672,-0.150391,-0.050781,0.85144,0.461121,0.240845,0.066467,down
551926,-3.644531,8.703125,4.585937,-0.138672,-0.150391,-0.050781,0.851685,0.460876,0.240417,0.066345,down
551931,-3.683594,8.777344,4.585937,-0.066406,-0.207031,0.072266,0.851685,0.460876,0.240417,0.066345,down
551936,-3.683594,8.742188,4.585937,0.044922,-0.226562,0.089844,0.851929,0.460754,0.239807,0.066223,down
551941,-3.605469,8.707031,4.664062,0.044922,-0.226562,0.089844,0.852112,0.46106,0.238708,0.065979,down
551947,-3.453125,8.742188,4.433594,0.044922,-0.226562,0.089844,0.852051,0.461548,0.238098,0.065857,down
551952,-3.453125,8.703125,4.433594,0.240234,-0.197266,0.158203,0.851868,0.462158,0.237549,0.065735,down
551957,-3.375,8.703125,4.394531,0.240234,-0.197266,0.158203,0.851624,0.462891,0.236938,0.065674,down
551963,-3.300781,8.664063,4.394531,0.240234,-0.197266,0.158203,0.851379,0.463562,0.23645,0.065674,down
551968,-3.300781,8.707031,4.472656,0.34375,-0.111328,0.1875,0.851379,0.463562,0.23645,0.065674,down
551974,-3.335938,8.703125,4.433594,0.380859,-0.09375,0.193359,0.851379,0.463562,0.23645,0.065674,down
551979,-3.300781,8.707031,4.355469,0.380859,-0.09375,0.193359,0.850281,0.466248,0.235229,0.065796,down
551985,-3.261719,8.746094,4.394531,0.355469,-0.074219,0.175781,0.850281,0.466248,0.235229,0.065796,down
551991,-3.300781,8.773438,4.355469,0.269531,-0.048828,0.173828,0.850281,0.466248,0.235229,0.065796,down
551996,-3.335938,8.777344,4.394531,0.269531,-0.048828,0.173828,0.848877,0.469421,0.234009,0.066162,down
552001,-3.414063,8.777344,4.433594,0.226562,-0.041016,0.1875,0.848877,0.469421,0.234009,0.066162,down
552006,-3.414063,8.8125,4.433594,0.226562,-0.041016,0.1875,0.848572,0.470032,0.233704,0.066284,down
552011,-3.414063,8.816406,4.472656,0.220703,-0.041016,0.193359,0.848572,0.470032,0.233704,0.066284,down
552016,-3.414063,8.816406,4.511719,0.220703,-0.041016,0.193359,0.847778,0.471863,0.232727,0.066956,down
552021,-3.414063,8.773438,4.511719,0.193359,-0.09375,0.201172,0.847778,0.471863,0.232727,0.066956,down
552026,-3.414063,8.703125,4.433594,0.205078,-0.125,0.207031,0.847595,0.472351,0.232361,0.067078,down
552032,-3.335938,8.625,4.394531,0.205078,-0.125,0.207031,0.847168,0.473511,0.231384,0.067383,down
552038,-3.335938,8.625,4.28125,0.205078,-0.125,0.207031,0.846985,0.47406,0.230774,0.067444,down
552043,-3.261719,8.746094,4.28125,0.220703,-0.214844,0.207031,0.846802,0.474731,0.230164,0.067505,down
552048,-3.183594,8.742188,4.28125,0.21875,-0.228516,0.207031,0.846802,0.474731,0.230164,0.067505,down
552055,-3.144531,8.742188,4.242187,0.21875,-0.228516,0.207031,0.846497,0.475952,0.22876,0.067505,down
552061,-3.105469,8.746094,4.242187,0.181641,-0.21875,0.193359,0.846497,0.475952,0.22876,0.067505,down
