timestamp,ax,ay,az,gx,gy,gz,qw,qx,qy,qz,label
472,-0.664062,8.722656,4.820312,0.478516,-0.222656,0.214844,1.0,0.0,0.0,0.0,down
478,-0.703125,8.789063,4.820312,0.699219,-0.126953,0.21875,1.0,0.0,0.0,0.0,down
483,-0.742187,8.792969,4.78125,0.740234,-0.121094,0.238281,1.0,0.0,0.0,0.0,down
489,-0.664062,8.832031,4.742187,0.740234,-0.121094,0.238281,0.838013,0.492493,0.147278,0.183044,down
494,-0.664062,8.75,4.707031,0.740234,-0.121094,0.238281,0.838013,0.492493,0.147278,0.183044,down
499,-0.742187,8.679688,4.667969,0.726562,-0.123047,0.3125,0.838013,0.492493,0.147278,0.183044,down
504,-0.703125,8.722656,4.476562,0.716797,-0.128906,0.337891,0.835999,0.495911,0.146729,0.183411,down
510,-0.742187,8.722656,4.4375,0.716797,-0.128906,0.337891,0.835022,0.497559,0.146423,0.183716,down
515,-0.742187,8.753906,4.359375,0.759766,-0.142578,0.365234,0.832947,0.501038,0.145691,0.184326,down
520,-0.625,8.792969,4.398437,0.759766,-0.142578,0.365234,0.831787,0.502991,0.145203,0.184692,down
525,-0.585937,8.945313,4.359375,0.759766,-0.142578,0.365234,0.830688,0.504761,0.144775,0.184998,down
530,-0.511719,8.988281,4.4375,0.871094,-0.162109,0.404297,0.829407,0.506836,0.144348,0.185364,down
535,-0.472656,9.0625,4.285156,0.871094,-0.162109,0.404297,0.828247,0.508728,0.143921,0.185669,down
540,-0.433594,9.144531,4.054687,0.871094,-0.162109,0.404297,0.826965,0.510864,0.143555,0.186035,down
545,-0.472656,9.175781,4.015625,0.882812,-0.074219,0.408203,0.8255,0.513062,0.14325,0.186462,down
551,-0.511719,9.214844,3.902344,0.890625,-0.033203,0.396484,0.824219,0.515076,0.143066,0.186951,down
556,-0.472656,9.253906,3.863281,0.890625,-0.033203,0.396484,0.822998,0.516846,0.142944,0.187378,down
561,-0.433594,9.449219,3.902344,0.890625,-0.033203,0.396484,0.821716,0.518738,0.142944,0.187927,down
566,-0.394531,9.484375,3.902344,0.779297,0.09375,0.380859,0.821716,0.518738,0.142944,0.187927,down
571,-0.394531,9.484375,3.902344,0.720703,0.128906,0.365234,0.821716,0.518738,0.142944,0.187927,down
577,-0.433594,9.40625,3.785156,0.720703,0.128906,0.365234,0.818054,0.523621,0.14325,0.18988,down
583,-0.433594,9.367188,3.746094,0.597656,0.199219,0.347656,0.818054,0.523621,0.14325,0.18988,down
588,-0.433594,9.292969,3.671875,0.564453,0.234375,0.333984,0.818054,0.523621,0.14325,0.18988,down
594,-0.511719,9.214844,3.632813,0.556641,0.267578,0.320313,0.818054,0.523621,0.14325,0.18988,down
600,-0.511719,9.140625,3.480469,0.580078,0.259766,0.300781,0.818054,0.523621,0.14325,0.18988,down
605,-0.472656,9.171875,3.519531,0.580078,0.259766,0.300781,0.811829,0.531006,0.145386,0.194641,down
610,-0.511719,9.210938,3.554688,0.580078,0.259766,0.300781,0.811829,0.531006,0.145386,0.194641,down
615,-0.472656,9.292969,3.402344,0.560547,0.136719,0.322266,0.810791,0.532227,0.145691,0.195312,down
620,-0.472656,9.292969,3.402344,0.560547,0.136719,0.322266,0.808838,0.534607,0.145996,0.196594,down
625,-0.433594,9.328125,3.519531,0.470703,0.078125,0.345703,0.808838,0.534607,0.145996,0.196594,down
630,-0.359375,9.214844,3.554688,0.470703,0.078125,0.345703,0.80719,0.536682,0.145874,0.197876,down
635,-0.359375,9.210938,3.402344,0.470703,0.078125,0.345703,0.80719,0.536682,0.145874,0.197876,down
640,-0.28125,9.171875,3.441406,0.308594,0.021484,0.355469,0.80719,0.536682,0.145874,0.197876,down
646,-0.320313,9.253906,3.363281,0.308594,0.021484,0.355469,0.805115,0.539246,0.145264,0.199829,down
652,-0.28125,9.328125,3.328125,0.308594,0.021484,0.355469,0.804626,0.539734,0.144958,0.200439,down
657,-0.320313,9.332031,3.289063,0.119141,0.015625,0.349609,0.804199,0.540283,0.144592,0.201172,down
662,-0.359375,9.328125,3.25,0.054687,0.025391,0.335938,0.804199,0.540283,0.144592,0.201172,down
668,-0.28125,9.25,3.210938,0.054687,0.025391,0.335938,0.80365,0.54071,0.143982,0.202515,down
673,-0.28125,9.210938,3.25,-0.060547,0.064453,0.316406,0.80365,0.54071,0.143982,0.202515,down
679,-0.242187,9.210938,3.25,-0.085937,0.064453,0.306641,0.80365,0.54071,0.143982,0.202515,down
684,-0.203125,9.105469,3.289063,-0.113281,0.068359,0.298828,0.803284,0.540527,0.142822,0.205444,down
689,-0.128906,9.027344,3.25,-0.113281,0.068359,0.298828,0.803284,0.540527,0.142822,0.205444,down
694,-0.128906,8.945313,3.25,-0.144531,0.080078,0.291016,0.803284,0.540527,0.142822,0.205444,down
700,-0.050781,8.90625,3.25,-0.152344,0.087891,0.279297,0.803284,0.540527,0.142822,0.205444,down
705,-0.050781,8.90625,3.25,-0.144531,0.115234,0.263672,0.802917,0.540344,0.142395,0.20752,down
710,-0.011719,8.90625,3.136719,-0.144531,0.115234,0.263672,0.802734,0.5401,0.142273,0.208862,down
715,-0.011719,8.871094,3.210938,-0.144531,0.115234,0.263672,0.802734,0.5401,0.142273,0.208862,down
720,0.027344,8.90625,3.25,-0.123047,0.146484,0.232422,0.802734,0.5401,0.142273,0.208862,down
725,0.0625,8.867188,3.210938,-0.119141,0.158203,0.199219,0.80249,0.539978,0.142395,0.210083,down
730,0.0625,8.867188,3.210938,-0.119141,0.158203,0.199219,0.802307,0.539734,0.142578,0.211304,down
735,0.027344,8.90625,3.289063,-0.119141,0.158203,0.199219,0.802307,0.539734,0.142578,0.211304,down
740,0.027344,8.910156,3.097656,-0.101563,0.173828,0.158203,0.802124,0.539551,0.143005,0.212341,down
745,-0.011719,8.949219,3.097656,-0.101563,0.173828,0.158203,0.802124,0.539551,0.143005,0.212341,down
750,-0.011719,8.949219,3.097656,-0.136719,0.234375,0.107422,0.802124,0.539551,0.143005,0.212341,down
755,-0.011719,8.910156,3.058594,-0.136719,0.234375,0.107422,0.801941,0.538879,0.143982,0.213989,down
760,-0.011719,8.910156,3.019531,-0.136719,0.234375,0.107422,0.801941,0.538513,0.144348,0.214539,down
765,-0.011719,8.867188,3.097656,-0.136719,0.234375,0.107422,0.801941,0.538513,0.144348,0.214539,down
770,-0.089844,8.867188,3.136719,-0.267578,0.251953,0.117188,0.801941,0.538513,0.144348,0.214539,down
775,-0.050781,8.789063,3.210938,-0.267578,0.251953,0.117188,0.802124,0.537598,0.14502,0.21582,down
781,-0.050781,8.75,3.25,-0.298828,0.240234,0.115234,0.802429,0.536499,0.145508,0.217041,down
786,-0.011719,8.792969,3.328125,-0.314453,0.210937,0.144531,0.802673,0.535828,0.145691,0.217773,down
791,0.101563,8.832031,3.554688,-0.314453,0.210937,0.144531,0.802856,0.535278,0.145813,0.218384,down
796,0.0625,8.828125,3.59375,-0.314453,0.210937,0.144531,0.802979,0.53479,0.145874,0.218933,down
801,0.0625,8.71875,3.554688,-0.263672,0.183594,0.158203,0.803162,0.534241,0.145996,0.219666,down
806,0.0625,8.679688,3.519531,-0.251953,0.173828,0.167969,0.803284,0.533752,0.146057,0.220276,down
812,0.0625,8.484375,3.519531,-0.251953,0.173828,0.167969,0.803345,0.533386,0.146118,0.220825,down
817,0.0625,8.484375,3.519531,-0.210937,0.193359,0.166016,0.803406,0.532959,0.14624,0.221497,down
822,0.027344,8.566406,3.632813,-0.210937,0.193359,0.166016,0.803467,0.532654,0.146362,0.222107,down
827,0.027344,8.5625,3.671875,-0.210937,0.193359,0.166016,0.803406,0.532349,0.146606,0.222778,down
832,-0.128906,8.527344,3.710938,-0.210937,0.193359,0.166016,0.803406,0.532349,0.146606,0.222778,down
837,-0.128906,8.371094,3.746094,-0.083984,0.253906,0.123047,0.803406,0.532349,0.146606,0.222778,down
843,-0.164062,8.101563,4.015625,-0.060547,0.263672,0.103516,0.803406,0.532349,0.146606,0.222778,down
848,-0.089844,8.367188,4.054687,-0.060547,0.263672,0.103516,0.803406,0.532349,0.146606,0.222778,down
853,-0.164062,8.339844,3.976563,0.015625,0.242187,0.048828,0.803406,0.532349,0.146606,0.222778,down
859,-0.164062,8.339844,3.976563,0.011719,0.265625,0.033203,0.802612,0.531616,0.149048,0.225708,down
864,-0.164062,8.257813,3.941406,0.009766,0.265625,0.023437,0.802612,0.531616,0.149048,0.225708,down
869,-0.320313,8.371094,4.09375,0.009766,0.265625,0.023437,0.802246,0.531555,0.150146,0.22644,down
875,-0.585937,8.105469,4.207031,0.029297,0.257813,0.011719,0.802246,0.531555,0.150146,0.22644,down
880,-0.089844,8.945313,4.207031,0.046875,0.279297,0.027344,0.802246,0.531555,0.150146,0.22644,down
885,-0.089844,8.753906,4.589844,0.046875,0.279297,0.027344,0.801208,0.53186,0.152405,0.227905,down
890,-0.742187,8.144531,4.550781,0.046875,0.279297,0.027344,0.801208,0.53186,0.152405,0.227905,down
895,-0.585937,8.296875,4.246094,0.138672,0.121094,0.060547,0.801208,0.53186,0.152405,0.227905,down
901,-0.359375,8.601563,4.515625,0.138672,0.121094,0.060547,0.800293,0.532654,0.153503,0.228699,down
906,-0.394531,8.488281,4.515625,0.160156,0.103516,0.064453,0.799927,0.53302,0.153809,0.228882,down
911,-0.472656,8.40625,4.359375,0.207031,0.09375,0.054687,0.799561,0.533386,0.154053,0.229065,down
917,-0.472656,8.484375,4.324219,0.207031,0.09375,0.054687,0.799194,0.533875,0.154297,0.229126,down
922,-0.511719,8.566406,4.398437,0.207031,0.09375,0.054687,0.798706,0.534424,0.154602,0.229248,down
927,-0.433594,8.683594,4.324219,0.257813,0.085937,0.048828,0.798706,0.534424,0.154602,0.229248,down
932,-0.28125,8.792969,4.324219,0.263672,0.070312,0.050781,0.798706,0.534424,0.154602,0.229248,down
937,-0.394531,8.789063,4.285156,0.267578,0.082031,0.050781,0.798706,0.534424,0.154602,0.229248,down
942,-0.320313,9.101563,4.207031,0.267578,0.082031,0.050781,0.798706,0.534424,0.154602,0.229248,down
949,-0.394531,9.105469,4.207031,0.326172,0.080078,0.035156,0.798706,0.534424,0.154602,0.229248,down
954,-0.511719,9.101563,4.167969,0.326172,0.080078,0.035156,0.795776,0.538025,0.156555,0.229614,down
960,-0.359375,9.40625,4.246094,0.326172,0.080078,0.035156,0.794617,0.53949,0.157349,0.229797,down
965,-0.359375,9.523438,4.246094,0.326172,0.080078,0.035156,0.794617,0.53949,0.157349,0.229797,down
970,-0.359375,9.636719,4.054687,0.347656,0.132812,0.068359,0.794617,0.53949,0.157349,0.229797,down
975,-0.28125,9.714844,4.054687,0.347656,0.132812,0.068359,0.793396,0.540833,0.158142,0.230103,down
980,-0.359375,9.671875,4.015625,0.154297,0.128906,0.068359,0.793396,0.540833,0.158142,0.230103,down
985,-0.320313,9.671875,3.902344,0.154297,0.128906,0.068359,0.792542,0.541809,0.158752,0.23053,down
990,-0.28125,9.484375,3.863281,0.080078,0.125,0.0625,0.792542,0.541809,0.158752,0.23053,down
995,-0.359375,9.40625,3.710938,0.080078,0.125,0.0625,0.792053,0.542114,0.159302,0.231018,down
1000,-0.320313,9.40625,3.554688,-0.134766,0.162109,0.033203,0.792053,0.542114,0.159302,0.231018,down
1006,-0.359375,9.289063,3.710938,-0.134766,0.162109,0.033203,0.791992,0.54187,0.15979,0.231567,down
1011,-0.359375,9.289063,3.710938,-0.183594,0.128906,0.013672,0.792236,0.541138,0.160217,0.232178,down
1016,-0.203125,9.328125,3.785156,-0.195312,0.121094,0.013672,0.792236,0.541138,0.160217,0.232178,down
1021,-0.242187,9.328125,3.710938,-0.195312,0.121094,0.013672,0.792542,0.540344,0.160461,0.232666,down
1026,-0.164062,9.40625,3.710938,-0.195312,0.121094,0.013672,0.792725,0.539978,0.160522,0.23291,down
1031,-0.242187,9.40625,3.785156,-0.164062,0.089844,0.033203,0.792725,0.539978,0.160522,0.23291,down
1036,-0.203125,9.40625,3.785156,-0.123047,0.074219,0.048828,0.792908,0.539551,0.160645,0.233154,down
1041,-0.203125,9.40625,3.785156,-0.099609,0.082031,0.056641,0.79303,0.539124,0.160706,0.233582,down
1046,-0.128906,9.371094,3.746094,-0.099609,0.082031,0.056641,0.793091,0.539001,0.160767,0.233826,down
1051,-0.203125,9.328125,3.746094,-0.058594,0.09375,0.078125,0.793091,0.539001,0.160767,0.233826,down
1056,-0.128906,9.332031,3.746094,-0.058594,0.09375,0.078125,0.79303,0.538818,0.160889,0.234375,down
1061,-0.164062,9.25,3.710938,-0.054687,0.130859,0.091797,0.79303,0.538818,0.160889,0.234375,down
1067,-0.128906,9.175781,3.671875,-0.054687,0.130859,0.091797,0.792847,0.538635,0.161133,0.235107,down
1072,-0.128906,9.175781,3.671875,-0.054687,0.162109,0.089844,0.792847,0.538635,0.161133,0.235107,down
1077,-0.164062,9.066406,3.632813,-0.056641,0.181641,0.082031,0.792725,0.538391,0.16156,0.235901,down
1083,-0.089844,8.984375,3.671875,-0.056641,0.181641,0.082031,0.792664,0.538208,0.161804,0.236267,down
1089,-0.089844,8.988281,3.632813,-0.070312,0.191406,0.064453,0.792664,0.538208,0.161804,0.236267,down
1094,-0.128906,9.066406,3.554688,-0.068359,0.197266,0.056641,0.792664,0.538208,0.161804,0.236267,down
1099,-0.164062,8.867188,3.632813,-0.044922,0.210937,0.044922,0.792664,0.538208,0.161804,0.236267,down
1104,-0.164062,8.867188,3.59375,-0.035156,0.207031,0.025391,0.792664,0.538208,0.161804,0.236267,down
1109,-0.128906,8.949219,3.554688,-0.027344,0.212891,0.009766,0.792664,0.538208,0.161804,0.236267,down
1114,-0.394531,8.90625,3.363281,-0.011719,0.21875,0.001953,0.792664,0.538208,0.161804,0.236267,down
1119,-0.128906,8.367188,3.824219,-0.011719,0.21875,0.001953,0.792664,0.538208,0.161804,0.236267,down
1124,-0.359375,8.410156,3.941406,-0.011719,0.21875,0.001953,0.792114,0.537048,0.164673,0.23877,down
1129,-0.703125,8.484375,3.59375,-0.019531,0.177734,-0.054687,0.792114,0.537048,0.164673,0.23877,down
1134,-0.664062,8.523438,3.902344,-0.019531,0.177734,-0.054687,0.792053,0.536804,0.165466,0.238953,down
1140,-0.359375,8.867188,4.285156,-0.019531,0.177734,-0.054687,0.791748,0.536987,0.16626,0.239075,down
1145,-0.472656,8.867188,4.054687,-0.019531,0.177734,-0.054687,0.791748,0.536987,0.16626,0.239075,down
1151,-0.433594,9.066406,4.246094,0.142578,0.09375,-0.013672,0.791748,0.536987,0.16626,0.239075,down
1156,-0.394531,9.171875,4.324219,0.136719,0.042969,0.076172,0.791199,0.537537,0.16687,0.239075,down
1161,-0.550781,9.328125,4.132812,0.136719,0.042969,0.076172,0.790649,0.538208,0.167053,0.23938,down
1166,-0.550781,9.328125,4.132812,0.203125,0.011719,0.162109,0.790649,0.538208,0.167053,0.23938,down
1171,-0.511719,9.101563,4.207031,0.203125,0.011719,0.162109,0.789856,0.539185,0.166931,0.239807,down
1176,-0.511719,9.101563,4.09375,0.253906,-0.021484,0.193359,0.789856,0.539185,0.166931,0.239807,down
1181,-0.550781,9.023438,4.09375,0.253906,-0.021484,0.193359,0.789368,0.539856,0.166809,0.240051,down
1186,-0.511719,9.105469,4.015625,0.25,-0.044922,0.191406,0.789368,0.539856,0.166809,0.240051,down
1191,-0.511719,9.105469,4.015625,0.25,-0.044922,0.191406,0.788025,0.541687,0.166321,0.240601,down
1196,-0.433594,9.066406,4.09375,0.25,-0.044922,0.191406,0.788025,0.541687,0.166321,0.240601,down
1201,-0.394531,8.984375,4.132812,0.296875,-0.109375,0.158203,0.787048,0.543213,0.165833,0.240662,down
1206,-0.320313,8.910156,3.902344,0.296875,-0.109375,0.158203,0.78656,0.544067,0.165588,0.240601,down
1211,-0.320313,8.945313,3.902344,0.355469,-0.162109,0.132812,0.78656,0.544067,0.165588,0.240601,down
1216,-0.320313,8.988281,3.863281,0.339844,-0.164062,0.115234,0.786011,0.545044,0.165344,0.240479,down
1222,-0.320313,8.988281,3.863281,0.322266,-0.173828,0.117188,0.785095,0.546631,0.164856,0.240234,down
1228,-0.164062,9.105469,3.632813,0.322266,-0.173828,0.117188,0.784607,0.547424,0.164551,0.240051,down
1234,-0.164062,9.144531,3.671875,0.298828,-0.173828,0.121094,0.784607,0.547424,0.164551,0.240051,down
1239,-0.128906,9.144531,3.519531,0.273438,-0.164062,0.109375,0.784607,0.547424,0.164551,0.240051,down
1244,-0.089844,9.105469,3.554688,0.273438,-0.164062,0.109375,0.783386,0.549622,0.163696,0.239624,down
1249,-0.011719,8.984375,3.554688,0.21875,-0.160156,0.105469,0.783386,0.549622,0.163696,0.239624,down
1254,-0.050781,8.949219,3.363281,0.185547,-0.144531,0.091797,0.783386,0.549622,0.163696,0.239624,down
1259,-0.050781,9.023438,3.363281,0.167969,-0.126953,0.068359,0.783386,0.549622,0.163696,0.239624,down
1264,-0.011719,8.945313,3.402344,0.167969,-0.126953,0.068359,0.783386,0.549622,0.163696,0.239624,down
1270,-0.050781,8.949219,3.363281,0.167969,-0.126953,0.068359,0.782043,0.552124,0.162415,0.239014,down
1276,0.027344,9.023438,3.25,0.082031,-0.091797,0.001953,0.782043,0.552124,0.162415,0.239014,down
1281,0.027344,9.023438,3.328125,0.082031,-0.091797,0.001953,0.781677,0.552979,0.162048,0.238525,down
1286,0.0625,9.023438,3.210938,0.082031,-0.091797,0.001953,0.781677,0.552979,0.162048,0.238525,down
1291,0.0625,9.066406,3.210938,-0.0625,-0.044922,-0.044922,0.781677,0.552979,0.162048,0.238525,down
1296,0.027344,8.945313,3.136719,-0.0625,-0.044922,-0.044922,0.781921,0.552917,0.161865,0.238098,down
1301,0.0625,8.90625,3.210938,-0.0625,-0.044922,-0.044922,0.782104,0.552734,0.161865,0.237915,down
1306,0.101563,8.867188,3.25,-0.0625,-0.044922,-0.044922,0.782104,0.552734,0.161865,0.237915,down
1311,0.101563,8.867188,3.289063,-0.138672,-0.025391,-0.099609,0.782593,0.552185,0.161926,0.237549,down
1316,0.0625,8.75,3.25,-0.138672,-0.025391,-0.099609,0.782593,0.552185,0.161926,0.237549,down
1321,0.0625,8.722656,3.25,-0.150391,0.009766,-0.144531,0.782593,0.552185,0.161926,0.237549,down
1326,0.179687,8.75,3.171875,-0.150391,0.009766,-0.144531,0.783203,0.551453,0.162109,0.237061,down
1332,-0.011719,8.75,3.136719,-0.085937,0.058594,-0.164062,0.783447,0.551147,0.162292,0.236816,down
1338,-0.011719,8.75,3.136719,-0.085937,0.058594,-0.164062,0.783813,0.55072,0.162842,0.236389,down
1343,-0.011719,8.945313,3.25,0.03125,0.109375,-0.171875,0.783813,0.550598,0.16333,0.236145,down
1349,0.0625,8.984375,3.25,0.089844,0.132812,-0.167969,0.783813,0.550598,0.16333,0.236145,down
1354,-0.011719,9.027344,3.328125,0.089844,0.132812,-0.167969,0.783691,0.55072,0.164368,0.235779,down
1359,-0.011719,8.945313,3.402344,0.162109,0.158203,-0.136719,0.783691,0.55072,0.164368,0.235779,down
1364,-0.128906,8.949219,3.441406,0.195312,0.167969,-0.132812,0.783691,0.55072,0.164368,0.235779,down
1369,-0.128906,9.101563,3.632813,0.226562,0.158203,-0.113281,0.783691,0.55072,0.164368,0.235779,down
1375,-0.203125,9.066406,3.785156,0.246094,0.130859,-0.09375,0.783691,0.55072,0.164368,0.235779,down
1380,-0.164062,9.171875,3.824219,0.271484,0.097656,-0.074219,0.783691,0.55072,0.164368,0.235779,down
1386,-0.359375,8.984375,3.863281,0.279297,0.064453,-0.044922,0.783691,0.55072,0.164368,0.235779,down
1391,-0.359375,8.945313,3.941406,0.242187,-0.029297,0.011719,0.781433,0.553101,0.168091,0.234863,down
1396,-0.433594,8.910156,4.054687,0.242187,-0.029297,0.011719,0.781067,0.55365,0.168274,0.234741,down
1401,-0.433594,8.871094,4.054687,0.242187,-0.029297,0.011719,0.780762,0.554138,0.168274,0.234619,down
1406,-0.433594,8.792969,4.015625,0.226562,-0.113281,0.025391,0.780396,0.554687,0.168213,0.234436,down
1411,-0.433594,8.832031,4.054687,0.226562,-0.113281,0.025391,0.780151,0.555176,0.168091,0.234192,down
1416,-0.433594,8.792969,4.054687,0.236328,-0.173828,0.03125,0.780151,0.555176,0.168091,0.234192,down
1422,-0.359375,8.832031,4.054687,0.236328,-0.173828,0.03125,0.779602,0.556335,0.167664,0.233704,down
1428,-0.320313,8.910156,3.902344,0.236328,-0.173828,0.03125,0.778992,0.557556,0.167175,0.233093,down
1433,-0.320313,8.945313,3.785156,0.285156,-0.177734,0.033203,0.778687,0.558228,0.166931,0.232788,down
1438,-0.28125,9.023438,3.746094,0.316406,-0.173828,0.027344,0.778259,0.55896,0.166748,0.232422,down
1443,-0.28125,8.871094,3.441406,0.316406,-0.173828,0.027344,0.777832,0.559753,0.166626,0.232117,down
1448,-0.28125,8.640625,3.210938,0.394531,-0.140625,-0.005859,0.777832,0.559753,0.166626,0.232117,down
1453,-0.320313,8.40625,2.980469,0.412109,-0.117188,-0.042969,0.777832,0.559753,0.166626,0.232117,down
1458,-0.320313,8.40625,2.980469,0.431641,-0.082031,-0.091797,0.776367,0.562317,0.166687,0.230896,down
1463,-0.242187,8.523438,2.675781,0.431641,-0.082031,-0.091797,0.775757,0.563171,0.167053,0.230347,down
1468,-0.128906,8.832031,2.789063,0.517578,0.042969,-0.21875,0.775208,0.564087,0.167603,0.229797,down
1473,-0.203125,8.988281,3.171875,0.623047,0.125,-0.277344,0.775208,0.564087,0.167603,0.229797,down
1478,-0.164062,9.144531,3.480469,0.623047,0.125,-0.277344,0.77356,0.566162,0.169678,0.228577,down
1484,-0.164062,9.210938,3.632813,0.623047,0.125,-0.277344,0.7724,0.567566,0.171143,0.227905,down
1489,-0.28125,9.328125,3.402344,1.105469,0.380859,-0.390625,0.7724,0.567566,0.171143,0.227905,down
1494,-0.472656,9.554688,3.289063,1.197266,0.429687,-0.400391,0.7724,0.567566,0.171143,0.227905,down
1500,-0.472656,9.636719,3.289063,1.228516,0.427734,-0.394531,0.7677,0.572998,0.177063,0.225769,down
1506,-0.664062,9.523438,3.328125,1.224609,0.421875,-0.380859,0.7677,0.572998,0.177063,0.225769,down
1511,-0.625,9.671875,3.097656,1.193359,0.40625,-0.349609,0.7677,0.572998,0.177063,0.225769,down
1516,-0.625,9.671875,3.097656,1.017578,0.302734,-0.283203,0.762512,0.578735,0.183105,0.223816,down
1521,-0.472656,9.976563,3.441406,1.017578,0.302734,-0.283203,0.760986,0.580444,0.184753,0.223267,down
1527,-0.203125,10.175781,3.25,0.898437,0.240234,-0.265625,0.758362,0.583435,0.187561,0.222046,down
1532,-0.550781,10.054688,2.445313,0.898437,0.240234,-0.265625,0.757629,0.584167,0.18866,0.221619,down
1537,-0.550781,10.054688,2.292969,0.898437,0.240234,-0.265625,0.757263,0.584473,0.189636,0.221375,down
1542,-0.625,9.636719,2.445313,-0.095703,0.205078,-0.224609,0.757263,0.584473,0.189636,0.221375,down
1547,-0.511719,9.445313,2.867188,-0.095703,0.205078,-0.224609,0.757263,0.584229,0.190491,0.221191,down
1553,-0.511719,9.332031,3.058594,-0.095703,0.205078,-0.224609,0.757751,0.583313,0.191528,0.22113,down
1558,-0.511719,9.332031,3.058594,-0.197266,0.101563,-0.167969,0.758057,0.582764,0.191956,0.221069,down
1563,-0.585937,9.367188,3.058594,-0.208984,0.052734,-0.158203,0.758423,0.582214,0.192322,0.220947,down
1569,-0.472656,9.410156,2.523438,-0.208984,0.052734,-0.158203,0.758789,0.581787,0.192444,0.220825,down
1574,-0.585937,9.289063,2.484375,-0.304688,-0.023437,-0.150391,0.758789,0.581787,0.192444,0.220825,down
1579,-0.703125,9.289063,2.523438,-0.314453,-0.003906,-0.152344,0.759766,0.580566,0.192505,0.220459,down
1585,-0.320313,9.371094,2.675781,-0.314453,-0.003906,-0.152344,0.760315,0.579956,0.192566,0.220276,down
1590,-0.472656,9.367188,2.714844,-0.125,-0.056641,-0.152344,0.760315,0.579956,0.192566,0.220276,down
1596,-0.359375,9.449219,2.558594,0.003906,-0.011719,-0.158203,0.760315,0.579956,0.192566,0.220276,down
1602,-0.550781,9.449219,2.523438,0.085937,0.019531,-0.152344,0.760315,0.579956,0.192566,0.220276,down
1607,-0.472656,9.527344,2.523438,0.085937,0.019531,-0.152344,0.760498,0.579834,0.193726,0.218811,down
1612,-0.585937,9.527344,2.597656,0.240234,0.052734,-0.103516,0.760498,0.579834,0.193726,0.218811,down
1617,-0.625,9.597656,2.597656,0.240234,0.052734,-0.103516,0.759888,0.580566,0.194458,0.218323,down
1622,-0.703125,9.636719,2.597656,0.240234,0.052734,-0.103516,0.75946,0.581116,0.194885,0.218079,down
1627,-0.664062,9.753906,2.753906,0.412109,0.044922,-0.078125,0.75946,0.581116,0.194885,0.218079,down
1632,-0.664062,9.789063,2.789063,0.412109,0.044922,-0.078125,0.75885,0.581848,0.195374,0.217773,down
1637,-0.777344,9.828125,2.828125,0.464844,0.048828,-0.044922,0.75885,0.581848,0.195374,0.217773,down
1642,-0.664062,9.867188,3.019531,0.464844,0.048828,-0.044922,0.756958,0.584229,0.196594,0.21698,down
1647,-0.777344,9.75,3.019531,0.464844,0.048828,-0.044922,0.756958,0.584229,0.196594,0.21698,down
1652,-0.894531,9.753906,2.945313,0.435547,0.050781,0.009766,0.756958,0.584229,0.196594,0.21698,down
1657,-0.777344,9.867188,2.90625,0.435547,0.050781,0.009766,0.754944,0.586731,0.19751,0.216431,down
1662,-0.703125,9.828125,2.867188,0.435547,0.050781,0.009766,0.754333,0.587463,0.197693,0.216248,down
1667,-0.777344,9.636719,2.714844,0.435547,0.050781,0.009766,0.754333,0.587463,0.197693,0.216248,down
1672,-0.742187,9.59375,2.675781,0.304688,-0.021484,0.048828,0.754333,0.587463,0.197693,0.216248,down
1677,-0.777344,9.488281,2.597656,0.304688,-0.021484,0.048828,0.753296,0.588867,0.197937,0.215942,down
1683,-0.777344,9.367188,2.558594,0.279297,-0.011719,0.056641,0.75238,0.590027,0.198059,0.21582,down
1688,-0.777344,9.289063,2.484375,0.228516,0.042969,0.039063,0.751953,0.590515,0.198181,0.21582,down
1694,-0.96875,9.332031,2.332031,0.228516,0.042969,0.039063,0.751587,0.590881,0.198303,0.215881,down
1699,-0.96875,9.289063,2.484375,0.253906,0.03125,0.029297,0.75116,0.59137,0.198547,0.215881,down
1704,-0.933594,9.367188,2.523438,0.330078,-0.019531,0.019531,0.75116,0.59137,0.198547,0.215881,down
1710,-1.007813,9.523438,2.484375,0.388672,0.007813,0.017578,0.75116,0.59137,0.198547,0.215881,down
1715,-1.085938,9.445313,2.445313,0.435547,0.037109,0.013672,0.749573,0.593384,0.199097,0.215515,down
1721,-1.007813,9.488281,2.445313,0.453125,0.015625,0.001953,0.749573,0.593384,0.199097,0.215515,down
1727,-0.96875,9.558594,2.523438,0.496094,-0.046875,0.013672,0.749573,0.593384,0.199097,0.215515,down
1732,-0.96875,9.714844,2.597656,0.496094,-0.046875,0.013672,0.746704,0.596985,0.200012,0.214539,down
1737,-0.96875,9.710938,2.675781,0.539062,-0.009766,0.023437,0.745911,0.598022,0.200256,0.214294,down
1742,-0.933594,9.636719,2.636719,0.539062,-0.009766,0.023437,0.745911,0.598022,0.200256,0.214294,down
1747,-0.933594,9.675781,2.484375,0.503906,0.003906,0.033203,0.745911,0.598022,0.200256,0.214294,down
1752,-0.96875,9.558594,2.484375,0.503906,0.003906,0.033203,0.743652,0.600708,0.200928,0.213867,down
1757,-0.816406,9.523438,2.332031,0.503906,0.003906,0.033203,0.743652,0.600708,0.200928,0.213867,down
1762,-0.816406,9.523438,2.332031,0.199219,-0.011719,0.064453,0.743286,0.601196,0.200989,0.213867,down
1767,-0.742187,9.527344,2.214844,0.089844,0.003906,0.068359,0.743286,0.601196,0.200989,0.213867,down
1772,-0.585937,9.367188,1.984375,0.089844,0.003906,0.068359,0.74292,0.601562,0.200928,0.213989,down
1777,-0.472656,9.484375,1.910156,-0.0625,0.005859,0.056641,0.743042,0.60144,0.200745,0.214294,down
1782,0.0625,9.832031,0.953125,-0.0625,0.005859,0.056641,0.743042,0.60144,0.200745,0.214294,down
1788,0.101563,9.753906,0.148437,-0.339844,0.349609,-0.091797,0.743042,0.60144,0.200745,0.214294,down
1793,0.101563,9.484375,-0.390625,-0.339844,0.349609,-0.091797,0.743958,0.599426,0.201965,0.215393,down
1799,0.027344,9.332031,-0.582031,-0.589844,0.470703,-0.179687,0.744629,0.598022,0.20282,0.216064,down
1804,0.332031,9.488281,0.875,-0.589844,0.470703,-0.179687,0.7453,0.596802,0.203552,0.216614,down
1809,0.21875,9.523438,1.066406,-0.458984,0.519531,-0.257813,0.7453,0.596802,0.203552,0.216614,down
1816,0.140625,9.671875,1.105469,-0.34375,0.697266,-0.298828,0.7453,0.596802,0.203552,0.216614,down
1821,-0.242187,9.636719,1.371094,-0.242187,0.800781,-0.296875,0.7453,0.596802,0.203552,0.216614,down
1827,-0.320313,9.636719,1.566406,-0.054687,0.724609,-0.306641,0.7453,0.596802,0.203552,0.216614,down
1832,-0.394531,9.792969,1.792969,-0.054687,0.724609,-0.306641,0.746582,0.591431,0.211182,0.219666,down
1837,-0.742187,9.636719,2.292969,0.050781,0.671875,-0.279297,0.746582,0.591431,0.211182,0.219666,down
1843,-1.199219,9.332031,2.484375,0.158203,0.597656,-0.248047,0.745544,0.590515,0.216064,0.220825,down
1848,-1.390625,9.554688,2.789063,0.394531,0.304688,-0.113281,0.744934,0.59082,0.217285,0.220947,down
1854,-1.238281,9.671875,3.824219,0.394531,0.304688,-0.113281,0.744202,0.591431,0.218079,0.220825,down
1859,-1.277344,9.59375,3.019531,0.394531,0.304688,-0.113281,0.743286,0.592468,0.218689,0.22052,down
1866,-1.316406,9.527344,2.523438,0.572266,0.064453,-0.050781,0.743286,0.592468,0.218689,0.22052,down
1872,-1.238281,9.25,2.558594,0.433594,-0.011719,-0.042969,0.743286,0.592468,0.218689,0.22052,down
1877,-1.160156,9.210938,2.523438,0.216797,-0.029297,-0.097656,0.741211,0.595032,0.21991,0.219543,down
1882,-1.125,9.25,2.484375,0.216797,-0.029297,-0.097656,0.740845,0.59552,0.220093,0.219177,down
1888,-1.085938,9.25,2.523438,0.181641,0.019531,-0.121094,0.740356,0.59613,0.220764,0.218506,down
1894,-1.046875,9.554688,3.019531,0.181641,0.019531,-0.121094,0.740173,0.596375,0.221191,0.21814,down
1899,-1.085938,9.753906,2.980469,0.238281,0.095703,-0.232422,0.739868,0.596619,0.221802,0.217712,down
1904,-1.085938,9.832031,2.945313,0.21875,0.113281,-0.248047,0.739868,0.596619,0.221802,0.217712,down
1910,-1.046875,10.09375,2.714844,0.246094,0.080078,-0.253906,0.739868,0.596619,0.221802,0.217712,down
1916,-0.96875,10.328125,2.523438,0.246094,0.080078,-0.253906,0.739075,0.597412,0.223816,0.216309,down
1921,-1.046875,10.554688,2.523438,0.25,0.089844,-0.275391,0.739075,0.597412,0.223816,0.216309,down
1926,-1.046875,10.714844,2.484375,0.253906,0.068359,-0.28125,0.739075,0.597412,0.223816,0.216309,down
1931,-0.933594,10.902344,2.484375,0.253906,0.068359,-0.28125,0.739075,0.597412,0.223816,0.216309,down
1936,-0.933594,10.902344,2.367188,0.253906,0.068359,-0.28125,0.738159,0.598328,0.226379,0.21405,down
1942,-0.933594,10.980469,2.214844,-0.013672,-0.087891,-0.230469,0.738525,0.598145,0.226746,0.213013,down
1947,-0.777344,10.863281,1.949219,-0.013672,-0.087891,-0.230469,0.738525,0.598145,0.226746,0.213013,down
1952,-0.703125,10.78125,1.832031,-0.421875,-0.230469,-0.111328,0.739075,0.597656,0.226562,0.212585,down
1957,-0.703125,10.714844,1.871094,-0.421875,-0.230469,-0.111328,0.739868,0.596985,0.226135,0.212219,down
1962,-0.585937,10.554688,1.871094,-0.421875,-0.230469,-0.111328,0.740723,0.596252,0.225647,0.211975,down
1967,-0.472656,10.441406,1.984375,-0.421875,-0.230469,-0.111328,0.74176,0.595276,0.224976,0.211853,down
1972,-0.433594,10.25,2.023438,-0.421875,-0.230469,-0.111328,0.742737,0.594238,0.224304,0.211792,down
1978,-0.433594,9.980469,2.0625,-0.615234,-0.082031,0.027344,0.742737,0.594238,0.224304,0.211792,down
1983,-0.625,9.144531,2.214844,-0.615234,-0.082031,0.027344,0.745544,0.591187,0.222656,0.212402,down
1988,-0.625,9.105469,2.367188,-0.453125,-0.011719,0.041016,0.745544,0.591187,0.222656,0.212402,down
1993,-0.742187,8.984375,2.523438,-0.453125,-0.011719,0.041016,0.746887,0.589478,0.222046,0.213013,down
1998,-0.855469,8.867188,2.636719,-0.166016,0.068359,0.019531,0.747192,0.588989,0.221985,0.213318,down
2003,-0.894531,8.789063,2.90625,-0.166016,0.068359,0.019531,0.747253,0.588745,0.222107,0.213501,down
2008,-1.085938,8.789063,3.019531,0.103516,0.15625,-0.039063,0.747253,0.588745,0.222107,0.213501,down
2013,-1.125,8.988281,2.980469,0.179687,0.197266,-0.066406,0.747131,0.588745,0.222473,0.213623,down
2018,-1.160156,9.105469,2.867188,0.179687,0.197266,-0.066406,0.746521,0.589111,0.223572,0.213745,down
2023,-1.238281,9.210938,2.867188,0.179687,0.197266,-0.066406,0.746094,0.589417,0.224243,0.213745,down
2028,-1.160156,9.632813,2.789063,0.292969,0.191406,-0.134766,0.746094,0.589417,0.224243,0.213745,down
2033,-1.125,9.910156,2.636719,0.292969,0.191406,-0.134766,0.745544,0.589844,0.224976,0.213623,down
2038,-1.085938,10.019531,2.523438,0.292969,0.191406,-0.134766,0.744873,0.59021,0.22644,0.213379,down
2043,-1.007813,10.09375,2.367188,0.292969,0.191406,-0.134766,0.744873,0.59021,0.22644,0.213379,down
2048,-1.007813,10.332031,2.101563,-0.082031,0.205078,-0.244141,0.745178,0.589355,0.227905,0.213135,down
2053,-0.855469,10.253906,1.984375,-0.082031,0.205078,-0.244141,0.74585,0.588257,0.228394,0.213135,down
2058,-0.777344,10.175781,1.949219,-0.082031,0.205078,-0.244141,0.746826,0.586853,0.228821,0.213135,down
2063,-0.894531,10.097656,1.792969,-0.982422,0.199219,-0.335938,0.746826,0.586853,0.228821,0.213135,down
2068,-0.816406,10.019531,1.757813,-1.140625,0.222656,-0.310547,0.748291,0.584778,0.229248,0.213318,down
2073,-0.742187,9.789063,2.023438,-1.140625,0.222656,-0.310547,0.751648,0.579956,0.229797,0.214111,down
2078,-0.816406,9.488281,2.140625,-1.140625,0.222656,-0.310547,0.753418,0.577393,0.230042,0.214661,down
2083,-0.742187,9.253906,2.0625,-1.140625,0.222656,-0.310547,0.753418,0.577393,0.230042,0.214661,down
2088,-0.585937,8.945313,2.253906,-1.328125,0.361328,-0.267578,0.753418,0.577393,0.230042,0.214661,down
2093,-0.703125,8.488281,2.332031,-1.328125,0.361328,-0.267578,0.758911,0.568726,0.231262,0.217041,down
2098,-0.585937,9.210938,2.023438,-1.328125,0.361328,-0.267578,0.758911,0.568726,0.231262,0.217041,down
2103,-0.511719,9.214844,2.558594,-0.972656,0.554687,-0.244141,0.76123,0.564453,0.232727,0.218445,down
2108,-0.625,9.175781,3.019531,-0.972656,0.554687,-0.244141,0.761841,0.56311,0.233643,0.218933,down
2113,-0.625,9.210938,3.402344,-0.972656,0.554687,-0.244141,0.762024,0.562134,0.234924,0.21936,down
2118,-0.703125,9.171875,3.097656,-0.972656,0.554687,-0.244141,0.762024,0.562134,0.234924,0.21936,down
2123,-1.085938,9.484375,2.675781,0.0625,0.644531,-0.205078,0.761414,0.561523,0.237732,0.220154,down
2129,-0.96875,9.328125,2.40625,0.0625,0.644531,-0.205078,0.760803,0.561584,0.239136,0.220459,down
2134,-1.390625,9.558594,2.636719,0.285156,0.630859,-0.109375,0.760803,0.561584,0.239136,0.220459,down
2139,-1.277344,9.40625,2.867188,0.386719,0.462891,-0.0625,0.759399,0.562012,0.241882,0.221252,down
2144,-1.316406,9.714844,2.90625,0.386719,0.462891,-0.0625,0.758606,0.5625,0.243042,0.221558,down
2149,-1.660156,9.90625,2.867188,0.386719,0.462891,-0.0625,0.758606,0.5625,0.243042,0.221558,down
2154,-1.660156,9.90625,2.867188,0.359375,0.333984,0.091797,0.757019,0.563538,0.244812,0.22229,down
2159,-2.003906,10.058594,3.058594,0.359375,0.333984,0.091797,0.756287,0.564087,0.245361,0.222717,down
2164,-2.082031,9.9375,3.210938,0.359375,0.333984,0.091797,0.755798,0.564514,0.245605,0.223145,down
2169,-2.273438,9.558594,3.441406,0.359375,0.333984,0.091797,0.755432,0.564819,0.245544,0.223511,down
2174,-2.273438,9.214844,3.25,0.015625,0.042969,0.220703,0.755188,0.565063,0.245361,0.22406,down
2180,-2.234375,9.171875,3.058594,0.015625,0.042969,0.220703,0.755066,0.565125,0.245178,0.224426,down
2185,-1.738281,8.867188,2.789063,0.015625,0.042969,0.220703,0.754944,0.565247,0.244934,0.224915,down
2190,-1.699219,8.828125,2.292969,-0.064453,0.152344,0.132812,0.754944,0.565247,0.244934,0.224915,down
2196,-1.546875,9.027344,1.949219,-0.119141,0.310547,0.076172,0.754944,0.565247,0.244934,0.224915,down
2201,-1.316406,9.527344,2.023438,-0.136719,0.40625,0.033203,0.754944,0.565247,0.244934,0.224915,down
2206,-1.199219,9.632813,2.0625,-0.115234,0.501953,-0.015625,0.754944,0.565247,0.244934,0.224915,down
2212,-1.125,9.59375,2.023438,-0.056641,0.646484,-0.074219,0.754944,0.565247,0.244934,0.224915,down
2217,-1.046875,9.40625,2.0625,-0.009766,0.830078,-0.138672,0.754944,0.565247,0.244934,0.224915,down
2222,-1.160156,9.371094,2.332031,0.019531,0.962891,-0.195312,0.754944,0.565247,0.244934,0.224915,down
2228,-1.199219,9.449219,2.597656,0.083984,0.917969,-0.330078,0.754944,0.565247,0.244934,0.224915,down
2233,-1.085938,9.675781,2.828125,0.083984,0.917969,-0.330078,0.752502,0.561157,0.255371,0.231628,down
2238,-1.125,9.714844,2.753906,0.083984,0.917969,-0.330078,0.751953,0.560486,0.257935,0.232178,down
2243,-1.199219,9.554688,2.675781,-0.123047,0.861328,-0.511719,0.751587,0.559814,0.26001,0.232544,down
2248,-1.277344,9.371094,2.636719,-0.123047,0.861328,-0.511719,0.751343,0.558838,0.262512,0.232971,down
2254,-1.199219,9.484375,2.445313,-0.123047,0.861328,-0.511719,0.75177,0.556152,0.266479,0.233521,down
2259,-1.160156,9.445313,2.445313,-0.746094,0.705078,-0.566406,0.752563,0.554016,0.268372,0.233948,down
2265,-1.316406,9.0625,2.523438,-0.746094,0.705078,-0.566406,0.753479,0.551819,0.269836,0.234375,down
2271,-1.238281,8.71875,2.753906,-1.076172,0.660156,-0.544922,0.753479,0.551819,0.269836,0.234375,down
2277,-1.316406,8.5625,2.675781,-1.197266,0.644531,-0.517578,0.753479,0.551819,0.269836,0.234375,down
2282,-1.316406,8.5625,2.675781,-1.255859,0.642578,-0.505859,0.75769,0.543213,0.273804,0.236389,down
2287,-1.316406,8.488281,2.558594,-1.255859,0.642578,-0.505859,0.759216,0.540161,0.274902,0.237122,down
2292,-1.277344,8.566406,2.523438,-1.255859,0.642578,-0.505859,0.760803,0.537048,0.276001,0.237915,down
2297,-1.316406,8.601563,2.558594,-1.255859,0.642578,-0.505859,0.762146,0.534241,0.277039,0.238647,down
2303,-1.507813,8.183594,2.597656,-0.769531,0.634766,-0.310547,0.762146,0.534241,0.277039,0.238647,down
2308,-1.699219,8.0625,2.558594,-0.554687,0.648437,-0.253906,0.764282,0.529419,0.279236,0.240173,down
2313,-1.660156,7.984375,2.597656,-0.554687,0.648437,-0.253906,0.764832,0.527588,0.280396,0.240967,down
2318,-1.738281,8.183594,2.714844,-0.103516,0.634766,-0.179687,0.764832,0.527588,0.280396,0.240967,down
2323,-2.082031,8.644531,2.945313,-0.103516,0.634766,-0.179687,0.765076,0.525208,0.28302,0.24231,down
2328,-2.082031,8.644531,2.945313,-0.103516,0.634766,-0.179687,0.76416,0.524597,0.28595,0.243164,down
2333,-2.3125,8.753906,2.980469,-0.103516,0.634766,-0.179687,0.76416,0.524597,0.28595,0.243164,down
2338,-2.617188,8.679688,2.597656,0.427734,0.560547,-0.162109,0.76416,0.524597,0.28595,0.243164,down
2343,-2.769531,8.832031,2.558594,0.427734,0.560547,-0.162109,0.762512,0.525085,0.289063,0.243469,down
2348,-2.695313,9.027344,2.714844,0.427734,0.560547,-0.162109,0.761658,0.525513,0.290588,0.24353,down
2354,-2.578125,9.25,2.945313,0.345703,0.425781,-0.199219,0.761658,0.525513,0.290588,0.24353,down
2359,-2.578125,9.445313,2.867188,0.345703,0.425781,-0.199219,0.759521,0.526367,0.294617,0.243408,down
2365,-2.65625,9.636719,2.867188,0.345703,0.425781,-0.199219,0.759155,0.526245,0.295776,0.243469,down
2371,-2.734375,9.445313,2.789063,-0.119141,0.490234,-0.232422,0.759155,0.526245,0.295776,0.243469,down
2376,-2.769531,9.40625,2.597656,-0.283203,0.490234,-0.208984,0.759033,0.524719,0.298279,0.244141,down
2381,-2.617188,9.445313,2.558594,-0.283203,0.490234,-0.208984,0.759216,0.523743,0.299133,0.244568,down
2387,-2.617188,9.171875,2.828125,-0.521484,0.40625,-0.210937,0.759216,0.523743,0.299133,0.244568,down
2392,-2.503906,9.105469,3.058594,-0.583984,0.335938,-0.21875,0.759216,0.523743,0.299133,0.244568,down
2398,-2.539063,8.683594,2.675781,-0.628906,0.324219,-0.234375,0.759216,0.523743,0.299133,0.244568,down
2404,-2.65625,8.832031,2.523438,-0.707031,0.375,-0.251953,0.759216,0.523743,0.299133,0.244568,down
2409,-2.503906,8.75,2.675781,-0.707031,0.375,-0.251953,0.763245,0.51416,0.302917,0.247559,down
2414,-2.3125,8.449219,2.828125,-0.707031,0.375,-0.251953,0.763245,0.51416,0.302917,0.247559,down
2419,-2.234375,9.0625,2.828125,-0.707031,0.375,-0.251953,0.76416,0.512268,0.303711,0.247925,down
2424,-2.273438,9.210938,2.945313,-0.457031,0.517578,-0.429687,0.76416,0.512268,0.303711,0.247925,down
2429,-2.464844,9.101563,2.945313,-0.457031,0.517578,-0.429687,0.765686,0.507385,0.307312,0.248779,down
2434,-2.347656,9.0625,2.714844,-0.457031,0.517578,-0.429687,0.765869,0.506104,0.308716,0.249023,down
2439,-2.425781,9.171875,2.484375,-0.341797,0.726562,-0.398438,0.765869,0.506104,0.308716,0.249023,down
2444,-2.539063,9.023438,2.445313,-0.400391,0.820312,-0.363281,0.765991,0.504517,0.310547,0.249451,down
2449,-1.660156,10.054688,1.832031,-0.400391,0.820312,-0.363281,0.766296,0.501526,0.313904,0.250488,down
2454,-1.238281,11.058594,1.105469,-0.400391,0.820312,-0.363281,0.766602,0.500183,0.315063,0.250671,down
2459,-1.046875,10.824219,0.339844,-0.400391,0.820312,-0.363281,0.767212,0.498596,0.31604,0.250854,down
2464,-0.742187,11.546875,-0.273438,-0.917969,0.669922,-0.378906,0.767212,0.498596,0.31604,0.250854,down
2469,-1.199219,10.058594,1.371094,-0.917969,0.669922,-0.378906,0.768921,0.493652,0.318359,0.252441,down
2474,-1.582031,9.59375,2.40625,-0.917969,0.669922,-0.378906,0.769653,0.490906,0.319763,0.253723,down
2479,-2.273438,9.292969,2.789063,-0.941406,0.962891,-0.306641,0.770325,0.488037,0.321411,0.255127,down
2484,-3.269531,8.222656,3.824219,-0.890625,0.861328,-0.34375,0.770325,0.488037,0.321411,0.255127,down
2490,-4.074219,7.984375,4.324219,-0.890625,0.861328,-0.34375,0.771484,0.48291,0.324524,0.257385,down
2495,-3.460938,7.492187,4.859375,-0.757812,0.679687,-0.414062,0.772156,0.480469,0.325989,0.25824,down
2501,-3.421875,7.152344,5.664062,-0.625,0.419922,-0.550781,0.772827,0.478394,0.327209,0.258545,down
2507,-3.957031,7.492187,6.007812,-0.625,0.419922,-0.550781,0.77356,0.47644,0.328491,0.258362,down
2513,-4.304687,7.113281,5.777344,-0.308594,0.46875,-0.644531,0.77356,0.47644,0.328491,0.258362,down
2518,-4.496094,6.730469,5.777344,-0.28125,0.263672,-0.613281,0.77356,0.47644,0.328491,0.258362,down
2523,-4.496094,6.730469,5.777344,-0.28125,0.263672,-0.613281,0.774902,0.472351,0.332336,0.256897,down
2528,-4.570312,6.917969,6.316406,-0.28125,0.263672,-0.613281,0.774902,0.472351,0.332336,0.256897,down
2533,-4.570312,6.917969,6.316406,-0.328125,0.027344,-0.501953,0.776062,0.470032,0.333862,0.255554,down
2538,-3.152344,8.339844,5.433594,-0.328125,0.027344,-0.501953,0.776062,0.470032,0.333862,0.255554,down
2543,-2.847656,8.566406,4.285156,-0.496094,-0.044922,-0.4375,0.776062,0.470032,0.333862,0.255554,down
2548,-2.503906,8.679688,3.863281,-0.496094,-0.044922,-0.4375,0.778625,0.466309,0.33429,0.253967,down
2554,-2.195313,8.867188,3.519531,-1.042969,-0.185547,-0.181641,0.778625,0.466309,0.33429,0.253967,down
2559,-2.15625,9.023438,3.171875,-1.042969,-0.185547,-0.181641,0.782837,0.460571,0.332275,0.254333,down
2564,-2.273438,8.984375,3.136719,-1.042969,-0.185547,-0.181641,0.784241,0.458496,0.331421,0.254883,down
2569,-2.578125,8.945313,3.058594,-1.0,-0.207031,-0.0625,0.784241,0.458496,0.331421,0.254883,down
2574,-2.578125,8.871094,3.058594,-0.865234,-0.216797,-0.058594,0.785767,0.456238,0.330383,0.255432,down
2579,-2.65625,8.683594,3.25,-0.865234,-0.216797,-0.058594,0.788025,0.453186,0.328674,0.256104,down
2584,-2.578125,8.640625,3.441406,-0.865234,-0.216797,-0.058594,0.788025,0.453186,0.328674,0.256104,down
2589,-2.503906,8.566406,3.519531,-0.414062,-0.216797,-0.058594,0.78949,0.451599,0.327454,0.256104,down
2594,-2.617188,8.753906,3.402344,-0.414062,-0.216797,-0.058594,0.78949,0.451599,0.327454,0.256104,down
2599,-2.617188,8.828125,3.480469,0.308594,-0.148437,-0.111328,0.789673,0.451599,0.327148,0.255798,down
2605,-2.617188,8.828125,3.480469,0.451172,-0.091797,-0.144531,0.789368,0.452698,0.327271,0.254578,down
2610,-2.769531,8.910156,3.863281,0.539062,-0.046875,-0.162109,0.78894,0.453674,0.327637,0.253723,down
2616,-2.769531,8.949219,4.398437,0.539062,-0.046875,-0.162109,0.788513,0.45459,0.328125,0.252991,down
2621,-2.847656,8.988281,4.515625,0.611328,-0.03125,-0.201172,0.787964,0.455627,0.328674,0.252075,down
2626,-2.925781,9.253906,4.476562,0.564453,-0.058594,-0.214844,0.787964,0.455627,0.328674,0.252075,down
2632,-3.152344,9.175781,4.742187,0.443359,-0.080078,-0.208984,0.787964,0.455627,0.328674,0.252075,down
2637,-3.191406,8.828125,5.320312,0.271484,-0.070312,-0.203125,0.787964,0.455627,0.328674,0.252075,down
2642,-3.34375,8.566406,6.007812,0.101563,-0.041016,-0.183594,0.787964,0.455627,0.328674,0.252075,down
2647,-3.5,8.445313,6.390625,-0.017578,-0.089844,-0.144531,0.787964,0.455627,0.328674,0.252075,down
2652,-3.652344,8.566406,5.433594,-0.017578,-0.089844,-0.144531,0.787964,0.455627,0.328674,0.252075,down
2658,-3.613281,8.71875,5.011719,-0.017578,-0.089844,-0.144531,0.78772,0.457825,0.329407,0.24762,down
2664,-3.460938,8.75,4.933594,-0.455078,-0.482422,-0.074219,0.789612,0.456482,0.327209,0.247009,down
2669,-3.5,9.144531,5.128906,-0.455078,-0.482422,-0.074219,0.790833,0.455505,0.325745,0.246826,down
2674,-3.460938,8.984375,5.050781,-0.716797,-0.695312,-0.007813,0.790833,0.455505,0.325745,0.246826,down
2679,-3.34375,8.984375,4.859375,-0.716797,-0.695312,-0.007813,0.792358,0.454407,0.323914,0.246582,down
2684,-3.230469,8.523438,4.820312,-0.738281,-0.707031,0.001953,0.792358,0.454407,0.323914,0.246582,down
2689,-3.230469,8.523438,4.820312,-0.738281,-0.707031,0.001953,0.796509,0.451355,0.31842,0.245972,down
2694,-3.191406,8.367188,4.628906,-0.738281,-0.707031,0.001953,0.796509,0.451355,0.31842,0.245972,down
2699,-3.230469,8.140625,4.628906,-0.675781,-0.769531,-0.029297,0.796509,0.451355,0.31842,0.245972,down
2704,-3.191406,8.101563,4.324219,-0.675781,-0.769531,-0.029297,0.799255,0.449463,0.314514,0.245361,down
2710,-3.078125,8.21875,4.167969,-0.634766,-0.689453,-0.134766,0.80072,0.448486,0.3125,0.244873,down
2715,-3.039063,8.257813,3.976563,-0.634766,-0.689453,-0.134766,0.803528,0.446472,0.309143,0.243774,down
2720,-2.886719,8.335938,3.824219,-0.605469,-0.507812,-0.242187,0.804749,0.445374,0.307922,0.243225,down
2726,-2.769531,8.367188,3.824219,-0.582031,-0.402344,-0.296875,0.805786,0.444397,0.307068,0.242676,down
2732,-2.65625,8.21875,4.132812,-0.582031,-0.402344,-0.296875,0.805786,0.444397,0.307068,0.242676,down
2737,-2.617188,8.257813,4.167969,-0.525391,-0.271484,-0.365234,0.805786,0.444397,0.307068,0.242676,down
2743,-2.578125,8.371094,4.285156,-0.525391,-0.271484,-0.365234,0.80896,0.440796,0.30542,0.240845,down
2748,-2.464844,8.300781,4.324219,-0.521484,-0.173828,-0.361328,0.80896,0.440796,0.30542,0.240845,down
2754,-2.425781,8.140625,4.515625,-0.480469,-0.154297,-0.341797,0.80896,0.440796,0.30542,0.240845,down
2759,-2.3125,7.796875,4.898437,-0.480469,-0.154297,-0.341797,0.811707,0.437195,0.304626,0.239258,down
2765,-2.425781,7.984375,4.667969,-0.429687,-0.154297,-0.337891,0.813293,0.435059,0.304199,0.238281,down
2770,-2.503906,7.988281,4.246094,-0.412109,-0.169922,-0.267578,0.814087,0.434021,0.303955,0.237732,down
2775,-2.425781,7.640625,4.476562,-0.412109,-0.169922,-0.267578,0.814819,0.433044,0.30365,0.237366,down
2780,-2.539063,7.71875,4.550781,-0.412109,-0.169922,-0.267578,0.81543,0.43219,0.303345,0.237122,down
2785,-2.578125,7.683594,4.550781,-0.351563,-0.189453,-0.173828,0.816162,0.431335,0.302917,0.236755,down
2790,-2.65625,7.453125,4.550781,-0.287109,-0.222656,-0.134766,0.816772,0.430664,0.30249,0.23645,down
2795,-2.808594,7.453125,4.742187,-0.287109,-0.222656,-0.134766,0.817261,0.430237,0.302063,0.236145,down
2800,-2.695313,7.914062,5.089844,-0.097656,-0.431641,-0.082031,0.817749,0.430054,0.30127,0.235657,down
2806,-1.773438,9.214844,4.628906,-0.097656,-0.431641,-0.082031,0.818176,0.430237,0.300415,0.235046,down
2811,-1.351563,10.402344,4.09375,0.15625,-0.722656,-0.060547,0.818176,0.430237,0.300415,0.235046,down
2817,-2.539063,8.792969,2.90625,0.15625,-0.722656,-0.060547,0.81897,0.431519,0.297791,0.233154,down
2822,-2.347656,7.722656,3.097656,0.050781,-0.638672,0.121094,0.819336,0.432251,0.296326,0.232483,down
2828,-2.3125,8.023438,4.4375,-0.033203,-0.494141,0.177734,0.819336,0.432251,0.296326,0.232483,down
2833,-2.65625,8.179688,3.554688,-0.033203,-0.494141,0.177734,0.819336,0.432251,0.296326,0.232483,down
2839,-3.269531,7.878906,3.289063,0.236328,-0.345703,0.189453,0.819336,0.432251,0.296326,0.232483,down
2845,-3.230469,7.375,4.09375,0.314453,-0.220703,0.164062,0.819214,0.435913,0.292053,0.231506,down
2850,-3.613281,7.378906,4.476562,0.314453,-0.220703,0.164062,0.818726,0.43689,0.292175,0.231262,down
2855,-3.613281,6.730469,4.898437,0.541016,0.166016,-0.048828,0.817993,0.437988,0.292786,0.230957,down
2860,-3.5,6.378906,4.972656,0.541016,0.166016,-0.048828,0.817383,0.438721,0.293579,0.230652,down
2865,-3.691406,6.378906,4.515625,0.541016,0.166016,-0.048828,0.816589,0.439514,0.294983,0.230225,down
2871,-3.613281,6.652344,3.976563,0.541016,0.166016,-0.048828,0.815979,0.439941,0.296387,0.229797,down
2876,-3.421875,7.414062,4.167969,0.363281,0.527344,-0.457031,0.815979,0.439941,0.296387,0.229797,down
2881,-3.191406,8.140625,4.476562,0.320313,0.513672,-0.513672,0.815979,0.439941,0.296387,0.229797,down
2886,-3.078125,8.644531,4.628906,0.320313,0.513672,-0.513672,0.814514,0.440063,0.301697,0.227783,down
2891,-3.078125,8.792969,4.820312,0.320313,0.513672,-0.513672,0.814331,0.439636,0.303345,0.22699,down
2897,-3.078125,8.832031,5.011719,-0.146484,0.330078,-0.564453,0.814331,0.439636,0.303345,0.22699,down
2902,-3.152344,8.75,5.164062,-0.357422,0.210937,-0.525391,0.814331,0.439636,0.303345,0.22699,down
2908,-3.421875,8.257813,5.433594,-0.357422,0.210937,-0.525391,0.815491,0.436401,0.306396,0.225159,down
2913,-3.421875,8.183594,5.28125,-0.552734,-0.046875,-0.443359,0.815491,0.436401,0.306396,0.225159,down
2918,-3.574219,8.144531,5.394531,-0.701172,-0.167969,-0.402344,0.815491,0.436401,0.306396,0.225159,down
2923,-3.691406,7.757812,4.589844,-0.701172,-0.167969,-0.402344,0.818481,0.431641,0.306152,0.223694,down
2928,-3.652344,7.796875,4.628906,-0.783203,-0.273438,-0.404297,0.818481,0.431641,0.306152,0.223694,down
2933,-3.535156,7.835937,4.742187,-0.798828,-0.318359,-0.408203,0.818481,0.431641,0.306152,0.223694,down
2938,-3.382813,7.835937,4.859375,-0.779297,-0.314453,-0.419922,0.818481,0.431641,0.306152,0.223694,down
2943,-3.34375,7.796875,4.4375,-0.779297,-0.314453,-0.419922,0.818481,0.431641,0.306152,0.223694,down
2948,-3.308594,7.917969,3.976563,-0.779297,-0.314453,-0.419922,0.824829,0.423035,0.303223,0.220825,down
2953,-3.152344,7.914062,3.941406,-0.666016,-0.212891,-0.371094,0.824829,0.423035,0.303223,0.220825,down
2958,-2.886719,8.257813,4.015625,-0.666016,-0.212891,-0.371094,0.826965,0.419983,0.302429,0.219849,down
2963,-2.886719,8.066406,3.902344,-0.548828,-0.152344,-0.3125,0.826965,0.419983,0.302429,0.219849,down
2968,-2.847656,7.835937,3.902344,-0.476562,-0.123047,-0.277344,0.826965,0.419983,0.302429,0.219849,down
2974,-2.769531,7.835937,4.015625,-0.476562,-0.123047,-0.277344,0.829346,0.416382,0.301636,0.218689,down
2980,-2.808594,7.839844,4.132812,-0.259766,-0.138672,-0.208984,0.830322,0.4151,0.301208,0.217896,down
2985,-2.808594,7.839844,4.132812,-0.259766,-0.138672,-0.208984,0.830322,0.4151,0.301208,0.217896,down
2990,-2.925781,7.796875,4.246094,-0.007813,-0.181641,-0.150391,0.830322,0.4151,0.301208,0.217896,down
2995,-3.039063,7.683594,4.359375,0.134766,-0.246094,-0.132812,0.830811,0.415039,0.30072,0.216858,down
3000,-3.039063,7.683594,4.359375,0.251953,-0.306641,-0.111328,0.830933,0.415527,0.300354,0.216187,down
3005,-3.117188,7.601562,4.324219,0.333984,-0.373047,-0.087891,0.830872,0.417175,0.299316,0.214417,down
3010,-3.078125,7.757812,4.398437,0.333984,-0.373047,-0.087891,0.830872,0.417175,0.299316,0.214417,down
3015,-3.117188,7.835937,4.398437,0.333984,-0.373047,-0.087891,0.830933,0.41925,0.297791,0.212463,down
3020,-3.039063,7.914062,4.359375,0.333984,-0.373047,-0.087891,0.830933,0.41925,0.297791,0.212463,down
3025,-3.039063,8.066406,4.359375,0.285156,-0.625,-0.078125,0.83136,0.420837,0.295654,0.210449,down
3031,-2.539063,8.871094,3.863281,0.285156,-0.625,-0.078125,0.831787,0.421265,0.294556,0.209595,down
3036,-2.425781,8.753906,3.632813,-0.164062,-0.662109,-0.064453,0.831787,0.421265,0.294556,0.209595,down
3042,-2.464844,9.488281,2.980469,-0.341797,-0.623047,-0.041016,0.833191,0.421143,0.291748,0.208191,down
3048,-2.464844,9.210938,3.210938,-0.341797,-0.623047,-0.041016,0.834167,0.42041,0.290222,0.207825,down
3053,-2.386719,8.75,3.632813,-0.697266,-0.412109,0.039063,0.834167,0.42041,0.290222,0.207825,down
3058,-2.464844,8.339844,3.902344,-0.802734,-0.304688,0.058594,0.834167,0.42041,0.290222,0.207825,down
3063,-3.0,8.144531,3.976563,-0.830078,-0.130859,0.0625,0.834167,0.42041,0.290222,0.207825,down
3068,-3.191406,7.183594,4.09375,-0.830078,-0.130859,0.0625,0.834167,0.42041,0.290222,0.207825,down
3073,-3.230469,6.953125,4.132812,-0.830078,-0.130859,0.0625,0.838745,0.413269,0.28595,0.209778,down
3078,-3.382813,6.878906,4.167969,-0.578125,0.175781,-0.105469,0.838745,0.413269,0.28595,0.209778,down
3083,-3.382813,6.730469,4.324219,-0.425781,0.251953,-0.199219,0.838745,0.413269,0.28595,0.209778,down
3088,-3.078125,6.914062,4.898437,-0.425781,0.251953,-0.199219,0.838745,0.413269,0.28595,0.209778,down
3094,-3.0,6.875,5.164062,-0.425781,0.251953,-0.199219,0.840149,0.408752,0.287781,0.210266,down
3100,-2.886719,6.613281,5.625,0.066406,0.275391,-0.361328,0.840149,0.408752,0.287781,0.210266,down
3105,-2.886719,6.726562,5.664062,0.148437,0.205078,-0.361328,0.839966,0.408142,0.290466,0.208557,down
3110,-2.734375,6.765625,5.703125,0.148437,0.205078,-0.361328,0.839966,0.408142,0.290466,0.208557,down
3115,-2.65625,6.726562,5.855469,0.167969,0.072266,-0.275391,0.839783,0.408325,0.291504,0.207336,down
3120,-2.886719,6.652344,6.007812,0.167969,0.072266,-0.275391,0.839783,0.408325,0.291504,0.207336,down
3125,-3.0,6.800781,5.96875,0.207031,-0.208984,-0.089844,0.839783,0.408325,0.291504,0.207336,down
3130,-3.0,6.957031,5.855469,0.207031,-0.208984,-0.089844,0.839783,0.408997,0.291565,0.206177,down
3136,-3.117188,6.914062,5.777344,0.207031,-0.208984,-0.089844,0.839783,0.410217,0.290466,0.205139,down
3142,-3.152344,7.148437,5.703125,0.207031,-0.208984,-0.089844,0.839844,0.411011,0.289551,0.204651,down
3147,-3.269531,7.335937,5.585937,0.283203,-0.5625,0.199219,0.839905,0.412048,0.28833,0.204224,down
3153,-3.230469,7.453125,5.546875,0.34375,-0.599609,0.273438,0.839905,0.412048,0.28833,0.204224,down
3159,-3.191406,7.71875,5.511719,0.34375,-0.599609,0.273438,0.839783,0.414368,0.285706,0.203613,down
3165,-3.191406,7.914062,5.320312,0.568359,-0.5625,0.408203,0.839783,0.414368,0.285706,0.203613,down
3170,-3.152344,8.183594,5.128906,0.568359,-0.5625,0.408203,0.839233,0.417603,0.282959,0.203186,down
3175,-3.308594,8.183594,5.320312,0.652344,-0.496094,0.451172,0.839233,0.417603,0.282959,0.203186,down
3180,-3.269531,8.296875,5.394531,0.90625,-0.394531,0.501953,0.838135,0.421387,0.280579,0.203064,down
3185,-3.34375,8.527344,5.546875,0.90625,-0.394531,0.501953,0.836243,0.42627,0.278809,0.203064,down
3190,-3.421875,8.410156,5.738281,0.90625,-0.394531,0.501953,0.836243,0.42627,0.278809,0.203064,down
3195,-3.5,8.484375,5.777344,0.90625,-0.394531,0.501953,0.833618,0.432434,0.277344,0.20282,down
3200,-3.5,8.566406,5.894531,0.90625,-0.394531,0.501953,0.833618,0.432434,0.277344,0.20282,down
3205,-3.421875,8.605469,5.929687,1.3125,-0.328125,0.507812,0.83075,0.438843,0.276245,0.202393,down
3210,-3.5,8.789063,5.894531,1.3125,-0.328125,0.507812,0.83075,0.438843,0.276245,0.202393,down
3215,-3.460938,8.832031,5.855469,1.333984,-0.375,0.472656,0.829346,0.441956,0.275696,0.202148,down
3220,-3.382813,8.792969,5.855469,1.333984,-0.375,0.472656,0.827759,0.445435,0.275085,0.201782,down
3225,-3.269531,8.945313,5.855469,1.333984,-0.375,0.472656,0.826477,0.448425,0.274414,0.201416,down
3230,-3.269531,8.945313,5.855469,1.333984,-0.375,0.472656,0.824036,0.454529,0.272461,0.2005,down
3235,-2.960938,9.289063,6.007812,1.333984,-0.375,0.472656,0.824036,0.454529,0.272461,0.2005,down
3240,-2.925781,9.210938,6.007812,0.996094,-0.708984,0.464844,0.824036,0.454529,0.272461,0.2005,down
3245,-2.847656,8.871094,5.738281,0.873047,-0.767578,0.457031,0.824036,0.454529,0.272461,0.2005,down
3250,-2.769531,8.792969,5.472656,0.664062,-0.875,0.419922,0.821594,0.46228,0.267761,0.198853,down
3255,-2.734375,8.722656,5.394531,0.664062,-0.875,0.419922,0.821106,0.464722,0.265686,0.198242,down
3260,-2.65625,8.71875,5.320312,0.664062,-0.875,0.419922,0.82074,0.466675,0.263672,0.197571,down
3265,-2.617188,8.988281,5.128906,0.529297,-0.964844,0.349609,0.820435,0.470154,0.259583,0.196106,down
3270,-2.386719,9.140625,5.089844,0.529297,-0.964844,0.349609,0.820435,0.470154,0.259583,0.196106,down
3275,-2.3125,9.253906,5.050781,0.458984,-1.0,0.261719,0.820435,0.470154,0.259583,0.196106,down
3280,-2.347656,9.214844,4.898437,0.46875,-0.966797,0.25,0.820374,0.47345,0.255249,0.194275,down
3286,-2.425781,9.410156,4.628906,0.46875,-0.966797,0.25,0.820251,0.476624,0.251099,0.192383,down
3291,-2.386719,9.449219,4.589844,0.464844,-0.882812,0.242187,0.820129,0.478271,0.248962,0.191406,down
3296,-2.347656,9.59375,4.246094,0.464844,-0.882812,0.242187,0.820129,0.478271,0.248962,0.191406,down
3301,-2.347656,9.59375,4.246094,0.433594,-0.771484,0.273438,0.819885,0.48114,0.245483,0.190002,down
3307,-2.234375,9.710938,4.015625,0.433594,-0.771484,0.273438,0.819702,0.482422,0.243896,0.189453,down
3312,-2.234375,9.449219,4.015625,0.380859,-0.607422,0.3125,0.819702,0.482422,0.243896,0.189453,down
3318,-2.539063,8.871094,3.785156,0.353516,-0.523437,0.316406,0.819702,0.482422,0.243896,0.189453,down
3324,-2.503906,8.71875,3.824219,0.330078,-0.470703,0.322266,0.819702,0.482422,0.243896,0.189453,down
3329,-2.503906,8.605469,3.902344,0.304688,-0.443359,0.318359,0.819702,0.482422,0.243896,0.189453,down
3334,-2.425781,8.445313,4.132812,0.304688,-0.433594,0.318359,0.819702,0.482422,0.243896,0.189453,down
3340,-2.347656,8.523438,4.09375,0.314453,-0.435547,0.3125,0.819702,0.482422,0.243896,0.189453,down
3345,-2.347656,8.523438,4.09375,0.34375,-0.443359,0.333984,0.817932,0.490234,0.235107,0.188232,down
3350,-2.234375,8.527344,4.132812,0.398438,-0.449219,0.324219,0.817932,0.490234,0.235107,0.188232,down
3355,-2.234375,8.101563,4.167969,0.435547,-0.457031,0.316406,0.817932,0.490234,0.235107,0.188232,down
3361,-2.273438,8.027344,4.09375,0.462891,-0.46875,0.318359,0.816284,0.495239,0.230591,0.187622,down
3366,-2.273438,7.988281,4.054687,0.462891,-0.46875,0.318359,0.816284,0.495239,0.230591,0.187622,down
3371,-2.386719,7.917969,3.941406,0.478516,-0.480469,0.324219,0.816284,0.495239,0.230591,0.187622,down
3377,-2.347656,7.917969,3.824219,0.478516,-0.480469,0.324219,0.814941,0.499329,0.227173,0.186951,down
3382,-2.347656,7.917969,3.824219,0.410156,-0.429687,0.3125,0.814514,0.50061,0.226074,0.186829,down
3387,-2.273438,7.917969,3.710938,0.410156,-0.429687,0.3125,0.814087,0.501709,0.225037,0.186707,down
3392,-2.234375,8.023438,3.554688,0.410156,-0.429687,0.3125,0.814087,0.501709,0.225037,0.186707,down
3397,-2.121094,8.296875,3.363281,0.347656,-0.292969,0.353516,0.814087,0.501709,0.225037,0.186707,down
3403,-2.15625,8.296875,3.480469,0.339844,-0.25,0.380859,0.812805,0.504944,0.22229,0.187012,down
3409,-2.121094,8.105469,3.519531,0.365234,-0.201172,0.394531,0.812805,0.504944,0.22229,0.187012,down
3414,-2.003906,8.261719,3.59375,0.457031,-0.158203,0.400391,0.812805,0.504944,0.22229,0.187012,down
3419,-1.964844,8.261719,3.785156,0.460937,-0.132812,0.431641,0.812805,0.504944,0.22229,0.187012,down
3424,-2.082031,8.105469,3.710938,0.537109,-0.111328,0.439453,0.812805,0.504944,0.22229,0.187012,down
3430,-2.042969,8.105469,3.902344,0.537109,-0.111328,0.439453,0.808411,0.512817,0.218567,0.189148,down
3435,-1.851563,8.261719,3.902344,0.537109,-0.111328,0.439453,0.808411,0.512817,0.218567,0.189148,down
3440,-1.773438,8.335938,3.976563,0.888672,-0.222656,0.382813,0.808411,0.512817,0.218567,0.189148,down
3446,-1.582031,8.640625,3.746094,0.888672,-0.222656,0.382813,0.806091,0.516785,0.21759,0.189331,down
3451,-1.660156,8.605469,3.785156,0.849609,-0.232422,0.392578,0.804871,0.518921,0.217041,0.189331,down
3456,-1.621094,8.40625,3.785156,0.849609,-0.232422,0.392578,0.802429,0.523071,0.21582,0.189331,down
3461,-1.582031,8.5625,3.671875,0.722656,-0.261719,0.394531,0.802429,0.523071,0.21582,0.189331,down
3466,-1.429688,8.753906,3.632813,0.642578,-0.275391,0.398438,0.801453,0.524902,0.215149,0.189392,down
3471,-1.316406,8.90625,3.441406,0.642578,-0.275391,0.398438,0.800598,0.526489,0.214478,0.189453,down
3476,-1.160156,9.140625,3.328125,0.527344,-0.248047,0.417969,0.799622,0.528198,0.213623,0.189575,down
3481,-1.160156,9.328125,3.289063,0.527344,-0.248047,0.417969,0.798157,0.530884,0.212097,0.190002,down
3486,-1.160156,9.367188,3.25,0.527344,-0.248047,0.417969,0.797424,0.532166,0.211304,0.190308,down
3491,-1.160156,9.023438,3.328125,0.513672,-0.177734,0.492187,0.797424,0.532166,0.211304,0.190308,down
3496,-1.046875,8.988281,3.210938,0.513672,-0.177734,0.492187,0.79657,0.53363,0.210449,0.190796,down
3501,-0.933594,9.101563,3.171875,0.513672,-0.177734,0.492187,0.794922,0.536316,0.208984,0.191772,down
3506,-0.894531,9.101563,3.097656,0.513672,-0.177734,0.492187,0.794922,0.536316,0.208984,0.191772,down
3511,-0.894531,9.066406,3.019531,0.607422,-0.167969,0.554687,0.792908,0.539551,0.207397,0.192932,down
3516,-0.777344,9.175781,2.867188,0.607422,-0.167969,0.554687,0.791809,0.541138,0.206665,0.193481,down
3521,-0.742187,9.171875,2.714844,0.664062,-0.105469,0.570312,0.791809,0.541138,0.206665,0.193481,down
3526,-0.742187,9.25,2.523438,0.664062,-0.105469,0.570312,0.790771,0.542725,0.205994,0.194031,down
3531,-0.777344,9.289063,2.523438,0.646484,-0.082031,0.564453,0.788513,0.546082,0.204712,0.195435,down
3536,-0.703125,9.40625,2.523438,0.646484,-0.082031,0.564453,0.787537,0.547485,0.204102,0.196045,down
3541,-0.777344,9.410156,2.714844,0.646484,-0.082031,0.564453,0.787537,0.547485,0.204102,0.196045,down
3546,-0.664062,9.410156,2.753906,0.623047,-0.078125,0.560547,0.787537,0.547485,0.204102,0.196045,down
3551,-0.511719,9.25,3.171875,0.623047,-0.078125,0.560547,0.7854,0.550476,0.202881,0.197388,down
3557,-0.511719,9.25,3.171875,0.787109,-0.125,0.550781,0.783081,0.553833,0.201599,0.198608,down
3562,-0.511719,9.445313,2.90625,0.835937,-0.134766,0.541016,0.781616,0.555969,0.200928,0.199097,down
3568,-0.703125,9.25,2.675781,0.835937,-0.134766,0.541016,0.780334,0.557739,0.200378,0.199524,down
3573,-0.664062,9.367188,2.867188,0.835937,-0.134766,0.541016,0.780334,0.557739,0.200378,0.199524,down
3580,-0.742187,9.371094,3.097656,0.917969,-0.171875,0.527344,0.780334,0.557739,0.200378,0.199524,down
3585,-0.742187,9.371094,3.097656,0.988281,-0.181641,0.525391,0.776001,0.564026,0.198608,0.200562,down
3590,-0.664062,9.328125,3.519531,1.107422,-0.232422,0.498047,0.774414,0.566406,0.197998,0.200745,down
3596,-0.664062,9.328125,3.519531,1.236328,-0.236328,0.484375,0.772644,0.56897,0.197449,0.200745,down
3601,-1.046875,9.289063,3.441406,1.199219,-0.1875,0.501953,0.772644,0.56897,0.197449,0.200745,down
3606,-1.46875,9.328125,2.90625,1.199219,-0.1875,0.501953,0.768799,0.574463,0.196472,0.200806,down
3611,-1.429688,9.023438,3.097656,1.199219,-0.1875,0.501953,0.766846,0.577271,0.195862,0.200867,down
3616,-1.390625,8.644531,3.210938,0.984375,-0.525391,0.339844,0.766846,0.577271,0.195862,0.200867,down
3621,-1.046875,8.640625,3.136719,0.984375,-0.525391,0.339844,0.763733,0.582214,0.194031,0.200256,down
3627,-1.046875,8.640625,3.136719,0.582031,-0.443359,0.171875,0.761719,0.585815,0.192261,0.199036,down
3632,-1.125,8.449219,2.484375,0.394531,-0.439453,0.099609,0.761108,0.587219,0.191406,0.198303,down
3637,-0.894531,8.566406,2.367188,0.279297,-0.453125,0.023437,0.760803,0.588074,0.190613,0.197571,down
3643,-0.164062,8.984375,1.984375,0.279297,-0.453125,0.023437,0.760681,0.588623,0.190063,0.19696,down
3648,0.101563,9.171875,1.027344,0.279297,-0.453125,0.023437,0.760742,0.588806,0.189819,0.196411,down
3653,0.292969,9.554688,0.644531,-0.189453,0.216797,-0.224609,0.760742,0.588806,0.189819,0.196411,down
3660,0.410156,9.671875,0.53125,-0.304688,0.449219,-0.265625,0.760742,0.588806,0.189819,0.196411,down
3665,0.445312,9.90625,0.722656,-0.419922,0.652344,-0.3125,0.760742,0.588806,0.189819,0.196411,down
3671,0.445312,10.054688,0.914062,-0.505859,1.107422,-0.376953,0.760742,0.588806,0.189819,0.196411,down
3676,0.101563,9.980469,1.335938,-0.505859,1.107422,-0.376953,0.762634,0.583557,0.196167,0.198425,down
3681,-0.128906,9.792969,1.449219,-0.505859,1.107422,-0.376953,0.763,0.581665,0.198914,0.199768,down
3686,-0.203125,9.871094,1.410156,-0.345703,1.474609,-0.492187,0.763184,0.580078,0.201599,0.200928,down
3691,-0.359375,9.980469,1.410156,-0.345703,1.474609,-0.492187,0.763306,0.578247,0.205078,0.202393,down
3696,-0.625,10.519531,1.449219,-0.345703,1.474609,-0.492187,0.763245,0.57666,0.208435,0.203735,down
3701,-0.585937,10.519531,1.679688,-0.345703,1.474609,-0.492187,0.763123,0.575134,0.211792,0.204895,down
3706,-0.511719,10.480469,2.023438,-0.1875,1.261719,-0.583984,0.763,0.573792,0.214966,0.205872,down
3711,-0.550781,10.363281,2.367188,-0.1875,1.261719,-0.583984,0.762878,0.572327,0.218323,0.206787,down
3717,-0.511719,10.476563,2.445313,-0.1875,1.261719,-0.583984,0.762695,0.569702,0.224304,0.208313,down
3722,-0.703125,10.292969,2.445313,-0.253906,1.208984,-0.519531,0.762634,0.568176,0.2276,0.20929,down
3727,-1.390625,9.675781,2.445313,-0.253906,1.208984,-0.519531,0.762573,0.566895,0.230103,0.210144,down
3732,-1.773438,10.253906,2.828125,-0.253906,1.208984,-0.519531,0.762573,0.565308,0.23291,0.211365,down
3738,-2.925781,9.289063,4.933594,-0.253906,1.208984,-0.519531,0.762512,0.56427,0.234741,0.212219,down
3743,-2.925781,9.289063,4.933594,-0.214844,0.765625,-0.123047,0.762451,0.563293,0.23645,0.213196,down
3748,-3.230469,7.957031,6.121094,-0.214844,0.765625,-0.123047,0.76239,0.5625,0.237732,0.21405,down
3754,-3.382813,7.957031,5.128906,-0.214844,0.765625,-0.123047,0.762268,0.562012,0.238708,0.214661,down
3759,-3.191406,7.683594,4.820312,-0.035156,0.169922,-0.044922,0.762268,0.562012,0.238708,0.214661,down
3764,-2.925781,7.378906,4.667969,-0.013672,-0.070312,-0.097656,0.762268,0.562012,0.238708,0.214661,down
3769,-1.8125,8.339844,4.246094,0.052734,-0.253906,-0.140625,0.762268,0.562012,0.238708,0.214661,down
3774,-1.351563,8.988281,4.015625,0.125,-0.335938,-0.173828,0.762268,0.562012,0.238708,0.214661,down
3780,-1.316406,9.253906,3.746094,0.164062,-0.265625,-0.175781,0.762268,0.562012,0.238708,0.214661,down
3785,-1.351563,9.40625,3.402344,0.123047,-0.119141,-0.126953,0.762268,0.562012,0.238708,0.214661,down
3791,-1.316406,9.75,2.980469,0.123047,-0.119141,-0.126953,0.762268,0.562012,0.238708,0.214661,down
3796,-1.277344,9.75,3.058594,0.017578,0.013672,0.027344,0.762268,0.562012,0.238708,0.214661,down
3801,-1.351563,9.75,3.058594,0.029297,0.126953,0.15625,0.762268,0.562012,0.238708,0.214661,down
3806,-1.507813,9.789063,2.558594,0.029297,0.126953,0.15625,0.76239,0.562744,0.238831,0.212341,down
3811,-1.507813,9.675781,2.558594,0.029297,0.126953,0.15625,0.762085,0.562866,0.238831,0.21283,down
3817,-1.507813,9.675781,2.558594,0.228516,0.113281,0.167969,0.762085,0.562866,0.238831,0.21283,down
3822,-1.660156,9.710938,2.523438,0.228516,0.113281,0.167969,0.760864,0.564026,0.239136,0.213928,down
3827,-1.738281,9.714844,2.445313,0.228516,0.113281,0.167969,0.760437,0.564575,0.239197,0.214111,down
3832,-1.8125,9.75,2.523438,0.267578,-0.076172,0.083984,0.760437,0.564575,0.239197,0.214111,down
3837,-1.773438,9.714844,2.558594,0.267578,-0.076172,0.083984,0.759644,0.565735,0.238953,0.213928,down
3842,-1.660156,9.710938,2.523438,0.267578,-0.076172,0.083984,0.759521,0.566162,0.238708,0.213684,down
3847,-1.660156,9.675781,2.523438,0.267578,-0.076172,0.083984,0.759399,0.566528,0.238403,0.213379,down
3852,-1.660156,9.59375,2.523438,0.080078,-0.212891,0.003906,0.759399,0.566528,0.238403,0.213379,down
3857,-1.582031,9.523438,2.523438,0.046875,-0.212891,-0.001953,0.759399,0.566833,0.237976,0.213013,down
3862,-1.582031,9.289063,2.523438,0.046875,-0.212891,-0.001953,0.759521,0.5672,0.237244,0.212402,down
3867,-1.46875,9.175781,2.558594,0.046875,-0.212891,-0.001953,0.759705,0.567261,0.236877,0.212097,down
3872,-1.46875,8.90625,2.523438,-0.085937,-0.128906,0.017578,0.759705,0.567261,0.236877,0.212097,down
3877,-1.277344,8.871094,2.445313,-0.109375,-0.056641,0.017578,0.759888,0.5672,0.236511,0.211914,down
3883,-1.277344,8.871094,2.445313,-0.111328,-0.005859,0.017578,0.760254,0.566895,0.236084,0.211914,down
9479,4.238281,2.28125,8.691406,-1.724609,0.621094,0.029297,0.541321,0.285461,-0.008423,0.790833,down
9484,4.046875,2.167969,8.847656,-1.587891,0.5625,0.099609,0.545654,0.27356,-0.016846,0.791931,down
9489,3.972656,2.207031,8.914063,-1.587891,0.5625,0.099609,0.547546,0.266541,-0.021973,0.792908,down
9494,3.933594,2.28125,8.886719,-1.587891,0.5625,0.099609,0.547546,0.266541,-0.021973,0.792908,down
9499,3.703125,2.28125,8.765625,-1.263672,0.46875,0.240234,0.547546,0.266541,-0.021973,0.792908,down
9505,3.664063,2.398438,8.730469,-1.263672,0.46875,0.240234,0.548218,0.259155,-0.027527,0.794678,down
9510,3.589844,2.398438,8.6875,-0.857422,0.355469,0.447266,0.548218,0.259155,-0.027527,0.794678,down
9515,3.550781,2.398438,8.648438,-0.744141,0.322266,0.492187,0.548218,0.259155,-0.027527,0.794678,down
9521,3.433594,2.359375,8.609375,-0.744141,0.322266,0.492187,0.548218,0.259155,-0.027527,0.794678,down
9526,3.359375,2.398438,8.53125,-0.574219,0.291016,0.542969,0.548218,0.259155,-0.027527,0.794678,down
9531,3.28125,2.320313,8.570313,-0.503906,0.283203,0.556641,0.548218,0.259155,-0.027527,0.794678,down
9536,3.207031,2.359375,8.5,-0.484375,0.279297,0.552734,0.5448,0.249573,-0.034851,0.799805,down
9543,3.089844,2.320313,8.53125,-0.484375,0.279297,0.552734,0.5448,0.249573,-0.034851,0.799805,down
9549,3.011719,2.28125,8.535156,-0.550781,0.230469,0.541016,0.5448,0.249573,-0.034851,0.799805,down
9554,2.976563,2.242188,8.652344,-0.550781,0.230469,0.541016,0.542419,0.245789,-0.037781,0.80249,down
9559,2.9375,2.207031,8.648438,-0.578125,0.195312,0.548828,0.540894,0.243347,-0.040161,0.804077,down
9564,2.898438,2.167969,8.613281,-0.5625,0.117188,0.582031,0.540894,0.243347,-0.040161,0.804077,down
9569,2.820313,2.015625,8.6875,-0.5625,0.117188,0.582031,0.539978,0.242126,-0.041565,0.804993,down
9574,2.820313,1.976563,8.730469,-0.5625,0.117188,0.582031,0.538269,0.240356,-0.044128,0.80658,down
9579,2.820313,1.976563,8.730469,-0.5625,0.117188,0.582031,0.538269,0.240356,-0.044128,0.80658,down
9584,2.707031,1.859375,8.6875,-0.472656,-0.029297,0.644531,0.538269,0.240356,-0.044128,0.80658,down
9589,2.707031,1.859375,8.6875,-0.417969,-0.103516,0.679687,0.536194,0.239075,-0.046814,0.808167,down
9594,2.667969,1.667969,8.691406,-0.417969,-0.103516,0.679687,0.536194,0.239075,-0.046814,0.808167,down
9599,2.667969,1.667969,8.691406,-0.279297,-0.238281,0.748047,0.53363,0.238708,-0.0495,0.809814,down
9604,2.785156,1.324219,8.652344,-0.279297,-0.238281,0.748047,0.530518,0.239258,-0.052063,0.811523,down
9609,2.820313,1.246094,8.648438,-0.279297,-0.238281,0.748047,0.528809,0.239868,-0.053223,0.812378,down
9614,2.9375,1.246094,8.648438,-0.279297,-0.238281,0.748047,0.528809,0.239868,-0.053223,0.812378,down
9619,2.976563,1.132813,8.574219,0.085937,-0.570312,0.904297,0.528809,0.239868,-0.053223,0.812378,down
9624,2.9375,1.09375,8.421875,0.085937,-0.570312,0.904297,0.525024,0.241821,-0.055481,0.814148,down
9630,2.9375,1.09375,8.421875,0.175781,-0.675781,0.919922,0.520874,0.244446,-0.057678,0.815857,down
9635,3.050781,0.980469,8.304688,0.232422,-0.707031,0.90625,0.518616,0.246094,-0.058777,0.816711,down
9640,3.167969,0.980469,8.1875,0.232422,-0.707031,0.90625,0.516602,0.247681,-0.059692,0.817444,down
9646,3.128906,0.941406,8.039063,0.232422,-0.707031,0.90625,0.514465,0.24939,-0.060608,0.818176,down
9651,3.28125,0.902344,8.0,0.273438,-0.773437,0.898437,0.514465,0.24939,-0.060608,0.818176,down
9656,3.320313,0.941406,8.078125,0.267578,-0.794922,0.910156,0.510132,0.252991,-0.062622,0.819641,down
9661,3.320313,0.902344,8.191406,0.267578,-0.794922,0.910156,0.507812,0.254944,-0.063721,0.820435,down
9666,3.472656,0.902344,8.230469,0.267578,-0.794922,0.910156,0.507812,0.254944,-0.063721,0.820435,down
9671,3.589844,0.863281,8.304688,0.300781,-0.875,0.943359,0.507812,0.254944,-0.063721,0.820435,down
9676,3.511719,0.902344,8.265625,0.324219,-0.904297,0.972656,0.501099,0.260681,-0.066833,0.822449,down
9682,3.472656,0.902344,8.347656,0.324219,-0.904297,0.972656,0.498718,0.262817,-0.067932,0.823181,down
9688,3.589844,0.902344,8.464844,0.357422,-1.035156,1.03125,0.498718,0.262817,-0.067932,0.823181,down
9693,3.664063,0.828125,8.425781,0.375,-1.123047,1.064453,0.498718,0.262817,-0.067932,0.823181,down
9699,3.742188,0.632812,8.226563,0.40625,-1.183594,1.085938,0.498718,0.262817,-0.067932,0.823181,down
9704,3.78125,0.632812,8.1875,0.40625,-1.183594,1.085938,0.488037,0.273132,-0.073059,0.825745,down
9709,3.933594,0.710937,8.269531,0.539062,-1.404297,1.158203,0.488037,0.273132,-0.073059,0.825745,down
9714,4.125,0.558594,8.382813,0.539062,-1.404297,1.158203,0.481934,0.279602,-0.075867,0.826965,down
9720,4.394531,0.710937,8.460938,0.539062,-1.404297,1.158203,0.47583,0.286316,-0.07843,0.827942,down
9725,4.507812,0.902344,8.34375,0.816406,-1.505859,1.171875,0.47229,0.290405,-0.07959,0.82843,down
9730,4.699219,0.902344,8.347656,0.871094,-1.523438,1.167969,0.468811,0.294373,-0.080444,0.828918,down
9735,4.8125,0.671875,8.304688,0.871094,-1.523438,1.167969,0.468811,0.294373,-0.080444,0.828918,down
9740,4.8125,0.671875,8.304688,0.880859,-1.501953,1.175781,0.46582,0.297852,-0.081177,0.829285,down
9745,4.699219,0.441406,8.113281,0.880859,-1.501953,1.175781,0.462402,0.301636,-0.081848,0.829773,down
9750,4.699219,0.441406,8.113281,0.96875,-1.369141,1.203125,0.455322,0.309082,-0.082825,0.830811,down
9755,4.890625,0.441406,7.542969,0.96875,-1.369141,1.203125,0.455322,0.309082,-0.082825,0.830811,down
9760,4.929687,0.75,7.925781,1.208984,-1.302734,1.351563,0.455322,0.309082,-0.082825,0.830811,down
9765,4.929687,0.671875,8.039063,1.208984,-1.302734,1.351563,0.442993,0.32074,-0.083069,0.833069,down
9770,4.929687,0.597656,8.113281,1.208984,-1.302734,1.351563,0.438477,0.324585,-0.082886,0.833984,down
9775,4.851562,0.632812,7.804687,1.208984,-1.302734,1.351563,0.434326,0.327942,-0.08252,0.834839,down
9780,4.890625,0.75,7.769531,1.576172,-1.355469,1.644531,0.428955,0.332397,-0.082031,0.835937,down
9785,5.195312,0.597656,8.148438,1.576172,-1.355469,1.644531,0.423706,0.336792,-0.081482,0.836914,down
9790,5.273437,0.632812,7.960937,1.576172,-1.355469,1.644531,0.419128,0.340698,-0.080933,0.837646,down
9795,5.464844,0.367188,7.964844,1.816406,-1.550781,1.589844,0.413391,0.345886,-0.080017,0.838501,down
9801,5.542969,0.214844,8.003906,1.816406,-1.550781,1.589844,0.408569,0.350342,-0.079224,0.83905,down
9807,6.0,-0.054687,7.921875,1.816406,-1.550781,1.589844,0.402832,0.356018,-0.078003,0.8396,down
9813,6.308594,0.097656,7.582031,1.816406,-1.550781,1.589844,0.397949,0.360901,-0.076599,0.839966,down
9818,6.230469,0.328125,7.464844,2.390625,-1.671875,1.367188,0.397949,0.360901,-0.076599,0.839966,down
9823,6.078125,0.828125,7.199219,2.544922,-1.648438,1.296875,0.397949,0.360901,-0.076599,0.839966,down
9828,6.078125,0.863281,7.15625,2.673828,-1.638672,1.242188,0.397949,0.360901,-0.076599,0.839966,down
9833,6.15625,0.828125,7.0,2.673828,-1.638672,1.242188,0.376221,0.383728,-0.066589,0.840698,down
9839,6.15625,0.828125,7.0,2.746094,-1.679688,1.15625,0.370911,0.389526,-0.063538,0.840637,down
9844,6.117187,0.863281,6.773437,2.710938,-1.671875,1.103516,0.365662,0.395264,-0.060486,0.840454,down
9849,6.117187,0.863281,6.773437,2.638672,-1.722656,1.0625,0.360352,0.401245,-0.057373,0.840149,down
9855,5.964844,1.019531,6.964844,2.560547,-1.767578,1.041016,0.360352,0.401245,-0.057373,0.840149,down
9860,5.964844,1.019531,6.964844,2.433594,-1.830078,1.001953,0.350464,0.412781,-0.052002,0.839111,down
9865,5.886719,0.828125,6.964844,2.222656,-2.052734,0.962891,0.34552,0.418823,-0.049622,0.838318,down
9870,5.886719,0.828125,6.964844,2.222656,-2.052734,0.962891,0.336426,0.430786,-0.045776,0.836121,down
9876,6.191406,0.863281,6.964844,2.222656,-2.052734,0.962891,0.331909,0.437195,-0.044067,0.834717,down
9881,6.6875,0.828125,6.390625,2.222656,-2.052734,0.962891,0.327698,0.44342,-0.042603,0.833191,down
9886,6.730469,0.902344,6.277344,2.001953,-2.339844,0.728516,0.327698,0.44342,-0.042603,0.833191,down
9891,6.886719,0.902344,6.121094,2.021484,-2.351563,0.654297,0.327698,0.44342,-0.042603,0.833191,down
9896,6.921875,0.902344,5.894531,2.058594,-2.332031,0.589844,0.315796,0.462646,-0.037903,0.827515,down
9902,6.996094,0.902344,5.472656,2.058594,-2.332031,0.589844,0.31189,0.469116,-0.036011,0.825439,down
9908,6.992187,0.941406,5.355469,2.148438,-2.242188,0.441406,0.31189,0.469116,-0.036011,0.825439,down
9913,7.035156,1.019531,5.355469,2.177734,-2.238281,0.363281,0.31189,0.469116,-0.036011,0.825439,down
9918,6.925781,1.171875,5.433594,2.212891,-2.242188,0.287109,0.31189,0.469116,-0.036011,0.825439,down
9923,6.882812,1.285156,5.511719,2.226563,-2.246094,0.203125,0.297668,0.494019,-0.026733,0.816467,down
9929,6.882812,1.59375,5.472656,2.224609,-2.203125,0.126953,0.297668,0.494019,-0.026733,0.816467,down
9934,6.882812,1.59375,5.472656,2.175781,-2.167969,0.041016,0.291321,0.506348,-0.02124,0.81134,down
9939,6.84375,1.785156,5.546875,2.175781,-2.167969,0.041016,0.291321,0.506348,-0.02124,0.81134,down
9944,6.503906,2.167969,5.28125,1.869141,-2.228516,-0.148437,0.291321,0.506348,-0.02124,0.81134,down
9949,6.269531,2.207031,5.011719,1.869141,-2.228516,-0.148437,0.283569,0.523987,-0.013245,0.80304,down
9955,6.347656,2.320313,4.515625,1.869141,-2.228516,-0.148437,0.283569,0.523987,-0.013245,0.80304,down
9960,6.421875,2.28125,4.4375,1.337891,-2.494141,-0.271484,0.283569,0.523987,-0.013245,0.80304,down
9966,6.925781,2.128906,4.09375,1.337891,-2.494141,-0.271484,0.276855,0.547791,-0.006409,0.789429,down
9972,7.414062,1.898438,3.019531,1.337891,-2.494141,-0.271484,0.276184,0.552856,-0.005493,0.786133,down
9977,7.453125,1.9375,2.597656,0.921875,-2.328125,-0.53125,0.275818,0.558105,-0.004578,0.782593,down
9982,7.34375,2.089844,2.523438,0.90625,-2.308594,-0.607422,0.275818,0.558105,-0.004578,0.782593,down
9987,7.535156,2.703125,2.597656,0.976562,-2.324219,-0.671875,0.275818,0.558105,-0.004578,0.782593,down
9992,7.347656,2.972656,2.597656,1.058594,-2.300781,-0.785156,0.275818,0.558105,-0.004578,0.782593,down
9997,7.347656,2.972656,2.597656,1.058594,-2.300781,-0.785156,0.275818,0.558105,-0.004578,0.782593,down
10002,7.230469,3.355469,2.597656,1.150391,-2.226563,-0.910156,0.275696,0.583679,0.003052,0.763733,down
10007,7.648437,3.238281,2.523438,1.150391,-2.226563,-0.910156,0.275696,0.583679,0.003052,0.763733,down
10013,7.648437,3.238281,2.523438,1.296875,-1.796875,-1.285156,0.276428,0.592896,0.008606,0.756287,down
10019,7.570312,3.777344,2.253906,1.296875,-1.796875,-1.285156,0.276428,0.592896,0.008606,0.756287,down
10025,7.1875,3.699219,2.40625,1.140625,-1.498047,-1.410156,0.279114,0.604187,0.018127,0.746155,down
10030,6.804687,3.777344,2.523438,1.140625,-1.498047,-1.410156,0.279114,0.604187,0.018127,0.746155,down
10035,6.542969,3.890625,2.714844,0.679687,-1.548828,-1.464844,0.279114,0.604187,0.018127,0.746155,down
10040,6.34375,3.96875,3.136719,0.310547,-1.685547,-1.453125,0.285278,0.614014,0.024109,0.735535,down
10045,6.347656,3.46875,3.402344,0.310547,-1.685547,-1.453125,0.288635,0.617432,0.024597,0.731323,down
10050,6.308594,3.164063,3.441406,0.310547,-1.685547,-1.453125,0.288635,0.617432,0.024597,0.731323,down
10055,6.269531,2.933594,3.554688,-0.759766,-2.085938,-1.443359,0.288635,0.617432,0.024597,0.731323,down
10060,6.226562,2.742188,3.824219,-0.759766,-2.085938,-1.443359,0.299622,0.626526,0.023376,0.719116,down
10065,6.1875,2.78125,3.941406,-0.759766,-2.085938,-1.443359,0.303894,0.630005,0.022766,0.714294,down
10070,6.117187,2.78125,4.054687,-0.759766,-2.085938,-1.443359,0.303894,0.630005,0.022766,0.714294,down
10075,5.964844,2.78125,4.132812,-0.208984,-2.113281,-1.675781,0.303894,0.630005,0.022766,0.714294,down
10080,5.617187,2.972656,4.132812,-0.208984,-2.113281,-1.675781,0.310913,0.636414,0.022888,0.705566,down
10085,5.617187,2.972656,4.132812,0.099609,-2.132813,-1.800781,0.314148,0.639893,0.023926,0.700867,down
10090,5.808594,3.164063,4.054687,0.099609,-2.132813,-1.800781,0.317261,0.64386,0.025757,0.695801,down
10095,5.964844,3.585938,3.25,0.769531,-2.085938,-2.103516,0.319885,0.647827,0.028381,0.690796,down
10100,5.964844,3.585938,3.25,0.769531,-2.085938,-2.103516,0.319885,0.647827,0.028381,0.690796,down
10105,6.078125,3.929688,2.828125,1.125,-2.009766,-2.246094,0.326111,0.660522,0.040955,0.674988,down
10110,6.921875,5.15625,2.101563,1.125,-2.009766,-2.246094,0.326111,0.660522,0.040955,0.674988,down
10115,6.921875,5.15625,2.101563,1.591797,-1.835938,-2.427734,0.328064,0.665466,0.046753,0.668823,down
10120,7.1875,5.996094,1.640625,1.591797,-1.835938,-2.427734,0.329468,0.669128,0.051331,0.664185,down
10125,7.148437,6.34375,1.488281,1.455078,-1.714844,-2.371094,0.333069,0.676758,0.061523,0.653687,down
10130,6.726562,6.304687,1.410156,1.455078,-1.714844,-2.371094,0.333069,0.676758,0.061523,0.653687,down
10135,6.503906,6.074219,1.449219,1.455078,-1.714844,-2.371094,0.335144,0.679749,0.065796,0.649048,down
10140,6.121094,6.035156,1.335938,0.087891,-1.304688,-1.925781,0.335144,0.679749,0.065796,0.649048,down
10145,5.734375,6.074219,1.257813,0.087891,-1.304688,-1.925781,0.340698,0.684387,0.072021,0.640625,down
10151,5.273437,5.613281,1.449219,0.087891,-1.304688,-1.925781,0.347534,0.687195,0.075134,0.633545,down
10157,4.851562,5.1875,1.410156,0.087891,-1.304688,-1.925781,0.351868,0.688293,0.075806,0.629822,down
10163,4.621094,5.0,1.371094,-1.017578,-1.373047,-1.716797,0.351868,0.688293,0.075806,0.629822,down
10169,4.585937,4.84375,1.027344,-1.076172,-1.449219,-1.771484,0.351868,0.688293,0.075806,0.629822,down
10175,4.621094,4.847656,0.796875,-1.015625,-1.525391,-1.851563,0.351868,0.688293,0.075806,0.629822,down
10180,4.621094,4.847656,0.796875,-0.835937,-1.583984,-1.929688,0.370911,0.692261,0.076843,0.614197,down
10185,4.738281,4.925781,0.492187,-0.570312,-1.632813,-2.013672,0.370911,0.692261,0.076843,0.614197,down
10191,4.738281,4.925781,0.492187,-0.28125,-1.65625,-2.091797,0.3797,0.695374,0.079102,0.60498,down
10196,5.734375,5.925781,-0.199219,-0.28125,-1.65625,-2.091797,0.383484,0.697266,0.080994,0.60022,down
10201,5.734375,5.925781,-0.199219,0.085937,-1.603516,-2.238281,0.390686,0.701172,0.085937,0.59021,down
10207,6.347656,7.296875,-0.886719,0.085937,-1.603516,-2.238281,0.394348,0.702881,0.088562,0.585327,down
10212,6.230469,7.453125,-0.925781,-0.166016,-1.443359,-2.396484,0.394348,0.702881,0.088562,0.585327,down
10218,6.117187,7.457031,-0.925781,-0.386719,-1.443359,-2.433594,0.402588,0.705627,0.093689,0.5755,down
10223,5.695312,7.21875,-0.773437,-0.664062,-1.40625,-2.464844,0.402588,0.705627,0.093689,0.5755,down
10228,5.351562,7.152344,-0.695312,-0.96875,-1.376953,-2.472656,0.402588,0.705627,0.093689,0.5755,down
10233,5.003906,7.183594,-0.617187,-1.273438,-1.324219,-2.458984,0.402588,0.705627,0.093689,0.5755,down
10238,4.621094,7.109375,-0.617187,-1.548828,-1.283203,-2.425781,0.402588,0.705627,0.093689,0.5755,down
10243,3.894531,6.839844,-0.503906,-1.548828,-1.283203,-2.425781,0.402588,0.705627,0.093689,0.5755,down
10248,3.550781,6.691406,-0.425781,-1.931641,-1.228516,-2.330078,0.402588,0.705627,0.093689,0.5755,down
10253,3.167969,6.648437,-0.3125,-2.039063,-1.228516,-2.298828,0.402588,0.705627,0.093689,0.5755,down
10258,3.167969,6.648437,-0.3125,-2.021484,-1.244141,-2.283203,0.452087,0.703003,0.100952,0.539673,down
10263,3.011719,6.496094,-0.273438,-2.021484,-1.244141,-2.283203,0.452087,0.703003,0.100952,0.539673,down
10269,3.28125,6.414062,-0.234375,-1.753906,-1.314453,-2.345703,0.465637,0.700867,0.101074,0.530823,down
10274,3.28125,6.414062,-0.234375,-1.753906,-1.314453,-2.345703,0.465637,0.700867,0.101074,0.530823,down
10279,4.125,7.113281,-0.542969,-1.476563,-1.300781,-2.390625,0.477783,0.699585,0.102661,0.521301,down
10285,4.199219,7.640625,-0.617187,-0.427734,-1.261719,-2.564453,0.477783,0.699585,0.102661,0.521301,down
10290,4.238281,7.878906,-0.542969,-0.427734,-1.261719,-2.564453,0.487549,0.699646,0.106323,0.511414,down
10295,4.316406,7.988281,-0.695312,-0.160156,-1.216797,-2.626953,0.487549,0.699646,0.106323,0.511414,down
10301,4.238281,8.339844,-0.65625,0.154297,-1.115234,-2.75,0.487549,0.699646,0.106323,0.511414,down
10306,4.125,8.71875,-0.695312,0.154297,-1.115234,-2.75,0.502808,0.702332,0.11969,0.489502,down
10311,3.359375,9.554688,-0.582031,0.154297,-1.115234,-2.75,0.502808,0.702332,0.11969,0.489502,down
10316,2.859375,9.832031,-0.464844,0.154297,-1.115234,-2.75,0.509216,0.703857,0.126831,0.478699,down
10322,2.515625,9.980469,-0.3125,0.095703,-1.416016,-2.646484,0.512756,0.704834,0.130249,0.472534,down
10327,2.132813,10.132813,-0.160156,-0.101563,-1.578125,-2.539063,0.516541,0.70575,0.133118,0.466187,down
10333,1.597656,10.714844,0.03125,-0.101563,-1.578125,-2.539063,0.519958,0.706421,0.134888,0.460937,down
10338,1.597656,10.714844,0.03125,-0.101563,-1.578125,-2.539063,0.519958,0.706421,0.134888,0.460937,down
10344,1.597656,10.714844,0.03125,-0.740234,-1.871094,-2.320313,0.529175,0.707031,0.136597,0.448792,down
10350,1.597656,10.714844,0.03125,-1.443359,-1.976563,-2.181641,0.534546,0.706787,0.136414,0.442871,down
10355,1.941406,9.789063,-0.199219,-1.443359,-1.976563,-2.181641,0.534546,0.706787,0.136414,0.442871,down
10360,1.941406,9.789063,-0.199219,-1.748047,-1.943359,-2.134766,0.546631,0.704895,0.13501,0.431335,down
10366,2.4375,8.949219,-0.351563,-1.765625,-1.638672,-2.140625,0.546631,0.704895,0.13501,0.431335,down
10371,2.515625,9.023438,-0.425781,-1.765625,-1.638672,-2.140625,0.565063,0.7005,0.133484,0.414917,down
10376,2.59375,9.105469,-0.351563,-1.765625,-1.638672,-2.140625,0.565063,0.7005,0.133484,0.414917,down
10381,2.515625,9.210938,-0.234375,-1.361328,-1.429688,-2.205078,0.575134,0.69812,0.13446,0.404724,down
10386,2.246094,9.554688,-0.234375,-1.361328,-1.429688,-2.205078,0.579285,0.697266,0.135559,0.399841,down
10391,2.054688,9.792969,-0.160156,-1.361328,-1.429688,-2.205078,0.579285,0.697266,0.135559,0.399841,down
10396,1.941406,9.910156,-0.160156,-0.556641,-1.1875,-2.330078,0.579285,0.697266,0.135559,0.399841,down
10401,1.597656,10.480469,-0.351563,-0.314453,-1.169922,-2.386719,0.579285,0.697266,0.135559,0.399841,down
10406,1.40625,10.902344,-0.464844,-0.027344,-1.232422,-2.482422,0.590027,0.696228,0.141541,0.383545,down
10412,1.097656,11.324219,-0.542969,-0.027344,-1.232422,-2.482422,0.596008,0.696594,0.146606,0.37146,down
10417,0.753906,11.625,-0.582031,-0.027344,-1.232422,-2.482422,0.598511,0.696899,0.148499,0.366211,down
10422,0.21875,11.859375,-0.464844,-0.027344,-1.232422,-2.482422,0.598511,0.696899,0.148499,0.366211,down
10427,0.21875,11.859375,-0.464844,-0.027344,-1.232422,-2.482422,0.598511,0.696899,0.148499,0.366211,down
10432,0.101563,11.742188,-0.3125,-0.541016,-1.861328,-2.46875,0.598511,0.696899,0.148499,0.366211,down
10437,0.101563,11.742188,-0.3125,-1.255859,-1.935547,-2.378906,0.614136,0.695923,0.152649,0.339417,down
10442,0.5625,10.558594,-0.234375,-1.255859,-1.935547,-2.378906,0.619324,0.694397,0.152649,0.33313,down
10447,0.714844,10.292969,-0.3125,-1.957031,-1.810547,-2.308594,0.619324,0.694397,0.152649,0.33313,down
10452,0.792969,10.09375,-0.425781,-2.232422,-1.716797,-2.275391,0.631226,0.689453,0.151855,0.321106,down
10457,0.832031,9.980469,-0.464844,-2.404297,-1.617188,-2.257813,0.637634,0.686218,0.151306,0.315613,down
10462,0.867187,9.9375,-0.464844,-2.404297,-1.617188,-2.257813,0.644287,0.682617,0.150818,0.310181,down
10467,0.792969,9.980469,-0.542969,-2.234375,-1.386719,-2.302734,0.651428,0.678589,0.150574,0.304199,down
10473,0.714844,10.480469,-0.886719,-2.234375,-1.386719,-2.302734,0.656311,0.675781,0.150696,0.299805,down
10478,0.484375,10.820313,-0.8125,-1.671875,-1.230469,-2.349609,0.656311,0.675781,0.150696,0.299805,down
10483,0.484375,11.09375,-0.8125,-1.671875,-1.230469,-2.349609,0.656311,0.675781,0.150696,0.299805,down
10489,0.292969,11.441406,-0.847656,-1.21875,-1.173828,-2.410156,0.670105,0.668518,0.153625,0.283569,down
10494,0.292969,11.441406,-0.847656,-0.453125,-1.175781,-2.480469,0.673401,0.667297,0.155396,0.277588,down
10499,-0.089844,12.511719,-0.847656,-0.453125,-1.175781,-2.480469,0.673401,0.667297,0.155396,0.277588,down
10504,-0.359375,13.160156,-1.003906,-0.222656,-1.210938,-2.498047,0.67865,0.666138,0.159302,0.265259,down
10509,-0.394531,13.351563,-0.964844,-0.1875,-1.388672,-2.521484,0.67865,0.666138,0.159302,0.265259,down
10514,-0.472656,13.734375,-0.582031,-0.1875,-1.388672,-2.521484,0.67865,0.666138,0.159302,0.265259,down
10519,-0.320313,13.582031,-0.273438,-0.880859,-1.623047,-2.552734,0.67865,0.666138,0.159302,0.265259,down
10524,0.027344,13.199219,0.070312,-1.523438,-1.658203,-2.552734,0.67865,0.666138,0.159302,0.265259,down
10529,0.5625,12.816406,0.261719,-1.523438,-1.658203,-2.552734,0.697205,0.657837,0.164978,0.232239,down
10534,0.867187,12.128906,0.109375,-1.523438,-1.658203,-2.552734,0.697205,0.657837,0.164978,0.232239,down
10539,0.792969,11.703125,-0.121094,-3.771484,-1.109375,-2.595703,0.697205,0.657837,0.164978,0.232239,down
10544,0.753906,11.28125,-0.160156,-4.337891,-1.048828,-2.617188,0.697205,0.657837,0.164978,0.232239,down
10549,0.984375,10.820313,0.492187,-4.337891,-1.048828,-2.617188,0.697205,0.657837,0.164978,0.232239,down
10555,0.984375,10.785156,0.988281,-4.337891,-1.048828,-2.617188,0.737488,0.620911,0.164917,0.208252,down
10560,0.984375,10.785156,0.988281,-5.021484,-0.966797,-2.695313,0.746948,0.611084,0.164612,0.203857,down
10565,0.984375,10.785156,0.988281,-4.826172,-0.845703,-2.777344,0.756409,0.600891,0.164612,0.19928,down
10570,0.523437,10.976563,1.832031,-4.826172,-0.845703,-2.777344,0.756409,0.600891,0.164612,0.19928,down
10575,0.292969,11.203125,2.101563,-4.439453,-0.744141,-2.826172,0.772644,0.582581,0.165833,0.190063,down
10580,0.292969,11.203125,2.101563,-4.439453,-0.744141,-2.826172,0.772644,0.582581,0.165833,0.190063,down
10585,-0.394531,11.589844,2.523438,-3.339844,-0.611328,-2.931641,0.772644,0.582581,0.165833,0.190063,down
10590,-0.933594,12.511719,2.828125,-1.933594,-0.695312,-2.960938,0.772644,0.582581,0.165833,0.190063,down
10595,-1.085938,12.707031,3.058594,-1.933594,-0.695312,-2.960938,0.794312,0.5578,0.172607,0.167603,down
10601,-1.277344,12.734375,3.59375,-1.050781,-0.939453,-2.830078,0.794312,0.5578,0.172607,0.167603,down
10606,-1.277344,12.773438,3.863281,-0.982422,-1.021484,-2.605469,0.800537,0.551636,0.175903,0.154724,down
10611,-1.277344,12.816406,3.976563,-0.982422,-1.021484,-2.605469,0.803467,0.548767,0.177307,0.14801,down
10616,-1.351563,12.585938,3.941406,-0.982422,-1.021484,-2.605469,0.806335,0.545715,0.178345,0.142151,down
10621,-1.507813,12.011719,3.519531,-1.630859,-0.951172,-2.302734,0.809509,0.542114,0.179138,0.13678,down
10626,-1.507813,12.011719,3.519531,-2.119141,-0.957031,-2.125,0.813049,0.537842,0.179504,0.13208,down
10631,-1.46875,11.742188,3.441406,-2.119141,-0.957031,-2.125,0.817322,0.53241,0.179443,0.127747,down
10636,-1.46875,11.742188,3.441406,-3.027344,-1.103516,-1.802734,0.822205,0.526001,0.178833,0.123596,down
10641,-1.199219,11.09375,3.824219,-3.294922,-1.119141,-1.6875,0.822205,0.526001,0.178833,0.123596,down
10646,-1.085938,10.132813,4.167969,-3.294922,-1.119141,-1.6875,0.832581,0.51178,0.176758,0.11676,down
10652,-1.007813,9.671875,4.359375,-3.414063,-1.076172,-1.572266,0.832581,0.51178,0.176758,0.11676,down
10657,-0.96875,9.371094,4.550781,-3.414063,-1.076172,-1.572266,0.848267,0.488831,0.173035,0.107239,down
10663,-1.085938,9.175781,4.589844,-3.414063,-1.076172,-1.572266,0.852844,0.481934,0.172058,0.103821,down
10668,-1.160156,9.328125,4.628906,-2.292969,-0.931641,-1.679688,0.852844,0.481934,0.172058,0.103821,down
10674,-1.199219,9.445313,4.820312,-1.873047,-0.933594,-1.736328,0.852844,0.481934,0.172058,0.103821,down
10679,-1.238281,9.636719,4.78125,-1.873047,-0.933594,-1.736328,0.862854,0.466736,0.170593,0.092285,down
10685,-1.277344,9.675781,4.707031,-1.523438,-0.861328,-1.845703,0.862854,0.466736,0.170593,0.092285,down
10690,-1.46875,9.632813,4.707031,-1.570313,-0.802734,-1.888672,0.862854,0.466736,0.170593,0.092285,down
10696,-1.507813,9.554688,4.742187,-1.755859,-0.75,-1.927734,0.862854,0.466736,0.170593,0.092285,down
10701,-1.507813,9.554688,4.742187,-2.033203,-0.695312,-1.970703,0.873474,0.449585,0.170898,0.075195,down
10706,-1.46875,9.367188,4.820312,-2.359375,-0.626953,-2.0,0.873474,0.449585,0.170898,0.075195,down
10711,-1.738281,8.753906,4.933594,-2.691406,-0.541016,-2.023438,0.880005,0.437622,0.171814,0.067017,down
10716,-1.738281,8.753906,4.933594,-2.691406,-0.541016,-2.023438,0.880005,0.437622,0.171814,0.067017,down
10721,-1.738281,8.753906,4.933594,-3.25,-0.427734,-2.035156,0.887573,0.422791,0.173035,0.059448,down
10726,-2.195313,7.839844,6.085937,-3.25,-0.427734,-2.035156,0.887573,0.422791,0.173035,0.059448,down
10732,-2.273438,7.71875,6.238281,-3.212891,-0.375,-2.023438,0.899109,0.398132,0.175415,0.048523,down
10737,-2.425781,7.644531,6.46875,-3.212891,-0.375,-2.023438,0.899109,0.398132,0.175415,0.048523,down
10742,-2.539063,7.5625,6.621094,-2.796875,-0.333984,-1.974609,0.904968,0.384583,0.177063,0.041809,down
10747,-2.808594,7.839844,6.925781,-2.796875,-0.333984,-1.974609,0.907593,0.378418,0.17804,0.037842,down
10752,-2.960938,8.335938,6.925781,-2.796875,-0.333984,-1.974609,0.909424,0.373901,0.178894,0.03418,down
10758,-3.191406,8.871094,6.8125,-1.107422,-0.376953,-1.822266,0.91095,0.369995,0.179749,0.030151,down
10763,-3.382813,9.632813,6.621094,-1.107422,-0.376953,-1.822266,0.91217,0.367004,0.180359,0.026184,down
10769,-3.421875,10.132813,6.734375,-1.107422,-0.376953,-1.822266,0.913269,0.36438,0.180725,0.022095,down
10775,-3.460938,10.289063,6.660156,-0.894531,-0.625,-1.679688,0.913269,0.36438,0.180725,0.022095,down
10780,-3.460938,10.289063,6.660156,-1.119141,-0.660156,-1.626953,0.91571,0.358582,0.180847,0.014099,down
10785,-3.421875,10.292969,6.582031,-1.119141,-0.660156,-1.626953,0.91571,0.358582,0.180847,0.014099,down
10790,-3.421875,10.292969,6.582031,-1.871094,-0.720703,-1.523438,0.919006,0.350464,0.18042,0.00708,down
10795,-3.230469,9.714844,6.582031,-1.871094,-0.720703,-1.523438,0.919006,0.350464,0.18042,0.00708,down
10800,-3.230469,9.714844,6.582031,-2.347656,-0.722656,-1.464844,0.923767,0.338257,0.179565,0.00116,down
10806,-3.039063,8.101563,6.890625,-2.347656,-0.722656,-1.464844,0.923767,0.338257,0.179565,0.00116,down
10811,-3.039063,7.796875,7.117187,-3.597656,-0.554687,-1.363281,0.923767,0.338257,0.179565,0.00116,down
10816,-3.078125,7.339844,7.34375,-3.597656,-0.554687,-1.363281,0.9328,0.312988,0.178406,-0.005737,down
10822,-3.382813,6.878906,7.808594,-3.378906,-0.392578,-1.388672,0.935791,0.304077,0.178345,-0.00769,down
10827,-3.5,7.070312,7.84375,-3.378906,-0.392578,-1.388672,0.941101,0.286743,0.178711,-0.011902,down
10832,-3.765625,7.375,7.882812,-2.59375,-0.339844,-1.40625,0.941101,0.286743,0.178711,-0.011902,down
10837,-3.996094,7.683594,8.078125,-2.59375,-0.339844,-1.40625,0.944946,0.273438,0.179138,-0.016541,down
10843,-4.339844,8.449219,8.570313,-2.59375,-0.339844,-1.40625,0.946411,0.268127,0.179138,-0.019165,down
10848,-4.496094,8.601563,8.609375,-1.574219,-0.480469,-1.291016,0.946411,0.268127,0.179138,-0.019165,down
10853,-4.496094,8.644531,8.574219,-1.476563,-0.511719,-1.230469,0.946411,0.268127,0.179138,-0.019165,down
10858,-4.53125,8.605469,8.574219,-1.476563,-0.511719,-1.230469,0.946411,0.268127,0.179138,-0.019165,down
10863,-4.570312,8.527344,8.609375,-1.509766,-0.550781,-1.150391,0.951172,0.250671,0.177795,-0.029358,down
10868,-4.570312,8.527344,8.609375,-1.509766,-0.550781,-1.150391,0.951172,0.250671,0.177795,-0.029358,down
10873,-4.265625,7.722656,8.6875,-1.935547,-0.658203,-0.976562,0.952454,0.245911,0.177063,-0.031372,down
10878,-4.265625,7.722656,8.6875,-2.238281,-0.712891,-0.861328,0.953979,0.24054,0.176147,-0.03302,down
10883,-4.265625,7.722656,8.6875,-2.238281,-0.712891,-0.861328,0.957458,0.227539,0.173889,-0.035339,down
10889,-3.5,5.691406,9.152344,-2.238281,-0.712891,-0.861328,0.957458,0.227539,0.173889,-0.035339,down
10894,-3.5,5.691406,9.152344,-2.953125,-0.800781,-0.458984,0.961304,0.212891,0.171143,-0.036316,down
10899,-3.34375,4.773437,9.03125,-2.953125,-0.800781,-0.458984,0.963074,0.205627,0.169739,-0.03656,down
10905,-3.191406,4.390625,8.996094,-2.710938,-0.755859,-0.369141,0.963074,0.205627,0.169739,-0.03656,down
10910,-3.0,3.585938,9.113281,-2.710938,-0.755859,-0.369141,0.96637,0.192078,0.166931,-0.036865,down
10915,-3.0,3.46875,9.070313,-2.066406,-0.675781,-0.318359,0.96637,0.192078,0.166931,-0.036865,down
10920,-2.925781,3.394531,8.996094,-1.613281,-0.611328,-0.304688,0.96637,0.192078,0.166931,-0.036865,down
10925,-2.886719,3.277344,8.953125,-1.126953,-0.564453,-0.289063,0.96637,0.192078,0.166931,-0.036865,down
10930,-2.808594,3.46875,8.882813,-1.126953,-0.564453,-0.289063,0.96637,0.192078,0.166931,-0.036865,down
10935,-2.808594,3.621094,8.917969,-1.126953,-0.564453,-0.289063,0.970581,0.174805,0.161011,-0.039124,down
10940,-2.808594,3.738281,8.882813,0.136719,-0.412109,-0.253906,0.970581,0.174805,0.161011,-0.039124,down
10945,-2.847656,3.851563,8.804688,0.136719,-0.412109,-0.253906,0.970764,0.175049,0.159241,-0.040833,down
10951,-2.925781,4.082031,8.570313,0.136719,-0.412109,-0.253906,0.970764,0.175049,0.159241,-0.040833,down
10956,-3.039063,4.273437,8.53125,0.556641,-0.224609,-0.244141,0.970764,0.175049,0.159241,-0.040833,down
10962,-3.0,4.503906,8.652344,0.552734,-0.214844,-0.234375,0.970764,0.175049,0.159241,-0.040833,down
10967,-2.960938,4.582031,8.535156,0.552734,-0.214844,-0.234375,0.970032,0.180298,0.156494,-0.045288,down
10972,-3.039063,4.65625,8.464844,0.552734,-0.214844,-0.234375,0.970032,0.180298,0.156494,-0.045288,down
10977,-3.078125,4.65625,8.503906,0.003906,-0.28125,-0.121094,0.970032,0.180298,0.156494,-0.045288,down
10983,-3.078125,4.65625,8.609375,0.003906,-0.28125,-0.121094,0.970154,0.180725,0.154907,-0.046814,down
10988,-3.078125,4.542969,8.570313,-0.199219,-0.369141,-0.0625,0.970337,0.180237,0.154053,-0.04718,down
10993,-3.039063,4.464844,8.613281,-0.246094,-0.404297,-0.021484,0.970581,0.179565,0.153076,-0.047363,down
10999,-2.960938,4.195312,8.613281,-0.246094,-0.404297,-0.021484,0.970825,0.178955,0.152283,-0.047485,down
11004,-2.847656,3.890625,8.5,-0.246094,-0.404297,-0.021484,0.97113,0.178223,0.151245,-0.047485,down
11011,-2.769531,3.777344,8.535156,-0.302734,-0.423828,0.076172,0.97113,0.178223,0.151245,-0.047485,down
11016,-2.65625,3.621094,8.570313,-0.289063,-0.40625,0.095703,0.97113,0.178223,0.151245,-0.047485,down
11021,-2.617188,3.429688,8.53125,-0.289063,-0.40625,0.095703,0.97113,0.178223,0.151245,-0.047485,down
11026,-2.617188,3.429688,8.53125,-0.255859,-0.390625,0.121094,0.97229,0.175476,0.147217,-0.046936,down
11031,-2.617188,3.429688,8.53125,-0.150391,-0.326172,0.154297,0.972534,0.175049,0.146362,-0.046631,down
11036,-2.425781,2.894531,8.5,-0.080078,-0.277344,0.158203,0.972534,0.175049,0.146362,-0.046631,down
11041,-2.386719,2.664063,8.503906,-0.007813,-0.222656,0.171875,0.972839,0.174683,0.144897,-0.046082,down
11046,-2.347656,2.550781,8.464844,0.087891,-0.173828,0.167969,0.972839,0.174683,0.144897,-0.046082,down
11051,-2.386719,2.550781,8.464844,0.087891,-0.173828,0.167969,0.9729,0.175232,0.14386,-0.045532,down
11056,-2.386719,2.625,8.421875,0.328125,-0.068359,0.130859,0.9729,0.175232,0.14386,-0.045532,down
11061,-2.386719,2.664063,8.421875,0.472656,-0.019531,0.111328,0.9729,0.175232,0.14386,-0.045532,down
11067,-2.386719,2.78125,8.386719,0.621094,0.021484,0.099609,0.972168,0.179871,0.143188,-0.045166,down
11072,-2.539063,2.972656,8.421875,0.621094,0.021484,0.099609,0.971802,0.181824,0.14325,-0.045288,down
11077,-2.578125,3.164063,8.425781,0.917969,0.152344,0.068359,0.971802,0.181824,0.14325,-0.045288,down
11082,-2.617188,3.355469,8.464844,0.917969,0.152344,0.068359,0.971375,0.18396,0.143433,-0.045349,down
11087,-2.769531,3.621094,8.5,0.957031,0.160156,0.060547,0.971375,0.18396,0.143433,-0.045349,down
11092,-2.808594,3.699219,8.503906,0.957031,0.160156,0.060547,0.970337,0.188721,0.143982,-0.045654,down
11097,-2.847656,3.738281,8.464844,0.957031,0.160156,0.060547,0.969788,0.191223,0.144287,-0.045776,down
11103,-2.886719,3.738281,8.503906,0.695312,0.148437,0.085937,0.969788,0.191223,0.144287,-0.045776,down
11108,-2.925781,3.738281,8.535156,0.695312,0.148437,0.085937,0.968628,0.196655,0.14502,-0.045837,down
11113,-2.960938,3.738281,8.570313,0.695312,0.148437,0.085937,0.968384,0.197815,0.145142,-0.045715,down
11118,-3.0,3.738281,8.570313,0.328125,0.056641,0.128906,0.968384,0.197815,0.145142,-0.045715,down
11123,-2.960938,3.621094,8.6875,0.328125,0.056641,0.128906,0.96814,0.198853,0.145203,-0.045532,down
11129,-2.960938,3.507813,8.652344,0.328125,0.056641,0.128906,0.967957,0.200012,0.145142,-0.045105,down
11134,-2.925781,3.46875,8.570313,0.078125,0.003906,0.154297,0.967896,0.200317,0.14502,-0.044739,down
11139,-2.960938,3.429688,8.648438,0.060547,-0.001953,0.150391,0.967896,0.200562,0.144958,-0.044434,down
11145,-2.847656,3.355469,8.652344,0.066406,0.001953,0.134766,0.967896,0.200562,0.144958,-0.044434,down
11151,-2.847656,3.394531,8.574219,0.103516,0.001953,0.125,0.967896,0.200562,0.144958,-0.044434,down
11156,-2.808594,3.355469,8.503906,0.144531,0.013672,0.121094,0.967896,0.200562,0.144958,-0.044434,down
11161,-2.617188,3.316406,8.765625,0.212891,0.017578,0.107422,0.967896,0.200562,0.144958,-0.044434,down
11166,-2.734375,3.238281,8.570313,0.265625,0.0625,0.089844,0.967896,0.200562,0.144958,-0.044434,down
11171,-2.769531,3.203125,8.425781,0.265625,0.0625,0.089844,0.967407,0.203125,0.144836,-0.043213,down
11177,-2.769531,3.203125,8.5,0.359375,0.119141,0.066406,0.967407,0.203125,0.144836,-0.043213,down
11183,-2.769531,3.277344,8.652344,0.359375,0.119141,0.066406,0.966797,0.205688,0.145508,-0.042969,down
11188,-2.808594,3.277344,8.652344,0.455078,0.1875,0.066406,0.966797,0.205688,0.145508,-0.042969,down
11193,-2.808594,3.355469,8.648438,0.455078,0.1875,0.066406,0.966187,0.208069,0.146301,-0.042847,down
11198,-2.808594,3.585938,8.652344,0.455078,0.1875,0.066406,0.96582,0.209229,0.146729,-0.042786,down
11203,-2.925781,3.621094,8.613281,0.455078,0.1875,0.066406,0.965454,0.210571,0.147339,-0.042786,down
11208,-2.925781,3.660156,8.613281,0.548828,0.314453,0.050781,0.965027,0.212036,0.14801,-0.042725,down
11213,-2.960938,3.738281,8.5,0.548828,0.314453,0.050781,0.965027,0.212036,0.14801,-0.042725,down
11218,-2.960938,3.738281,8.5,0.541016,0.347656,0.056641,0.964233,0.214722,0.149414,-0.042603,down
11224,-3.039063,3.777344,8.460938,0.541016,0.347656,0.056641,0.963867,0.216003,0.150146,-0.04248,down
