timestamp,ax,ay,az,gx,gy,gz,qw,qx,qy,qz,label
343996,8.027344,5.707031,0.367188,-0.220703,0.238281,-0.146484,0.260498,0.664978,0.167053,0.679749,down
344002,7.910156,5.746094,0.441406,-0.220703,0.238281,-0.146484,0.261536,0.663757,0.167114,0.680481,down
344007,7.867187,5.78125,0.597656,-0.166016,0.210937,-0.152344,0.262085,0.663208,0.167175,0.680847,down
344013,7.828125,5.898437,0.671875,-0.166016,0.210937,-0.152344,0.262512,0.662659,0.167297,0.681152,down
344018,7.90625,5.859375,0.671875,-0.130859,0.173828,-0.150391,0.262512,0.662659,0.167297,0.681152,down
344023,7.984375,5.820312,0.710937,-0.138672,0.144531,-0.144531,0.263306,0.661804,0.167542,0.681641,down
344029,8.09375,5.78125,0.75,-0.134766,0.119141,-0.138672,0.263306,0.661804,0.167542,0.681641,down
344034,8.175781,5.78125,0.75,-0.126953,0.083984,-0.119141,0.263306,0.661804,0.167542,0.681641,down
344039,8.210938,5.78125,0.789062,-0.132812,0.082031,-0.109375,0.263306,0.661804,0.167542,0.681641,down
344044,8.210938,5.78125,0.789062,-0.123047,0.070312,-0.091797,0.264893,0.660583,0.167725,0.68219,down
344049,8.289063,5.859375,0.863281,-0.123047,0.070312,-0.091797,0.264893,0.660583,0.167725,0.68219,down
344054,8.289063,5.859375,0.863281,-0.142578,0.082031,-0.080078,0.265564,0.660034,0.167603,0.682434,down
344060,8.371094,5.898437,0.941406,-0.142578,0.082031,-0.080078,0.26593,0.659668,0.167542,0.682678,down
344065,8.371094,5.898437,0.941406,-0.173828,0.144531,-0.052734,0.266296,0.659302,0.167419,0.682922,down
344070,8.058594,5.898437,0.863281,-0.173828,0.144531,-0.052734,0.266296,0.659302,0.167419,0.682922,down
344076,8.023438,5.859375,0.902344,-0.158203,0.132812,-0.070312,0.266296,0.659302,0.167419,0.682922,down
344081,7.984375,5.820312,0.902344,-0.158203,0.132812,-0.070312,0.267273,0.658142,0.167175,0.683716,down
344086,7.984375,5.820312,1.019531,-0.146484,0.111328,-0.070312,0.267944,0.657471,0.167053,0.684082,down
344091,8.054688,5.859375,1.054688,-0.146484,0.111328,-0.070312,0.267944,0.657471,0.167053,0.684082,down
344096,8.054688,5.820312,1.019531,-0.132812,0.083984,-0.076172,0.268555,0.656982,0.166931,0.684387,down
344101,8.132813,5.820312,1.054688,-0.132812,0.083984,-0.076172,0.268555,0.656982,0.166931,0.684387,down
344107,8.097656,5.859375,0.980469,-0.091797,0.064453,-0.070312,0.268555,0.656982,0.166931,0.684387,down
344112,8.136719,5.859375,0.941406,-0.091797,0.064453,-0.070312,0.269409,0.656311,0.16687,0.684692,down
344117,8.023438,5.859375,0.902344,-0.091797,0.064453,-0.070312,0.269653,0.656067,0.16687,0.684814,down
344122,7.988281,5.859375,0.863281,-0.091797,0.064453,-0.070312,0.269897,0.655823,0.166931,0.684937,down
344127,7.988281,5.859375,0.863281,-0.095703,0.085937,-0.082031,0.270203,0.655579,0.166931,0.685059,down
344132,7.949219,5.898437,0.941406,-0.103516,0.089844,-0.089844,0.270508,0.655334,0.166992,0.685242,down
344138,7.75,5.859375,1.054688,-0.103516,0.089844,-0.089844,0.270752,0.655029,0.166992,0.685364,down
344143,7.753906,5.820312,1.054688,-0.115234,0.107422,-0.099609,0.271057,0.654724,0.166992,0.685486,down
344149,7.789062,5.746094,1.09375,-0.111328,0.097656,-0.107422,0.271057,0.654724,0.166992,0.685486,down
344155,7.789062,5.746094,1.132813,-0.123047,0.087891,-0.111328,0.271057,0.654724,0.166992,0.685486,down
344160,7.789062,5.78125,1.171875,-0.123047,0.087891,-0.111328,0.271057,0.654724,0.166992,0.685486,down
344165,7.871094,5.78125,1.210938,-0.115234,0.083984,-0.126953,0.271057,0.654724,0.166992,0.685486,down
344170,7.910156,5.78125,1.246094,-0.101563,0.076172,-0.117188,0.271057,0.654724,0.166992,0.685486,down
344176,7.945312,5.707031,1.324219,-0.101563,0.076172,-0.117188,0.271057,0.654724,0.166992,0.685486,down
344181,7.867187,5.746094,1.363281,-0.089844,0.080078,-0.126953,0.271057,0.654724,0.166992,0.685486,down
344186,7.792969,5.78125,1.285156,-0.076172,0.111328,-0.126953,0.271057,0.654724,0.166992,0.685486,down
344191,7.644531,5.78125,1.246094,-0.076172,0.111328,-0.126953,0.27417,0.652283,0.167725,0.686462,down
344196,7.527344,5.78125,1.210938,-0.076172,0.111328,-0.126953,0.274475,0.651978,0.167847,0.686584,down
344201,7.488281,5.78125,1.246094,-0.072266,0.089844,-0.123047,0.274475,0.651978,0.167847,0.686584,down
344207,7.488281,5.746094,1.324219,-0.080078,0.074219,-0.125,0.274475,0.651978,0.167847,0.686584,down
344212,7.566406,5.820312,1.402344,-0.080078,0.074219,-0.125,0.275818,0.651001,0.168335,0.68689,down
344217,7.605469,5.746094,1.476563,-0.101563,0.041016,-0.136719,0.275818,0.651001,0.168335,0.68689,down
344222,7.710937,5.746094,1.476563,-0.101563,0.041016,-0.136719,0.276611,0.650574,0.168457,0.68689,down
344227,7.789062,5.78125,1.515625,-0.101563,0.041016,-0.136719,0.276978,0.650391,0.168518,0.686951,down
344232,7.789062,5.746094,1.59375,-0.101563,0.041016,-0.136719,0.277466,0.650085,0.168579,0.687012,down
344237,7.871094,5.746094,1.554688,-0.154297,0.082031,-0.160156,0.277893,0.649841,0.16864,0.687073,down
344242,7.871094,5.78125,1.59375,-0.154297,0.082031,-0.160156,0.278381,0.649475,0.168701,0.687134,down
344247,7.867187,5.746094,1.59375,-0.154297,0.082031,-0.160156,0.278992,0.649048,0.168701,0.687317,down
344252,7.789062,5.746094,1.667969,-0.25,0.185547,-0.195312,0.279663,0.648499,0.168701,0.687561,down
344257,7.675781,5.820312,1.59375,-0.253906,0.232422,-0.203125,0.280334,0.647888,0.168762,0.687866,down
344262,7.410156,5.820312,1.554688,-0.253906,0.232422,-0.203125,0.280334,0.647888,0.168762,0.687866,down
344267,7.328125,5.859375,1.515625,-0.253906,0.232422,-0.203125,0.281799,0.646423,0.168945,0.688599,down
344272,7.289062,5.820312,1.628906,-0.238281,0.236328,-0.263672,0.281799,0.646423,0.168945,0.688599,down
344277,7.257812,5.859375,1.707031,-0.238281,0.236328,-0.263672,0.283264,0.645081,0.169312,0.689209,down
344282,7.222656,5.898437,1.859375,-0.240234,0.216797,-0.318359,0.283264,0.645081,0.169312,0.689209,down
344287,7.292969,6.011719,2.015625,-0.240234,0.216797,-0.318359,0.284973,0.643677,0.1698,0.689636,down
344292,7.292969,6.011719,2.050781,-0.216797,0.234375,-0.382813,0.284973,0.643677,0.1698,0.689636,down
344297,7.289062,5.9375,2.089844,-0.216797,0.234375,-0.382813,0.285889,0.643005,0.170166,0.689819,down
344302,7.410156,5.9375,2.050781,-0.216797,0.234375,-0.382813,0.287659,0.641602,0.171143,0.690125,down
344307,7.445312,5.898437,2.089844,-0.216797,0.234375,-0.382813,0.287659,0.641602,0.171143,0.690125,down
344312,7.523437,5.9375,2.128906,-0.181641,0.236328,-0.482422,0.289734,0.640076,0.172424,0.690369,down
344317,7.640625,5.859375,2.28125,-0.181641,0.236328,-0.482422,0.290955,0.639221,0.173096,0.690491,down
344322,7.640625,5.820312,2.320313,-0.292969,0.351563,-0.568359,0.290955,0.639221,0.173096,0.690491,down
344327,7.640625,5.78125,2.359375,-0.292969,0.351563,-0.568359,0.292114,0.638245,0.173706,0.690735,down
344332,7.605469,5.667969,2.320313,-0.339844,0.416016,-0.589844,0.294983,0.635742,0.17511,0.691528,down
344338,7.328125,5.4375,2.511719,-0.339844,0.416016,-0.589844,0.296387,0.634338,0.17572,0.692017,down
344343,7.328125,5.4375,2.511719,-0.425781,0.570312,-0.607422,0.297852,0.632812,0.176392,0.692627,down
344348,7.222656,5.324219,2.550781,-0.449219,0.671875,-0.613281,0.299438,0.63092,0.177124,0.69342,down
344353,6.722656,5.246094,2.207031,-0.449219,0.671875,-0.613281,0.300903,0.629089,0.177856,0.694336,down
344359,6.074219,5.09375,1.554688,-0.449219,0.671875,-0.613281,0.302185,0.627136,0.178467,0.695374,down
344364,6.074219,5.09375,1.554688,-0.519531,0.804687,-0.53125,0.30365,0.624939,0.179077,0.696533,down
344369,5.796875,5.207031,1.4375,-0.527344,0.652344,-0.492187,0.30365,0.624939,0.179077,0.696533,down
344375,5.878906,5.476562,1.820313,-0.527344,0.652344,-0.492187,0.306335,0.621521,0.17981,0.698242,down
344380,6.074219,5.554687,2.167969,-0.431641,0.365234,-0.458984,0.306335,0.621521,0.17981,0.698242,down
344386,6.183594,5.707031,2.398438,-0.330078,0.283203,-0.476562,0.306335,0.621521,0.17981,0.698242,down
344392,6.453125,5.972656,2.625,-0.195312,0.242187,-0.507812,0.311157,0.617432,0.181641,0.69928,down
344397,6.566406,6.050781,2.550781,-0.195312,0.242187,-0.507812,0.311157,0.617432,0.181641,0.69928,down
344402,6.566406,6.128906,2.472656,0.226562,0.298828,-0.642578,0.311157,0.617432,0.181641,0.69928,down
344407,6.484375,6.28125,2.050781,0.226562,0.298828,-0.642578,0.312744,0.616089,0.184204,0.699097,down
344412,6.523437,6.28125,2.015625,0.34375,0.267578,-0.738281,0.313416,0.615417,0.186035,0.698914,down
344417,6.484375,6.242187,2.015625,0.34375,0.267578,-0.738281,0.314026,0.614807,0.188049,0.698608,down
344422,6.644531,6.203125,1.976563,0.34375,0.267578,-0.738281,0.314697,0.614319,0.18988,0.698242,down
344427,6.71875,6.164062,2.089844,0.246094,0.119141,-0.800781,0.314697,0.614319,0.18988,0.698242,down
344433,6.722656,6.050781,2.433594,0.246094,0.119141,-0.800781,0.317444,0.613037,0.195312,0.696594,down
344438,6.679687,5.898437,2.398438,0.117188,0.207031,-0.818359,0.318542,0.612488,0.196899,0.696167,down
344443,6.414062,5.628906,2.398438,0.117188,0.207031,-0.818359,0.319641,0.611755,0.198364,0.695862,down
344449,6.378906,5.589844,2.089844,0.117188,0.207031,-0.818359,0.320923,0.610657,0.199951,0.69574,down
344455,6.414062,5.589844,1.898438,-0.152344,0.439453,-0.810547,0.320923,0.610657,0.199951,0.69574,down
344460,6.453125,5.628906,1.859375,-0.236328,0.419922,-0.810547,0.320923,0.610657,0.199951,0.69574,down
344465,6.03125,6.207031,2.050781,-0.236328,0.419922,-0.810547,0.325439,0.606812,0.203674,0.695984,down
344471,5.761719,6.546875,2.128906,-0.322266,0.427734,-0.859375,0.325439,0.606812,0.203674,0.695984,down
344476,5.378906,6.777344,2.050781,-0.291016,0.558594,-0.916016,0.325439,0.606812,0.203674,0.695984,down
344481,4.84375,6.664062,1.898438,-0.222656,0.654297,-0.980469,0.325439,0.606812,0.203674,0.695984,down
344486,4.84375,6.664062,1.898438,-0.113281,0.652344,-1.087891,0.332336,0.600281,0.209229,0.696716,down
344491,4.84375,6.664062,1.898438,0.003906,0.570312,-1.189453,0.334167,0.598511,0.211426,0.696716,down
344496,4.765625,6.851562,1.707031,0.003906,0.570312,-1.189453,0.335876,0.597046,0.213806,0.696411,down
344501,4.574219,7.195312,1.628906,0.003906,0.570312,-1.189453,0.335876,0.597046,0.213806,0.696411,down
344506,4.535156,7.429687,1.820313,0.316406,0.257813,-1.353516,0.335876,0.597046,0.213806,0.696411,down
344511,4.574219,7.394531,2.089844,0.316406,0.257813,-1.353516,0.341187,0.595154,0.222168,0.69281,down
344516,4.613281,7.394531,2.433594,0.646484,-0.521484,-1.457031,0.341187,0.595154,0.222168,0.69281,down
344522,4.726562,7.277344,2.742188,0.646484,-0.521484,-1.457031,0.341187,0.595154,0.222168,0.69281,down
344527,4.804687,7.15625,2.664063,0.787109,-0.943359,-1.4375,0.341187,0.595154,0.222168,0.69281,down
344532,5.265625,6.933594,2.511719,0.787109,-0.943359,-1.4375,0.348694,0.598999,0.233643,0.681946,down
344537,5.339844,6.890625,2.472656,0.787109,-0.943359,-1.4375,0.350586,0.600464,0.236206,0.678772,down
344542,5.417969,6.933594,2.359375,0.333984,-1.117188,-1.255859,0.352356,0.601868,0.23822,0.675903,down
344547,5.417969,6.933594,2.359375,0.333984,-1.117188,-1.255859,0.354675,0.603455,0.240051,0.672668,down
344552,5.800781,7.046875,2.242188,0.064453,-1.125,-1.199219,0.359741,0.605774,0.241882,0.667175,down
344557,5.875,7.125,2.167969,-0.412109,-1.064453,-1.126953,0.359741,0.605774,0.241882,0.667175,down
344562,5.875,7.160156,2.167969,-0.525391,-0.992187,-1.123047,0.363098,0.606689,0.242126,0.664429,down
344567,5.800781,7.15625,2.050781,-0.525391,-0.992187,-1.123047,0.366028,0.607239,0.242126,0.662354,down
344573,5.648437,7.128906,1.859375,-0.525391,-0.992187,-1.123047,0.372498,0.607971,0.242126,0.658081,down
344578,5.492187,7.050781,1.785156,-0.404297,-0.8125,-1.207031,0.375916,0.608215,0.242432,0.655762,down
344584,4.957031,6.96875,1.554688,-0.404297,-0.8125,-1.207031,0.378723,0.608398,0.24292,0.653748,down
344589,4.652344,6.972656,1.476563,-0.138672,-0.738281,-1.285156,0.381531,0.608643,0.243774,0.65155,down
344594,3.960938,6.890625,1.285156,-0.138672,-0.738281,-1.285156,0.384277,0.609009,0.244995,0.64917,down
344599,3.617188,6.746094,1.210938,0.189453,-0.761719,-1.345703,0.384277,0.609009,0.244995,0.64917,down
344605,3.347656,6.746094,1.171875,0.345703,-0.818359,-1.349609,0.384277,0.609009,0.244995,0.64917,down
344610,3.539063,6.816406,1.210938,0.345703,-0.818359,-1.349609,0.391113,0.611084,0.250122,0.641174,down
344616,3.886719,6.8125,1.285156,0.537109,-0.992187,-1.322266,0.391113,0.611084,0.250122,0.641174,down
344621,4.230469,6.96875,1.363281,0.580078,-1.082031,-1.308594,0.391113,0.611084,0.250122,0.641174,down
344626,4.496094,7.128906,1.363281,0.597656,-1.105469,-1.296875,0.396851,0.615051,0.255737,0.631531,down
344632,4.804687,7.390625,1.171875,0.589844,-1.103516,-1.283203,0.398621,0.616516,0.257568,0.628174,down
344637,4.804687,7.390625,1.171875,0.589844,-1.103516,-1.283203,0.398621,0.616516,0.257568,0.628174,down
344642,4.804687,7.472656,1.054688,0.576172,-1.097656,-1.291016,0.398621,0.616516,0.257568,0.628174,down
344647,4.765625,7.507812,0.863281,0.560547,-1.107422,-1.302734,0.404175,0.62085,0.262939,0.618103,down
344652,4.765625,7.507812,0.75,0.560547,-1.107422,-1.302734,0.406128,0.622314,0.264771,0.614563,down
344657,4.6875,7.582031,0.671875,0.560547,-1.107422,-1.302734,0.40802,0.623657,0.266479,0.611206,down
344662,4.496094,7.65625,0.558594,0.486328,-1.083984,-1.376953,0.40802,0.623657,0.266479,0.611206,down
344668,4.304687,7.65625,0.480469,0.439453,-1.066406,-1.408203,0.414368,0.627136,0.271851,0.600952,down
344673,4.191406,7.695312,0.40625,0.384766,-1.003906,-1.462891,0.41687,0.628174,0.273804,0.597168,down
344678,3.847656,7.738281,0.175781,0.384766,-1.003906,-1.462891,0.419128,0.629028,0.275635,0.593933,down
344683,3.617188,7.660156,0.097656,0.330078,-0.894531,-1.492188,0.419128,0.629028,0.275635,0.593933,down
344688,3.425781,7.660156,-0.015625,0.330078,-0.894531,-1.492188,0.423828,0.63031,0.279541,0.587341,down
344693,3.347656,7.660156,-0.132812,0.308594,-0.84375,-1.496094,0.423828,0.63031,0.279541,0.587341,down
344698,3.539063,7.699219,-0.207031,0.308594,-0.84375,-1.496094,0.428162,0.631287,0.283142,0.58136,down
344703,3.730469,7.851562,-0.207031,0.310547,-0.832031,-1.478516,0.428162,0.631287,0.283142,0.58136,down
344708,4.0,8.042969,-0.285156,0.310547,-0.832031,-1.478516,0.432617,0.632202,0.286926,0.575195,down
344713,4.191406,8.15625,-0.285156,0.335938,-0.769531,-1.488281,0.432617,0.632202,0.286926,0.575195,down
344718,4.304687,8.460938,-0.363281,0.335938,-0.769531,-1.488281,0.436951,0.632996,0.290955,0.56897,down
344723,4.34375,8.582031,-0.4375,0.386719,-0.650391,-1.505859,0.439148,0.63324,0.293274,0.565796,down
344728,4.304687,8.734375,-0.589844,0.386719,-0.650391,-1.505859,0.440979,0.633484,0.29541,0.562988,down
344733,4.230469,9.078125,-0.820312,0.472656,-0.548828,-1.548828,0.440979,0.633484,0.29541,0.562988,down
344739,3.921875,9.425781,-0.9375,0.472656,-0.548828,-1.548828,0.444641,0.633728,0.300415,0.557129,down
344744,3.921875,9.425781,-0.9375,0.552734,-0.474609,-1.564453,0.44635,0.633789,0.30304,0.55426,down
344749,3.921875,9.425781,-0.9375,0.568359,-0.445312,-1.587891,0.447998,0.63385,0.305908,0.55127,down
344754,3.539063,9.769531,-1.203125,0.568359,-0.445312,-1.587891,0.447998,0.63385,0.305908,0.55127,down
344759,3.386719,9.921875,-1.28125,0.576172,-0.421875,-1.583984,0.449646,0.633911,0.308655,0.548401,down
344764,3.386719,9.921875,-1.28125,0.541016,-0.384766,-1.560547,0.451172,0.63385,0.311462,0.545593,down
344770,2.542969,10.269531,-1.472656,0.541016,-0.384766,-1.560547,0.45282,0.633667,0.31427,0.542786,down
344775,2.351563,10.335938,-1.585938,0.345703,-0.3125,-1.554688,0.45282,0.633667,0.31427,0.542786,down
344781,2.199219,10.417969,-1.703125,0.273438,-0.316406,-1.533203,0.45282,0.633667,0.31427,0.542786,down
344786,2.238281,10.457031,-1.816406,0.197266,-0.353516,-1.521484,0.45282,0.633667,0.31427,0.542786,down
344792,2.621094,10.648438,-1.742188,0.197266,-0.353516,-1.521484,0.45282,0.633667,0.31427,0.542786,down
344798,2.773438,10.796875,-1.585938,0.052734,-0.554687,-1.490234,0.45282,0.633667,0.31427,0.542786,down
344803,2.964844,10.914063,-1.433594,0.052734,-0.554687,-1.490234,0.466675,0.630554,0.330383,0.524841,down
344808,3.195313,11.21875,-1.28125,0.027344,-0.513672,-1.5,0.469177,0.630066,0.332275,0.521973,down
344813,3.234375,11.296875,-1.28125,0.027344,-0.513672,-1.5,0.471313,0.629578,0.333923,0.519592,down
344818,3.234375,11.339844,-1.203125,-0.009766,-0.457031,-1.478516,0.473938,0.628906,0.335938,0.516724,down
344823,3.273438,11.296875,-1.164063,-0.009766,-0.457031,-1.478516,0.478516,0.627563,0.339417,0.511841,down
344828,3.234375,11.339844,-1.203125,-0.009766,-0.457031,-1.478516,0.480652,0.626892,0.340942,0.509644,down
344833,3.117188,11.21875,-1.011719,-0.095703,-0.4375,-1.431641,0.480652,0.626892,0.340942,0.509644,down
344838,3.042969,11.222656,-1.011719,-0.136719,-0.435547,-1.404297,0.483154,0.626038,0.342712,0.507141,down
344843,2.925781,11.144531,-1.011719,-0.136719,-0.435547,-1.404297,0.487854,0.62439,0.345642,0.502686,down
344848,2.851563,11.140625,-1.011719,-0.136719,-0.435547,-1.404297,0.490173,0.623535,0.346863,0.500549,down
344853,2.582031,11.03125,-0.898437,-0.136719,-0.435547,-1.404297,0.490173,0.623535,0.346863,0.500549,down
344858,2.507813,11.035156,-0.972656,-0.255859,-0.517578,-1.335938,0.495239,0.621826,0.349121,0.496094,down
344863,2.390625,10.914063,-0.9375,-0.255859,-0.517578,-1.335938,0.495239,0.621826,0.349121,0.496094,down
344868,2.3125,10.917969,-0.9375,-0.232422,-0.580078,-1.283203,0.495239,0.621826,0.349121,0.496094,down
344873,2.3125,10.875,-0.859375,-0.232422,-0.580078,-1.283203,0.500488,0.620239,0.351196,0.491394,down
344879,2.351563,10.875,-0.859375,-0.232422,-0.580078,-1.283203,0.505188,0.618958,0.35321,0.486694,down
344884,2.390625,10.917969,-0.78125,-0.232422,-0.580078,-1.283203,0.507202,0.61853,0.354187,0.484497,down
344889,2.390625,10.917969,-0.78125,0.027344,-0.582031,-1.222656,0.507202,0.61853,0.354187,0.484497,down
344894,2.390625,10.878906,-0.78125,0.027344,-0.582031,-1.222656,0.509277,0.618103,0.355347,0.481934,down
344899,2.734375,10.992188,-0.667969,0.099609,-0.578125,-1.201172,0.511169,0.617798,0.356567,0.479492,down
344904,2.734375,10.992188,-0.667969,0.099609,-0.578125,-1.201172,0.511169,0.617798,0.356567,0.479492,down
344910,2.660156,11.21875,-0.554687,0.236328,-0.591797,-1.142578,0.51593,0.617554,0.360352,0.471741,down
344915,2.542969,11.414063,-0.515625,0.363281,-0.617187,-1.070313,0.51593,0.617554,0.360352,0.471741,down
344920,2.390625,11.527344,-0.589844,0.410156,-0.634766,-1.039063,0.51593,0.617554,0.360352,0.471741,down
344926,2.351563,11.523438,-0.667969,0.447266,-0.669922,-0.992187,0.51593,0.617554,0.360352,0.471741,down
344931,2.238281,11.605469,-0.707031,0.443359,-0.708984,-0.957031,0.51593,0.617554,0.360352,0.471741,down
344937,2.121094,11.644531,-0.859375,0.443359,-0.708984,-0.957031,0.51593,0.617554,0.360352,0.471741,down
344942,2.007813,11.644531,-0.898437,0.412109,-0.806641,-0.869141,0.51593,0.617554,0.360352,0.471741,down
344947,2.007813,11.601563,-0.898437,0.361328,-0.851562,-0.832031,0.51593,0.617554,0.360352,0.471741,down
344952,1.96875,11.566406,-0.972656,0.361328,-0.851562,-0.832031,0.525269,0.621338,0.368408,0.449768,down
344958,1.96875,11.496094,-1.011719,0.361328,-0.851562,-0.832031,0.527832,0.62262,0.368896,0.44458,down
344963,2.007813,11.457031,-1.011719,0.361328,-0.851562,-0.832031,0.527832,0.62262,0.368896,0.44458,down
344968,2.160156,11.457031,-1.128906,0.162109,-0.960937,-0.708984,0.527832,0.62262,0.368896,0.44458,down
344973,2.160156,11.457031,-1.128906,0.111328,-0.939453,-0.673828,0.530701,0.62384,0.368958,0.439392,down
344978,2.351563,11.457031,-1.128906,0.111328,-0.939453,-0.673828,0.532227,0.624451,0.368896,0.436768,down
344983,2.46875,11.453125,-1.203125,0.111328,-0.939453,-0.673828,0.53363,0.625,0.368774,0.434326,down
344988,2.582031,11.527344,-1.164063,0.101563,-0.914062,-0.634766,0.53363,0.625,0.368774,0.434326,down
344993,2.582031,11.640625,-1.128906,0.101563,-0.914062,-0.634766,0.536255,0.626038,0.368591,0.429687,down
344998,2.582031,11.644531,-1.164063,0.25,-0.822266,-0.583984,0.537598,0.626648,0.368591,0.427124,down
345003,2.542969,11.71875,-1.242188,0.25,-0.822266,-0.583984,0.538635,0.627258,0.368652,0.424866,down
345008,2.542969,11.71875,-1.242188,0.351563,-0.792969,-0.548828,0.539612,0.62793,0.368713,0.422607,down
345013,2.3125,11.910156,-1.394531,0.351563,-0.792969,-0.548828,0.540344,0.628601,0.368896,0.420471,down
345019,2.238281,11.910156,-1.433594,0.390625,-0.802734,-0.539062,0.541809,0.630432,0.369263,0.415588,down
345024,2.238281,12.023438,-1.355469,0.427734,-0.806641,-0.494141,0.542358,0.631287,0.369385,0.41333,down
345030,2.046875,12.066406,-1.703125,0.427734,-0.806641,-0.494141,0.542908,0.632202,0.369507,0.411133,down
345035,2.085938,12.0625,-1.703125,0.410156,-0.878906,-0.431641,0.542908,0.632202,0.369507,0.411133,down
345040,2.085938,12.0625,-1.625,0.351563,-0.908203,-0.410156,0.542908,0.632202,0.369507,0.411133,down
345046,2.085938,12.027344,-1.664063,0.351563,-0.908203,-0.410156,0.544861,0.635254,0.36908,0.404114,down
345051,2.085938,11.945313,-1.664063,0.207031,-0.900391,-0.345703,0.545715,0.636169,0.368652,0.401917,down
345056,2.085938,11.945313,-1.664063,0.138672,-0.888672,-0.310547,0.545715,0.636169,0.368652,0.401917,down
345062,2.121094,11.71875,-1.742188,0.138672,-0.888672,-0.310547,0.54657,0.637024,0.368164,0.399902,down
345067,2.121094,11.71875,-1.742188,-0.017578,-0.876953,-0.25,0.548645,0.638367,0.36676,0.39624,down
345072,2.277344,11.144531,-1.742188,-0.017578,-0.876953,-0.25,0.548645,0.638367,0.36676,0.39624,down
345078,2.351563,10.835938,-1.664063,-0.146484,-0.835937,-0.185547,0.548645,0.638367,0.36676,0.39624,down
345083,2.429688,10.722656,-1.664063,-0.175781,-0.783203,-0.160156,0.552124,0.639832,0.363892,0.391602,down
345088,2.429688,10.613281,-1.664063,-0.175781,-0.783203,-0.160156,0.553284,0.640198,0.362915,0.39032,down
345094,2.429688,10.496094,-1.625,-0.162109,-0.755859,-0.146484,0.555481,0.64093,0.360962,0.387695,down
345099,2.429688,10.308594,-1.585938,-0.162109,-0.755859,-0.146484,0.556519,0.641357,0.360046,0.386353,down
345104,2.390625,10.226563,-1.585938,-0.162109,-0.755859,-0.146484,0.557251,0.641724,0.359375,0.385315,down
345109,2.429688,10.113281,-1.625,-0.015625,-0.611328,-0.128906,0.557251,0.641724,0.359375,0.385315,down
345114,2.351563,10.03125,-1.585938,-0.015625,-0.611328,-0.128906,0.558655,0.642639,0.358093,0.382996,down
345119,2.3125,10.03125,-1.550781,-0.015625,-0.611328,-0.128906,0.559265,0.643066,0.357544,0.381958,down
345124,2.277344,9.953125,-1.550781,0.019531,-0.515625,-0.136719,0.559814,0.643433,0.356995,0.38092,down
345130,2.238281,9.921875,-1.585938,0.019531,-0.515625,-0.136719,0.560364,0.643799,0.356567,0.379883,down
345135,2.199219,9.925781,-1.585938,0.019531,-0.515625,-0.136719,0.560974,0.644104,0.35614,0.378906,down
345140,2.121094,9.953125,-1.585938,0.019531,-0.515625,-0.136719,0.561584,0.644348,0.355713,0.377991,down
345146,2.046875,9.996094,-1.625,-0.091797,-0.445312,-0.173828,0.562256,0.644531,0.355286,0.377075,down
345151,2.007813,10.03125,-1.550781,-0.140625,-0.439453,-0.189453,0.562256,0.644531,0.355286,0.377075,down
345156,1.96875,10.070313,-1.511719,-0.214844,-0.419922,-0.208984,0.562256,0.644531,0.355286,0.377075,down
345162,1.929688,10.070313,-1.550781,-0.271484,-0.408203,-0.212891,0.562256,0.644531,0.355286,0.377075,down
345167,1.894531,10.074219,-1.585938,-0.332031,-0.394531,-0.230469,0.562256,0.644531,0.355286,0.377075,down
345172,1.855469,10.035156,-1.550781,-0.410156,-0.380859,-0.244141,0.562256,0.644531,0.355286,0.377075,down
345177,1.816406,9.953125,-1.511719,-0.410156,-0.380859,-0.244141,0.568298,0.643311,0.352417,0.372803,down
345182,1.777344,9.992188,-1.550781,-0.492187,-0.355469,-0.261719,0.568298,0.643311,0.352417,0.372803,down
345188,1.625,10.03125,-1.625,-0.515625,-0.330078,-0.257813,0.568298,0.643311,0.352417,0.372803,down
345193,1.546875,10.070313,-1.585938,-0.515625,-0.330078,-0.257813,0.572388,0.641357,0.350891,0.371399,down
345199,1.511719,10.070313,-1.550781,-0.535156,-0.269531,-0.263672,0.572388,0.641357,0.350891,0.371399,down
345204,1.433594,10.113281,-1.511719,-0.535156,-0.269531,-0.263672,0.576416,0.639099,0.349487,0.370361,down
345209,1.355469,10.152344,-1.433594,-0.535156,-0.269531,-0.263672,0.577576,0.638428,0.349121,0.370056,down
345214,1.242188,10.148438,-1.394531,-0.398438,-0.1875,-0.255859,0.577576,0.638428,0.349121,0.370056,down
345219,1.203125,10.1875,-1.320313,-0.345703,-0.146484,-0.244141,0.578796,0.637695,0.348877,0.36969,down
345224,1.164063,10.191406,-1.242188,-0.345703,-0.146484,-0.244141,0.580566,0.636536,0.348572,0.369141,down
345229,1.125,10.230469,-1.242188,-0.345703,-0.146484,-0.244141,0.581299,0.635986,0.348511,0.368958,down
345234,0.972656,10.308594,-1.203125,-0.234375,-0.044922,-0.197266,0.581299,0.635986,0.348511,0.368958,down
345239,0.933594,10.265625,-1.050781,-0.234375,-0.044922,-0.197266,0.58197,0.635498,0.348572,0.368774,down
345245,0.933594,10.265625,-1.050781,-0.203125,0.025391,-0.166016,0.583008,0.634583,0.348694,0.368591,down
345250,0.898437,10.308594,-0.972656,-0.195312,0.064453,-0.150391,0.583435,0.634033,0.348877,0.368591,down
345255,0.859375,10.226563,-0.972656,-0.189453,0.082031,-0.136719,0.583862,0.633545,0.34906,0.368713,down
345261,0.820312,10.191406,-0.746094,-0.189453,0.082031,-0.136719,0.584106,0.633118,0.349182,0.368835,down
345266,0.859375,10.113281,-0.707031,-0.183594,0.146484,-0.115234,0.584412,0.632629,0.349426,0.369019,down
345271,0.78125,10.070313,-0.628906,-0.162109,0.15625,-0.087891,0.584412,0.632629,0.349426,0.369019,down
345276,0.820312,9.992188,-0.628906,-0.138672,0.173828,-0.078125,0.584412,0.632629,0.349426,0.369019,down
345281,0.707031,9.992188,-0.589844,-0.138672,0.173828,-0.078125,0.584412,0.632629,0.349426,0.369019,down
345286,0.707031,9.996094,-0.554687,-0.087891,0.212891,-0.050781,0.584412,0.632629,0.349426,0.369019,down
345293,0.707031,9.992188,-0.476562,-0.060547,0.222656,-0.042969,0.584412,0.632629,0.349426,0.369019,down
345299,0.628906,9.992188,-0.4375,-0.060547,0.222656,-0.042969,0.584717,0.629883,0.351501,0.371216,down
345304,0.589844,9.992188,-0.476562,0.03125,0.214844,-0.021484,0.584717,0.629883,0.351501,0.371216,down
345309,0.628906,9.992188,-0.476562,0.03125,0.214844,-0.021484,0.584473,0.629639,0.351929,0.371582,down
345314,0.707031,9.953125,-0.363281,0.048828,0.201172,-0.015625,0.584473,0.629639,0.351929,0.371582,down
345319,0.707031,9.992188,-0.363281,0.048828,0.201172,-0.015625,0.58374,0.629272,0.353088,0.372314,down
345324,0.742187,10.03125,-0.398438,0.076172,0.175781,-0.009766,0.58374,0.629272,0.353088,0.372314,down
345329,0.859375,10.230469,-0.324219,0.076172,0.175781,-0.009766,0.583496,0.629211,0.353394,0.372498,down
345335,0.859375,10.230469,-0.324219,0.052734,0.179687,0.007813,0.582947,0.629028,0.354065,0.372925,down
345340,0.898437,10.339844,-0.363281,0.039063,0.183594,0.011719,0.582703,0.628967,0.354431,0.37323,down
345345,0.933594,10.457031,-0.363281,0.039063,0.183594,0.011719,0.582458,0.628845,0.354675,0.373535,down
345350,0.933594,10.457031,-0.363281,0.039063,0.183594,0.011719,0.582275,0.628662,0.354919,0.37384,down
345356,0.972656,10.535156,-0.398438,0.039063,0.183594,0.011719,0.582092,0.628479,0.355103,0.374268,down
345361,1.011719,10.613281,-0.398438,-0.0625,0.193359,0.070312,0.582092,0.628479,0.355103,0.374268,down
345367,1.011719,10.691406,-0.363281,-0.066406,0.193359,0.099609,0.582092,0.628479,0.355103,0.374268,down
345373,1.050781,10.722656,-0.363281,-0.074219,0.201172,0.123047,0.582092,0.628479,0.355103,0.374268,down
345378,1.011719,10.757813,-0.363281,-0.080078,0.21875,0.146484,0.582092,0.628479,0.355103,0.374268,down
345384,1.050781,10.691406,-0.324219,-0.117188,0.244141,0.191406,0.582092,0.628479,0.355103,0.374268,down
345390,1.011719,10.6875,-0.324219,-0.128906,0.261719,0.214844,0.580994,0.627197,0.355408,0.377808,down
345395,1.089844,10.648438,-0.246094,-0.128906,0.261719,0.214844,0.580505,0.626648,0.355286,0.379578,down
345400,1.050781,10.652344,-0.246094,-0.119141,0.298828,0.244141,0.5802,0.626404,0.355225,0.380554,down
345406,1.125,10.6875,-0.246094,-0.119141,0.298828,0.244141,0.579895,0.62616,0.355225,0.381348,down
345411,1.242188,10.796875,-0.167969,-0.119141,0.298828,0.244141,0.579529,0.625977,0.355164,0.382324,down
345416,1.28125,10.839844,-0.09375,-0.078125,0.324219,0.291016,0.579529,0.625977,0.355164,0.382324,down
345421,1.355469,10.878906,-0.015625,-0.078125,0.324219,0.291016,0.578613,0.62561,0.355103,0.384399,down
345427,1.394531,10.917969,-0.09375,-0.078125,0.324219,0.291016,0.578064,0.625488,0.355042,0.385376,down
345432,1.433594,10.914063,-0.054687,-0.011719,0.392578,0.34375,0.578064,0.625488,0.355042,0.385376,down
345437,1.511719,10.917969,-0.015625,0.0,0.398438,0.361328,0.578064,0.625488,0.355042,0.385376,down
345442,1.664063,10.992188,-0.054687,0.0,0.398438,0.361328,0.578064,0.625488,0.355042,0.385376,down
345447,1.738281,11.03125,-0.054687,-0.007813,0.439453,0.40625,0.578064,0.625488,0.355042,0.385376,down
345452,1.855469,11.144531,-0.167969,-0.005859,0.476562,0.417969,0.578064,0.625488,0.355042,0.385376,down
345458,1.894531,11.222656,-0.207031,-0.005859,0.476562,0.417969,0.573608,0.624878,0.355225,0.392822,down
345463,1.894531,11.457031,-0.285156,-0.005859,0.476562,0.417969,0.573608,0.624878,0.355225,0.392822,down
345468,1.929688,11.527344,-0.285156,0.003906,0.570312,0.488281,0.573608,0.624878,0.355225,0.392822,down
345473,1.929688,11.644531,-0.246094,-0.003906,0.603516,0.498047,0.573608,0.624878,0.355225,0.392822,down
345478,1.96875,11.757813,-0.324219,-0.003906,0.603516,0.498047,0.569641,0.624268,0.35553,0.39917,down
345484,1.96875,11.800781,-0.398438,-0.023437,0.65625,0.525391,0.569641,0.624268,0.35553,0.39917,down
345489,2.007813,11.839844,-0.4375,-0.089844,0.710937,0.548828,0.569641,0.624268,0.35553,0.39917,down
345495,2.121094,11.875,-0.515625,-0.130859,0.742187,0.578125,0.566406,0.623474,0.355835,0.404724,down
345500,2.160156,11.90625,-0.476562,-0.130859,0.742187,0.578125,0.564209,0.622559,0.355896,0.409119,down
345506,2.238281,11.910156,-0.515625,-0.130859,0.742187,0.578125,0.563293,0.622009,0.355896,0.411255,down
345511,2.199219,11.910156,-0.476562,-0.277344,0.878906,0.630859,0.563293,0.622009,0.355896,0.411255,down
345516,2.238281,11.90625,-0.476562,-0.277344,0.878906,0.630859,0.563293,0.622009,0.355896,0.411255,down
345521,2.277344,11.878906,-0.4375,-0.345703,0.972656,0.650391,0.563293,0.622009,0.355896,0.411255,down
345526,2.277344,11.878906,-0.4375,-0.373047,1.011719,0.685547,0.559204,0.618652,0.355896,0.421692,down
345531,2.277344,11.839844,-0.4375,-0.373047,1.011719,0.685547,0.559204,0.618652,0.355896,0.421692,down
345536,2.277344,11.839844,-0.4375,-0.382813,1.0625,0.708984,0.558167,0.617676,0.355896,0.424622,down
345541,2.351563,11.839844,-0.4375,-0.382813,1.0625,0.708984,0.556946,0.616638,0.355896,0.427734,down
345547,2.351563,11.878906,-0.476562,-0.314453,1.246094,0.849609,0.55426,0.614502,0.355896,0.434143,down
345552,2.660156,11.945313,-0.515625,-0.246094,1.306641,0.904297,0.55426,0.614502,0.355896,0.434143,down
345557,2.773438,11.945313,-0.476562,-0.1875,1.367188,0.955078,0.55426,0.614502,0.355896,0.434143,down
345562,2.851563,11.949219,-0.4375,-0.166016,1.423828,1.009766,0.55426,0.614502,0.355896,0.434143,down
345567,2.890625,11.90625,-0.398438,-0.158203,1.472656,1.050781,0.55426,0.614502,0.355896,0.434143,down
345573,2.964844,11.945313,-0.398438,-0.158203,1.472656,1.050781,0.55426,0.614502,0.355896,0.434143,down
345579,2.964844,11.878906,-0.363281,-0.158203,1.472656,1.050781,0.541321,0.608582,0.357361,0.457031,down
345585,2.964844,11.90625,-0.4375,-0.154297,1.628906,1.121094,0.541321,0.608582,0.357361,0.457031,down
345590,2.964844,11.910156,-0.324219,-0.154297,1.628906,1.121094,0.534058,0.605469,0.358337,0.468811,down
345595,3.003906,11.90625,-0.207031,-0.193359,1.724609,1.097656,0.53125,0.604126,0.358765,0.473389,down
345600,3.082031,11.878906,-0.246094,-0.193359,1.724609,1.097656,0.53125,0.604126,0.358765,0.473389,down
345605,3.117188,11.835938,-0.285156,-0.193359,1.724609,1.097656,0.528625,0.602661,0.359192,0.477844,down
345610,3.195313,11.796875,-0.246094,-0.292969,1.816406,1.064453,0.523926,0.599548,0.360046,0.486206,down
345615,3.273438,11.800781,-0.246094,-0.384766,1.810547,1.054688,0.521362,0.597656,0.360474,0.490967,down
345620,3.386719,11.839844,-0.132812,-0.384766,1.810547,1.054688,0.519043,0.595886,0.360779,0.495361,down
345625,3.464844,11.796875,-0.132812,-0.384766,1.810547,1.054688,0.516846,0.593994,0.361023,0.499634,down
345630,3.539063,11.71875,-0.132812,-0.515625,1.867188,1.041016,0.516846,0.593994,0.361023,0.499634,down
345635,3.617188,11.601563,-0.132812,-0.556641,1.878906,1.046875,0.514404,0.591858,0.361328,0.504517,down
345640,3.695313,11.457031,0.023437,-0.556641,1.878906,1.046875,0.51001,0.587585,0.361694,0.513672,down
345645,3.769531,11.414063,0.058594,-0.556641,1.878906,1.046875,0.507874,0.585388,0.361755,0.518127,down
345650,3.769531,11.414063,0.058594,-0.628906,1.925781,1.097656,0.507874,0.585388,0.361755,0.518127,down
345655,3.730469,11.339844,0.058594,-0.628906,1.925781,1.097656,0.505432,0.582886,0.361816,0.523254,down
345661,3.617188,11.300781,0.058594,-0.628906,1.925781,1.097656,0.501099,0.578247,0.361816,0.532593,down
345666,3.617188,11.300781,0.058594,-0.628906,1.925781,1.097656,0.501099,0.578247,0.361816,0.532593,down
345671,3.617188,11.296875,0.097656,-0.695312,1.978516,1.15625,0.496338,0.573242,0.361572,0.54248,down
345676,3.730469,11.296875,0.175781,-0.695312,1.978516,1.15625,0.496338,0.573242,0.361572,0.54248,down
345681,3.730469,11.296875,0.175781,-0.695312,1.978516,1.15625,0.496338,0.573242,0.361572,0.54248,down
345686,3.769531,11.257813,0.289063,-0.724609,1.978516,1.181641,0.489075,0.565735,0.360962,0.55719,down
345692,3.808594,11.261719,0.441406,-0.724609,1.978516,1.181641,0.489075,0.565735,0.360962,0.55719,down
345697,3.808594,11.222656,0.597656,-0.765625,2.027344,1.146484,0.489075,0.565735,0.360962,0.55719,down
345703,3.886719,11.21875,0.671875,-0.791016,2.0625,1.107422,0.489075,0.565735,0.360962,0.55719,down
345709,3.921875,11.144531,0.671875,-0.826172,2.115234,1.0625,0.479492,0.554443,0.360107,0.577026,down
345715,3.960938,10.914063,0.75,-0.902344,2.173828,1.023438,0.475037,0.547791,0.359863,0.587097,down
345720,4.0,10.875,0.75,-1.074219,2.226563,0.96875,0.475037,0.547791,0.359863,0.587097,down
345725,4.0,10.875,0.828125,-1.074219,2.226563,0.96875,0.471069,0.540405,0.359375,0.597412,down
345730,4.0,10.835938,0.902344,-1.074219,2.226563,0.96875,0.469238,0.53656,0.358948,0.602539,down
345735,3.960938,10.613281,1.054688,-1.275391,2.210938,0.910156,0.469238,0.53656,0.358948,0.602539,down
345740,4.039062,10.574219,1.132813,-1.275391,2.210938,0.910156,0.467346,0.532227,0.358459,0.608154,down
345745,3.960938,10.492188,1.210938,-1.363281,2.181641,0.875,0.467346,0.532227,0.358459,0.608154,down
345750,3.847656,10.339844,1.246094,-1.363281,2.181641,0.875,0.464233,0.52417,0.357178,0.618164,down
345755,3.847656,10.339844,1.246094,-1.371094,2.146484,0.853516,0.462708,0.520081,0.356445,0.623169,down
345760,3.769531,10.335938,1.363281,-1.371094,2.146484,0.853516,0.461243,0.51593,0.355713,0.628113,down
345765,3.769531,10.191406,1.628906,-1.390625,2.056641,0.820312,0.459839,0.511719,0.354858,0.633057,down
345770,3.769531,10.191406,1.628906,-1.390625,2.021484,0.796875,0.458557,0.507629,0.353943,0.637756,down
345776,3.730469,9.996094,1.707031,-1.390625,2.021484,0.796875,0.455933,0.499329,0.352234,0.647095,down
345781,3.769531,9.921875,1.707031,-1.390625,2.021484,0.796875,0.454773,0.495239,0.351318,0.65155,down
345786,3.847656,9.691406,1.898438,-1.390625,2.021484,0.796875,0.453613,0.49115,0.350403,0.655945,down
345792,3.960938,9.460938,1.859375,-1.390625,2.021484,0.796875,0.452393,0.486816,0.349487,0.660461,down
345797,4.039062,9.34375,1.898438,-1.421875,1.990234,0.65625,0.452393,0.486816,0.349487,0.660461,down
345803,4.152344,9.117188,2.015625,-1.464844,2.019531,0.648437,0.452393,0.486816,0.349487,0.660461,down
345808,4.152344,8.960938,2.015625,-1.488281,2.066406,0.642578,0.452393,0.486816,0.349487,0.660461,down
345813,4.191406,8.886719,2.050781,-1.490234,2.126953,0.636719,0.452393,0.486816,0.349487,0.660461,down
345819,4.191406,8.699219,2.089844,-1.490234,2.126953,0.636719,0.446594,0.46405,0.345032,0.6828,down
345825,4.113281,8.460938,2.28125,-1.472656,2.324219,0.644531,0.446594,0.46405,0.345032,0.6828,down
345830,4.113281,8.460938,2.28125,-1.472656,2.324219,0.644531,0.443909,0.454224,0.343506,0.691833,down
345835,4.039062,8.347656,2.320313,-1.435547,2.423828,0.636719,0.443909,0.454224,0.343506,0.691833,down
345840,4.039062,8.347656,2.320313,-1.388672,2.505859,0.636719,0.440674,0.443604,0.342407,0.701233,down
345845,3.808594,7.964844,2.433594,-1.388672,2.505859,0.636719,0.440674,0.443604,0.342407,0.701233,down
345850,3.730469,7.816406,2.550781,-1.253906,2.619141,0.630859,0.434814,0.427185,0.342041,0.715149,down
345855,3.425781,7.550781,2.742188,-1.253906,2.619141,0.630859,0.434814,0.427185,0.342041,0.715149,down
345860,3.308594,7.507812,2.742188,-1.253906,2.619141,0.630859,0.430115,0.415466,0.342834,0.724426,down
345865,3.308594,7.46875,2.78125,-1.253906,2.619141,0.630859,0.430115,0.415466,0.342834,0.724426,down
345870,3.273438,7.394531,2.78125,-0.976562,2.855469,0.501953,0.430115,0.415466,0.342834,0.724426,down
345875,3.273438,7.351562,2.894531,-0.904297,2.904297,0.453125,0.430115,0.415466,0.342834,0.724426,down
345880,3.273438,7.273437,2.855469,-0.796875,2.955078,0.322266,0.423096,0.398315,0.345398,0.736938,down
345885,3.386719,7.355469,2.933594,-0.796875,2.955078,0.322266,0.418274,0.38623,0.348022,0.744812,down
345890,3.347656,7.394531,3.046875,-0.796875,2.955078,0.322266,0.418274,0.38623,0.348022,0.744812,down
345895,3.347656,7.617187,3.203125,-0.796875,2.955078,0.322266,0.41571,0.379395,0.349487,0.749084,down
345900,3.15625,7.816406,3.316406,-0.814453,3.083984,0.164062,0.413574,0.373535,0.35083,0.752563,down
345905,2.964844,7.855469,3.507813,-0.814453,3.083984,0.164062,0.411011,0.366333,0.352478,0.756714,down
345910,2.964844,7.855469,3.507813,-0.814453,3.083984,0.164062,0.408875,0.360352,0.353821,0.760132,down
345915,2.582031,8.042969,3.777344,-0.814453,3.083984,0.164062,0.408875,0.360352,0.353821,0.760132,down
345920,2.46875,8.039063,3.890625,-0.830078,3.080078,0.140625,0.408875,0.360352,0.353821,0.760132,down
345926,2.46875,8.039063,3.890625,-0.939453,3.001953,0.146484,0.400024,0.333984,0.358765,0.774414,down
345932,2.046875,7.964844,4.003906,-0.939453,3.001953,0.146484,0.397827,0.327209,0.359497,0.778076,down
345937,1.96875,7.929687,4.003906,-1.179688,2.828125,0.203125,0.395813,0.32074,0.359985,0.781555,down
345942,1.96875,7.855469,4.042969,-1.222656,2.751953,0.21875,0.395813,0.32074,0.359985,0.781555,down
345947,1.96875,7.734375,4.003906,-1.257813,2.675781,0.248047,0.391846,0.3078,0.360229,0.788635,down
345954,1.96875,7.511719,4.003906,-1.257813,2.675781,0.248047,0.391846,0.3078,0.360229,0.788635,down
345960,1.929688,7.394531,4.003906,-1.296875,2.529297,0.320313,0.391846,0.3078,0.360229,0.788635,down
345965,1.929688,7.277344,3.851563,-1.277344,2.492188,0.349609,0.391846,0.3078,0.360229,0.788635,down
345970,1.816406,7.277344,3.777344,-1.277344,2.492188,0.349609,0.38385,0.283813,0.35907,0.802002,down
345976,1.738281,7.355469,3.777344,-1.130859,2.394531,0.412109,0.379211,0.272217,0.358521,0.808411,down
345981,1.546875,7.511719,3.890625,-1.130859,2.394531,0.412109,0.37677,0.266968,0.358459,0.81134,down
345986,1.394531,7.621094,3.929688,-1.130859,2.394531,0.412109,0.37677,0.266968,0.358459,0.81134,down
346006,1.203125,8.160156,4.003906,-0.240234,1.935547,0.464844,0.366943,0.249695,0.360657,0.820312,down
346012,0.78125,8.460938,4.234375,-0.162109,1.867188,0.474609,0.361755,0.242554,0.362793,0.823853,down
346017,0.667969,8.5,4.160156,-0.162109,1.867188,0.474609,0.359192,0.239258,0.36377,0.8255,down
346023,0.515625,8.503906,4.195312,-0.162109,1.867188,0.474609,0.356628,0.236145,0.364563,0.827148,down
346029,0.359375,8.542969,4.082031,-0.337891,1.580078,0.595703,0.356628,0.236145,0.364563,0.827148,down
346034,0.207031,8.539063,4.003906,-0.455078,1.521484,0.630859,0.356628,0.236145,0.364563,0.827148,down
346040,0.015625,8.421875,4.082031,-0.576172,1.449219,0.658203,0.356628,0.236145,0.364563,0.827148,down
346045,-0.097656,8.386719,4.121094,-0.675781,1.367188,0.673828,0.356628,0.236145,0.364563,0.827148,down
346050,-0.214844,8.3125,4.121094,-0.841797,1.279297,0.652344,0.356628,0.236145,0.364563,0.827148,down
346055,-0.289063,8.160156,4.234375,-0.841797,1.279297,0.652344,0.342407,0.218628,0.363037,0.838562,down
346060,-0.367188,8.160156,4.234375,-0.841797,1.279297,0.652344,0.340332,0.215637,0.361877,0.840637,down
346066,-0.445312,8.121094,4.3125,-0.945312,1.21875,0.535156,0.340332,0.215637,0.361877,0.840637,down
346071,-0.445312,8.078125,4.425781,-0.960937,1.193359,0.46875,0.335205,0.206787,0.358093,0.846558,down
346077,-0.328125,7.890625,4.734375,-0.960937,1.193359,0.46875,0.333984,0.204102,0.356934,0.848206,down
346082,-0.289063,7.777344,4.847656,-0.988281,1.15625,0.289063,0.333984,0.204102,0.356934,0.848206,down
346087,-0.289063,7.851562,4.847656,-1.025391,1.142578,0.236328,0.333984,0.204102,0.356934,0.848206,down
346093,-0.328125,7.890625,5.0,-1.025391,1.142578,0.236328,0.330627,0.195007,0.352905,0.853271,down
346100,-0.328125,7.65625,5.117187,-1.111328,0.976562,0.242187,0.330627,0.195007,0.352905,0.853271,down
346105,-0.328125,7.511719,5.039062,-1.195313,0.876953,0.275391,0.330627,0.195007,0.352905,0.853271,down
346110,-0.328125,7.511719,5.039062,-1.273438,0.775391,0.330078,0.328064,0.18689,0.347412,0.858337,down
346115,-0.445312,7.394531,5.039062,-1.273438,0.775391,0.330078,0.328064,0.18689,0.347412,0.858337,down
346120,-0.480469,7.355469,5.230469,-1.423828,0.496094,0.482422,0.328064,0.18689,0.347412,0.858337,down
346125,-0.480469,7.355469,5.230469,-1.460938,0.376953,0.550781,0.328064,0.18689,0.347412,0.858337,down
346131,-0.480469,6.546875,5.191406,-1.460938,0.376953,0.550781,0.32373,0.178345,0.332764,0.867554,down
346136,-0.480469,6.320312,5.230469,-1.425781,0.152344,0.724609,0.32373,0.178345,0.332764,0.867554,down
346141,-0.445312,5.941406,5.308594,-1.337891,0.115234,0.736328,0.322571,0.177246,0.329163,0.869568,down
346146,-0.289063,5.589844,5.308594,-1.337891,0.115234,0.736328,0.320313,0.175842,0.322998,0.872986,down
346151,-0.175781,5.515625,5.421875,-1.337891,0.115234,0.736328,0.319275,0.175293,0.320374,0.874512,down
346156,-0.0625,5.707031,5.886719,-0.939453,0.070312,0.650391,0.319275,0.175293,0.320374,0.874512,down
346161,-0.023437,5.820312,5.996094,-0.818359,0.072266,0.599609,0.318054,0.174866,0.317749,0.875977,down
346166,-0.023437,5.746094,6.070312,-0.818359,0.072266,0.599609,0.316101,0.174255,0.313904,0.878174,down
346171,-0.097656,5.820312,6.148437,-0.818359,0.072266,0.599609,0.316101,0.174255,0.313904,0.878174,down
346176,-0.136719,5.898437,6.1875,-0.585937,0.0625,0.484375,0.31427,0.173828,0.310852,0.880005,down
346181,-0.136719,6.433594,6.535156,-0.486328,-0.087891,0.425781,0.31427,0.173828,0.310852,0.880005,down
346187,-0.136719,6.433594,6.535156,-0.486328,-0.087891,0.425781,0.312866,0.174133,0.308228,0.881348,down
346192,-0.253906,6.742187,6.996094,-0.486328,-0.087891,0.425781,0.312378,0.174805,0.306702,0.881897,down
346197,-0.253906,6.742187,6.996094,-0.578125,-0.576172,0.484375,0.31189,0.175964,0.304749,0.882568,down
346203,-0.40625,6.585937,6.914062,-0.578125,-0.576172,0.484375,0.311584,0.177185,0.302734,0.883118,down
346209,-0.367188,6.703125,6.914062,-0.929687,-0.921875,0.619141,0.311218,0.178894,0.299805,0.88385,down
346214,-0.367188,6.664062,6.914062,-1.126953,-1.083984,0.671875,0.311218,0.178894,0.299805,0.88385,down
346219,-0.40625,6.433594,6.992187,-1.126953,-1.083984,0.671875,0.310852,0.1828,0.292786,0.885559,down
346224,-0.253906,5.972656,6.875,-1.126953,-1.083984,0.671875,0.310852,0.1828,0.292786,0.885559,down
346229,-0.214844,5.9375,6.800781,-1.509766,-1.445313,0.671875,0.310852,0.1828,0.292786,0.885559,down
346235,-0.175781,5.78125,6.800781,-1.509766,-1.445313,0.671875,0.31134,0.190125,0.27887,0.888367,down
346240,-0.023437,5.171875,6.914062,-1.509766,-1.445313,0.671875,0.311768,0.19281,0.273865,0.88916,down
346245,0.128906,4.976562,6.957031,-1.509766,-1.445313,0.671875,0.312317,0.195618,0.268921,0.889893,down
346250,0.128906,4.976562,6.957031,-1.433594,-1.712891,0.503906,0.312988,0.198669,0.263977,0.890442,down
346255,0.207031,4.863281,7.035156,-1.34375,-1.744141,0.470703,0.312988,0.198669,0.263977,0.890442,down
346260,0.550781,4.785156,7.183594,-1.34375,-1.744141,0.470703,0.312988,0.198669,0.263977,0.890442,down
346266,0.550781,4.785156,7.183594,-1.222656,-1.769531,0.439453,0.315186,0.208313,0.25061,0.891296,down
346271,0.820312,5.171875,7.5625,-0.976562,-1.822266,0.421875,0.316589,0.215515,0.242859,0.891235,down
346276,0.859375,5.09375,7.757812,-0.976562,-1.822266,0.421875,0.317261,0.219849,0.23877,0.891052,down
346281,0.78125,5.171875,7.839844,-0.976562,-1.822266,0.421875,0.317261,0.219849,0.23877,0.891052,down
346286,0.78125,5.398437,7.957031,-0.6875,-2.041016,0.566406,0.317261,0.219849,0.23877,0.891052,down
346291,0.859375,5.898437,8.101563,-0.712891,-2.171875,0.623047,0.318054,0.227539,0.2323,0.890564,down
346296,0.898437,6.050781,8.21875,-0.712891,-2.171875,0.623047,0.318298,0.231995,0.22876,0.890259,down
346301,0.859375,6.050781,8.21875,-0.865234,-2.423828,0.732422,0.318604,0.237244,0.224548,0.889832,down
346306,0.898437,6.089844,8.066406,-0.865234,-2.423828,0.732422,0.318787,0.242187,0.220459,0.889404,down
346311,1.203125,6.320312,7.601562,-0.865234,-2.423828,0.732422,0.319275,0.252441,0.211426,0.888611,down
346316,1.355469,6.164062,7.453125,-0.865234,-2.423828,0.732422,0.319275,0.252441,0.211426,0.888611,down
346321,1.546875,5.78125,7.414062,-1.484375,-2.871094,0.859375,0.319275,0.252441,0.211426,0.888611,down
346326,1.777344,5.246094,7.414062,-1.484375,-2.871094,0.859375,0.320618,0.269287,0.193604,0.887268,down
346331,2.007813,4.480469,7.605469,-1.484375,-2.871094,0.859375,0.320618,0.269287,0.193604,0.887268,down
346336,2.007813,4.480469,7.605469,-1.759766,-3.103516,0.945312,0.321167,0.275024,0.186829,0.886719,down
346341,2.121094,4.210937,7.71875,-1.759766,-3.103516,0.945312,0.321655,0.280945,0.179871,0.886169,down
346346,2.277344,3.828125,7.71875,-1.734375,-3.183594,0.992187,0.321655,0.280945,0.179871,0.886169,down
346351,2.277344,3.828125,7.71875,-1.619141,-3.216797,1.005859,0.32251,0.293213,0.165588,0.884644,down
346357,2.890625,2.988281,7.800781,-1.429688,-3.304688,1.017578,0.322754,0.307251,0.151672,0.882263,down
346362,3.117188,3.0625,7.953125,-1.429688,-3.304688,1.017578,0.322754,0.313538,0.146484,0.880981,down
346367,3.617188,3.253906,8.296875,-1.429688,-3.304688,1.017578,0.32251,0.322083,0.140503,0.878906,down
346372,3.886719,3.371094,8.183594,-0.191406,-3.605469,0.857422,0.322205,0.328735,0.136719,0.877197,down
346377,4.152344,3.484375,8.144531,-0.191406,-3.605469,0.857422,0.321594,0.337097,0.132996,0.874817,down
346382,4.726562,3.753906,7.835937,-0.191406,-3.605469,0.857422,0.320801,0.345642,0.130005,0.872192,down
346388,4.996094,4.289062,7.296875,-0.191406,-3.605469,0.857422,0.319824,0.353882,0.127808,0.869568,down
346393,5.109375,4.402344,6.914062,0.833984,-3.345703,0.703125,0.319824,0.353882,0.127808,0.869568,down
346398,5.1875,4.480469,6.453125,0.857422,-3.246094,0.707031,0.319824,0.353882,0.127808,0.869568,down
346404,5.53125,4.519531,5.582031,0.857422,-3.246094,0.707031,0.31604,0.37793,0.12323,0.86145,down
346409,5.53125,4.519531,5.582031,0.515625,-3.03125,0.826172,0.31604,0.37793,0.12323,0.86145,down
346415,5.722656,4.519531,5.382812,0.515625,-3.03125,0.826172,0.314697,0.385193,0.12146,0.858948,down
346420,6.339844,4.289062,5.382812,0.515625,-3.03125,0.826172,0.314697,0.385193,0.12146,0.858948,down
346425,6.339844,4.289062,5.382812,-0.193359,-2.746094,1.009766,0.311035,0.404114,0.111938,0.852905,down
346430,6.871094,3.90625,5.804687,-0.193359,-2.746094,1.009766,0.311035,0.404114,0.111938,0.852905,down
346435,6.988281,3.292969,6.035156,-0.917969,-1.955078,1.238281,0.311035,0.404114,0.111938,0.852905,down
346440,7.0625,3.101563,6.1875,-0.976562,-1.767578,1.289063,0.311035,0.404114,0.111938,0.852905,down
346445,7.140625,2.910156,6.265625,-0.976562,-1.767578,1.289063,0.306091,0.419922,0.093445,0.849304,down
346451,7.140625,2.757813,6.265625,-0.539062,-1.417969,1.259766,0.306091,0.419922,0.093445,0.849304,down
346456,7.21875,2.449219,6.304687,-0.539062,-1.417969,1.259766,0.300964,0.428589,0.082031,0.847961,down
346461,7.222656,2.410156,6.265625,-0.539062,-1.417969,1.259766,0.300964,0.428589,0.082031,0.847961,down
346466,7.183594,2.449219,6.265625,0.482422,-1.375,1.097656,0.300964,0.428589,0.082031,0.847961,down
346471,6.984375,2.640625,6.1875,0.482422,-1.375,1.097656,0.296265,0.43512,0.077942,0.846619,down
346476,6.871094,2.757813,6.035156,0.482422,-1.375,1.097656,0.293457,0.438904,0.077026,0.845764,down
346482,6.71875,2.871094,5.996094,1.027344,-1.458984,1.005859,0.293457,0.438904,0.077026,0.845764,down
346487,6.605469,3.023438,5.996094,1.027344,-1.458984,1.005859,0.284546,0.450745,0.076538,0.84259,down
346492,6.605469,3.179688,5.960937,1.027344,-1.458984,1.005859,0.281799,0.454651,0.076477,0.841431,down
346497,6.761719,3.675781,5.882812,0.964844,-1.642578,1.023438,0.278564,0.45929,0.076294,0.840027,down
346502,6.910156,3.945313,5.769531,0.8125,-1.642578,1.015625,0.275757,0.463501,0.075867,0.838684,down
346508,7.183594,4.019531,5.691406,0.8125,-1.642578,1.015625,0.273254,0.467468,0.075073,0.837341,down
346513,7.75,3.828125,5.578125,0.8125,-1.642578,1.015625,0.273254,0.467468,0.075073,0.837341,down
346518,7.75,3.828125,5.578125,0.439453,-1.607422,0.992187,0.270874,0.471375,0.073914,0.83606,down
346524,7.75,3.828125,5.578125,0.439453,-1.607422,0.992187,0.266602,0.478516,0.070801,0.833618,down
346529,8.097656,3.40625,5.078125,0.089844,-1.314453,0.910156,0.264709,0.481567,0.069092,0.832581,down
346534,8.25,3.214844,5.117187,0.089844,-1.314453,0.910156,0.264709,0.481567,0.069092,0.832581,down
346539,8.132813,3.140625,5.191406,0.005859,-1.150391,0.859375,0.264709,0.481567,0.069092,0.832581,down
346545,7.949219,2.988281,5.230469,0.011719,-1.078125,0.826172,0.264709,0.481567,0.069092,0.832581,down
346551,7.644531,2.949219,5.191406,0.011719,-1.078125,0.826172,0.256531,0.494324,0.060608,0.828308,down
346556,7.527344,3.0625,5.117187,0.011719,-1.078125,0.826172,0.256531,0.494324,0.060608,0.828308,down
346561,7.179687,2.949219,5.382812,0.234375,-1.109375,0.808594,0.256531,0.494324,0.060608,0.828308,down
346566,7.105469,2.949219,5.5,0.234375,-1.109375,0.808594,0.25293,0.499512,0.058105,0.826538,down
346571,7.0625,2.988281,5.613281,0.654297,-1.419922,0.902344,0.250732,0.502747,0.057068,0.825317,down
346576,7.101562,3.0625,5.613281,0.654297,-1.419922,0.902344,0.248535,0.50592,0.056335,0.824097,down
346581,7.371094,3.332031,5.382812,0.792969,-1.457031,0.949219,0.248535,0.50592,0.056335,0.824097,down
346586,7.484375,3.484375,5.269531,0.792969,-1.457031,0.949219,0.243042,0.513123,0.055359,0.82135,down
346591,7.527344,3.636719,5.078125,0.945312,-1.431641,1.025391,0.243042,0.513123,0.055359,0.82135,down
346597,7.828125,3.789063,4.925781,0.964844,-1.445313,1.060547,0.243042,0.513123,0.055359,0.82135,down
346602,7.949219,3.867188,4.65625,0.964844,-1.445313,1.060547,0.230103,0.528198,0.053772,0.815552,down
346607,7.984375,3.867188,4.425781,0.964844,-1.445313,1.060547,0.2276,0.53125,0.052917,0.814392,down
346612,7.984375,3.867188,4.234375,0.345703,-1.419922,1.066406,0.2276,0.53125,0.052917,0.814392,down
346617,8.136719,3.5625,4.082031,0.150391,-1.404297,1.037109,0.224731,0.53479,0.051514,0.812927,down
346622,8.171875,3.253906,4.042969,0.150391,-1.404297,1.037109,0.22052,0.540894,0.047791,0.810242,down
346627,8.214844,3.023438,3.929688,0.150391,-1.404297,1.037109,0.22052,0.540894,0.047791,0.810242,down
346632,8.214844,3.023438,3.929688,-0.173828,-1.306641,0.960937,0.218933,0.543396,0.045715,0.809143,down
346637,8.171875,2.71875,4.082031,-0.255859,-1.287109,0.925781,0.218933,0.543396,0.045715,0.809143,down
346642,7.90625,2.105469,4.390625,-0.306641,-1.271484,0.894531,0.216187,0.548584,0.04071,0.806641,down
346647,7.90625,2.105469,4.390625,-0.285156,-1.304688,0.880859,0.216187,0.548584,0.04071,0.806641,down
346652,7.90625,2.105469,4.390625,-0.003906,-1.414063,0.878906,0.213623,0.553711,0.035889,0.804016,down
346657,7.90625,2.105469,4.390625,-0.003906,-1.414063,0.878906,0.210266,0.55957,0.031982,0.801025,down
346662,8.097656,1.300781,4.160156,-0.003906,-1.414063,0.878906,0.210266,0.55957,0.031982,0.801025,down
346667,8.132813,1.453125,3.890625,0.806641,-1.359375,0.822266,0.210266,0.55957,0.031982,0.801025,down
346672,8.480469,1.835938,3.46875,0.806641,-1.359375,0.822266,0.205627,0.565735,0.030273,0.797974,down
346677,8.632813,2.027344,3.316406,1.154297,-1.384766,0.722656,0.202881,0.56897,0.030212,0.796387,down
346682,8.714844,2.257813,3.125,1.154297,-1.384766,0.722656,0.196716,0.575928,0.031372,0.792847,down
346687,8.671875,2.375,2.78125,1.294922,-1.300781,0.59375,0.196716,0.575928,0.031372,0.792847,down
346692,8.632813,2.527344,2.472656,1.294922,-1.300781,0.59375,0.190979,0.582275,0.033386,0.789551,down
346697,8.597656,2.679688,2.472656,1.294922,-1.300781,0.59375,0.190979,0.582275,0.033386,0.789551,down
346702,8.519531,2.71875,2.472656,1.041016,-1.25,0.476562,0.190979,0.582275,0.033386,0.789551,down
346707,8.40625,2.757813,2.472656,0.847656,-1.257813,0.503906,0.185791,0.588501,0.035339,0.786072,down
346713,8.132813,2.21875,2.816406,0.699219,-1.279297,0.548828,0.183533,0.591492,0.035889,0.784302,down
346718,8.214844,1.992188,3.007813,0.699219,-1.279297,0.548828,0.179321,0.597473,0.03595,0.780762,down
346723,8.136719,1.800781,3.085938,0.699219,-1.279297,0.548828,0.177307,0.600342,0.035645,0.779053,down
346728,8.214844,1.722656,2.855469,0.699219,-1.279297,0.548828,0.175537,0.602722,0.035339,0.777649,down
346733,8.480469,1.609375,2.78125,0.654297,-1.177734,0.625,0.173218,0.605652,0.035034,0.775879,down
346738,8.753906,1.53125,2.742188,0.734375,-1.134766,0.564453,0.171143,0.608215,0.034973,0.774353,down
346743,9.132813,1.378906,2.742188,0.734375,-1.134766,0.564453,0.169006,0.61084,0.035339,0.772705,down
346748,9.242188,1.414063,2.742188,0.734375,-1.134766,0.564453,0.169006,0.61084,0.035339,0.772705,down
346753,9.242188,1.414063,2.742188,1.033203,-1.074219,0.306641,0.167175,0.613037,0.036011,0.771301,down
346758,9.28125,1.414063,2.664063,1.201172,-1.048828,0.148437,0.167175,0.613037,0.036011,0.771301,down
346763,9.480469,1.644531,2.28125,1.345703,-1.039063,-0.023437,0.163086,0.618164,0.039307,0.767944,down
346768,9.480469,1.644531,2.28125,1.449219,-1.021484,-0.171875,0.161255,0.620667,0.041687,0.766174,down
346773,9.480469,1.644531,2.28125,1.449219,-1.021484,-0.171875,0.158081,0.62561,0.047424,0.762451,down
346779,9.246094,2.410156,1.667969,1.449219,-1.021484,-0.171875,0.156799,0.62793,0.050293,0.76062,down
346784,9.324219,1.992188,1.859375,1.449219,-1.021484,-0.171875,0.155823,0.630127,0.05304,0.75885,down
346790,9.015625,2.488281,2.242188,0.998047,-0.798828,-0.460937,0.155823,0.630127,0.05304,0.75885,down
346796,8.898438,2.910156,2.28125,1.15625,-0.792969,-0.451172,0.155823,0.630127,0.05304,0.75885,down
346802,8.792969,2.488281,2.625,1.15625,-0.792969,-0.451172,0.155823,0.630127,0.05304,0.75885,down
346807,8.753906,2.527344,2.625,1.097656,-0.923828,-0.384766,0.155823,0.630127,0.05304,0.75885,down
346812,8.792969,2.566406,2.511719,0.996094,-0.972656,-0.3125,0.15094,0.642334,0.067017,0.748413,down
346817,8.859375,2.566406,2.320313,0.996094,-0.972656,-0.3125,0.150146,0.644348,0.068481,0.746704,down
346822,9.171875,2.679688,2.167969,0.996094,-0.972656,-0.3125,0.150146,0.644348,0.068481,0.746704,down
346827,9.320313,2.71875,2.089844,1.025391,-1.056641,-0.164062,0.150146,0.644348,0.068481,0.746704,down
346832,9.480469,2.757813,1.859375,1.132813,-1.054688,-0.148437,0.146423,0.651367,0.074097,0.740784,down
346837,9.941406,3.023438,1.476563,1.132813,-1.054688,-0.148437,0.146423,0.651367,0.074097,0.740784,down
346842,10.089844,3.0625,1.402344,1.279297,-0.974609,-0.183594,0.144775,0.65387,0.076416,0.738708,down
346847,10.246094,3.0625,1.363281,1.279297,-0.974609,-0.183594,0.143188,0.656189,0.078735,0.736694,down
346852,10.285156,3.0625,1.09375,1.279297,-0.974609,-0.183594,0.141724,0.658203,0.080933,0.734924,down
346858,10.28125,3.023438,1.019531,1.167969,-0.726562,-0.255859,0.141724,0.658203,0.080933,0.734924,down
346863,10.320313,2.949219,0.980469,1.167969,-0.726562,-0.255859,0.137634,0.663635,0.087952,0.730042,down
346868,10.167969,2.910156,1.019531,0.964844,-0.625,-0.275391,0.136536,0.665161,0.090088,0.728577,down
346873,9.664063,2.640625,1.132813,0.964844,-0.625,-0.275391,0.136536,0.665161,0.090088,0.728577,down
346878,9.664063,2.640625,1.132813,0.867187,-0.607422,-0.271484,0.135742,0.666382,0.091858,0.727356,down
346883,9.359375,2.375,1.171875,0.867187,-0.607422,-0.271484,0.134949,0.667725,0.093567,0.726074,down
346888,9.171875,2.335938,0.941406,0.810547,-0.640625,-0.210937,0.134155,0.669067,0.095215,0.724731,down
346893,9.171875,2.335938,0.941406,0.861328,-0.675781,-0.197266,0.133301,0.670532,0.096863,0.723328,down
346899,9.324219,2.832031,0.597656,0.925781,-0.728516,-0.169922,0.131226,0.673645,0.100281,0.720337,down
346905,9.519531,2.910156,0.519531,1.0625,-0.824219,-0.203125,0.131226,0.673645,0.100281,0.720337,down
346911,9.632813,2.832031,0.519531,1.0625,-0.824219,-0.203125,0.131226,0.673645,0.100281,0.720337,down
346917,9.746094,2.757813,0.558594,1.216797,-0.849609,-0.320313,0.131226,0.673645,0.100281,0.720337,down
346922,9.785156,2.757813,0.367188,1.306641,-0.773437,-0.398438,0.124939,0.682495,0.112122,0.711365,down
346927,9.820313,2.71875,0.25,1.306641,-0.773437,-0.398438,0.124939,0.682495,0.112122,0.711365,down
346933,9.902344,2.871094,0.289063,1.402344,-0.671875,-0.587891,0.123718,0.684021,0.115234,0.709595,down
346938,9.863281,2.871094,0.175781,1.330078,-0.623047,-0.619141,0.122437,0.685608,0.118652,0.707703,down
346943,9.820313,2.988281,0.058594,1.330078,-0.623047,-0.619141,0.120483,0.688293,0.125,0.704346,down
346948,9.824219,3.101563,-0.015625,1.330078,-0.623047,-0.619141,0.120483,0.688293,0.125,0.704346,down
346953,9.824219,3.140625,-0.09375,1.082031,-0.550781,-0.634766,0.120483,0.688293,0.125,0.704346,down
346958,9.667969,3.214844,-0.167969,1.082031,-0.550781,-0.634766,0.118469,0.691772,0.133789,0.699646,down
346963,9.558594,3.214844,-0.207031,1.082031,-0.550781,-0.634766,0.118042,0.692627,0.13623,0.698425,down
346968,9.320313,3.292969,-0.167969,1.082031,-0.550781,-0.634766,0.117615,0.69342,0.138855,0.697144,down
346973,9.246094,3.371094,-0.167969,0.929687,-0.371094,-0.613281,0.117615,0.69342,0.138855,0.697144,down
346978,9.09375,3.636719,-0.09375,0.929687,-0.371094,-0.613281,0.117188,0.694275,0.141663,0.695862,down
346984,8.828125,3.636719,0.175781,0.929687,-0.371094,-0.613281,0.116577,0.695557,0.146362,0.693726,down
346990,8.859375,3.523438,0.367188,0.796875,-0.363281,-0.634766,0.116394,0.696167,0.148743,0.692627,down
346996,8.898438,3.40625,0.328125,0.777344,-0.369141,-0.630859,0.116394,0.696167,0.148743,0.692627,down
347002,9.015625,3.484375,0.367188,0.777344,-0.369141,-0.630859,0.116394,0.696167,0.148743,0.692627,down
347007,9.210938,3.636719,0.175781,0.761719,-0.382813,-0.617187,0.116394,0.696167,0.148743,0.692627,down
347013,9.324219,3.90625,-0.167969,0.712891,-0.351563,-0.601562,0.116394,0.696167,0.148743,0.692627,down
347018,9.320313,4.097656,-0.09375,0.712891,-0.351563,-0.601562,0.116028,0.699829,0.16217,0.685913,down
347023,9.242188,4.441406,-0.015625,0.416016,-0.34375,-0.484375,0.116028,0.699829,0.16217,0.685913,down
347028,9.09375,4.558594,0.097656,0.416016,-0.34375,-0.484375,0.116211,0.700317,0.163757,0.684998,down
347033,9.019531,4.210937,-0.054687,0.277344,-0.314453,-0.441406,0.116516,0.700806,0.165039,0.684204,down
347038,8.75,4.097656,0.058594,0.136719,-0.302734,-0.396484,0.117004,0.701172,0.165894,0.683472,down
347043,8.75,4.097656,0.058594,0.136719,-0.302734,-0.396484,0.117004,0.701172,0.165894,0.683472,down
347048,8.632813,3.984375,0.214844,-0.158203,-0.302734,-0.373047,0.117004,0.701172,0.165894,0.683472,down
347053,8.632813,3.984375,0.214844,-0.277344,-0.322266,-0.371094,0.119751,0.702209,0.167175,0.681641,down
347058,8.023438,3.675781,0.597656,-0.277344,-0.322266,-0.371094,0.122681,0.702881,0.167053,0.680481,down
347063,7.984375,3.523438,0.828125,-0.453125,-0.433594,-0.412109,0.122681,0.702881,0.167053,0.680481,down
347068,7.949219,3.371094,0.980469,-0.453125,-0.433594,-0.412109,0.125977,0.703735,0.166748,0.679016,down
347073,7.90625,3.484375,0.710937,-0.453125,-0.433594,-0.412109,0.127808,0.704285,0.166748,0.678101,down
347078,7.984375,3.597656,0.441406,-0.25,-0.53125,-0.501953,0.127808,0.704285,0.166748,0.678101,down
347083,8.132813,3.753906,0.328125,-0.25,-0.53125,-0.501953,0.130859,0.705505,0.167297,0.676147,down
347088,8.445313,3.90625,0.058594,-0.25,-0.53125,-0.501953,0.130859,0.705505,0.167297,0.676147,down
347093,8.371094,3.945313,-0.054687,-0.25,-0.53125,-0.501953,0.133972,0.706787,0.168213,0.67395,down
347098,8.332031,4.058594,-0.167969,-0.25,-0.53125,-0.501953,0.133972,0.706787,0.168213,0.67395,down
347103,8.292969,4.019531,-0.167969,-0.224609,-0.529297,-0.619141,0.137268,0.707886,0.169189,0.671875,down
347108,8.367188,4.136719,-0.09375,-0.224609,-0.529297,-0.619141,0.139221,0.708313,0.169617,0.670898,down
347113,8.171875,4.097656,-0.015625,-0.224609,-0.529297,-0.619141,0.141479,0.70874,0.169861,0.669922,down
347118,7.828125,4.058594,0.023437,-0.224609,-0.529297,-0.619141,0.141479,0.70874,0.169861,0.669922,down
347123,7.449219,3.753906,0.136719,-0.677734,-0.464844,-0.685547,0.141479,0.70874,0.169861,0.669922,down
347128,7.257812,3.597656,0.289063,-0.677734,-0.464844,-0.685547,0.149231,0.709595,0.16925,0.667542,down
347133,7.21875,3.5625,0.519531,-0.914062,-0.652344,-0.634766,0.149231,0.709595,0.16925,0.667542,down
347138,7.292969,3.636719,0.367188,-0.884766,-0.699219,-0.609375,0.152466,0.710022,0.168579,0.666443,down
347143,7.714844,4.019531,0.097656,-0.884766,-0.699219,-0.609375,0.15802,0.711121,0.167297,0.664307,down
347148,7.984375,4.210937,0.058594,-0.791016,-0.792969,-0.589844,0.15802,0.711121,0.167297,0.664307,down
347153,8.292969,4.402344,-0.09375,-0.791016,-0.792969,-0.589844,0.163513,0.712585,0.166138,0.661743,down
347158,8.941406,4.785156,-0.628906,-0.681641,-0.6875,-0.59375,0.163513,0.712585,0.166138,0.661743,down
347163,8.941406,4.785156,-0.628906,-0.681641,-0.6875,-0.59375,0.168518,0.713867,0.165405,0.659302,down
347168,9.019531,5.285156,-0.78125,-0.681641,-0.6875,-0.59375,0.168518,0.713867,0.165405,0.659302,down
347173,9.019531,5.398437,-0.707031,-0.710937,-0.486328,-0.554687,0.168518,0.713867,0.165405,0.659302,down
347179,8.863281,5.628906,-0.515625,-0.710937,-0.486328,-0.554687,0.175781,0.714844,0.164307,0.656555,down
347185,8.675781,5.476562,-0.398438,-0.710937,-0.486328,-0.554687,0.17865,0.714844,0.163391,0.656006,down
347190,8.480469,5.476562,-0.363281,-1.175781,-0.294922,-0.412109,0.181091,0.714722,0.162354,0.655762,down
347195,8.175781,5.515625,-0.246094,-1.175781,-0.294922,-0.412109,0.184387,0.714478,0.160767,0.655518,down
347200,7.867187,5.515625,0.136719,-1.175781,-0.294922,-0.412109,0.184387,0.714478,0.160767,0.655518,down
347205,7.871094,5.324219,0.25,-1.408203,-0.388672,-0.332031,0.184387,0.714478,0.160767,0.655518,down
347210,7.984375,5.132812,0.25,-1.404297,-0.451172,-0.357422,0.184387,0.714478,0.160767,0.655518,down
347216,8.371094,5.015625,0.136719,-1.404297,-0.451172,-0.357422,0.184387,0.714478,0.160767,0.655518,down
347222,8.597656,5.015625,-0.054687,-1.404297,-0.451172,-0.357422,0.200134,0.713928,0.151978,0.653625,down
347228,8.828125,5.015625,-0.285156,-0.851562,-0.646484,-0.578125,0.200134,0.713928,0.151978,0.653625,down
347233,8.828125,5.015625,-0.285156,-0.851562,-0.646484,-0.578125,0.205994,0.714478,0.149719,0.651672,down
347238,9.398438,4.976562,-0.4375,-0.851562,-0.646484,-0.578125,0.205994,0.714478,0.149719,0.651672,down
347243,9.636719,5.09375,-0.4375,-0.576172,-0.640625,-0.726562,0.205994,0.714478,0.149719,0.651672,down
347248,9.636719,5.09375,-0.4375,-0.447266,-0.580078,-0.800781,0.213562,0.71582,0.149231,0.647888,down
347254,9.597656,5.707031,-0.746094,-0.447266,-0.580078,-0.800781,0.217957,0.716431,0.150574,0.645386,down
347259,9.402344,5.972656,-0.78125,-0.255859,-0.353516,-0.884766,0.220215,0.716614,0.15155,0.644226,down
347265,8.863281,6.433594,-0.707031,-0.255859,-0.353516,-0.884766,0.222107,0.716675,0.152466,0.643311,down
347270,8.558594,6.585937,-0.707031,-0.265625,-0.294922,-0.855469,0.222107,0.716675,0.152466,0.643311,down
347277,8.09375,6.664062,-0.746094,-0.265625,-0.294922,-0.855469,0.222107,0.716675,0.152466,0.643311,down
347283,7.945312,6.585937,-0.746094,-0.521484,-0.320313,-0.712891,0.222107,0.716675,0.152466,0.643311,down
347288,7.910156,6.433594,-0.820312,-0.521484,-0.320313,-0.712891,0.230286,0.716492,0.155273,0.639893,down
347294,7.949219,6.28125,-0.898437,-0.6875,-0.412109,-0.595703,0.230286,0.716492,0.155273,0.639893,down
347299,8.214844,6.089844,-1.011719,-0.6875,-0.412109,-0.595703,0.237488,0.716492,0.154846,0.63739,down
347304,8.410156,6.050781,-1.164063,-0.6875,-0.412109,-0.595703,0.239624,0.716614,0.154419,0.636597,down
347309,8.75,5.972656,-1.203125,-0.6875,-0.412109,-0.595703,0.242371,0.716797,0.153687,0.635498,down
347315,9.09375,5.859375,-1.011719,-0.6875,-0.412109,-0.595703,0.244507,0.71698,0.153137,0.634644,down
347320,9.09375,5.898437,-0.9375,-0.744141,-0.527344,-0.529297,0.244507,0.71698,0.153137,0.634644,down
347326,8.976563,5.859375,-0.9375,-0.744141,-0.527344,-0.529297,0.249329,0.717285,0.151978,0.632629,down
347331,8.898438,5.78125,-0.898437,-0.669922,-0.455078,-0.574219,0.251587,0.717407,0.151611,0.631714,down
347337,8.792969,5.78125,-0.78125,-0.640625,-0.443359,-0.589844,0.251587,0.717407,0.151611,0.631714,down
347342,8.515625,5.898437,-0.515625,-0.640625,-0.443359,-0.589844,0.251587,0.717407,0.151611,0.631714,down
347347,8.328125,5.972656,-0.554687,-0.640625,-0.443359,-0.589844,0.258301,0.71759,0.151001,0.628906,down
347352,8.175781,5.972656,-0.554687,-0.544922,-0.425781,-0.650391,0.258301,0.71759,0.151001,0.628906,down
347357,8.027344,6.011719,-0.4375,-0.533203,-0.435547,-0.662109,0.258301,0.71759,0.151001,0.628906,down
347362,7.671875,5.898437,-0.285156,-0.533203,-0.435547,-0.662109,0.258301,0.71759,0.151001,0.628906,down
347367,7.5625,5.78125,-0.246094,-0.533203,-0.435547,-0.662109,0.267151,0.717957,0.151123,0.624817,down
347372,7.566406,5.707031,-0.363281,-0.523437,-0.488281,-0.65625,0.267151,0.717957,0.151123,0.624817,down
347377,7.5625,5.707031,-0.515625,-0.523437,-0.488281,-0.65625,0.271545,0.718262,0.151184,0.622559,down
347382,7.484375,5.820312,-0.589844,-0.523437,-0.488281,-0.65625,0.271545,0.718262,0.151184,0.622559,down
347387,7.449219,5.78125,-0.554687,-0.523437,-0.488281,-0.65625,0.275818,0.718567,0.151123,0.6203,down
347392,7.332031,5.707031,-0.554687,-0.628906,-0.521484,-0.638672,0.275818,0.718567,0.151123,0.6203,down
347397,7.410156,5.4375,-0.515625,-0.628906,-0.521484,-0.638672,0.280518,0.718811,0.150757,0.617981,down
347402,7.449219,5.324219,-0.515625,-0.667969,-0.505859,-0.660156,0.280518,0.718811,0.150757,0.617981,down
347407,7.371094,5.246094,-0.554687,-0.642578,-0.496094,-0.677734,0.280518,0.718811,0.150757,0.617981,down
347412,7.410156,5.324219,-0.707031,-0.617187,-0.507812,-0.689453,0.280518,0.718811,0.150757,0.617981,down
347417,7.527344,5.398437,-0.628906,-0.617187,-0.507812,-0.689453,0.280518,0.718811,0.150757,0.617981,down
347423,7.484375,5.4375,-0.476562,-0.617187,-0.507812,-0.689453,0.29248,0.719238,0.150146,0.612061,down
347428,7.40625,5.476562,-0.4375,-0.509766,-0.519531,-0.773437,0.29248,0.719238,0.150146,0.612061,down
347433,7.289062,5.515625,-0.398438,-0.509766,-0.519531,-0.773437,0.297241,0.719421,0.150391,0.609497,down
347438,7.183594,5.515625,-0.363281,-0.435547,-0.554687,-0.789062,0.299438,0.719604,0.150635,0.608154,down
347443,7.183594,5.515625,-0.363281,-0.373047,-0.568359,-0.808594,0.299438,0.719604,0.150635,0.608154,down
347449,7.21875,5.476562,-0.398438,-0.373047,-0.568359,-0.808594,0.301575,0.719849,0.151062,0.606689,down
347454,7.21875,5.476562,-0.398438,-0.291016,-0.626953,-0.841797,0.305786,0.72052,0.1521,0.603516,down
347459,7.140625,5.78125,-0.398438,-0.291016,-0.626953,-0.841797,0.310181,0.721375,0.153381,0.599915,down
347464,7.183594,5.859375,-0.476562,-0.291016,-0.626953,-0.841797,0.312073,0.721741,0.15387,0.598389,down
347469,7.328125,5.9375,-0.628906,-0.34375,-0.658203,-0.894531,0.31427,0.722107,0.15448,0.596619,down
347475,7.371094,6.128906,-0.859375,-0.34375,-0.658203,-0.894531,0.316833,0.722473,0.15509,0.594604,down
347480,7.371094,6.242187,-0.972656,-0.419922,-0.673828,-0.892578,0.319153,0.722839,0.155579,0.592834,down
347486,7.292969,6.433594,-0.9375,-0.419922,-0.673828,-0.892578,0.321228,0.723083,0.155945,0.591309,down
347491,7.21875,6.625,-0.9375,-0.419922,-0.673828,-0.892578,0.323608,0.723328,0.156311,0.5896,down
347497,7.144531,6.585937,-0.9375,-0.505859,-0.654297,-0.849609,0.323608,0.723328,0.156311,0.5896,down
347502,7.144531,6.742187,-0.972656,-0.544922,-0.652344,-0.826172,0.323608,0.723328,0.156311,0.5896,down
347507,7.144531,6.855469,-0.898437,-0.544922,-0.652344,-0.826172,0.330933,0.723938,0.15686,0.584595,down
347513,7.222656,6.742187,-0.859375,-0.638672,-0.6875,-0.792969,0.330933,0.723938,0.15686,0.584595,down
347519,7.289062,6.742187,-0.859375,-0.664062,-0.693359,-0.785156,0.338806,0.724426,0.156616,0.57959,down
347524,7.410156,6.703125,-0.820312,-0.664062,-0.693359,-0.785156,0.34137,0.724548,0.156494,0.577881,down
347529,7.484375,6.703125,-0.859375,-0.664062,-0.693359,-0.785156,0.34137,0.724548,0.156494,0.577881,down
347534,7.527344,6.777344,-0.820312,-0.566406,-0.710937,-0.832031,0.34137,0.724548,0.156494,0.577881,down
347539,7.605469,6.96875,-0.898437,-0.566406,-0.710937,-0.832031,0.346558,0.724915,0.156433,0.574402,down
347545,7.5625,7.125,-0.972656,-0.566406,-0.710937,-0.832031,0.35144,0.725342,0.156799,0.57074,down
347550,7.5625,7.125,-0.972656,-0.427734,-0.707031,-0.929687,0.353943,0.725647,0.157227,0.568726,down
347555,7.5625,7.160156,-0.972656,-0.378906,-0.699219,-0.945312,0.356445,0.725891,0.157715,0.56665,down
347561,7.449219,7.578125,-1.089844,-0.378906,-0.699219,-0.945312,0.358521,0.726135,0.158264,0.56488,down
347567,7.371094,7.621094,-1.089844,-0.330078,-0.646484,-0.96875,0.358521,0.726135,0.158264,0.56488,down
347572,7.21875,7.695312,-1.011719,-0.357422,-0.640625,-0.962891,0.358521,0.726135,0.158264,0.56488,down
347578,6.988281,7.8125,-0.9375,-0.398438,-0.648437,-0.943359,0.358521,0.726135,0.158264,0.56488,down
347583,6.871094,7.890625,-0.898437,-0.460937,-0.636719,-0.916016,0.358521,0.726135,0.158264,0.56488,down
347588,6.796875,8.0,-0.898437,-0.515625,-0.646484,-0.873047,0.358521,0.726135,0.158264,0.56488,down
347594,6.679687,8.082031,-0.820312,-0.564453,-0.673828,-0.835937,0.358521,0.726135,0.158264,0.56488,down
347599,6.679687,8.195313,-0.820312,-0.664062,-0.716797,-0.75,0.375061,0.727112,0.161316,0.551941,down
347604,6.679687,8.238281,-0.820312,-0.664062,-0.716797,-0.75,0.38031,0.727234,0.160828,0.548279,down
347609,6.757812,8.238281,-0.859375,-0.664062,-0.716797,-0.75,0.38031,0.727234,0.160828,0.548279,down
347614,6.71875,8.195313,-0.898437,-0.728516,-0.732422,-0.701172,0.38031,0.727234,0.160828,0.548279,down
347619,6.910156,8.15625,-0.9375,-0.744141,-0.728516,-0.693359,0.385254,0.727295,0.160034,0.545044,down
347624,6.910156,8.15625,-0.9375,-0.744141,-0.728516,-0.693359,0.385254,0.727295,0.160034,0.545044,down
347629,6.988281,8.195313,-0.898437,-0.742187,-0.712891,-0.685547,0.385254,0.727295,0.160034,0.545044,down
347634,6.988281,8.195313,-0.898437,-0.736328,-0.685547,-0.6875,0.393066,0.727173,0.158691,0.539917,down
347639,6.871094,8.316406,-0.972656,-0.736328,-0.685547,-0.6875,0.398132,0.72699,0.157837,0.536743,down
347644,6.949219,8.238281,-0.9375,-0.736328,-0.685547,-0.6875,0.398132,0.72699,0.157837,0.536743,down
347649,6.871094,8.34375,-0.9375,-0.751953,-0.625,-0.697266,0.398132,0.72699,0.157837,0.536743,down
347655,6.835937,8.3125,-0.898437,-0.810547,-0.611328,-0.691406,0.398132,0.72699,0.157837,0.536743,down
347660,6.796875,8.273438,-0.859375,-0.810547,-0.611328,-0.691406,0.408875,0.726013,0.156128,0.530457,down
347666,6.71875,8.277344,-0.898437,-0.810547,-0.611328,-0.691406,0.411255,0.725708,0.155701,0.529175,down
347671,6.527344,8.039063,-0.746094,-0.810547,-0.611328,-0.691406,0.41394,0.725342,0.155151,0.52771,down
347678,6.414062,7.964844,-0.628906,-0.871094,-0.623047,-0.671875,0.41394,0.725342,0.155151,0.52771,down
347684,6.296875,7.960937,-0.628906,-0.830078,-0.640625,-0.666016,0.41394,0.725342,0.155151,0.52771,down
347689,6.296875,8.042969,-0.667969,-0.697266,-0.689453,-0.638672,0.421936,0.724426,0.153442,0.523132,down
347694,6.335937,8.15625,-0.707031,-0.697266,-0.689453,-0.638672,0.426697,0.724243,0.152466,0.519775,down
347699,6.375,8.15625,-0.707031,-0.697266,-0.689453,-0.638672,0.426697,0.724243,0.152466,0.519775,down
347704,6.453125,8.199219,-0.820312,-0.59375,-0.712891,-0.636719,0.426697,0.724243,0.152466,0.519775,down
347709,6.453125,8.277344,-0.859375,-0.494141,-0.697266,-0.669922,0.431091,0.724304,0.151672,0.516296,down
347714,6.453125,8.277344,-0.898437,-0.494141,-0.697266,-0.669922,0.433289,0.724365,0.151428,0.514404,down
347719,6.296875,8.425781,-0.898437,-0.494141,-0.697266,-0.669922,0.43512,0.724487,0.151306,0.512695,down
347724,6.296875,8.460938,-0.898437,-0.494141,-0.697266,-0.669922,0.439026,0.724854,0.151367,0.50885,down
347729,6.222656,8.582031,-0.9375,-0.494141,-0.697266,-0.669922,0.439026,0.724854,0.151367,0.50885,down
347734,6.105469,8.660156,-0.972656,-0.373047,-0.630859,-0.699219,0.442627,0.725098,0.151489,0.505371,down
347739,5.992187,8.738281,-0.898437,-0.373047,-0.630859,-0.699219,0.442627,0.725098,0.151489,0.505371,down
347744,5.953125,8.765625,-0.859375,-0.5625,-0.574219,-0.615234,0.444519,0.725098,0.151428,0.503723,down
347749,5.800781,8.765625,-0.859375,-0.5625,-0.574219,-0.615234,0.446533,0.725037,0.151245,0.502075,down
347755,5.570312,8.660156,-0.707031,-0.662109,-0.564453,-0.599609,0.446533,0.725037,0.151245,0.502075,down
347761,5.378906,8.503906,-0.667969,-0.662109,-0.564453,-0.599609,0.453003,0.724182,0.149963,0.497864,down
347766,5.417969,8.464844,-0.707031,-0.822266,-0.582031,-0.523437,0.453003,0.724182,0.149963,0.497864,down
347772,5.417969,8.421875,-0.628906,-0.833984,-0.607422,-0.509766,0.453003,0.724182,0.149963,0.497864,down
347777,5.53125,8.316406,-0.589844,-0.833984,-0.607422,-0.509766,0.460083,0.722961,0.147644,0.493774,down
347782,5.570312,8.238281,-0.667969,-0.789062,-0.628906,-0.509766,0.460083,0.722961,0.147644,0.493774,down
347787,5.609375,8.15625,-0.746094,-0.753906,-0.621094,-0.517578,0.460083,0.722961,0.147644,0.493774,down
347792,5.609375,8.15625,-0.746094,-0.673828,-0.630859,-0.539062,0.466797,0.722046,0.145447,0.489441,down
347797,5.722656,8.160156,-0.746094,-0.673828,-0.630859,-0.539062,0.466797,0.722046,0.145447,0.489441,down
347803,5.722656,8.160156,-0.746094,-0.585937,-0.619141,-0.564453,0.470825,0.721802,0.144592,0.486267,down
347808,5.800781,8.195313,-0.78125,-0.585937,-0.619141,-0.564453,0.470825,0.721802,0.144592,0.486267,down
347813,5.648437,8.386719,-0.859375,-0.425781,-0.613281,-0.634766,0.474365,0.721802,0.144409,0.482849,down
347818,5.492187,8.582031,-0.859375,-0.425781,-0.613281,-0.634766,0.474365,0.721802,0.144409,0.482849,down
347823,5.378906,8.65625,-0.859375,-0.425781,-0.613281,-0.634766,0.477722,0.721802,0.144592,0.479492,down
347828,5.300781,8.660156,-0.859375,-0.351563,-0.527344,-0.677734,0.477722,0.721802,0.144592,0.479492,down
347834,5.148437,8.847656,-0.78125,-0.351563,-0.527344,-0.677734,0.482788,0.721558,0.144897,0.474609,down
347839,4.996094,8.804688,-0.707031,-0.351563,-0.527344,-0.677734,0.482788,0.721558,0.144897,0.474609,down
347844,4.917969,8.738281,-0.707031,-0.511719,-0.523437,-0.599609,0.48645,0.72113,0.144592,0.47168,down
347849,4.804687,8.65625,-0.628906,-0.511719,-0.523437,-0.599609,0.48645,0.72113,0.144592,0.47168,down
347855,4.84375,8.621094,-0.589844,-0.685547,-0.556641,-0.496094,0.48645,0.72113,0.144592,0.47168,down
347860,4.882812,8.460938,-0.515625,-0.685547,-0.556641,-0.496094,0.492676,0.719971,0.143005,0.467407,down
347865,4.917969,8.34375,-0.398438,-0.685547,-0.556641,-0.496094,0.492676,0.719971,0.143005,0.467407,down
347870,4.996094,8.238281,-0.4375,-0.685547,-0.556641,-0.496094,0.496643,0.719177,0.141724,0.464783,down
347876,5.035156,8.199219,-0.324219,-0.660156,-0.570312,-0.546875,0.49884,0.718811,0.141174,0.463196,down
347881,5.035156,8.238281,-0.363281,-0.59375,-0.570312,-0.591797,0.500916,0.718445,0.140686,0.46167,down
347887,5.035156,8.382813,-0.398438,-0.59375,-0.570312,-0.591797,0.502563,0.718262,0.140503,0.460205,down
347892,4.996094,8.503906,-0.363281,-0.408203,-0.578125,-0.679687,0.504395,0.718079,0.140381,0.458496,down
347897,4.957031,8.65625,-0.398438,-0.333984,-0.570312,-0.708984,0.504395,0.718079,0.140381,0.458496,down
347903,4.882812,8.765625,-0.4375,-0.279297,-0.570312,-0.724609,0.504395,0.718079,0.140381,0.458496,down
347908,4.726562,9.082031,-0.476562,-0.279297,-0.570312,-0.724609,0.504395,0.718079,0.140381,0.458496,down
347913,4.652344,9.191406,-0.476562,-0.271484,-0.566406,-0.722656,0.504395,0.718079,0.140381,0.458496,down
347918,4.496094,9.308594,-0.398438,-0.306641,-0.566406,-0.705078,0.504395,0.718079,0.140381,0.458496,down
347923,4.382812,9.308594,-0.324219,-0.306641,-0.566406,-0.705078,0.504395,0.718079,0.140381,0.458496,down
347928,4.304687,9.34375,-0.246094,-0.306641,-0.566406,-0.705078,0.515564,0.717957,0.141541,0.445801,down
347933,4.152344,9.386719,-0.207031,-0.576172,-0.609375,-0.591797,0.515564,0.717957,0.141541,0.445801,down
347938,4.191406,9.226563,-0.09375,-0.576172,-0.609375,-0.591797,0.519348,0.717407,0.140808,0.442444,down
347943,4.191406,9.117188,-0.09375,-0.576172,-0.609375,-0.591797,0.519348,0.717407,0.140808,0.442444,down
347948,4.230469,8.960938,-0.09375,-0.576172,-0.609375,-0.591797,0.523743,0.716431,0.139221,0.439331,down
347953,4.304687,8.847656,-0.015625,-0.847656,-0.671875,-0.447266,0.523743,0.716431,0.139221,0.439331,down
347958,4.304687,8.765625,0.097656,-0.847656,-0.671875,-0.447266,0.52832,0.715332,0.137146,0.436279,down
347963,4.460937,8.621094,0.058594,-0.847656,-0.671875,-0.447266,0.52832,0.715332,0.137146,0.436279,down
347968,4.496094,8.578125,0.136719,-0.847656,-0.671875,-0.447266,0.532593,0.714355,0.135254,0.433228,down
347974,4.535156,8.617188,0.136719,-0.683594,-0.703125,-0.529297,0.532593,0.714355,0.135254,0.433228,down
347980,4.535156,8.617188,0.136719,-0.582031,-0.689453,-0.578125,0.538574,0.713501,0.133362,0.427856,down
347985,4.535156,8.699219,0.097656,-0.388672,-0.695312,-0.662109,0.538574,0.713501,0.133362,0.427856,down
347990,4.535156,8.808594,0.097656,-0.388672,-0.695312,-0.662109,0.54187,0.713501,0.132996,0.423828,down
347995,4.421875,9.003906,-0.015625,-0.388672,-0.695312,-0.662109,0.54187,0.713501,0.132996,0.423828,down
348000,4.421875,9.003906,-0.015625,-0.25,-0.683594,-0.712891,0.543335,0.713562,0.132996,0.421814,down
348005,4.382812,9.148438,-0.09375,-0.25,-0.683594,-0.712891,0.544739,0.713745,0.133118,0.419678,down
348010,4.113281,9.421875,-0.132812,-0.25,-0.689453,-0.714844,0.546082,0.713867,0.133179,0.417603,down
348015,4.113281,9.421875,-0.132812,-0.298828,-0.695312,-0.695312,0.547607,0.713989,0.133179,0.415466,down
348021,3.921875,9.5,-0.285156,-0.298828,-0.695312,-0.695312,0.547607,0.713989,0.133179,0.415466,down
348026,3.921875,9.53125,-0.324219,-0.556641,-0.738281,-0.617187,0.547607,0.713989,0.133179,0.415466,down
348031,4.0,9.464844,-0.285156,-0.556641,-0.738281,-0.617187,0.554565,0.713501,0.131897,0.40741,down
348036,4.113281,9.265625,-0.363281,-0.556641,-0.738281,-0.617187,0.554565,0.713501,0.131897,0.40741,down
348041,4.113281,9.265625,-0.363281,-0.765625,-0.732422,-0.568359,0.558838,0.712646,0.130493,0.403564,down
348046,4.152344,9.148438,-0.207031,-0.765625,-0.732422,-0.568359,0.561157,0.712097,0.129639,0.40155,down
348052,4.191406,8.960938,-0.207031,-0.765625,-0.732422,-0.568359,0.56311,0.711609,0.128906,0.399841,down
348058,4.230469,8.960938,-0.207031,-0.689453,-0.707031,-0.576172,0.56311,0.711609,0.128906,0.399841,down
348063,4.230469,8.960938,-0.167969,-0.636719,-0.699219,-0.595703,0.56311,0.711609,0.128906,0.399841,down
348069,4.269531,9.003906,-0.285156,-0.636719,-0.699219,-0.595703,0.56311,0.711609,0.128906,0.399841,down
348075,4.230469,9.078125,-0.246094,-0.511719,-0.623047,-0.669922,0.56311,0.711609,0.128906,0.399841,down
348080,4.152344,9.191406,-0.285156,-0.511719,-0.623047,-0.669922,0.572815,0.709534,0.126404,0.390442,down
348086,4.152344,9.191406,-0.285156,-0.482422,-0.595703,-0.720703,0.576294,0.708862,0.12616,0.386597,down
348091,3.921875,9.269531,-0.207031,-0.496094,-0.59375,-0.720703,0.578247,0.708435,0.126099,0.38446,down
348096,3.921875,9.269531,-0.207031,-0.533203,-0.582031,-0.716797,0.579895,0.708069,0.126038,0.38269,down
348101,3.730469,9.269531,-0.09375,-0.533203,-0.582031,-0.716797,0.581848,0.707581,0.125916,0.380676,down
348107,3.464844,9.382813,0.023437,-0.533203,-0.582031,-0.716797,0.583618,0.707092,0.125732,0.378967,down
348112,3.464844,9.382813,0.023437,-0.658203,-0.605469,-0.644531,0.585754,0.706482,0.125366,0.376953,down
348118,3.425781,9.347656,0.023437,-0.658203,-0.605469,-0.644531,0.585754,0.706482,0.125366,0.376953,down
348123,3.425781,9.304688,0.058594,-0.658203,-0.605469,-0.644531,0.589539,0.705261,0.12439,0.373596,down
348129,3.425781,9.269531,0.097656,-0.748047,-0.65625,-0.548828,0.589539,0.705261,0.12439,0.373596,down
348134,3.425781,9.230469,0.058594,-0.759766,-0.669922,-0.539062,0.589539,0.705261,0.12439,0.373596,down
348140,3.425781,9.039063,-0.015625,-0.763672,-0.671875,-0.556641,0.597778,0.702515,0.121521,0.366516,down
348145,3.386719,8.886719,-0.015625,-0.763672,-0.671875,-0.556641,0.597778,0.702515,0.121521,0.366516,down
348150,3.425781,8.808594,-0.054687,-0.685547,-0.667969,-0.652344,0.597778,0.702515,0.121521,0.366516,down
348155,3.347656,8.769531,-0.207031,-0.685547,-0.667969,-0.652344,0.601868,0.701172,0.1203,0.362732,down
348160,3.308594,8.808594,-0.324219,-0.685547,-0.667969,-0.652344,0.603882,0.700562,0.119873,0.360779,down
348165,3.273438,8.886719,-0.363281,-0.539062,-0.591797,-0.769531,0.603882,0.700562,0.119873,0.360779,down
348170,3.234375,8.921875,-0.476562,-0.539062,-0.591797,-0.769531,0.607788,0.699402,0.119507,0.356567,down
348175,3.117188,9.230469,-0.628906,-0.539062,-0.591797,-0.769531,0.609558,0.698914,0.119507,0.354492,down
348180,3.117188,9.230469,-0.628906,-0.458984,-0.53125,-0.830078,0.611145,0.698425,0.11969,0.352661,down
348185,3.042969,9.308594,-0.667969,-0.458984,-0.53125,-0.830078,0.611145,0.698425,0.11969,0.352661,down
348190,2.964844,9.421875,-0.78125,-0.435547,-0.503906,-0.851562,0.611145,0.698425,0.11969,0.352661,down
348195,2.964844,9.421875,-0.78125,-0.419922,-0.453125,-0.851562,0.616089,0.69696,0.120728,0.346558,down
348201,2.734375,9.804688,-0.628906,-0.419922,-0.453125,-0.851562,0.619568,0.69574,0.121521,0.342529,down
348206,2.699219,9.886719,-0.589844,-0.564453,-0.416016,-0.755859,0.621216,0.695068,0.121765,0.340759,down
348211,2.621094,9.925781,-0.476562,-0.648437,-0.443359,-0.697266,0.621216,0.695068,0.121765,0.340759,down
348216,2.582031,9.925781,-0.363281,-0.648437,-0.443359,-0.697266,0.625,0.693298,0.121643,0.337463,down
348221,2.699219,9.886719,-0.285156,-0.648437,-0.443359,-0.697266,0.627075,0.692261,0.121216,0.335876,down
348226,2.890625,9.613281,-0.054687,-0.648437,-0.443359,-0.697266,0.62915,0.691162,0.120667,0.334534,down
348232,2.925781,9.503906,0.058594,-0.648437,-0.443359,-0.697266,0.631287,0.689941,0.120056,0.333252,down
348237,2.964844,9.191406,0.214844,-1.054688,-0.470703,-0.494141,0.63385,0.688416,0.119202,0.331848,down
348242,3.042969,8.960938,0.289063,-1.068359,-0.472656,-0.5,0.63385,0.688416,0.119202,0.331848,down
348248,3.195313,8.578125,0.558594,-1.068359,-0.472656,-0.5,0.63385,0.688416,0.119202,0.331848,down
348254,3.234375,8.542969,0.710937,-0.980469,-0.482422,-0.601562,0.63385,0.688416,0.119202,0.331848,down
348259,3.234375,8.503906,0.710937,-0.890625,-0.464844,-0.669922,0.63385,0.688416,0.119202,0.331848,down
348264,3.273438,8.542969,0.75,-0.890625,-0.464844,-0.669922,0.645203,0.681763,0.116455,0.324646,down
348269,3.195313,8.734375,0.863281,-0.890625,-0.464844,-0.669922,0.645203,0.681763,0.116455,0.324646,down
348274,3.082031,8.925781,0.902344,-0.496094,-0.433594,-0.919922,0.645203,0.681763,0.116455,0.324646,down
348279,3.042969,9.082031,0.941406,-0.369141,-0.445312,-0.970703,0.645203,0.681763,0.116455,0.324646,down
348284,2.851563,9.460938,1.019531,-0.369141,-0.445312,-0.970703,0.6521,0.678833,0.118042,0.316345,down
348290,2.699219,9.6875,0.941406,-0.183594,-0.462891,-1.041016,0.6521,0.678833,0.118042,0.316345,down
348295,2.542969,9.804688,1.054688,-0.173828,-0.511719,-1.025391,0.6521,0.678833,0.118042,0.316345,down
348300,2.277344,9.996094,1.09375,-0.173828,-0.511719,-1.025391,0.655945,0.67804,0.120544,0.30896,down
348305,2.160156,10.074219,1.171875,-0.173828,-0.511719,-1.025391,0.657227,0.677856,0.121277,0.306458,down
348310,2.085938,10.152344,1.09375,-0.289063,-0.585937,-0.933594,0.657227,0.677856,0.121277,0.306458,down
348316,2.085938,10.191406,1.054688,-0.375,-0.617187,-0.880859,0.66156,0.676697,0.122131,0.299194,down
348321,2.085938,10.304688,0.980469,-0.375,-0.617187,-0.880859,0.663147,0.676147,0.122009,0.296936,down
348326,2.199219,10.265625,0.863281,-0.582031,-0.669922,-0.759766,0.664978,0.675415,0.121765,0.294556,down
348331,2.277344,10.226563,0.828125,-0.582031,-0.669922,-0.759766,0.666565,0.674744,0.121521,0.292542,down
348336,2.277344,10.070313,0.789062,-0.605469,-0.675781,-0.734375,0.666565,0.674744,0.121521,0.292542,down
348341,2.3125,10.070313,0.75,-0.605469,-0.675781,-0.734375,0.67041,0.673157,0.12085,0.287781,down
348346,2.277344,10.035156,0.75,-0.605469,-0.675781,-0.734375,0.671814,0.672607,0.120667,0.285889,down
348351,2.277344,10.035156,0.710937,-0.605469,-0.675781,-0.734375,0.671814,0.672607,0.120667,0.285889,down
348356,2.238281,10.074219,0.671875,-0.445312,-0.640625,-0.775391,0.673462,0.671997,0.120483,0.283447,down
348361,2.160156,10.148438,0.597656,-0.40625,-0.626953,-0.789062,0.674805,0.671509,0.120422,0.281372,down
348366,2.121094,10.1875,0.519531,-0.386719,-0.59375,-0.794922,0.677612,0.670532,0.120483,0.276917,down
348371,2.121094,10.226563,0.558594,-0.386719,-0.59375,-0.794922,0.679016,0.669983,0.120605,0.274719,down
348376,2.007813,10.304688,0.597656,-0.386719,-0.59375,-0.794922,0.680481,0.669434,0.120728,0.272522,down
348381,1.929688,10.308594,0.671875,-0.458984,-0.544922,-0.765625,0.682007,0.668762,0.120789,0.270325,down
348386,1.894531,10.269531,0.710937,-0.492187,-0.548828,-0.740234,0.682007,0.668762,0.120789,0.270325,down
348391,1.894531,10.269531,0.75,-0.492187,-0.548828,-0.740234,0.684937,0.667358,0.120728,0.266357,down
348397,1.894531,10.113281,0.789062,-0.492187,-0.548828,-0.740234,0.686462,0.666565,0.120605,0.264404,down
348402,1.894531,10.113281,0.902344,-0.617187,-0.560547,-0.642578,0.688049,0.66571,0.120361,0.262573,down
348407,1.894531,10.070313,0.902344,-0.65625,-0.576172,-0.617187,0.688049,0.66571,0.120361,0.262573,down
348412,1.855469,9.996094,0.941406,-0.65625,-0.576172,-0.617187,0.691406,0.663818,0.119568,0.25885,down
348418,1.816406,9.847656,1.019531,-0.65625,-0.576172,-0.617187,0.693115,0.662781,0.119141,0.25708,down
348425,1.738281,9.769531,1.09375,-0.662109,-0.574219,-0.628906,0.693115,0.662781,0.119141,0.25708,down
348430,1.738281,9.769531,1.09375,-0.626953,-0.554687,-0.658203,0.696472,0.660828,0.118408,0.253357,down
348435,1.511719,9.804688,1.019531,-0.626953,-0.554687,-0.658203,0.696472,0.660828,0.118408,0.253357,down
348440,1.472656,9.925781,0.980469,-0.431641,-0.523437,-0.779297,0.696472,0.660828,0.118408,0.253357,down
348446,1.355469,10.148438,0.863281,-0.431641,-0.523437,-0.779297,0.700989,0.658386,0.118164,0.247375,down
348451,1.316406,10.304688,0.828125,-0.255859,-0.490234,-0.84375,0.702271,0.657776,0.118286,0.245239,down
348456,1.242188,10.453125,0.671875,-0.255859,-0.490234,-0.84375,0.70343,0.657288,0.118591,0.242981,down
348461,1.164063,10.757813,0.441406,-0.255859,-0.490234,-0.84375,0.70459,0.656921,0.11908,0.24054,down
348467,1.050781,11.035156,0.40625,-0.255859,-0.490234,-0.84375,0.706238,0.656433,0.120117,0.236328,down
348472,1.050781,11.035156,0.40625,-0.099609,-0.390625,-0.857422,0.707031,0.65625,0.120789,0.234192,down
348477,1.011719,11.109375,0.367188,-0.150391,-0.357422,-0.822266,0.707947,0.655945,0.121521,0.231873,down
348483,0.972656,11.144531,0.328125,-0.150391,-0.357422,-0.822266,0.70874,0.65564,0.122009,0.230164,down
348489,0.898437,11.113281,0.40625,-0.316406,-0.28125,-0.75,0.70874,0.65564,0.122009,0.230164,down
348495,0.859375,11.074219,0.441406,-0.408203,-0.263672,-0.720703,0.70874,0.65564,0.122009,0.230164,down
348500,0.820312,10.757813,0.558594,-0.625,-0.238281,-0.634766,0.70874,0.65564,0.122009,0.230164,down
348505,0.78125,10.648438,0.597656,-0.625,-0.238281,-0.634766,0.71344,0.652405,0.12384,0.223877,down
348511,0.78125,10.496094,0.632812,-0.705078,-0.248047,-0.580078,0.71344,0.652405,0.12384,0.223877,down
348516,0.667969,10.265625,0.902344,-0.779297,-0.269531,-0.537109,0.71344,0.652405,0.12384,0.223877,down
348522,0.707031,10.113281,0.941406,-0.779297,-0.269531,-0.537109,0.720093,0.646729,0.123657,0.218994,down
348527,0.707031,10.035156,0.941406,-0.802734,-0.361328,-0.400391,0.72168,0.645325,0.12323,0.217957,down
348532,0.78125,10.074219,0.980469,-0.78125,-0.388672,-0.369141,0.723328,0.643921,0.122742,0.216858,down
348537,0.820312,10.191406,1.132813,-0.78125,-0.388672,-0.369141,0.724731,0.642822,0.122253,0.215942,down
348542,0.859375,10.230469,1.171875,-0.78125,-0.388672,-0.369141,0.726379,0.641418,0.121582,0.214844,down
348547,0.859375,10.191406,1.171875,-0.744141,-0.40625,-0.310547,0.726379,0.641418,0.121582,0.214844,down
348552,0.859375,10.191406,1.171875,-0.710937,-0.414062,-0.294922,0.729187,0.639099,0.120361,0.212891,down
348557,0.898437,10.226563,1.210938,-0.710937,-0.414062,-0.294922,0.729187,0.639099,0.120361,0.212891,down
348562,0.898437,10.226563,1.210938,-0.710937,-0.414062,-0.294922,0.729187,0.639099,0.120361,0.212891,down
348567,0.933594,10.1875,1.246094,-0.71875,-0.375,-0.304688,0.733398,0.635559,0.118469,0.210022,down
348572,0.972656,10.03125,1.363281,-0.71875,-0.375,-0.304688,0.734863,0.634277,0.117859,0.209045,down
348577,0.972656,9.992188,1.4375,-0.71875,-0.375,-0.304688,0.736511,0.632874,0.11731,0.208069,down
348582,0.972656,9.953125,1.476563,-0.769531,-0.298828,-0.304688,0.737915,0.631531,0.116821,0.207275,down
348588,0.933594,9.84375,1.59375,-0.769531,-0.298828,-0.304688,0.739258,0.63031,0.116394,0.206543,down
348593,0.898437,9.726563,1.746094,-0.769531,-0.298828,-0.304688,0.740723,0.628906,0.115967,0.205688,down
348599,0.898437,9.652344,1.746094,-0.78125,-0.277344,-0.341797,0.740723,0.628906,0.115967,0.205688,down
348604,0.859375,9.53125,1.859375,-0.775391,-0.291016,-0.347656,0.740723,0.628906,0.115967,0.205688,down
348609,0.742187,9.308594,2.128906,-0.748047,-0.320313,-0.355469,0.740723,0.628906,0.115967,0.205688,down
348615,0.707031,9.265625,2.167969,-0.712891,-0.341797,-0.363281,0.740723,0.628906,0.115967,0.205688,down
348620,0.667969,9.265625,2.207031,-0.650391,-0.367188,-0.357422,0.740723,0.628906,0.115967,0.205688,down
348626,0.707031,9.386719,2.320313,-0.59375,-0.404297,-0.353516,0.740723,0.628906,0.115967,0.205688,down
348631,0.667969,9.460938,2.359375,-0.505859,-0.457031,-0.347656,0.750427,0.620178,0.112793,0.198792,down
348636,0.707031,9.5,2.359375,-0.505859,-0.457031,-0.347656,0.751587,0.619263,0.112244,0.197571,down
348642,0.742187,9.574219,2.242188,-0.492187,-0.464844,-0.353516,0.751587,0.619263,0.112244,0.197571,down
348648,0.707031,9.574219,2.320313,-0.492187,-0.464844,-0.353516,0.7547,0.616943,0.110596,0.193848,down
348653,0.742187,9.570313,2.320313,-0.4375,-0.490234,-0.380859,0.755737,0.616211,0.109985,0.192505,down
348659,0.742187,9.53125,2.359375,-0.421875,-0.484375,-0.396484,0.755737,0.616211,0.109985,0.192505,down
348664,0.707031,9.460938,2.398438,-0.421875,-0.484375,-0.396484,0.75769,0.614868,0.108948,0.189758,down
348669,0.78125,9.386719,2.398438,-0.462891,-0.470703,-0.414062,0.75769,0.614868,0.108948,0.189758,down
348674,0.820312,9.34375,2.433594,-0.486328,-0.441406,-0.429687,0.75769,0.614868,0.108948,0.189758,down
348680,0.742187,9.308594,2.472656,-0.486328,-0.441406,-0.429687,0.761047,0.612244,0.107544,0.185364,down
348685,0.707031,9.226563,2.433594,-0.486328,-0.441406,-0.429687,0.761047,0.612244,0.107544,0.185364,down
348690,0.707031,9.226563,2.398438,-0.486328,-0.441406,-0.429687,0.763062,0.610596,0.107117,0.1828,down
348695,0.628906,9.1875,2.433594,-0.445312,-0.339844,-0.560547,0.763062,0.610596,0.107117,0.1828,down
348701,0.476562,9.269531,2.550781,-0.283203,-0.345703,-0.626953,0.765198,0.608887,0.107056,0.179687,down
348706,0.167969,9.382813,2.625,-0.283203,-0.345703,-0.626953,0.765991,0.608276,0.107178,0.178223,down
348711,0.015625,9.421875,2.664063,-0.115234,-0.400391,-0.658203,0.766785,0.607788,0.107361,0.176392,down
348716,-0.023437,9.535156,2.625,-0.115234,-0.400391,-0.658203,0.767395,0.607483,0.107544,0.174744,down
348722,-0.023437,9.808594,2.664063,-0.115234,-0.400391,-0.658203,0.768372,0.6073,0.107788,0.170715,down
348727,-0.0625,10.03125,2.550781,0.046875,-0.478516,-0.634766,0.768738,0.607422,0.10791,0.168701,down
348732,-0.023437,10.191406,2.472656,0.046875,-0.478516,-0.634766,0.769043,0.607544,0.10791,0.166931,down
348737,0.015625,10.457031,2.320313,0.046875,-0.478516,-0.634766,0.769409,0.607605,0.10791,0.165039,down
348742,0.128906,10.492188,2.207031,-0.019531,-0.470703,-0.583984,0.769836,0.607605,0.107849,0.162964,down
348747,0.167969,10.457031,2.242188,-0.060547,-0.466797,-0.564453,0.769836,0.607605,0.107849,0.162964,down
348752,0.167969,10.53125,2.320313,-0.060547,-0.466797,-0.564453,0.770691,0.607422,0.107727,0.159546,down
348758,0.015625,10.453125,2.242188,-0.060547,-0.466797,-0.564453,0.77124,0.607117,0.107727,0.15802,down
348764,-0.023437,10.378906,2.28125,-0.306641,-0.335938,-0.492187,0.77124,0.607117,0.107727,0.15802,down
348769,-0.0625,10.308594,2.320313,-0.365234,-0.308594,-0.484375,0.772827,0.605896,0.107666,0.15509,down
348774,-0.175781,10.191406,2.320313,-0.365234,-0.308594,-0.484375,0.773621,0.605164,0.107666,0.153931,down
348780,-0.214844,10.152344,2.320313,-0.441406,-0.251953,-0.486328,0.773621,0.605164,0.107666,0.153931,down
348785,-0.289063,10.113281,2.398438,-0.447266,-0.259766,-0.490234,0.773621,0.605164,0.107666,0.153931,down
348790,-0.253906,10.074219,2.550781,-0.447266,-0.259766,-0.490234,0.776428,0.602478,0.107849,0.150208,down
348796,-0.289063,10.070313,2.664063,-0.447266,-0.259766,-0.490234,0.777954,0.601074,0.108032,0.147705,down
348801,-0.328125,10.035156,2.664063,-0.447266,-0.259766,-0.490234,0.777954,0.601074,0.108032,0.147705,down
348806,-0.289063,10.070313,2.742188,-0.222656,-0.269531,-0.490234,0.777954,0.601074,0.108032,0.147705,down
348811,-0.289063,10.113281,2.703125,-0.222656,-0.269531,-0.490234,0.779175,0.600098,0.108276,0.145081,down
348816,-0.289063,10.113281,2.703125,-0.222656,-0.269531,-0.490234,0.779663,0.599792,0.108337,0.143738,down
348821,-0.289063,10.113281,2.703125,-0.080078,-0.300781,-0.462891,0.780029,0.599609,0.108459,0.142456,down
348826,-0.289063,10.226563,2.664063,-0.080078,-0.300781,-0.462891,0.780396,0.599426,0.108521,0.141113,down
348831,-0.214844,10.375,2.664063,-0.080078,-0.300781,-0.462891,0.780701,0.599304,0.108582,0.139771,down
348836,-0.253906,10.453125,2.625,-0.080078,-0.300781,-0.462891,0.780701,0.599304,0.108582,0.139771,down
348842,-0.214844,10.496094,2.589844,-0.121094,-0.277344,-0.451172,0.780701,0.599304,0.108582,0.139771,down
348847,-0.253906,10.496094,2.589844,-0.121094,-0.277344,-0.451172,0.78241,0.598206,0.108887,0.134583,down
348852,-0.214844,10.457031,2.589844,-0.224609,-0.232422,-0.414062,0.78241,0.598206,0.108887,0.134583,down
348857,-0.175781,10.414063,2.589844,-0.255859,-0.203125,-0.388672,0.782898,0.597778,0.108948,0.133545,down
348862,-0.175781,10.308594,2.664063,-0.255859,-0.203125,-0.388672,0.784058,0.59668,0.109131,0.131531,down
348867,-0.136719,10.265625,2.664063,-0.255859,-0.203125,-0.388672,0.784668,0.596008,0.109314,0.130554,down
348872,-0.136719,10.265625,2.703125,-0.255859,-0.203125,-0.388672,0.784668,0.596008,0.109314,0.130554,down
348877,-0.214844,10.191406,2.625,-0.289063,-0.113281,-0.333984,0.785828,0.594849,0.109619,0.129089,down
348883,-0.289063,10.113281,2.742188,-0.289063,-0.113281,-0.333984,0.786377,0.594177,0.109802,0.128357,down
348888,-0.367188,10.113281,2.742188,-0.216797,-0.083984,-0.287109,0.786865,0.593689,0.109985,0.127747,down
348894,-0.40625,10.152344,2.742188,-0.216797,-0.083984,-0.287109,0.787231,0.593262,0.110168,0.127197,down
348899,-0.367188,10.1875,2.742188,-0.216797,-0.083984,-0.287109,0.787598,0.592896,0.110229,0.126526,down
348905,-0.367188,10.1875,2.78125,-0.154297,-0.097656,-0.240234,0.787598,0.592896,0.110229,0.126526,down
348910,-0.367188,10.1875,2.78125,-0.148437,-0.107422,-0.222656,0.787598,0.592896,0.110229,0.126526,down
348915,-0.328125,10.152344,2.78125,-0.162109,-0.109375,-0.212891,0.787598,0.592896,0.110229,0.126526,down
348921,-0.289063,10.113281,2.78125,-0.162109,-0.123047,-0.205078,0.787598,0.592896,0.110229,0.126526,down
348927,-0.253906,10.074219,2.742188,-0.201172,-0.103516,-0.175781,0.787598,0.592896,0.110229,0.126526,down
348932,-0.214844,10.074219,2.742188,-0.201172,-0.103516,-0.175781,0.7901,0.590271,0.110535,0.122864,down
348938,-0.289063,9.957031,2.78125,-0.201172,-0.103516,-0.175781,0.790527,0.589783,0.110535,0.122437,down
348943,-0.328125,9.957031,2.78125,-0.261719,-0.074219,-0.15625,0.790955,0.589294,0.110535,0.12207,down
348948,-0.328125,9.925781,2.78125,-0.255859,-0.058594,-0.166016,0.790955,0.589294,0.110535,0.12207,down
348953,-0.328125,9.957031,2.78125,-0.255859,-0.058594,-0.166016,0.79187,0.588196,0.110596,0.121399,down
348959,-0.367188,9.953125,2.816406,-0.255859,-0.058594,-0.166016,0.792358,0.587646,0.110657,0.121033,down
348964,-0.367188,9.921875,2.816406,-0.203125,-0.050781,-0.148437,0.792664,0.587219,0.110718,0.120789,down
348970,-0.40625,9.921875,2.816406,-0.203125,-0.050781,-0.148437,0.79303,0.586792,0.110779,0.120422,down
348975,-0.445312,10.03125,2.894531,-0.203125,-0.050781,-0.148437,0.793274,0.586487,0.110779,0.120117,down
348980,-0.445312,9.953125,2.933594,-0.117188,-0.080078,-0.113281,0.793274,0.586487,0.110779,0.120117,down
348986,-0.40625,9.992188,2.855469,-0.119141,-0.083984,-0.103516,0.793274,0.586487,0.110779,0.120117,down
348992,-0.445312,9.953125,2.894531,-0.140625,-0.089844,-0.087891,0.793274,0.586487,0.110779,0.120117,down
348998,-0.445312,9.925781,2.972656,-0.140625,-0.089844,-0.087891,0.794556,0.585144,0.110413,0.118652,down
349003,-0.40625,9.882813,2.894531,-0.148437,-0.099609,-0.068359,0.7948,0.5849,0.110291,0.118408,down
349009,-0.445312,9.882813,2.972656,-0.148437,-0.099609,-0.068359,0.795044,0.584595,0.110168,0.118225,down
349014,-0.445312,9.882813,2.972656,-0.164062,-0.117188,-0.044922,0.795349,0.58429,0.109985,0.117981,down
349019,-0.40625,9.84375,2.933594,-0.164062,-0.117188,-0.044922,0.795654,0.583984,0.109741,0.117798,down
349024,-0.40625,9.84375,2.933594,-0.164062,-0.117188,-0.044922,0.795959,0.583618,0.109558,0.117554,down
349029,-0.445312,9.847656,2.894531,-0.164062,-0.117188,-0.044922,0.795959,0.583618,0.109558,0.117554,down
349034,-0.480469,9.808594,2.972656,-0.138672,-0.115234,-0.050781,0.795959,0.583618,0.109558,0.117554,down
349040,-0.519531,9.808594,3.007813,-0.121094,-0.126953,-0.050781,0.795959,0.583618,0.109558,0.117554,down
349045,-0.519531,9.769531,3.007813,-0.121094,-0.126953,-0.050781,0.795959,0.583618,0.109558,0.117554,down
349050,-0.480469,9.730469,2.894531,-0.089844,-0.132812,-0.058594,0.795959,0.583618,0.109558,0.117554,down
349056,-0.558594,9.808594,2.894531,-0.083984,-0.130859,-0.078125,0.795959,0.583618,0.109558,0.117554,down
349061,-0.558594,9.769531,2.894531,-0.083984,-0.130859,-0.078125,0.797546,0.582092,0.108093,0.115723,down
349066,-0.519531,9.691406,2.972656,-0.083984,-0.130859,-0.078125,0.797546,0.582092,0.108093,0.115723,down
349071,-0.558594,9.648438,2.972656,-0.083984,-0.130859,-0.078125,0.797852,0.581909,0.107666,0.115051,down
349077,-0.636719,9.574219,3.007813,-0.070312,-0.167969,-0.052734,0.798157,0.581726,0.107117,0.114319,down
349082,-0.558594,9.5,3.007813,-0.070312,-0.167969,-0.052734,0.798157,0.581726,0.107117,0.114319,down
349087,-0.480469,9.503906,3.007813,-0.037109,-0.193359,-0.019531,0.79834,0.581604,0.10675,0.113953,down
349092,-0.558594,9.503906,2.972656,-0.037109,-0.193359,-0.019531,0.798462,0.581604,0.106445,0.113647,down
349097,-0.519531,9.5,3.007813,-0.037109,-0.193359,-0.019531,0.798584,0.581543,0.106079,0.113342,down
349102,-0.480469,9.464844,3.007813,-0.037109,-0.193359,-0.019531,0.798645,0.581543,0.105652,0.113098,down
349107,-0.445312,9.503906,2.933594,0.046875,-0.164062,0.021484,0.798645,0.581543,0.105652,0.113098,down
349112,-0.40625,9.53125,2.855469,0.046875,-0.164062,0.021484,0.798706,0.581726,0.104858,0.11261,down
349117,-0.40625,9.726563,2.78125,0.046875,-0.164062,0.021484,0.798645,0.581909,0.104492,0.112427,down
349122,-0.367188,9.769531,2.78125,0.054687,-0.103516,0.009766,0.798584,0.582031,0.104248,0.112305,down
349127,-0.289063,9.84375,2.78125,0.054687,-0.103516,0.009766,0.798523,0.582214,0.104004,0.112122,down
349132,-0.289063,9.847656,2.816406,0.007813,-0.068359,-0.011719,0.798523,0.582336,0.103821,0.112,down
349137,-0.289063,9.847656,2.816406,-0.027344,-0.054687,-0.019531,0.798462,0.582336,0.103699,0.111877,down
349142,-0.253906,9.613281,2.816406,-0.066406,-0.027344,-0.039063,0.798523,0.582336,0.103577,0.111755,down
349147,-0.214844,9.613281,2.816406,-0.066406,-0.027344,-0.039063,0.798645,0.582275,0.103516,0.111633,down
349152,-0.253906,9.5,2.855469,-0.066406,-0.027344,-0.039063,0.798767,0.582092,0.103577,0.111511,down
349158,-0.289063,9.425781,3.085938,-0.107422,0.023437,-0.068359,0.799072,0.581604,0.10376,0.111389,down
349163,-0.40625,9.34375,3.125,-0.09375,0.060547,-0.074219,0.799255,0.58136,0.103943,0.111328,down
349168,-0.40625,9.269531,3.085938,-0.09375,0.060547,-0.074219,0.799377,0.581177,0.104187,0.111328,down
349173,-0.445312,9.347656,3.085938,-0.09375,0.060547,-0.074219,0.799377,0.581116,0.104431,0.111328,down
349178,-0.40625,9.425781,3.125,0.087891,0.089844,-0.041016,0.799316,0.581177,0.104736,0.111389,down
349184,-0.445312,9.648438,3.125,0.087891,0.089844,-0.041016,0.799133,0.58136,0.10498,0.111389,down
349189,-0.480469,9.6875,3.046875,0.087891,0.089844,-0.041016,0.798828,0.581665,0.105286,0.111389,down
349194,-0.480469,9.648438,3.007813,0.287109,0.091797,-0.039063,0.798828,0.581665,0.105286,0.111389,down
349199,-0.367188,9.6875,2.933594,0.341797,0.080078,-0.03125,0.798828,0.581665,0.105286,0.111389,down
349204,-0.328125,9.886719,2.855469,0.376953,0.083984,-0.019531,0.797485,0.583435,0.106201,0.111328,down
349210,-0.289063,10.070313,2.78125,0.376953,0.083984,-0.019531,0.796875,0.584167,0.106506,0.111328,down
349215,-0.253906,10.03125,2.78125,0.337891,0.082031,0.013672,0.796875,0.584167,0.106506,0.111328,down
349221,-0.214844,9.992188,2.78125,0.248047,0.076172,0.023437,0.795898,0.585388,0.106995,0.11145,down
349227,-0.253906,9.992188,2.78125,0.089844,0.111328,0.048828,0.795532,0.585815,0.107178,0.111633,down
349232,-0.289063,9.957031,2.742188,0.089844,0.111328,0.048828,0.795349,0.58606,0.107361,0.111755,down
349237,-0.328125,9.882813,2.78125,-0.039063,0.125,0.060547,0.795349,0.58606,0.107361,0.111755,down
349242,-0.40625,9.847656,2.816406,-0.039063,0.125,0.060547,0.795166,0.58606,0.107727,0.112305,down
349247,-0.445312,9.847656,2.78125,-0.039063,0.125,0.060547,0.795227,0.585937,0.107849,0.112671,down
349252,-0.519531,9.730469,2.816406,-0.039063,0.125,0.060547,0.795349,0.585632,0.107971,0.113037,down
349257,-0.558594,9.691406,2.816406,-0.166016,0.09375,0.089844,0.795715,0.584961,0.107971,0.113708,down
349262,-0.519531,9.570313,2.894531,-0.166016,0.09375,0.089844,0.795715,0.584961,0.107971,0.113708,down
349267,-0.558594,9.5,2.933594,-0.166016,0.09375,0.089844,0.795959,0.584656,0.10791,0.114075,down
349272,-0.519531,9.503906,2.972656,-0.070312,0.025391,0.123047,0.795959,0.584656,0.10791,0.114075,down
349277,-0.445312,9.5,2.972656,-0.070312,0.025391,0.123047,0.796204,0.58429,0.107605,0.114685,down
349283,-0.367188,9.5,3.007813,-0.070312,0.025391,0.123047,0.796204,0.584229,0.107361,0.115295,down
349288,-0.289063,9.460938,3.007813,0.0625,0.052734,0.119141,0.796204,0.584229,0.107361,0.115295,down
349293,-0.289063,9.464844,2.972656,0.0625,0.052734,0.119141,0.795898,0.584473,0.107239,0.115906,down
349299,-0.328125,9.464844,2.855469,0.0625,0.052734,0.119141,0.795654,0.584717,0.107239,0.11615,down
349304,-0.328125,9.464844,2.816406,0.166016,0.074219,0.095703,0.79541,0.585022,0.1073,0.116455,down
349309,-0.289063,9.535156,2.78125,0.197266,0.068359,0.083984,0.79541,0.585022,0.1073,0.116455,down
349315,-0.367188,9.652344,2.703125,0.210937,0.068359,0.068359,0.79541,0.585022,0.1073,0.116455,down
349320,-0.328125,9.652344,2.703125,0.195312,0.060547,0.058594,0.79541,0.585022,0.1073,0.116455,down
349325,-0.328125,9.652344,2.703125,0.181641,0.048828,0.050781,0.79541,0.585022,0.1073,0.116455,down
349332,-0.40625,9.652344,2.703125,0.173828,0.050781,0.041016,0.79541,0.585022,0.1073,0.116455,down
349337,-0.480469,9.691406,2.78125,0.173828,0.050781,0.041016,0.79541,0.585022,0.1073,0.116455,down
349342,-0.480469,9.765625,2.742188,0.181641,0.060547,0.027344,0.79541,0.585022,0.1073,0.116455,down
349348,-0.519531,9.808594,2.742188,0.169922,0.074219,0.033203,0.792725,0.588257,0.108215,0.117798,down
349353,-0.558594,9.808594,2.742188,0.169922,0.074219,0.033203,0.792725,0.588257,0.108215,0.117798,down
349358,-0.558594,9.808594,2.78125,0.078125,0.068359,0.044922,0.792725,0.588257,0.108215,0.117798,down
349363,-0.597656,9.847656,2.742188,0.078125,0.068359,0.044922,0.792175,0.588745,0.108582,0.118286,down
349368,-0.597656,9.765625,2.742188,0.078125,0.068359,0.044922,0.792175,0.588745,0.108582,0.118286,down
349373,-0.558594,9.769531,2.78125,0.035156,0.044922,0.087891,0.792114,0.588806,0.108643,0.118469,down
349378,-0.597656,9.804688,2.78125,0.035156,0.044922,0.087891,0.791931,0.588989,0.108582,0.118958,down
349383,-0.558594,9.765625,2.816406,0.072266,0.037109,0.113281,0.791931,0.588989,0.108582,0.118958,down
349388,-0.558594,9.769531,2.78125,0.072266,0.037109,0.113281,0.791626,0.589294,0.108521,0.119446,down
349393,-0.558594,9.726563,2.78125,0.111328,0.03125,0.125,0.791626,0.589294,0.108521,0.119446,down
349398,-0.519531,9.769531,2.78125,0.111328,0.03125,0.125,0.791443,0.589539,0.108398,0.119751,down
349403,-0.445312,9.730469,2.78125,0.126953,0.019531,0.140625,0.791443,0.589539,0.108398,0.119751,down
349408,-0.445312,9.730469,2.78125,0.126953,0.019531,0.140625,0.79071,0.590393,0.108032,0.120483,down
349413,-0.40625,9.726563,2.78125,0.126953,0.019531,0.140625,0.79071,0.590393,0.108032,0.120483,down
349418,-0.289063,9.769531,2.78125,0.148437,-0.013672,0.125,0.790222,0.591064,0.107727,0.12085,down
349423,-0.214844,9.765625,2.78125,0.148437,-0.013672,0.125,0.790222,0.591064,0.107727,0.12085,down
349428,-0.175781,9.726563,2.78125,0.123047,0.005859,0.103516,0.789978,0.59137,0.107544,0.121033,down
349433,-0.136719,9.765625,2.78125,0.109375,0.017578,0.101563,0.789734,0.591675,0.107422,0.121216,down
349438,-0.136719,9.765625,2.78125,0.109375,0.017578,0.101563,0.789368,0.592163,0.1073,0.121582,down
349443,-0.175781,9.652344,2.78125,0.109375,0.017578,0.101563,0.789185,0.592346,0.107239,0.121826,down
349448,-0.214844,9.648438,2.78125,0.078125,0.056641,0.115234,0.789185,0.592346,0.107239,0.121826,down
349453,-0.253906,9.691406,2.742188,0.0625,0.064453,0.113281,0.789001,0.592529,0.107178,0.122131,down
349458,-0.289063,9.652344,2.742188,0.0625,0.064453,0.113281,0.788818,0.592651,0.107178,0.122375,down
349463,-0.289063,9.652344,2.742188,0.0625,0.064453,0.113281,0.788574,0.592896,0.107056,0.123047,down
349468,-0.175781,9.613281,2.78125,0.0625,0.064453,0.113281,0.788574,0.592896,0.107056,0.123047,down
349473,-0.175781,9.613281,2.78125,0.072266,0.023437,0.146484,0.788574,0.592896,0.107056,0.123047,down
349478,-0.097656,9.53125,2.742188,0.072266,0.023437,0.146484,0.78833,0.59314,0.106812,0.123657,down
349483,-0.0625,9.503906,2.742188,0.082031,-0.005859,0.152344,0.788147,0.593323,0.106628,0.123962,down
349488,-0.0625,9.503906,2.742188,0.082031,-0.005859,0.152344,0.787964,0.593567,0.106445,0.124268,down
349493,0.015625,9.503906,2.78125,0.111328,-0.025391,0.167969,0.787781,0.59375,0.106201,0.124573,down
349499,0.015625,9.464844,2.78125,0.111328,-0.025391,0.167969,0.787415,0.594299,0.105713,0.125122,down
349504,0.015625,9.421875,2.78125,0.111328,-0.019531,0.173828,0.78717,0.594604,0.105469,0.125427,down
349509,0.015625,9.386719,2.78125,0.101563,-0.03125,0.175781,0.786926,0.594849,0.105164,0.125671,down
349514,0.128906,9.382813,2.78125,0.101563,-0.03125,0.175781,0.786804,0.595032,0.104919,0.125916,down
349519,0.128906,9.34375,2.78125,0.101563,-0.03125,0.175781,0.786621,0.595215,0.104614,0.126221,down
349524,0.09375,9.382813,2.742188,0.052734,-0.025391,0.167969,0.786499,0.595459,0.104309,0.126526,down
349529,0.167969,9.425781,2.78125,0.052734,-0.025391,0.167969,0.786377,0.595581,0.104004,0.126831,down
349534,0.128906,9.425781,2.742188,0.052734,-0.025391,0.167969,0.786316,0.595642,0.103821,0.127075,down
349539,0.09375,9.425781,2.742188,0.041016,-0.023437,0.144531,0.786194,0.595825,0.103516,0.127319,down
349544,0.09375,9.425781,2.78125,0.027344,-0.019531,0.126953,0.786072,0.595886,0.103271,0.127563,down
349549,0.09375,9.5,2.742188,0.027344,-0.019531,0.126953,0.786011,0.596008,0.103088,0.127808,down
349554,0.015625,9.421875,2.742188,0.027344,-0.019531,0.126953,0.78595,0.596069,0.102966,0.127991,down
349559,-0.023437,9.425781,2.742188,0.037109,-0.005859,0.083984,0.785889,0.596191,0.102844,0.128174,down
349564,-0.023437,9.382813,2.742188,0.058594,-0.013672,0.068359,0.785767,0.596252,0.102722,0.128296,down
349570,-0.136719,9.421875,2.78125,0.058594,-0.013672,0.068359,0.785645,0.596436,0.1026,0.128357,down
349575,-0.136719,9.421875,2.78125,0.113281,-0.015625,0.046875,0.785461,0.59668,0.102539,0.128418,down
349581,-0.328125,9.382813,2.78125,0.113281,-0.015625,0.046875,0.785461,0.59668,0.102539,0.128418,down
349586,-0.328125,9.421875,2.816406,0.193359,-0.09375,0.064453,0.785461,0.59668,0.102539,0.128418,down
349591,-0.289063,9.5,2.78125,0.244141,-0.130859,0.080078,0.785461,0.59668,0.102539,0.128418,down
349596,-0.214844,9.574219,2.78125,0.302734,-0.166016,0.099609,0.785461,0.59668,0.102539,0.128418,down
349601,-0.175781,9.652344,2.742188,0.347656,-0.1875,0.115234,0.785461,0.59668,0.102539,0.128418,down
349606,0.015625,9.847656,2.703125,0.347656,-0.1875,0.115234,0.785461,0.59668,0.102539,0.128418,down
349612,0.054687,9.886719,2.664063,0.347656,-0.1875,0.115234,0.782776,0.600647,0.100403,0.127808,down
349618,0.054687,9.921875,2.625,0.333984,-0.167969,0.132812,0.782776,0.600647,0.100403,0.127808,down
349624,0.09375,9.992188,2.589844,0.333984,-0.167969,0.132812,0.78125,0.602905,0.099121,0.127563,down
349629,0.015625,9.996094,2.589844,0.242187,-0.132812,0.126953,0.780823,0.603577,0.098694,0.127563,down
349635,0.015625,9.953125,2.550781,0.242187,-0.132812,0.126953,0.780518,0.604004,0.098389,0.127563,down
349641,-0.023437,9.882813,2.625,0.074219,-0.09375,0.140625,0.780518,0.604004,0.098389,0.127563,down
349647,-0.097656,9.804688,2.625,0.003906,-0.085937,0.140625,0.780518,0.604004,0.098389,0.127563,down
349652,-0.097656,9.765625,2.625,-0.033203,-0.080078,0.140625,0.780518,0.604004,0.098389,0.127563,down
349657,-0.097656,9.730469,2.664063,-0.037109,-0.085937,0.148437,0.780518,0.604004,0.098389,0.127563,down
349663,-0.0625,9.648438,2.703125,-0.037109,-0.085937,0.148437,0.780334,0.604492,0.096008,0.128418,down
349668,-0.097656,9.691406,2.664063,-0.037109,-0.085937,0.148437,0.780334,0.604492,0.096008,0.128418,down
349673,-0.097656,9.648438,2.703125,0.070312,-0.150391,0.146484,0.780334,0.604492,0.096008,0.128418,down
349678,0.054687,9.691406,2.664063,0.070312,-0.150391,0.146484,0.780212,0.604736,0.095093,0.128601,down
349683,0.054687,9.730469,2.664063,0.070312,-0.150391,0.146484,0.780029,0.605042,0.094543,0.128601,down
349689,0.09375,9.726563,2.703125,0.160156,-0.166016,0.130859,0.780029,0.605042,0.094543,0.128601,down
349694,0.09375,9.726563,2.664063,0.160156,-0.166016,0.130859,0.779358,0.606079,0.09314,0.128601,down
349700,0.167969,9.769531,2.703125,0.160156,-0.166016,0.130859,0.779175,0.606445,0.092773,0.12854,down
349705,0.167969,9.808594,2.664063,0.128906,-0.126953,0.101563,0.779175,0.606445,0.092773,0.12854,down
349710,0.207031,9.808594,2.703125,0.111328,-0.105469,0.095703,0.779175,0.606445,0.092773,0.12854,down
349715,0.285156,9.769531,2.625,0.111328,-0.105469,0.095703,0.778625,0.6073,0.091736,0.12854,down
349721,0.359375,9.765625,2.550781,0.111328,-0.105469,0.095703,0.778625,0.6073,0.091736,0.12854,down
349727,0.398438,9.804688,2.550781,0.076172,-0.033203,0.074219,0.77832,0.607727,0.091309,0.128662,down
349732,0.398438,9.804688,2.550781,0.076172,-0.033203,0.074219,0.778198,0.60791,0.091187,0.128723,down
349738,0.398438,9.6875,2.511719,0.076172,-0.033203,0.074219,0.777832,0.608276,0.091187,0.128906,down
349743,0.398438,9.769531,2.511719,0.076172,-0.033203,0.074219,0.777832,0.608276,0.091187,0.128906,down
349748,0.324219,9.726563,2.511719,0.130859,0.050781,0.033203,0.777832,0.608276,0.091187,0.128906,down
349753,0.324219,9.769531,2.511719,0.130859,0.050781,0.033203,0.777405,0.608765,0.09137,0.12915,down
349758,0.246094,9.765625,2.472656,0.105469,0.080078,0.019531,0.777405,0.608765,0.09137,0.12915,down
349763,0.246094,9.730469,2.472656,0.105469,0.080078,0.019531,0.776978,0.609192,0.091675,0.129456,down
349768,0.246094,9.765625,2.589844,0.105469,0.080078,0.019531,0.776794,0.609375,0.091858,0.129578,down
349773,0.285156,9.804688,2.589844,0.105469,0.080078,0.019531,0.776672,0.609497,0.09198,0.1297,down
349778,0.207031,9.804688,2.589844,0.017578,0.082031,0.042969,0.776672,0.609497,0.09198,0.1297,down
349783,0.207031,9.804688,2.589844,0.017578,0.082031,0.042969,0.776489,0.60968,0.092224,0.130005,down
349789,0.246094,9.808594,2.664063,0.017578,0.082031,0.042969,0.776428,0.609619,0.092346,0.130493,down
349794,0.167969,9.769531,2.703125,0.017578,0.082031,0.042969,0.776428,0.609619,0.092346,0.130493,down
349799,0.246094,9.769531,2.664063,-0.037109,0.068359,0.078125,0.776428,0.609436,0.092407,0.131104,down
349804,0.207031,9.808594,2.625,-0.037109,0.068359,0.078125,0.776489,0.609314,0.092346,0.131348,down
349809,0.285156,9.808594,2.625,-0.091797,0.074219,0.103516,0.776489,0.609314,0.092346,0.131348,down
349814,0.285156,9.765625,2.589844,-0.095703,0.080078,0.097656,0.77655,0.609131,0.092346,0.131714,down
349819,0.324219,9.730469,2.664063,-0.095703,0.080078,0.097656,0.776672,0.608948,0.092285,0.132019,down
349824,0.324219,9.730469,2.664063,-0.095703,0.080078,0.097656,0.776855,0.608582,0.092285,0.13269,down
349829,0.246094,9.6875,2.625,-0.095703,0.080078,0.097656,0.776855,0.608582,0.092285,0.13269,down
349834,0.246094,9.6875,2.703125,-0.087891,0.099609,0.080078,0.776855,0.608582,0.092285,0.13269,down
349839,0.207031,9.6875,2.664063,-0.089844,0.103516,0.070312,0.776855,0.608582,0.092285,0.13269,down
349844,0.207031,9.6875,2.703125,-0.080078,0.099609,0.066406,0.7771,0.608032,0.092468,0.133728,down
349849,0.167969,9.6875,2.742188,-0.080078,0.099609,0.066406,0.777283,0.607666,0.092651,0.134338,down
349854,0.09375,9.6875,2.78125,-0.080078,0.099609,0.066406,0.777283,0.607666,0.092651,0.134338,down
349859,0.054687,9.730469,2.742188,-0.048828,0.099609,0.064453,0.777344,0.607422,0.092773,0.134949,down
349864,0.054687,9.765625,2.742188,-0.048828,0.099609,0.064453,0.777344,0.607422,0.092773,0.134949,down
349869,0.015625,9.804688,2.742188,-0.041016,0.076172,0.078125,0.777344,0.607422,0.092773,0.134949,down
349874,0.015625,9.847656,2.78125,-0.037109,0.060547,0.09375,0.777344,0.607239,0.092896,0.135498,down
349879,0.054687,9.804688,2.78125,-0.037109,0.060547,0.09375,0.777405,0.607056,0.092834,0.136047,down
349884,0.09375,9.808594,2.78125,-0.037109,0.060547,0.09375,0.777405,0.607056,0.092834,0.136047,down
349889,0.054687,9.765625,2.78125,-0.082031,0.044922,0.097656,0.777405,0.607056,0.092834,0.136047,down
349894,0.054687,9.765625,2.78125,-0.082031,0.044922,0.097656,0.777588,0.606689,0.09259,0.136902,down
349899,0.128906,9.652344,2.78125,-0.082031,0.044922,0.097656,0.777588,0.606689,0.09259,0.136902,down
349904,0.09375,9.613281,2.78125,-0.125,0.023437,0.109375,0.77771,0.606445,0.092468,0.137207,down
349909,0.054687,9.570313,2.816406,-0.125,0.023437,0.109375,0.777832,0.606262,0.092285,0.137512,down
349914,0.015625,9.503906,2.78125,-0.125,0.023437,0.109375,0.777954,0.606018,0.092163,0.137756,down
349919,0.015625,9.460938,2.816406,-0.089844,-0.019531,0.107422,0.777954,0.606018,0.092163,0.137756,down
349924,0.054687,9.460938,2.816406,-0.089844,-0.019531,0.107422,0.778259,0.605652,0.091736,0.138245,down
349930,0.054687,9.425781,2.816406,-0.089844,-0.019531,0.107422,0.778381,0.605469,0.091248,0.138611,down
349935,0.054687,9.460938,2.816406,-0.089844,-0.019531,0.107422,0.778442,0.605408,0.091003,0.138672,down
349940,0.054687,9.421875,2.78125,0.017578,-0.095703,0.074219,0.778442,0.605469,0.090698,0.138733,down
349945,0.054687,9.386719,2.78125,0.0625,-0.107422,0.064453,0.778381,0.605591,0.090393,0.138672,down
349951,0.015625,9.347656,2.742188,0.0625,-0.107422,0.064453,0.778259,0.605774,0.090149,0.138611,down
349956,0.015625,9.347656,2.742188,0.101563,-0.142578,0.046875,0.778076,0.606079,0.089783,0.138489,down
349961,0.09375,9.308594,2.742188,0.101563,-0.142578,0.046875,0.777954,0.606323,0.089539,0.138367,down
349967,0.167969,9.34375,2.703125,0.115234,-0.158203,0.048828,0.777954,0.606323,0.089539,0.138367,down
349973,0.167969,9.308594,2.664063,0.111328,-0.150391,0.042969,0.777954,0.606323,0.089539,0.138367,down
349978,0.246094,9.34375,2.625,0.115234,-0.148437,0.025391,0.777954,0.606323,0.089539,0.138367,down
349984,0.167969,9.304688,2.589844,0.123047,-0.140625,0.025391,0.777954,0.606323,0.089539,0.138367,down
349989,0.09375,9.265625,2.589844,0.148437,-0.138672,0.001953,0.777161,0.607727,0.088074,0.137451,down
349994,0.09375,9.304688,2.511719,0.148437,-0.138672,0.001953,0.776978,0.608093,0.08783,0.137207,down
349999,0.09375,9.347656,2.511719,0.177734,-0.164062,-0.019531,0.776794,0.608398,0.087646,0.137024,down
350005,0.09375,9.386719,2.511719,0.177734,-0.164062,-0.019531,0.776367,0.609131,0.087219,0.136353,down
350010,0.09375,9.347656,2.511719,0.199219,-0.177734,-0.046875,0.776062,0.609619,0.087036,0.135925,down
350016,0.09375,9.347656,2.511719,0.199219,-0.177734,-0.046875,0.775818,0.610046,0.086792,0.135559,down
350021,0.09375,9.464844,2.472656,0.199219,-0.177734,-0.046875,0.775574,0.610535,0.086609,0.135132,down
350026,0.128906,9.460938,2.433594,0.244141,-0.195312,-0.0625,0.775574,0.610535,0.086609,0.135132,down
350031,0.128906,9.460938,2.433594,0.238281,-0.199219,-0.044922,0.775574,0.610535,0.086609,0.135132,down
350036,0.167969,9.460938,2.398438,0.228516,-0.203125,-0.041016,0.775574,0.610535,0.086609,0.135132,down
350041,0.128906,9.425781,2.433594,0.228516,-0.203125,-0.041016,0.775574,0.610535,0.086609,0.135132,down
350048,0.167969,9.382813,2.433594,0.212891,-0.208984,-0.027344,0.775574,0.610535,0.086609,0.135132,down
350054,0.09375,9.425781,2.398438,0.21875,-0.207031,-0.019531,0.775574,0.610535,0.086609,0.135132,down
350060,0.128906,9.425781,2.359375,0.21875,-0.207031,-0.019531,0.773254,0.614502,0.084534,0.131714,down
350065,0.128906,9.460938,2.28125,0.244141,-0.199219,-0.015625,0.772888,0.615051,0.084229,0.131287,down
350070,0.167969,9.460938,2.28125,0.251953,-0.210937,-0.013672,0.772888,0.615051,0.084229,0.131287,down
350075,0.207031,9.5,2.242188,0.251953,-0.210937,-0.013672,0.772217,0.616089,0.083679,0.130554,down
350081,0.285156,9.5,2.28125,0.251953,-0.210937,-0.013672,0.771912,0.616638,0.083374,0.130188,down
