timestamp,ax,ay,az,gx,gy,gz,qw,qx,qy,qz,label
296687,8.753906,4.863281,-0.746094,-0.234375,0.019531,-0.037109,0.364258,0.736694,-0.027832,0.569031,down
296692,8.792969,4.824219,-0.78125,-0.064453,0.023437,-0.056641,0.364746,0.73645,-0.028015,0.569031,down
296697,8.710938,4.902344,-0.78125,-0.064453,0.023437,-0.056641,0.365051,0.736328,-0.028076,0.569031,down
296702,8.714844,4.902344,-0.820312,-0.064453,0.023437,-0.056641,0.365295,0.736206,-0.027893,0.56897,down
296707,8.671875,4.976562,-0.820312,-0.064453,0.023437,-0.056641,0.365295,0.736206,-0.027893,0.56897,down
296712,8.636719,5.054687,-0.859375,0.050781,0.039063,-0.087891,0.365295,0.736206,-0.027893,0.56897,down
296718,8.554688,5.09375,-0.820312,0.050781,0.039063,-0.087891,0.365479,0.736206,-0.027161,0.568909,down
296723,8.519531,5.207031,-0.898437,0.050781,0.039063,-0.087891,0.365601,0.736206,-0.026917,0.568909,down
296729,8.480469,5.246094,-0.820312,0.050781,0.039063,-0.087891,0.365723,0.736145,-0.026733,0.568909,down
296734,8.519531,5.207031,-0.859375,-0.037109,0.046875,-0.087891,0.365723,0.736145,-0.026733,0.568909,down
296740,8.476563,5.246094,-0.898437,-0.037109,0.046875,-0.087891,0.36615,0.735901,-0.026489,0.568909,down
296745,8.480469,5.285156,-0.9375,-0.101563,0.080078,-0.091797,0.36615,0.735901,-0.026489,0.568909,down
296750,8.476563,5.246094,-0.898437,-0.126953,0.087891,-0.091797,0.36615,0.735901,-0.026489,0.568909,down
296755,8.519531,5.246094,-0.859375,-0.126953,0.087891,-0.091797,0.367249,0.735229,-0.026306,0.569031,down
296760,8.558594,5.207031,-0.898437,-0.126953,0.087891,-0.091797,0.367249,0.735229,-0.026306,0.569031,down
296766,8.558594,5.207031,-0.859375,-0.140625,0.115234,-0.099609,0.367249,0.735229,-0.026306,0.569031,down
296771,8.480469,5.285156,-0.746094,-0.140625,0.115234,-0.099609,0.368591,0.734375,-0.026123,0.569336,down
296776,8.410156,5.207031,-0.707031,-0.140625,0.115234,-0.099609,0.369019,0.73407,-0.026001,0.569458,down
296782,8.40625,5.171875,-0.667969,-0.144531,0.119141,-0.087891,0.369019,0.73407,-0.026001,0.569458,down
296787,8.371094,5.132812,-0.589844,-0.144531,0.119141,-0.087891,0.369873,0.733459,-0.025879,0.569702,down
296792,8.371094,5.132812,-0.589844,-0.140625,0.099609,-0.070312,0.3703,0.733154,-0.025879,0.569824,down
296797,8.367188,5.132812,-0.554687,-0.140625,0.099609,-0.070312,0.370728,0.732849,-0.025879,0.569946,down
296803,8.449219,5.054687,-0.589844,-0.140625,0.082031,-0.074219,0.371582,0.7323,-0.025879,0.570129,down
296808,8.449219,5.132812,-0.554687,-0.140625,0.082031,-0.074219,0.371948,0.732056,-0.025879,0.57019,down
296813,8.445313,5.171875,-0.554687,-0.140625,0.082031,-0.074219,0.372314,0.731812,-0.025818,0.570251,down
296818,8.410156,5.171875,-0.554687,-0.083984,0.095703,-0.101563,0.372314,0.731812,-0.025818,0.570251,down
296823,8.40625,5.171875,-0.589844,-0.052734,0.097656,-0.103516,0.372742,0.731506,-0.025696,0.570312,down
296829,8.40625,5.207031,-0.554687,-0.052734,0.097656,-0.103516,0.373291,0.73114,-0.02533,0.570435,down
296834,8.449219,5.246094,-0.515625,-0.03125,0.080078,-0.109375,0.373535,0.731018,-0.025146,0.570496,down
296839,8.476563,5.207031,-0.515625,-0.037109,0.083984,-0.115234,0.373779,0.730835,-0.024902,0.570557,down
296846,8.449219,5.285156,-0.515625,-0.037109,0.083984,-0.115234,0.374084,0.730713,-0.024719,0.570557,down
296851,8.449219,5.246094,-0.515625,-0.03125,0.076172,-0.111328,0.374084,0.730713,-0.024719,0.570557,down
296856,8.480469,5.246094,-0.589844,-0.025391,0.076172,-0.113281,0.374084,0.730713,-0.024719,0.570557,down
296861,8.445313,5.246094,-0.589844,-0.033203,0.078125,-0.111328,0.374084,0.730713,-0.024719,0.570557,down
296866,8.515625,5.246094,-0.589844,-0.033203,0.078125,-0.111328,0.374084,0.730713,-0.024719,0.570557,down
296872,8.519531,5.246094,-0.554687,-0.033203,0.078125,-0.111328,0.375305,0.730042,-0.023743,0.570679,down
296877,8.519531,5.246094,-0.554687,-0.066406,0.050781,-0.091797,0.375305,0.730042,-0.023743,0.570679,down
296882,8.515625,5.171875,-0.554687,-0.066406,0.050781,-0.091797,0.375854,0.729736,-0.023499,0.570679,down
296887,8.480469,5.246094,-0.628906,-0.066406,0.050781,-0.091797,0.37616,0.729614,-0.023437,0.570679,down
296893,8.480469,5.246094,-0.667969,-0.029297,0.056641,-0.089844,0.37616,0.729614,-0.023437,0.570679,down
296898,8.371094,5.285156,-0.707031,-0.029297,0.056641,-0.089844,0.376831,0.729248,-0.02301,0.570679,down
296904,8.480469,5.285156,-0.589844,-0.029297,0.056641,-0.089844,0.376953,0.729187,-0.022888,0.570679,down
296909,8.480469,5.246094,-0.589844,-0.013672,0.017578,-0.087891,0.377136,0.729126,-0.022766,0.570618,down
296914,8.480469,5.246094,-0.589844,0.0,0.021484,-0.087891,0.377136,0.729126,-0.022766,0.570618,down
296919,8.480469,5.246094,-0.589844,0.0,0.021484,-0.087891,0.377441,0.729065,-0.022461,0.570496,down
296925,8.476563,5.285156,-0.554687,0.0,0.021484,-0.087891,0.377563,0.729065,-0.022217,0.570435,down
296931,8.476563,5.246094,-0.554687,0.064453,0.0,-0.099609,0.377563,0.729065,-0.022217,0.570435,down
296936,8.519531,5.324219,-0.589844,0.076172,0.005859,-0.085937,0.377563,0.729065,-0.022217,0.570435,down
296941,8.480469,5.363281,-0.628906,0.074219,0.025391,-0.078125,0.377563,0.729065,-0.022217,0.570435,down
296947,8.445313,5.363281,-0.628906,0.083984,0.025391,-0.072266,0.377563,0.729065,-0.022217,0.570435,down
296952,8.445313,5.363281,-0.589844,0.083984,0.025391,-0.072266,0.377625,0.729309,-0.020996,0.57019,down
296957,8.445313,5.363281,-0.589844,0.083984,0.025391,-0.072266,0.377625,0.729309,-0.020691,0.570129,down
296962,8.410156,5.363281,-0.589844,0.083984,0.025391,-0.072266,0.377563,0.72937,-0.020447,0.570129,down
296968,8.371094,5.363281,-0.589844,0.089844,0.013672,-0.072266,0.377502,0.729492,-0.019958,0.570007,down
296973,8.367188,5.363281,-0.554687,0.089844,0.013672,-0.072266,0.377502,0.729553,-0.019714,0.569946,down
296978,8.371094,5.363281,-0.589844,0.054687,0.005859,-0.0625,0.377502,0.729553,-0.019714,0.569946,down
296983,8.371094,5.363281,-0.628906,0.054687,0.005859,-0.0625,0.377563,0.729614,-0.019348,0.569885,down
296988,8.40625,5.285156,-0.554687,0.054687,0.005859,-0.0625,0.377563,0.729614,-0.019348,0.569885,down
296993,8.449219,5.246094,-0.554687,0.050781,0.025391,-0.039063,0.377563,0.729614,-0.019226,0.569824,down
296998,8.40625,5.207031,-0.554687,0.050781,0.050781,-0.054687,0.377563,0.729614,-0.019104,0.569824,down
297003,8.40625,5.207031,-0.554687,0.050781,0.050781,-0.054687,0.377563,0.729614,-0.018738,0.569885,down
297008,8.371094,5.132812,-0.476562,0.050781,0.050781,-0.054687,0.377502,0.729614,-0.018494,0.569946,down
297013,8.371094,5.171875,-0.398438,0.121094,0.060547,-0.052734,0.377502,0.729614,-0.018494,0.569946,down
297018,8.410156,5.171875,-0.398438,0.142578,0.068359,-0.0625,0.37738,0.729614,-0.018188,0.570007,down
297023,8.371094,5.246094,-0.363281,0.142578,0.068359,-0.0625,0.377258,0.729614,-0.017883,0.570068,down
297028,8.371094,5.246094,-0.363281,0.142578,0.068359,-0.0625,0.376953,0.729675,-0.01709,0.570251,down
297033,8.292969,5.363281,-0.363281,0.142578,0.068359,-0.0625,0.376953,0.729675,-0.01709,0.570251,down
297038,8.328125,5.363281,-0.324219,0.25,0.068359,-0.09375,0.376953,0.729675,-0.01709,0.570251,down
297043,8.328125,5.398437,-0.363281,0.25,0.068359,-0.09375,0.376404,0.729858,-0.016052,0.570374,down
297048,8.367188,5.4375,-0.324219,0.226562,0.052734,-0.115234,0.376099,0.730042,-0.015442,0.570374,down
297053,8.410156,5.4375,-0.363281,0.226562,0.052734,-0.115234,0.375854,0.730164,-0.014832,0.570374,down
297058,8.40625,5.4375,-0.324219,0.148437,0.048828,-0.125,0.375671,0.730286,-0.014282,0.570374,down
297064,8.214844,5.4375,-0.285156,0.148437,0.048828,-0.125,0.375549,0.730408,-0.013428,0.570312,down
297069,8.253906,5.363281,-0.285156,0.054687,0.009766,-0.121094,0.37561,0.730469,-0.013,0.57019,down
297075,8.253906,5.246094,-0.246094,0.054687,0.009766,-0.121094,0.375732,0.730469,-0.012817,0.570129,down
297080,8.292969,5.285156,-0.246094,-0.060547,-0.023437,-0.085937,0.375732,0.730469,-0.012817,0.570129,down
297085,8.25,5.246094,-0.324219,-0.060547,-0.023437,-0.085937,0.376282,0.730469,-0.012756,0.569824,down
297090,8.332031,5.285156,-0.363281,-0.148437,-0.058594,-0.074219,0.376282,0.730469,-0.012756,0.569824,down
297095,8.332031,5.363281,-0.4375,-0.154297,-0.068359,-0.080078,0.376282,0.730469,-0.012756,0.569824,down
297100,8.410156,5.4375,-0.589844,-0.154297,-0.068359,-0.080078,0.377441,0.730286,-0.013184,0.569214,down
297105,8.445313,5.476562,-0.589844,-0.109375,-0.091797,-0.087891,0.377441,0.730286,-0.013184,0.569214,down
297110,8.480469,5.476562,-0.589844,-0.078125,-0.083984,-0.097656,0.377441,0.730286,-0.013184,0.569214,down
297115,8.476563,5.324219,-0.589844,-0.037109,-0.082031,-0.105469,0.377441,0.730286,-0.013184,0.569214,down
297120,8.515625,5.363281,-0.667969,-0.005859,-0.082031,-0.105469,0.377441,0.730286,-0.013184,0.569214,down
297125,8.59375,5.324219,-0.667969,0.007813,-0.0625,-0.121094,0.377441,0.730286,-0.013184,0.569214,down
297131,8.59375,5.324219,-0.628906,0.007813,-0.054687,-0.121094,0.377441,0.730286,-0.013184,0.569214,down
297136,8.59375,5.324219,-0.628906,0.007813,-0.054687,-0.121094,0.379211,0.730774,-0.012878,0.567505,down
297143,8.480469,5.363281,-0.667969,0.007813,-0.054687,-0.121094,0.379211,0.730774,-0.012878,0.567505,down
297148,8.476563,5.398437,-0.589844,-0.019531,-0.03125,-0.148437,0.379944,0.730835,-0.012329,0.566833,down
297153,8.445313,5.476562,-0.628906,-0.019531,-0.03125,-0.148437,0.380249,0.730896,-0.012146,0.56665,down
297158,8.449219,5.515625,-0.707031,-0.019531,-0.03125,-0.148437,0.380493,0.730896,-0.011902,0.566467,down
297163,8.449219,5.554687,-0.707031,-0.019531,-0.03125,-0.148437,0.380493,0.730896,-0.011902,0.566467,down
297168,8.515625,5.667969,-0.667969,0.03125,-0.048828,-0.164062,0.380493,0.730896,-0.011902,0.566467,down
297174,8.445313,5.707031,-0.628906,0.03125,-0.048828,-0.164062,0.381104,0.731262,-0.011047,0.565613,down
297179,8.480469,5.746094,-0.667969,0.058594,-0.072266,-0.164062,0.381287,0.731384,-0.010803,0.565369,down
297184,8.445313,5.746094,-0.707031,0.066406,-0.101563,-0.15625,0.381409,0.731567,-0.010498,0.565002,down
297190,8.449219,5.78125,-0.628906,0.066406,-0.101563,-0.15625,0.381531,0.73175,-0.010254,0.564697,down
297196,8.445313,5.707031,-0.628906,-0.003906,-0.119141,-0.158203,0.381531,0.73175,-0.010254,0.564697,down
297202,8.554688,5.707031,-0.667969,-0.052734,-0.113281,-0.150391,0.382019,0.732056,-0.01001,0.563904,down
297207,8.554688,5.667969,-0.746094,-0.087891,-0.095703,-0.162109,0.382019,0.732056,-0.01001,0.563904,down
297213,8.554688,5.667969,-0.746094,-0.138672,-0.060547,-0.166016,0.382019,0.732056,-0.01001,0.563904,down
297218,8.59375,5.707031,-0.78125,-0.138672,-0.060547,-0.166016,0.383362,0.732178,-0.009888,0.562927,down
297223,8.597656,5.746094,-0.820312,-0.130859,-0.044922,-0.158203,0.383362,0.732178,-0.009888,0.562927,down
297228,8.59375,5.746094,-0.859375,-0.130859,-0.044922,-0.158203,0.384277,0.731995,-0.009766,0.562439,down
297234,8.632813,5.820312,-0.859375,-0.076172,0.027344,-0.140625,0.384277,0.731995,-0.009766,0.562439,down
297239,8.554688,5.820312,-0.820312,-0.076172,0.027344,-0.140625,0.385437,0.731689,-0.009399,0.562073,down
297244,8.558594,5.820312,-0.898437,-0.076172,0.027344,-0.140625,0.385742,0.731628,-0.009155,0.562012,down
297249,8.558594,5.820312,-0.859375,-0.076172,0.027344,-0.140625,0.385925,0.731567,-0.00885,0.56189,down
297254,8.480469,5.746094,-0.9375,0.046875,0.041016,-0.15625,0.386169,0.731567,-0.008484,0.561829,down
297259,8.480469,5.78125,-0.898437,0.046875,0.041016,-0.15625,0.386292,0.731567,-0.008179,0.561707,down
297264,8.519531,5.746094,-0.859375,0.046875,0.041016,-0.15625,0.386475,0.731567,-0.00769,0.561646,down
297269,8.476563,5.746094,-0.859375,0.054687,0.056641,-0.1875,0.386597,0.731506,-0.007263,0.561584,down
297274,8.445313,5.746094,-0.820312,0.033203,0.064453,-0.185547,0.386597,0.731506,-0.007263,0.561584,down
297279,8.40625,5.707031,-0.78125,0.033203,0.064453,-0.185547,0.387085,0.731384,-0.006409,0.561401,down
297285,8.410156,5.667969,-0.820312,0.033203,0.064453,-0.185547,0.38739,0.731262,-0.006042,0.561401,down
297290,8.367188,5.628906,-0.78125,-0.0625,0.111328,-0.208984,0.38739,0.731262,-0.006042,0.561401,down
297297,8.367188,5.628906,-0.78125,-0.091797,0.126953,-0.222656,0.38739,0.731262,-0.006042,0.561401,down
297303,8.253906,5.667969,-0.746094,-0.091797,0.126953,-0.222656,0.388794,0.73053,-0.004883,0.561401,down
297309,8.214844,5.628906,-0.667969,-0.136719,0.150391,-0.232422,0.390015,0.729797,-0.004089,0.561462,down
297314,8.171875,5.628906,-0.589844,-0.136719,0.150391,-0.232422,0.390625,0.729431,-0.003784,0.561523,down
297319,8.136719,5.628906,-0.476562,-0.136719,0.150391,-0.232422,0.391235,0.729126,-0.003479,0.561523,down
297324,8.023438,5.589844,-0.398438,-0.148437,0.09375,-0.222656,0.391235,0.729126,-0.003479,0.561523,down
297329,7.949219,5.476562,-0.285156,-0.148437,0.09375,-0.222656,0.392395,0.728577,-0.00293,0.561462,down
297334,7.945312,5.398437,-0.246094,-0.148437,0.09375,-0.222656,0.392883,0.728333,-0.002686,0.56134,down
297339,8.058594,5.398437,-0.363281,-0.148437,0.09375,-0.222656,0.393372,0.728149,-0.002441,0.561279,down
297344,8.09375,5.363281,-0.324219,-0.123047,0.039063,-0.167969,0.393372,0.728149,-0.002441,0.561279,down
297349,8.210938,5.398437,-0.363281,-0.123047,0.039063,-0.167969,0.393921,0.727966,-0.002258,0.561157,down
297355,8.210938,5.515625,-0.476562,-0.123047,0.039063,-0.167969,0.394775,0.7276,-0.001892,0.561035,down
297360,8.210938,5.515625,-0.476562,-0.023437,0.080078,-0.1875,0.395142,0.727417,-0.001587,0.560974,down
297365,8.210938,5.589844,-0.515625,0.035156,0.085937,-0.197266,0.395447,0.727295,-0.001099,0.560974,down
297371,8.09375,5.78125,-0.4375,0.035156,0.085937,-0.197266,0.39563,0.727234,-0.00061,0.560913,down
297377,8.027344,5.78125,-0.515625,0.117188,0.082031,-0.214844,0.39563,0.727234,-0.00061,0.560913,down
297382,8.023438,5.78125,-0.476562,0.125,0.074219,-0.224609,0.39563,0.727234,-0.00061,0.560913,down
297388,7.988281,5.820312,-0.398438,0.111328,0.068359,-0.238281,0.396179,0.727173,0.001831,0.560547,down
297393,8.027344,5.78125,-0.398438,0.111328,0.068359,-0.238281,0.396179,0.727173,0.001831,0.560547,down
297398,8.058594,5.78125,-0.363281,0.027344,0.064453,-0.251953,0.396179,0.727173,0.001831,0.560547,down
297404,8.132813,5.628906,-0.398438,-0.033203,0.070312,-0.263672,0.396179,0.727173,0.001831,0.560547,down
297409,8.214844,5.628906,-0.363281,-0.033203,0.070312,-0.263672,0.39801,0.726624,0.003845,0.559998,down
297414,8.214844,5.628906,-0.363281,-0.033203,0.070312,-0.263672,0.39801,0.726624,0.003845,0.559998,down
297419,8.292969,5.628906,-0.363281,-0.259766,0.097656,-0.310547,0.39801,0.726624,0.003845,0.559998,down
297424,8.25,5.707031,-0.398438,-0.259766,0.097656,-0.310547,0.400574,0.725525,0.0047,0.55957,down
297429,8.25,5.628906,-0.398438,-0.316406,0.130859,-0.335938,0.400574,0.725525,0.0047,0.55957,down
297434,8.292969,5.589844,-0.4375,-0.330078,0.148437,-0.365234,0.401672,0.724976,0.005005,0.559448,down
297439,8.292969,5.554687,-0.398438,-0.330078,0.148437,-0.365234,0.403809,0.723938,0.005676,0.559265,down
297444,8.25,5.554687,-0.476562,-0.330078,0.148437,-0.365234,0.404907,0.723389,0.006104,0.559204,down
297449,8.25,5.515625,-0.476562,-0.267578,0.1875,-0.4375,0.404907,0.723389,0.006104,0.559204,down
297454,8.210938,5.515625,-0.4375,-0.238281,0.193359,-0.46875,0.406128,0.722778,0.006775,0.559082,down
297459,8.171875,5.515625,-0.398438,-0.238281,0.193359,-0.46875,0.408264,0.721802,0.008118,0.558838,down
297464,8.136719,5.515625,-0.324219,-0.238281,0.193359,-0.46875,0.409241,0.721313,0.008911,0.558716,down
297469,8.054688,5.667969,-0.285156,-0.238281,0.193359,-0.46875,0.409241,0.721313,0.008911,0.558716,down
297474,7.988281,5.746094,-0.324219,-0.09375,0.21875,-0.519531,0.411072,0.720459,0.010986,0.558411,down
297479,7.949219,5.9375,-0.363281,-0.09375,0.21875,-0.519531,0.411072,0.720459,0.010986,0.558411,down
297484,7.910156,6.011719,-0.324219,-0.033203,0.224609,-0.550781,0.411072,0.720459,0.010986,0.558411,down
297489,7.90625,6.089844,-0.363281,-0.033203,0.224609,-0.550781,0.412842,0.719666,0.013367,0.558105,down
297495,7.988281,6.203125,-0.363281,-0.013672,0.203125,-0.572266,0.413635,0.71936,0.014526,0.557922,down
297500,7.988281,6.203125,-0.363281,-0.013672,0.203125,-0.572266,0.415222,0.718689,0.016846,0.557434,down
297505,8.058594,6.242187,-0.285156,-0.044922,0.173828,-0.611328,0.416199,0.718384,0.018127,0.557129,down
297510,8.058594,6.203125,-0.285156,-0.066406,0.177734,-0.644531,0.417236,0.718018,0.019409,0.556763,down
297517,8.136719,6.128906,-0.167969,-0.066406,0.177734,-0.644531,0.418152,0.717712,0.020508,0.556458,down
297523,8.136719,6.089844,-0.167969,-0.111328,0.191406,-0.701172,0.418152,0.717712,0.020508,0.556458,down
297528,8.171875,6.128906,-0.132812,-0.140625,0.203125,-0.730469,0.418152,0.717712,0.020508,0.556458,down
297533,8.210938,6.164062,-0.132812,-0.140625,0.203125,-0.730469,0.418152,0.717712,0.020508,0.556458,down
297538,8.25,6.203125,-0.132812,-0.140625,0.203125,-0.730469,0.423401,0.715637,0.026001,0.554871,down
297543,8.25,6.203125,-0.132812,-0.224609,0.324219,-0.832031,0.424866,0.714966,0.027405,0.554565,down
297548,8.25,6.203125,-0.132812,-0.226562,0.349609,-0.863281,0.426331,0.714233,0.028809,0.554321,down
297553,8.210938,6.28125,-0.207031,-0.226562,0.349609,-0.863281,0.426331,0.714233,0.028809,0.554321,down
297558,8.210938,6.28125,-0.207031,-0.214844,0.365234,-0.894531,0.429565,0.712585,0.032227,0.553711,down
297563,8.210938,6.28125,-0.207031,-0.171875,0.417969,-0.976562,0.431152,0.711792,0.034058,0.553467,down
297568,8.175781,6.777344,-0.285156,-0.115234,0.443359,-1.001953,0.431152,0.711792,0.034058,0.553467,down
297574,8.09375,7.046875,-0.324219,-0.115234,0.443359,-1.001953,0.434326,0.710083,0.038269,0.552856,down
297579,8.023438,7.125,-0.4375,-0.115234,0.443359,-1.001953,0.435913,0.709167,0.04071,0.552612,down
297584,8.09375,7.160156,-0.476562,-0.005859,0.53125,-1.035156,0.435913,0.709167,0.04071,0.552612,down
297589,8.027344,7.277344,-0.554687,-0.005859,0.53125,-1.035156,0.43866,0.707458,0.04541,0.552246,down
297594,8.027344,7.46875,-0.554687,-0.039063,0.578125,-1.039063,0.440247,0.706482,0.048157,0.552063,down
297599,7.984375,7.660156,-0.554687,-0.039063,0.578125,-1.039063,0.441589,0.705566,0.050415,0.551941,down
297604,8.027344,7.738281,-0.324219,-0.039063,0.578125,-1.039063,0.443054,0.704529,0.052795,0.551819,down
297609,8.027344,7.738281,-0.324219,-0.039063,0.578125,-1.039063,0.446411,0.702209,0.056824,0.551697,down
297614,7.988281,7.660156,-0.132812,-0.039063,0.578125,-1.039063,0.446411,0.702209,0.056824,0.551697,down
297619,7.984375,7.621094,-0.054687,-0.478516,0.712891,-0.96875,0.446411,0.702209,0.056824,0.551697,down
297625,8.023438,7.773437,-0.054687,-0.478516,0.712891,-0.96875,0.452576,0.697388,0.0625,0.552246,down
297630,7.984375,7.8125,-0.015625,-0.558594,0.845703,-0.929687,0.454834,0.695312,0.064392,0.552673,down
297635,7.90625,7.890625,0.023437,-0.570312,0.871094,-0.90625,0.457031,0.693298,0.066223,0.553223,down
297640,7.945312,8.039063,0.023437,-0.570312,0.871094,-0.90625,0.458984,0.691406,0.067871,0.553772,down
297645,7.945312,8.082031,0.097656,-0.570312,0.871094,-0.90625,0.46106,0.689331,0.069702,0.554443,down
297650,7.867187,8.15625,0.136719,-0.515625,0.982422,-0.916016,0.463196,0.687073,0.071716,0.555115,down
297655,7.867187,8.273438,0.136719,-0.458984,1.027344,-0.933594,0.46521,0.684937,0.073853,0.555908,down
297661,7.867187,8.34375,0.136719,-0.408203,1.070313,-0.951172,0.466919,0.682922,0.075867,0.55658,down
297666,7.675781,8.695313,0.058594,-0.408203,1.070313,-0.951172,0.468689,0.680847,0.078186,0.557373,down
297672,7.601562,8.769531,0.058594,-0.316406,1.111328,-0.978516,0.468689,0.680847,0.078186,0.557373,down
297677,7.484375,8.804688,0.175781,-0.294922,1.105469,-0.976562,0.472107,0.676514,0.083252,0.559021,down
297684,7.371094,8.808594,0.25,-0.300781,1.09375,-0.970703,0.472107,0.676514,0.083252,0.559021,down
297689,7.332031,8.808594,0.289063,-0.296875,1.080078,-0.976562,0.477051,0.670227,0.090759,0.561218,down
297694,7.179687,8.765625,0.40625,-0.296875,1.080078,-0.976562,0.477051,0.670227,0.090759,0.561218,down
297699,7.140625,8.808594,0.441406,-0.416016,1.076172,-0.947266,0.477051,0.670227,0.090759,0.561218,down
297704,7.140625,8.808594,0.441406,-0.515625,1.039063,-0.923828,0.480652,0.665771,0.095276,0.562744,down
297709,7.179687,8.765625,0.558594,-0.515625,1.039063,-0.923828,0.482727,0.66333,0.097229,0.563477,down
297714,7.179687,8.765625,0.710937,-0.806641,0.988281,-0.898437,0.482727,0.66333,0.097229,0.563477,down
297719,7.179687,8.765625,0.710937,-0.960937,0.992187,-0.898437,0.487488,0.658081,0.100342,0.565002,down
297724,7.027344,8.464844,1.171875,-1.109375,1.035156,-0.910156,0.487488,0.658081,0.100342,0.565002,down
297729,6.949219,8.3125,1.132813,-1.109375,1.035156,-0.910156,0.493042,0.6521,0.102722,0.566711,down
297734,6.910156,8.234375,1.132813,-1.109375,1.035156,-0.910156,0.496521,0.648376,0.103882,0.567749,down
297739,6.910156,8.15625,1.246094,-1.109375,1.035156,-0.910156,0.499817,0.644775,0.105042,0.568665,down
297745,6.910156,7.933594,1.285156,-1.363281,1.160156,-1.082031,0.506592,0.637573,0.107483,0.570374,down
297750,6.835937,7.964844,1.402344,-1.363281,1.160156,-1.082031,0.510071,0.633789,0.109009,0.571167,down
297755,6.679687,7.855469,1.476563,-1.376953,1.3125,-1.306641,0.510071,0.633789,0.109009,0.571167,down
297760,6.644531,7.816406,1.515625,-1.40625,1.378906,-1.380859,0.513916,0.629639,0.110779,0.572021,down
297765,6.644531,7.816406,1.515625,-1.439453,1.449219,-1.441406,0.520996,0.621826,0.11438,0.573425,down
297771,5.914062,8.039063,1.785156,-1.439453,1.449219,-1.441406,0.525024,0.61731,0.116516,0.574219,down
297776,5.722656,8.003906,1.976563,-1.439453,1.453125,-1.496094,0.52887,0.612915,0.118591,0.574951,down
297782,5.570312,7.960937,2.128906,-1.435547,1.445313,-1.503906,0.52887,0.612915,0.118591,0.574951,down
297787,5.378906,8.039063,2.433594,-1.435547,1.445313,-1.503906,0.536804,0.603943,0.122864,0.576233,down
297793,5.265625,7.960937,2.550781,-1.517578,1.458984,-1.476563,0.536804,0.603943,0.122864,0.576233,down
297798,5.148437,7.890625,2.625,-1.554688,1.5,-1.488281,0.536804,0.603943,0.122864,0.576233,down
297804,5.148437,7.890625,2.625,-1.582031,1.550781,-1.501953,0.548706,0.589844,0.128906,0.578247,down
297809,4.917969,7.695312,2.625,-1.582031,1.550781,-1.501953,0.548706,0.589844,0.128906,0.578247,down
297814,4.917969,7.695312,2.625,-1.617188,1.603516,-1.539063,0.556824,0.579773,0.133118,0.579712,down
297819,4.882812,7.65625,2.589844,-1.617188,1.603516,-1.539063,0.560852,0.574707,0.135193,0.580383,down
297824,4.765625,7.699219,2.894531,-1.642578,1.552734,-1.611328,0.56488,0.569641,0.137268,0.580994,down
297830,4.765625,7.816406,3.085938,-1.527344,1.353516,-1.666016,0.56488,0.569641,0.137268,0.580994,down
297835,4.765625,7.777344,3.355469,-1.527344,1.353516,-1.666016,0.577698,0.554504,0.143677,0.581482,down
297840,4.535156,7.894531,3.8125,-1.527344,1.353516,-1.666016,0.577698,0.554504,0.143677,0.581482,down
297845,4.460937,7.851562,3.96875,-1.316406,1.136719,-1.648438,0.5849,0.54657,0.147522,0.580872,down
297850,4.382812,7.8125,4.003906,-1.078125,0.988281,-1.541016,0.5849,0.54657,0.147522,0.580872,down
297855,4.191406,8.003906,4.003906,-1.078125,0.988281,-1.541016,0.588562,0.542603,0.149597,0.580322,down
297860,4.0,8.15625,4.003906,-1.078125,0.988281,-1.541016,0.594604,0.536194,0.153137,0.579224,down
297865,3.921875,8.277344,4.003906,-0.876953,0.638672,-1.214844,0.594604,0.536194,0.153137,0.579224,down
297870,3.808594,8.382813,4.160156,-0.876953,0.638672,-1.214844,0.600281,0.530396,0.155945,0.577942,down
297875,3.730469,8.578125,4.273437,-0.876953,0.638672,-1.214844,0.600281,0.530396,0.155945,0.577942,down
297880,3.730469,8.699219,4.273437,-0.876953,0.638672,-1.214844,0.604492,0.526367,0.157471,0.576843,down
297885,3.695313,8.769531,4.234375,-0.566406,0.306641,-0.675781,0.604492,0.526367,0.157471,0.576843,down
297890,3.730469,8.886719,4.195312,-0.482422,0.263672,-0.550781,0.606384,0.524536,0.158142,0.576294,down
297895,3.730469,9.042969,4.195312,-0.482422,0.263672,-0.550781,0.609009,0.521912,0.158936,0.575745,down
297900,3.695313,9.121094,4.195312,-0.388672,0.224609,-0.337891,0.609009,0.521912,0.158936,0.575745,down
297905,3.695313,9.121094,4.195312,-0.388672,0.224609,-0.337891,0.610107,0.520691,0.159302,0.575562,down
297910,3.65625,9.148438,4.234375,-0.394531,0.214844,-0.246094,0.61084,0.519775,0.159424,0.575562,down
297915,3.65625,9.148438,4.234375,-0.416016,0.207031,-0.162109,0.611572,0.518738,0.159424,0.575684,down
297921,3.5,8.882813,4.160156,-0.466797,0.203125,-0.097656,0.611572,0.518738,0.159424,0.575684,down
297926,3.5,8.882813,4.160156,-0.617187,0.169922,0.005859,0.613647,0.515503,0.158386,0.576721,down
297931,3.5,8.699219,4.195312,-0.705078,0.164062,0.021484,0.614441,0.51416,0.157593,0.577271,down
297937,3.5,8.386719,4.234375,-0.705078,0.164062,0.021484,0.615234,0.512878,0.156799,0.577759,down
297942,3.578125,8.386719,4.273437,-0.8125,0.140625,0.042969,0.61615,0.511414,0.155823,0.578369,down
297948,3.65625,8.316406,4.3125,-0.837891,0.148437,0.013672,0.61615,0.511414,0.155823,0.578369,down
297953,3.65625,8.386719,4.390625,-0.837891,0.150391,0.013672,0.61615,0.511414,0.155823,0.578369,down
297958,3.695313,8.386719,4.464844,-0.824219,0.130859,0.007813,0.61615,0.511414,0.155823,0.578369,down
297964,3.695313,8.386719,4.503906,-0.789062,0.107422,-0.007813,0.61615,0.511414,0.155823,0.578369,down
297969,3.695313,8.347656,4.464844,-0.748047,0.087891,0.0,0.61615,0.511414,0.155823,0.578369,down
297974,3.695313,8.316406,4.390625,-0.693359,0.072266,0.009766,0.61615,0.511414,0.155823,0.578369,down
297980,3.617188,8.3125,4.425781,-0.537109,-0.046875,0.095703,0.61615,0.511414,0.155823,0.578369,down
297985,3.695313,8.421875,4.503906,-0.537109,-0.046875,0.095703,0.623291,0.501038,0.148071,0.581848,down
297990,3.730469,8.421875,4.582031,-0.333984,-0.173828,0.232422,0.623718,0.500427,0.147095,0.582153,down
297995,3.65625,8.316406,4.582031,-0.333984,-0.173828,0.232422,0.623962,0.500122,0.145996,0.582458,down
298000,3.695313,8.234375,4.425781,-0.185547,-0.261719,0.386719,0.624023,0.5,0.144897,0.582764,down
298006,3.695313,8.234375,4.273437,-0.185547,-0.261719,0.386719,0.623596,0.500427,0.1427,0.583374,down
298011,3.730469,8.273438,4.273437,-0.134766,-0.355469,0.529297,0.623108,0.500916,0.141174,0.583862,down
298016,3.730469,8.316406,4.273437,-0.103516,-0.390625,0.566406,0.622559,0.501465,0.139709,0.58429,down
298022,3.769531,8.347656,4.234375,-0.076172,-0.423828,0.605469,0.62207,0.502014,0.138428,0.584656,down
298028,3.960938,8.273438,4.121094,-0.076172,-0.423828,0.605469,0.62207,0.502014,0.138428,0.584656,down
298033,3.960938,8.199219,4.160156,-0.068359,-0.435547,0.644531,0.62207,0.502014,0.138428,0.584656,down
298038,4.039062,8.199219,4.121094,-0.080078,-0.435547,0.667969,0.62207,0.502014,0.138428,0.584656,down
298043,4.078125,8.039063,4.003906,-0.080078,-0.435547,0.667969,0.619263,0.504944,0.132019,0.586609,down
298048,4.078125,7.964844,3.96875,-0.166016,-0.392578,0.677734,0.619263,0.504944,0.132019,0.586609,down
298053,4.113281,7.894531,4.042969,-0.185547,-0.369141,0.673828,0.619263,0.504944,0.132019,0.586609,down
298058,4.078125,7.851562,4.042969,-0.185547,-0.369141,0.673828,0.61731,0.50647,0.126953,0.58844,down
298064,4.078125,7.660156,4.082031,-0.185547,-0.369141,0.673828,0.61731,0.50647,0.126953,0.58844,down
298070,4.113281,7.660156,4.121094,-0.259766,-0.322266,0.644531,0.615662,0.507385,0.121765,0.590454,down
298075,4.152344,7.550781,4.160156,-0.259766,-0.322266,0.644531,0.615662,0.507385,0.121765,0.590454,down
298080,4.113281,7.507812,4.160156,-0.34375,-0.328125,0.628906,0.615173,0.507629,0.119995,0.591125,down
298085,4.113281,7.507812,4.160156,-0.339844,-0.330078,0.621094,0.614807,0.507812,0.118225,0.591797,down
298090,4.078125,7.550781,4.195312,-0.339844,-0.330078,0.621094,0.61438,0.507935,0.116455,0.592407,down
298095,4.078125,7.550781,4.195312,-0.339844,-0.330078,0.621094,0.613525,0.508423,0.112732,0.593628,down
298100,4.230469,7.578125,4.351562,-0.339844,-0.330078,0.621094,0.613525,0.508423,0.112732,0.593628,down
298105,4.304687,7.578125,4.3125,-0.222656,-0.4375,0.658203,0.613525,0.508423,0.112732,0.593628,down
298110,4.382812,7.582031,4.351562,-0.183594,-0.449219,0.666016,0.613525,0.508423,0.112732,0.593628,down
298116,4.34375,7.546875,4.390625,-0.183594,-0.449219,0.666016,0.610901,0.510803,0.105225,0.595703,down
298121,4.34375,7.511719,4.425781,-0.089844,-0.552734,0.748047,0.610168,0.511536,0.103455,0.59613,down
298126,4.421875,7.390625,4.542969,-0.089844,-0.572266,0.775391,0.609192,0.512512,0.101379,0.596619,down
298132,4.460937,7.15625,4.390625,-0.089844,-0.572266,0.775391,0.608398,0.513306,0.099548,0.597046,down
298137,4.496094,7.011719,4.273437,-0.134766,-0.564453,0.792969,0.608398,0.513306,0.099548,0.597046,down
298142,4.496094,6.972656,4.273437,-0.173828,-0.603516,0.798828,0.606628,0.515015,0.095337,0.598083,down
298147,4.496094,6.96875,4.3125,-0.173828,-0.603516,0.798828,0.605774,0.515869,0.092896,0.598511,down
298152,4.535156,7.046875,4.273437,-0.173828,-0.603516,0.798828,0.605774,0.515869,0.092896,0.598511,down
298158,4.382812,6.933594,4.195312,-0.271484,-0.699219,0.808594,0.605774,0.515869,0.092896,0.598511,down
298164,4.496094,6.585937,4.003906,-0.345703,-0.648437,0.810547,0.605774,0.515869,0.092896,0.598511,down
298169,4.421875,7.046875,4.195312,-0.345703,-0.648437,0.810547,0.605774,0.515869,0.092896,0.598511,down
298175,4.34375,7.234375,4.390625,-0.345703,-0.648437,0.810547,0.602356,0.51947,0.080383,0.600708,down
298180,4.34375,7.089844,4.617187,-0.152344,-0.882812,0.982422,0.602356,0.51947,0.080383,0.600708,down
298185,4.382812,6.96875,4.847656,-0.152344,-0.882812,0.982422,0.600464,0.521606,0.074951,0.60144,down
298190,4.382812,6.96875,4.847656,-0.037109,-0.945312,1.046875,0.599243,0.52301,0.072144,0.601807,down
298195,4.421875,6.894531,4.65625,-0.037109,-0.945312,1.046875,0.599243,0.52301,0.072144,0.601807,down
298200,4.460937,6.777344,4.542969,0.042969,-0.962891,1.115234,0.599243,0.52301,0.072144,0.601807,down
298206,4.460937,6.777344,4.542969,0.199219,-0.998047,1.244141,0.594238,0.52832,0.06366,0.603088,down
298211,4.765625,6.667969,4.121094,0.199219,-0.998047,1.244141,0.589844,0.532654,0.057739,0.604187,down
298216,4.957031,6.550781,4.042969,0.298828,-0.957031,1.332031,0.587524,0.53479,0.054871,0.604797,down
298221,5.148437,6.433594,3.929688,0.285156,-0.902344,1.320313,0.587524,0.53479,0.054871,0.604797,down
298226,5.457031,6.125,3.777344,0.285156,-0.902344,1.320313,0.583069,0.538635,0.049622,0.60614,down
298231,5.609375,5.9375,3.8125,0.228516,-0.808594,1.294922,0.580872,0.540405,0.047058,0.606873,down
298237,5.835937,5.589844,3.96875,0.228516,-0.808594,1.294922,0.578674,0.542114,0.044434,0.607666,down
298242,5.878906,5.398437,4.082031,0.228516,-0.808594,1.294922,0.57666,0.543579,0.042175,0.608459,down
298247,5.878906,5.171875,4.160156,0.228516,-0.808594,1.294922,0.574341,0.545227,0.039734,0.609314,down
298252,5.835937,4.902344,4.160156,0.386719,-0.658203,1.292969,0.574341,0.545227,0.039734,0.609314,down
298257,5.878906,4.671875,4.121094,0.386719,-0.658203,1.292969,0.569519,0.548523,0.035522,0.611145,down
298262,5.835937,4.519531,4.082031,0.386719,-0.658203,1.292969,0.566711,0.550476,0.033569,0.612122,down
298268,5.878906,4.558594,3.890625,0.386719,-0.658203,1.292969,0.563782,0.55249,0.03186,0.613098,down
298274,5.953125,4.59375,3.851563,0.917969,-0.658203,1.404297,0.563782,0.55249,0.03186,0.613098,down
298279,6.105469,4.59375,3.890625,1.105469,-0.707031,1.414063,0.563782,0.55249,0.03186,0.613098,down
298284,6.183594,4.632812,3.738281,1.285156,-0.730469,1.412109,0.563782,0.55249,0.03186,0.613098,down
298290,6.21875,4.75,3.660156,1.591797,-0.669922,1.373047,0.563782,0.55249,0.03186,0.613098,down
298296,6.300781,5.09375,3.277344,1.591797,-0.669922,1.373047,0.540588,0.569824,0.026062,0.618408,down
298301,6.375,5.207031,3.125,1.710938,-0.683594,1.353516,0.536011,0.573303,0.025818,0.619202,down
298306,6.375,5.207031,3.125,1.691406,-0.707031,1.349609,0.536011,0.573303,0.025818,0.619202,down
298311,6.984375,5.132812,3.046875,1.691406,-0.707031,1.349609,0.527161,0.579956,0.02533,0.620544,down
298317,7.0625,5.171875,2.972656,1.529297,-0.564453,1.40625,0.522156,0.583496,0.024902,0.621521,down
298322,7.140625,5.207031,2.816406,1.451172,-0.488281,1.486328,0.518311,0.585999,0.024475,0.622375,down
298327,7.328125,5.324219,2.742188,1.451172,-0.488281,1.486328,0.513428,0.588806,0.023743,0.623779,down
298333,7.371094,5.246094,2.625,1.451172,-0.488281,1.486328,0.509338,0.590881,0.022827,0.625244,down
298339,7.367187,5.285156,2.472656,1.138672,-0.205078,2.007813,0.509338,0.590881,0.022827,0.625244,down
298344,7.332031,5.132812,2.433594,1.027344,-0.080078,2.240234,0.509338,0.590881,0.022827,0.625244,down
298350,7.179687,4.558594,2.589844,0.769531,0.017578,2.712891,0.509338,0.590881,0.022827,0.625244,down
298355,7.0625,4.175781,2.78125,0.769531,0.017578,2.712891,0.489258,0.597107,0.015381,0.635498,down
298361,6.867187,3.867188,2.855469,0.708984,0.136719,3.013672,0.489258,0.597107,0.015381,0.635498,down
298366,6.839844,2.601563,3.203125,0.708984,0.136719,3.013672,0.471863,0.599426,0.006042,0.646545,down
298371,6.910156,2.21875,3.316406,0.707031,0.365234,2.837891,0.471863,0.599426,0.006042,0.646545,down
298376,6.867187,2.027344,3.203125,0.707031,0.365234,2.837891,0.465759,0.599792,0.002991,0.650635,down
298381,6.867187,1.914063,3.125,0.984375,0.251953,2.447266,0.465759,0.599792,0.002991,0.650635,down
298386,6.527344,2.144531,3.316406,0.984375,0.251953,2.447266,0.449585,0.601501,-0.002808,0.660339,down
298391,6.566406,1.992188,3.46875,1.566406,-0.265625,1.916016,0.449585,0.601501,-0.002808,0.660339,down
298396,6.796875,1.378906,3.546875,1.839844,-0.373047,1.646484,0.443542,0.603455,-0.003845,0.662659,down
298401,6.984375,0.957031,3.546875,1.839844,-0.373047,1.646484,0.432739,0.608459,-0.00354,0.665222,down
298406,7.328125,1.53125,3.007813,1.839844,-0.373047,1.646484,0.432739,0.608459,-0.00354,0.665222,down
298411,7.328125,1.53125,3.007813,2.541016,-0.322266,1.292969,0.427002,0.611511,-0.002075,0.666138,down
298416,7.601562,2.066406,2.703125,2.541016,-0.322266,1.292969,0.420837,0.614807,0.000183,0.666992,down
298421,7.867187,3.484375,1.402344,3.166016,-0.154297,1.087891,0.414124,0.618408,0.003418,0.667908,down
298426,7.984375,3.789063,1.285156,3.273438,-0.083984,1.082031,0.400391,0.625305,0.010559,0.669739,down
298431,7.789062,4.25,1.363281,3.009766,0.019531,1.291016,0.400391,0.625305,0.010559,0.669739,down
298436,7.523437,4.976562,1.59375,3.009766,0.019531,1.291016,0.392944,0.628662,0.013977,0.670959,down
298441,7.445312,4.976562,1.898438,3.009766,0.019531,1.291016,0.386169,0.631409,0.016663,0.672241,down
298446,7.371094,4.785156,2.242188,1.820313,0.230469,1.773438,0.386169,0.631409,0.016663,0.672241,down
298451,7.261719,4.710937,2.589844,1.820313,0.230469,1.773438,0.373535,0.635315,0.019409,0.675659,down
298456,6.910156,4.441406,2.855469,1.820313,0.230469,1.773438,0.363037,0.637146,0.019226,0.679626,down
298461,6.761719,4.097656,2.894531,0.941406,0.263672,1.732422,0.363037,0.637146,0.019226,0.679626,down
298466,6.945312,3.292969,2.855469,0.941406,0.263672,1.732422,0.357971,0.637756,0.018372,0.681763,down
298471,6.945312,2.375,2.855469,0.820312,0.107422,1.548828,0.357971,0.637756,0.018372,0.681763,down
298476,7.0625,2.335938,2.855469,0.820312,0.107422,1.548828,0.350037,0.639038,0.016479,0.684753,down
298481,7.21875,2.375,2.816406,0.820312,0.107422,1.548828,0.346069,0.640442,0.015747,0.685425,down
298486,7.21875,2.375,2.816406,1.308594,-0.591797,0.863281,0.342834,0.64209,0.015686,0.685486,down
298491,7.449219,2.910156,2.78125,1.6875,-0.736328,0.576172,0.339417,0.644409,0.016479,0.684998,down
298496,7.449219,2.910156,2.78125,2.091797,-0.753906,0.292969,0.335754,0.647278,0.018372,0.684082,down
298501,7.601562,3.023438,2.703125,2.091797,-0.753906,0.292969,0.331848,0.650391,0.021301,0.682922,down
298506,7.601562,3.023438,2.703125,2.816406,-0.474609,-0.380859,0.327759,0.653687,0.025391,0.681641,down
298511,8.367188,3.984375,1.898438,2.816406,-0.474609,-0.380859,0.327759,0.653687,0.025391,0.681641,down
298516,8.515625,4.019531,1.820313,2.505859,-0.230469,-0.498047,0.319946,0.659729,0.035278,0.679077,down
298521,8.59375,3.945313,1.707031,2.505859,-0.230469,-0.498047,0.313538,0.664307,0.044861,0.677063,down
298526,8.597656,4.058594,1.4375,2.505859,-0.230469,-0.498047,0.313538,0.664307,0.044861,0.677063,down
298531,8.515625,4.019531,1.363281,2.505859,-0.230469,-0.498047,0.309143,0.66687,0.05249,0.675964,down
298536,8.132813,4.175781,1.324219,2.505859,-0.230469,-0.498047,0.309143,0.66687,0.05249,0.675964,down
298541,7.832031,4.441406,1.402344,0.662109,0.005859,-0.65625,0.309143,0.66687,0.05249,0.675964,down
298546,7.601562,4.671875,1.4375,0.529297,-0.078125,-0.808594,0.307861,0.667908,0.057312,0.675171,down
298552,6.984375,5.09375,1.476563,0.529297,-0.078125,-0.808594,0.308899,0.668823,0.061951,0.673401,down
298557,6.679687,5.285156,1.285156,0.572266,-0.283203,-1.095703,0.309814,0.669434,0.064453,0.672119,down
298563,6.378906,5.363281,1.210938,0.572266,-0.283203,-1.095703,0.310608,0.670227,0.066772,0.670654,down
298568,6.417969,5.363281,1.628906,0.572266,-0.283203,-1.095703,0.311584,0.671631,0.069824,0.668518,down
298574,6.527344,5.398437,1.820313,1.035156,-0.835937,-1.380859,0.311584,0.671631,0.069824,0.668518,down
298579,6.644531,5.398437,1.9375,1.148438,-0.955078,-1.439453,0.311584,0.671631,0.069824,0.668518,down
298585,6.988281,5.4375,2.015625,1.148438,-0.955078,-1.439453,0.313782,0.677734,0.0802,0.660156,down
298590,7.023437,5.4375,1.9375,1.039063,-1.005859,-1.564453,0.313782,0.677734,0.0802,0.660156,down
298595,6.988281,5.398437,1.976563,0.785156,-0.976562,-1.605469,0.313782,0.677734,0.0802,0.660156,down
298601,6.757812,5.324219,1.9375,0.408203,-0.941406,-1.662109,0.313782,0.677734,0.0802,0.660156,down
298606,6.757812,5.324219,1.9375,-0.041016,-0.927734,-1.734375,0.313782,0.677734,0.0802,0.660156,down
298612,6.566406,5.324219,2.050781,-0.041016,-0.927734,-1.734375,0.320374,0.684875,0.092651,0.647827,down
298617,6.339844,5.324219,2.015625,-0.923828,-0.898437,-2.001953,0.333984,0.686157,0.097046,0.638916,down
298622,6.101562,5.015625,2.320313,-0.923828,-0.898437,-2.001953,0.340454,0.685852,0.0979,0.635681,down
298627,6.070312,4.75,2.589844,-1.863281,-0.919922,-2.558594,0.348083,0.685181,0.098572,0.632202,down
298632,5.957031,4.480469,2.664063,-2.019531,-0.859375,-2.759766,0.356018,0.684204,0.099304,0.628723,down
298638,5.378906,3.753906,2.703125,-2.019531,-0.859375,-2.759766,0.363586,0.682983,0.100159,0.625549,down
298643,5.378906,3.753906,2.703125,-2.154297,-0.707031,-3.255859,0.372192,0.681458,0.10144,0.621948,down
298648,4.84375,4.175781,2.589844,-2.154297,-0.707031,-3.255859,0.381226,0.679626,0.103149,0.618225,down
298653,4.574219,4.480469,2.472656,-2.234375,-0.642578,-3.878906,0.381226,0.679626,0.103149,0.618225,down
298658,3.960938,4.753906,2.015625,-2.234375,-0.642578,-3.878906,0.381226,0.679626,0.103149,0.618225,down
298663,3.960938,4.785156,1.785156,-2.378906,-0.710937,-4.701172,0.381226,0.679626,0.103149,0.618225,down
298668,4.113281,4.75,1.628906,-2.408203,-0.820312,-5.220703,0.381226,0.679626,0.103149,0.618225,down
298673,4.34375,4.753906,1.515625,-2.408203,-0.820312,-5.220703,0.436401,0.666931,0.120056,0.591919,down
298679,4.613281,4.785156,1.402344,-2.408203,-0.820312,-5.220703,0.450256,0.663818,0.12561,0.583862,down
298684,4.613281,4.785156,1.402344,-2.667969,-1.292969,-7.197266,0.464661,0.660461,0.131714,0.57489,down
298689,4.304687,4.980469,1.707031,-2.957031,-1.451172,-7.919922,0.480347,0.656555,0.138428,0.564819,down
298694,4.304687,4.980469,1.707031,-2.957031,-1.451172,-7.919922,0.480347,0.656555,0.138428,0.564819,down
298700,3.347656,7.546875,2.359375,-3.441406,-1.363281,-8.650391,0.516724,0.645081,0.15387,0.541443,down
298706,2.8125,13.675781,-2.890625,-3.441406,-1.363281,-8.650391,0.516724,0.645081,0.15387,0.541443,down
298711,1.929688,12.832031,-3.769531,-6.130859,0.402344,-10.855469,0.560547,0.623535,0.172607,0.516907,down
298716,0.707031,8.769531,-2.621094,-6.130859,0.402344,-10.855469,0.584534,0.608765,0.180847,0.505005,down
298722,0.589844,4.398437,-1.203125,-13.058594,-0.703125,-13.166016,0.584534,0.608765,0.180847,0.505005,down
298727,1.050781,2.296875,-1.585938,-14.601563,-0.746094,-13.724609,0.646057,0.565979,0.189941,0.475586,down
298732,-0.0625,1.953125,1.019531,-14.601563,-0.746094,-13.724609,0.721313,0.501587,0.190247,0.43811,down
298737,-0.367188,0.574219,5.191406,-16.154297,-1.822266,-14.109375,0.721313,0.501587,0.190247,0.43811,down
298742,-0.097656,-1.6875,7.335937,-16.154297,-1.822266,-14.109375,0.757202,0.46637,0.187195,0.417175,down
298747,-1.210938,-2.722656,9.371094,-15.953125,-2.089844,-13.808594,0.788574,0.4328,0.182983,0.396667,down
298752,-1.210938,-2.722656,9.371094,-15.041016,-2.244141,-13.185547,0.816223,0.400696,0.178162,0.376221,down
298757,-4.273437,0.265625,12.167969,-15.041016,-2.244141,-13.185547,0.84314,0.36676,0.172607,0.35321,down
298762,-4.273437,0.265625,12.167969,-9.449219,-1.810547,-10.429688,0.86499,0.337402,0.167847,0.33136,down
298767,-7.570312,14.054688,13.46875,-9.449219,-1.810547,-10.429688,0.897705,0.289917,0.160645,0.290161,down
298772,-7.1875,15.625,11.933594,-5.414062,-2.408203,-7.513672,0.897705,0.289917,0.160645,0.290161,down
298777,-6.191406,17.238281,9.523438,-3.201172,-2.802734,-5.882812,0.909729,0.272522,0.156616,0.271301,down
298782,-5.539062,18.121094,8.5625,-3.201172,-2.802734,-5.882812,0.924011,0.255737,0.147156,0.243225,down
298787,-4.925781,19.113281,10.59375,-3.201172,-2.802734,-5.882812,0.927856,0.252869,0.142456,0.234131,down
298792,-4.582031,16.050781,12.855469,0.261719,-1.544922,-1.964844,0.927856,0.252869,0.142456,0.234131,down
298797,-6.304687,12.066406,15.804688,0.261719,-1.544922,-1.964844,0.930359,0.252319,0.139038,0.226868,down
298803,-6.304687,12.066406,15.804688,2.162109,-0.261719,-1.330078,0.93103,0.257935,0.138062,0.218018,down
298808,-6.957031,12.027344,16.757812,2.162109,-0.261719,-1.330078,0.930359,0.262634,0.14032,0.213867,down
298813,-7.222656,11.566406,15.1875,1.779297,0.615234,-1.720703,0.929749,0.266418,0.143494,0.209778,down
298818,-6.726562,11.261719,14.039063,1.779297,0.615234,-1.720703,0.929565,0.268738,0.14679,0.205261,down
298823,-6.113281,11.796875,13.890625,1.779297,0.615234,-1.720703,0.930054,0.268921,0.148926,0.201172,down
298828,-5.691406,12.679688,13.921875,-0.734375,0.216797,-1.84375,0.931274,0.267029,0.150696,0.196655,down
298834,-4.582031,14.558594,13.007813,-0.734375,0.216797,-1.84375,0.932617,0.264099,0.151672,0.193604,down
298840,-4.160156,14.476563,12.894531,-0.734375,0.216797,-1.84375,0.932617,0.264099,0.151672,0.193604,down
298846,-3.96875,13.832031,12.855469,-2.394531,0.234375,-1.011719,0.932617,0.264099,0.151672,0.193604,down
298852,-3.777344,12.832031,12.816406,-2.339844,0.236328,-0.710937,0.939636,0.242249,0.152344,0.187744,down
298857,-3.738281,11.070313,12.394531,-2.339844,0.236328,-0.710937,0.940796,0.237915,0.152039,0.187561,down
298862,-3.546875,10.304688,12.3125,-2.339844,0.236328,-0.710937,0.941406,0.23584,0.15155,0.187439,down
298867,-3.238281,9.613281,12.164063,0.072266,-0.394531,-0.048828,0.941406,0.23584,0.15155,0.187439,down
298872,-2.398438,8.578125,11.664063,0.072266,-0.394531,-0.048828,0.941711,0.235352,0.150757,0.187134,down
298877,-2.089844,8.3125,11.125,0.650391,-0.636719,-0.007813,0.941772,0.236084,0.149841,0.186707,down
298882,-1.667969,7.964844,10.632813,0.650391,-0.636719,-0.007813,0.941589,0.239258,0.147461,0.185486,down
298887,-1.019531,7.316406,9.714844,0.650391,-0.636719,-0.007813,0.941589,0.239258,0.147461,0.185486,down
298892,-0.75,7.199219,9.410156,0.650391,-0.636719,-0.007813,0.94165,0.241943,0.144226,0.184387,down
298897,-0.519531,7.007812,9.066406,-0.009766,-0.785156,0.066406,0.94165,0.241943,0.144226,0.184387,down
298902,-0.289063,6.625,8.867188,-0.009766,-0.785156,0.066406,0.942139,0.242615,0.140442,0.183777,down
298907,0.015625,5.972656,8.605469,-0.009766,-0.785156,0.066406,0.942139,0.242615,0.140442,0.183777,down
298912,0.015625,5.707031,8.484375,-0.445312,-0.703125,0.164062,0.942139,0.242615,0.140442,0.183777,down
298917,0.09375,5.398437,8.484375,-0.445312,-0.703125,0.164062,0.942993,0.241638,0.13623,0.183777,down
298922,0.09375,5.207031,8.445313,-0.445312,-0.703125,0.164062,0.943481,0.240906,0.134277,0.183899,down
298927,0.054687,4.976562,8.449219,-0.212891,-0.595703,0.152344,0.943481,0.240906,0.134277,0.183899,down
298932,0.09375,4.671875,8.367188,-0.212891,-0.595703,0.152344,0.944153,0.239868,0.13092,0.184143,down
298937,0.054687,4.710937,8.261719,0.207031,-0.515625,0.140625,0.944397,0.239868,0.129272,0.184204,down
298942,0.054687,4.632812,8.179688,0.207031,-0.515625,0.140625,0.944397,0.240356,0.12793,0.184204,down
298947,-0.097656,4.632812,8.105469,0.207031,-0.515625,0.140625,0.944153,0.242493,0.125977,0.184082,down
298952,-0.136719,4.632812,8.023438,0.207031,-0.515625,0.140625,0.944153,0.242493,0.125977,0.184082,down
298957,-0.175781,4.632812,7.957031,0.623047,-0.341797,0.173828,0.944153,0.242493,0.125977,0.184082,down
298962,-0.253906,4.632812,7.914062,0.595703,-0.310547,0.195312,0.943542,0.245544,0.124512,0.184021,down
298968,-0.367188,4.59375,7.839844,0.541016,-0.294922,0.216797,0.943237,0.247253,0.12384,0.184082,down
298973,-0.40625,4.59375,7.679687,0.541016,-0.294922,0.216797,0.942505,0.250305,0.122559,0.184387,down
298979,-0.480469,4.441406,7.679687,0.541016,-0.294922,0.216797,0.942261,0.251343,0.122009,0.184631,down
298984,-0.671875,4.402344,7.683594,0.541016,-0.294922,0.216797,0.942017,0.252319,0.121277,0.184937,down
298989,-0.75,4.558594,7.761719,0.294922,-0.294922,0.205078,0.942017,0.252319,0.121277,0.184937,down
298994,-0.789062,4.632812,7.796875,0.306641,-0.320313,0.15625,0.942017,0.252319,0.121277,0.184937,down
299000,-0.863281,4.785156,7.839844,0.306641,-0.320313,0.15625,0.941467,0.255066,0.11908,0.185364,down
299005,-0.941406,4.785156,7.71875,0.306641,-0.320313,0.15625,0.941467,0.255066,0.11908,0.185364,down
299011,-1.019531,4.785156,7.722656,0.347656,-0.378906,0.027344,0.941467,0.255066,0.11908,0.185364,down
299016,-1.019531,4.785156,7.796875,0.347656,-0.378906,0.027344,0.941101,0.257935,0.116882,0.184631,down
299021,-1.058594,4.785156,7.761719,0.353516,-0.40625,-0.015625,0.941101,0.257935,0.116882,0.184631,down
299026,-1.09375,4.902344,7.796875,0.332031,-0.408203,-0.035156,0.941101,0.257935,0.116882,0.184631,down
299031,-1.132813,4.941406,7.757812,0.279297,-0.417969,-0.037109,0.941101,0.257935,0.116882,0.184631,down
299036,-1.171875,4.976562,7.875,0.279297,-0.417969,-0.037109,0.940857,0.261475,0.113647,0.182983,down
299041,-1.210938,4.941406,7.800781,0.140625,-0.404297,-0.050781,0.940857,0.261475,0.113647,0.182983,down
299046,-1.210938,4.941406,7.800781,0.107422,-0.392578,-0.050781,0.940979,0.262451,0.111938,0.182129,down
299051,-1.210938,4.941406,7.800781,0.113281,-0.378906,-0.046875,0.94104,0.262878,0.111145,0.181763,down
299056,-1.210938,4.902344,7.761719,0.113281,-0.378906,-0.046875,0.94104,0.262878,0.111145,0.181763,down
299062,-1.09375,5.015625,7.757812,0.142578,-0.34375,-0.054687,0.941101,0.263794,0.10968,0.180969,down
299068,-1.09375,5.015625,7.757812,0.248047,-0.25,-0.019531,0.940918,0.265137,0.108765,0.18042,down
299074,-1.210938,5.171875,7.757812,0.248047,-0.25,-0.019531,0.940735,0.265869,0.108521,0.180237,down
299079,-1.25,5.09375,7.796875,0.367188,-0.074219,0.013672,0.940735,0.265869,0.108521,0.180237,down
299085,-1.285156,5.132812,7.839844,0.417969,-0.029297,0.003906,0.940735,0.265869,0.108521,0.180237,down
299090,-1.285156,5.171875,7.835937,0.462891,0.009766,0.011719,0.940735,0.265869,0.108521,0.180237,down
299095,-1.285156,5.207031,7.796875,0.5,0.041016,0.015625,0.940735,0.265869,0.108521,0.180237,down
299100,-1.210938,5.285156,7.839844,0.53125,0.070312,0.025391,0.940735,0.265869,0.108521,0.180237,down
299106,-1.25,5.285156,7.796875,0.550781,0.103516,0.039063,0.938904,0.272156,0.109619,0.179749,down
299112,-1.324219,5.476562,7.875,0.550781,0.103516,0.039063,0.938049,0.274719,0.110718,0.179871,down
299117,-1.402344,5.515625,8.023438,0.550781,0.103516,0.039063,0.938049,0.274719,0.110718,0.179871,down
299122,-1.441406,5.589844,7.953125,0.537109,0.154297,0.070312,0.938049,0.274719,0.110718,0.179871,down
299127,-1.515625,5.628906,8.023438,0.537109,0.154297,0.070312,0.937134,0.2771,0.111816,0.180115,down
299132,-1.515625,5.667969,7.988281,0.537109,0.154297,0.070312,0.936707,0.27832,0.112366,0.180237,down
299138,-1.441406,5.707031,7.988281,0.523437,0.105469,0.048828,0.936707,0.27832,0.112366,0.180237,down
299143,-1.441406,5.707031,7.953125,0.523437,0.105469,0.048828,0.935425,0.28186,0.11377,0.18042,down
299149,-1.210938,5.78125,7.875,0.523437,0.105469,0.048828,0.935059,0.282898,0.114136,0.18042,down
299154,-1.25,5.820312,7.839844,0.402344,0.064453,0.0625,0.935059,0.282898,0.114136,0.18042,down
299159,-1.210938,5.78125,7.835937,0.314453,0.0625,0.068359,0.935059,0.282898,0.114136,0.18042,down
299165,-1.210938,5.707031,7.878906,0.314453,0.0625,0.068359,0.934204,0.285339,0.114929,0.180725,down
299171,-1.132813,5.628906,7.917969,0.201172,0.029297,0.050781,0.934204,0.285339,0.114929,0.180725,down
299176,-1.058594,5.589844,7.839844,0.179687,0.005859,0.050781,0.934204,0.285339,0.114929,0.180725,down
299181,-0.980469,5.628906,7.800781,0.171875,-0.001953,0.039063,0.934204,0.285339,0.114929,0.180725,down
299186,-0.902344,5.667969,7.796875,0.189453,-0.005859,0.039063,0.934204,0.285339,0.114929,0.180725,down
299191,-0.902344,5.746094,7.761719,0.1875,-0.011719,0.033203,0.934204,0.285339,0.114929,0.180725,down
299197,-0.863281,5.707031,7.679687,0.1875,-0.011719,0.033203,0.933228,0.288025,0.115295,0.18103,down
299203,-0.863281,5.628906,7.640625,0.167969,-0.003906,0.050781,0.932983,0.288818,0.115356,0.181152,down
299208,-0.902344,5.707031,7.640625,0.152344,0.027344,0.025391,0.932861,0.289124,0.115479,0.181213,down
299213,-0.902344,5.707031,7.679687,0.167969,0.03125,0.013672,0.932861,0.289124,0.115479,0.181213,down
299218,-0.828125,5.707031,7.796875,0.167969,0.03125,0.013672,0.932617,0.289856,0.115723,0.181213,down
299223,-0.789062,5.746094,7.796875,0.21875,0.050781,-0.025391,0.932617,0.289856,0.115723,0.181213,down
299228,-0.789062,5.746094,7.761719,0.21875,0.050781,-0.025391,0.932434,0.290344,0.115967,0.181152,down
299233,-0.789062,5.820312,7.761719,0.253906,0.064453,-0.039063,0.932434,0.290344,0.115967,0.181152,down
299239,-0.902344,6.050781,7.71875,0.253906,0.064453,-0.039063,0.931824,0.292053,0.116882,0.180786,down
299244,-0.902344,6.050781,7.71875,0.333984,0.091797,-0.033203,0.93158,0.292786,0.117249,0.180664,down
299249,-0.902344,6.128906,7.761719,0.335938,0.089844,-0.033203,0.931335,0.293579,0.117676,0.180542,down
299255,-1.019531,6.203125,7.757812,0.335938,0.089844,-0.033203,0.931091,0.294189,0.118042,0.180481,down
299261,-1.019531,6.203125,7.757812,0.298828,0.107422,-0.041016,0.931091,0.294189,0.118042,0.180481,down
299266,-1.058594,6.203125,7.757812,0.285156,0.107422,-0.041016,0.931091,0.294189,0.118042,0.180481,down
299271,-1.019531,6.203125,7.835937,0.298828,0.099609,-0.042969,0.931091,0.294189,0.118042,0.180481,down
299276,-1.058594,6.242187,7.800781,0.296875,0.089844,-0.046875,0.931091,0.294189,0.118042,0.180481,down
299281,-1.09375,6.28125,7.800781,0.287109,0.080078,-0.044922,0.931091,0.294189,0.118042,0.180481,down
299286,-1.058594,6.28125,7.800781,0.283203,0.0625,-0.027344,0.931091,0.294189,0.118042,0.180481,down
299291,-1.09375,6.394531,7.757812,0.283203,0.0625,-0.027344,0.931091,0.294189,0.118042,0.180481,down
299296,-1.019531,6.472656,7.722656,0.283203,0.0625,-0.027344,0.929199,0.29895,0.121094,0.18042,down
299301,-1.058594,6.433594,7.683594,0.203125,0.027344,-0.013672,0.929199,0.29895,0.121094,0.18042,down
299306,-1.058594,6.472656,7.605469,0.177734,0.027344,-0.009766,0.929199,0.29895,0.121094,0.18042,down
299311,-1.019531,6.394531,7.644531,0.177734,0.027344,-0.009766,0.929199,0.29895,0.121094,0.18042,down
