timestamp,ax,ay,az,gx,gy,gz,qw,qx,qy,qz,label
327280,9.300781,4.695312,1.832031,-0.5,-0.476562,-0.833984,0.251221,0.6297,0.00946,0.735046,down
327286,9.257813,4.617187,1.640625,-0.570312,-0.478516,-0.810547,0.251221,0.6297,0.00946,0.735046,down
327291,9.21875,4.503906,1.601563,-0.597656,-0.449219,-0.757812,0.26239,0.632507,0.010925,0.728638,down
327296,9.101563,4.425781,1.640625,-0.597656,-0.449219,-0.757812,0.264893,0.632996,0.010742,0.727356,down
327301,9.066406,4.351562,1.640625,-0.597656,-0.449219,-0.757812,0.267212,0.633362,0.01062,0.726196,down
327306,8.988281,4.3125,1.71875,-0.496094,-0.371094,-0.675781,0.267212,0.633362,0.01062,0.726196,down
327311,8.640625,4.121094,1.984375,-0.496094,-0.371094,-0.675781,0.273132,0.634277,0.010437,0.723145,down
327316,8.5625,4.082031,2.0625,-0.349609,-0.328125,-0.654297,0.273132,0.634277,0.010437,0.723145,down
327321,8.457031,4.003906,2.140625,-0.349609,-0.328125,-0.654297,0.276489,0.634949,0.010864,0.721313,down
327326,8.378906,3.96875,2.140625,-0.349609,-0.328125,-0.654297,0.278015,0.635315,0.011292,0.720398,down
327331,8.335938,3.96875,2.101563,-0.349609,-0.328125,-0.654297,0.278015,0.635315,0.011292,0.720398,down
327336,8.339844,3.96875,2.175781,-0.113281,-0.28125,-0.707031,0.278015,0.635315,0.011292,0.720398,down
327341,8.375,4.003906,2.214844,-0.113281,-0.28125,-0.707031,0.282349,0.636475,0.013367,0.71759,down
327346,8.375,4.042969,2.292969,-0.113281,-0.28125,-0.707031,0.282349,0.636475,0.013367,0.71759,down
327351,8.375,4.042969,2.292969,-0.066406,-0.21875,-0.763672,0.283752,0.636841,0.014282,0.716736,down
327356,8.414063,4.042969,2.332031,-0.056641,-0.167969,-0.792969,0.283752,0.636841,0.014282,0.716736,down
327361,8.261719,4.234375,2.292969,-0.052734,-0.119141,-0.828125,0.286743,0.637268,0.016418,0.715088,down
327366,8.261719,4.234375,2.292969,-0.066406,-0.091797,-0.859375,0.286743,0.637268,0.016418,0.715088,down
327372,7.953125,4.273437,2.292969,-0.066406,-0.091797,-0.859375,0.291809,0.637451,0.019836,0.71283,down
327377,7.800781,4.3125,2.367188,-0.066406,-0.091797,-0.859375,0.293762,0.637451,0.020691,0.711975,down
327383,7.492187,4.160156,2.484375,-0.066406,-0.091797,-0.859375,0.295959,0.637573,0.021362,0.710999,down
327388,7.453125,4.121094,2.484375,-0.529297,-0.34375,-0.898437,0.295959,0.637573,0.021362,0.710999,down
327394,7.414062,4.082031,2.523438,-0.644531,-0.404297,-0.902344,0.295959,0.637573,0.021362,0.710999,down
327399,7.1875,3.890625,2.523438,-0.644531,-0.404297,-0.902344,0.303467,0.638,0.021851,0.707336,down
327405,7.230469,3.8125,2.484375,-0.771484,-0.466797,-0.904297,0.303467,0.638,0.021851,0.707336,down
327410,7.304687,3.660156,2.484375,-0.791016,-0.498047,-0.910156,0.303467,0.638,0.021851,0.707336,down
327415,7.648437,3.585938,2.40625,-0.785156,-0.523437,-0.919922,0.303467,0.638,0.021851,0.707336,down
327420,7.726562,3.660156,2.292969,-0.767578,-0.535156,-0.923828,0.303467,0.638,0.021851,0.707336,down
327426,7.796875,3.738281,2.253906,-0.71875,-0.525391,-0.927734,0.303467,0.638,0.021851,0.707336,down
327431,7.917969,3.777344,2.253906,-0.673828,-0.507812,-0.951172,0.322937,0.639709,0.020691,0.697144,down
327436,8.148438,4.121094,2.332031,-0.673828,-0.507812,-0.951172,0.322937,0.639709,0.020691,0.697144,down
327441,8.222656,4.273437,2.332031,-0.673828,-0.507812,-0.951172,0.325684,0.640076,0.021057,0.695557,down
327446,8.335938,4.351562,2.292969,-0.357422,-0.40625,-1.015625,0.327881,0.64032,0.021606,0.694275,down
327452,8.257813,4.503906,2.292969,-0.177734,-0.296875,-1.074219,0.330078,0.640686,0.022461,0.692871,down
327457,8.179688,4.617187,2.332031,-0.177734,-0.296875,-1.074219,0.334534,0.641296,0.025024,0.690063,down
327463,7.917969,4.847656,2.445313,-0.177734,-0.296875,-1.074219,0.336426,0.641541,0.026367,0.688904,down
327468,7.800781,4.964844,2.40625,-0.019531,-0.214844,-1.169922,0.338379,0.641785,0.027954,0.687622,down
327473,7.570312,5.117187,2.367188,-0.019531,-0.214844,-1.169922,0.340454,0.642029,0.029663,0.686279,down
327479,7.417969,5.15625,2.40625,-0.066406,-0.169922,-1.257813,0.340454,0.642029,0.029663,0.686279,down
327484,7.152344,5.15625,2.484375,-0.113281,-0.152344,-1.285156,0.340454,0.642029,0.029663,0.686279,down
327490,6.808594,5.039062,2.175781,-0.113281,-0.152344,-1.285156,0.347351,0.642273,0.035034,0.682312,down
327496,6.804687,4.925781,1.910156,-0.351563,-0.166016,-1.349609,0.347351,0.642273,0.035034,0.682312,down
327501,6.730469,4.925781,1.757813,-0.589844,-0.257813,-1.347656,0.347351,0.642273,0.035034,0.682312,down
327507,6.652344,5.15625,1.949219,-0.589844,-0.257813,-1.347656,0.359436,0.641541,0.039978,0.676453,down
327512,6.726562,5.117187,2.023438,-0.699219,-0.46875,-1.296875,0.362976,0.641479,0.040649,0.674622,down
327517,6.882812,5.078125,2.023438,-0.716797,-0.554687,-1.273438,0.366394,0.641541,0.041138,0.672668,down
327523,6.964844,5.039062,2.0625,-0.716797,-0.554687,-1.273438,0.369385,0.641724,0.041382,0.670837,down
327528,7.074219,5.039062,2.0625,-0.716797,-0.554687,-1.273438,0.369385,0.641724,0.041382,0.670837,down
327533,7.113281,5.15625,2.140625,-0.716797,-0.685547,-1.166016,0.369385,0.641724,0.041382,0.670837,down
327539,7.1875,5.191406,2.292969,-0.603516,-0.794922,-1.066406,0.369385,0.641724,0.041382,0.670837,down
327544,7.1875,5.191406,2.292969,-0.558594,-0.820312,-1.0625,0.369385,0.641724,0.041382,0.670837,down
327550,7.148437,5.039062,2.332031,-0.558594,-0.820312,-1.0625,0.38385,0.644409,0.041748,0.660034,down
327556,7.03125,5.0,2.332031,-0.125,-0.792969,-1.097656,0.38385,0.644409,0.041748,0.660034,down
327561,6.84375,4.886719,2.292969,-0.125,-0.792969,-1.097656,0.388306,0.646362,0.042908,0.655457,down
327567,6.6875,4.886719,2.253906,0.054687,-0.728516,-1.158203,0.388306,0.646362,0.042908,0.655457,down
327572,6.726562,4.847656,2.253906,0.054687,-0.728516,-1.158203,0.394287,0.649658,0.046631,0.648315,down
327577,6.886719,4.773437,2.214844,0.054687,-0.728516,-1.158203,0.395935,0.650574,0.047974,0.646301,down
327582,7.570312,4.734375,1.984375,0.097656,-0.611328,-1.3125,0.398071,0.651611,0.049805,0.643799,down
327587,7.796875,4.886719,1.871094,0.097656,-0.611328,-1.3125,0.399963,0.652344,0.051453,0.641724,down
327592,7.800781,4.925781,1.757813,0.087891,-0.396484,-1.40625,0.399963,0.652344,0.051453,0.641724,down
327597,7.453125,5.386719,1.566406,0.087891,-0.396484,-1.40625,0.404236,0.653381,0.055603,0.637634,down
327602,7.148437,5.5,1.410156,0.087891,-0.396484,-1.40625,0.404236,0.653381,0.055603,0.637634,down
327607,6.804687,5.652344,1.335938,0.097656,-0.085937,-1.474609,0.404236,0.653381,0.055603,0.637634,down
327612,6.039062,6.148437,1.144531,0.097656,-0.085937,-1.474609,0.410889,0.653625,0.062988,0.632446,down
327617,5.582031,6.496094,0.988281,0.097656,-0.085937,-1.474609,0.413025,0.653442,0.065491,0.630981,down
327622,5.082031,6.800781,0.796875,0.015625,0.009766,-1.521484,0.413025,0.653442,0.065491,0.630981,down
327627,4.699219,7.070312,0.761719,0.015625,0.009766,-1.521484,0.415344,0.653137,0.068115,0.629456,down
327632,4.585937,7.257812,1.105469,-0.080078,-0.091797,-1.527344,0.415344,0.653137,0.068115,0.629456,down
327637,4.546875,7.414062,1.410156,-0.189453,-0.308594,-1.511719,0.42041,0.65271,0.072876,0.626038,down
327642,4.585937,7.535156,1.757813,-0.189453,-0.308594,-1.511719,0.425659,0.652649,0.076538,0.622131,down
327647,4.777344,7.53125,2.175781,-0.189453,-0.308594,-1.511719,0.425659,0.652649,0.076538,0.622131,down
327652,4.8125,7.414062,2.140625,-0.189453,-0.308594,-1.511719,0.431641,0.652649,0.079346,0.617554,down
327657,4.96875,7.179687,2.101563,-0.189453,-0.308594,-1.511719,0.431641,0.652649,0.079346,0.617554,down
327662,5.273437,6.957031,2.023438,-0.636719,-0.697266,-1.503906,0.431641,0.652649,0.079346,0.617554,down
327667,5.273437,6.957031,2.023438,-0.636719,-0.697266,-1.503906,0.438293,0.65271,0.081238,0.61261,down
327672,6.308594,6.652344,1.949219,-0.695312,-0.742187,-1.535156,0.441833,0.65271,0.08197,0.609924,down
327677,6.308594,6.652344,1.949219,-0.71875,-0.744141,-1.560547,0.445435,0.65271,0.082642,0.607239,down
327682,6.539062,6.730469,1.871094,-0.71875,-0.744141,-1.560547,0.449219,0.65271,0.083313,0.60437,down
327687,6.652344,6.835937,1.792969,-0.683594,-0.695312,-1.644531,0.452881,0.652649,0.084106,0.601562,down
327693,6.652344,6.953125,1.71875,-0.576172,-0.626953,-1.701172,0.452881,0.652649,0.084106,0.601562,down
327699,6.691406,7.152344,1.527344,-0.576172,-0.626953,-1.701172,0.463806,0.652283,0.087524,0.593079,down
327705,6.421875,7.566406,1.21875,-0.490234,-0.556641,-1.726563,0.463806,0.652283,0.087524,0.593079,down
327710,6.269531,7.71875,1.144531,-0.402344,-0.535156,-1.716797,0.463806,0.652283,0.087524,0.593079,down
327715,6.078125,7.878906,1.179688,-0.337891,-0.53125,-1.720703,0.463806,0.652283,0.087524,0.593079,down
327720,5.847656,8.179688,1.105469,-0.257813,-0.529297,-1.710938,0.463806,0.652283,0.087524,0.593079,down
327726,5.234375,8.523438,0.914062,-0.257813,-0.529297,-1.710938,0.47998,0.651978,0.095764,0.579102,down
327731,5.003906,8.5625,0.875,-0.148437,-0.570312,-1.640625,0.47998,0.651978,0.095764,0.579102,down
327737,4.738281,8.640625,0.722656,-0.160156,-0.736328,-1.529297,0.47998,0.651978,0.095764,0.579102,down
327742,4.777344,8.792969,0.683594,-0.160156,-0.736328,-1.529297,0.490723,0.65332,0.102112,0.567444,down
327747,5.042969,8.867188,0.796875,-0.160156,-0.736328,-1.529297,0.490723,0.65332,0.102112,0.567444,down
327752,5.351562,8.984375,0.796875,-0.257813,-1.005859,-1.416016,0.496338,0.654724,0.10376,0.560547,down
327757,5.734375,9.289063,0.683594,-0.257813,-1.005859,-1.416016,0.496338,0.654724,0.10376,0.560547,down
327762,5.773437,9.371094,0.605469,-0.410156,-1.175781,-1.308594,0.498962,0.655518,0.104126,0.55719,down
327768,5.773437,9.371094,0.605469,-0.441406,-1.210938,-1.289063,0.504333,0.656982,0.104431,0.550537,down
327773,5.808594,9.367188,0.453125,-0.488281,-1.265625,-1.263672,0.507385,0.657776,0.10437,0.546814,down
327778,5.695312,9.332031,0.453125,-0.488281,-1.265625,-1.263672,0.510193,0.658508,0.104126,0.543335,down
327784,5.695312,9.332031,0.375,-0.488281,-1.265625,-1.263672,0.512939,0.659241,0.103882,0.539917,down
327789,5.695312,9.332031,0.375,-0.498047,-1.322266,-1.205078,0.515686,0.660034,0.103516,0.536438,down
327794,5.542969,9.410156,0.300781,-0.498047,-1.322266,-1.205078,0.515686,0.660034,0.103516,0.536438,down
327799,5.3125,9.484375,0.222656,-0.523437,-1.326172,-1.1875,0.515686,0.660034,0.103516,0.536438,down
327804,5.3125,9.484375,0.222656,-0.583984,-1.339844,-1.128906,0.523987,0.662292,0.102112,0.525757,down
327809,4.851562,9.40625,0.070312,-0.583984,-1.339844,-1.128906,0.523987,0.662292,0.102112,0.525757,down
327815,4.699219,9.367188,-0.160156,-0.583984,-1.339844,-1.128906,0.523987,0.662292,0.102112,0.525757,down
327821,4.699219,9.328125,-0.121094,-0.583984,-1.339844,-1.128906,0.532349,0.664185,0.099915,0.515259,down
327826,4.699219,9.367188,-0.121094,-0.544922,-1.382813,-1.041016,0.532349,0.664185,0.099915,0.515259,down
327831,4.699219,9.328125,-0.042969,-0.488281,-1.402344,-1.023438,0.532349,0.664185,0.099915,0.515259,down
327836,4.699219,9.289063,-0.082031,-0.488281,-1.402344,-1.023438,0.539917,0.666565,0.097595,0.5047,down
327842,4.8125,9.292969,-0.160156,-0.388672,-1.408203,-0.962891,0.539917,0.666565,0.097595,0.5047,down
327847,4.890625,9.210938,-0.121094,-0.302734,-1.429688,-0.908203,0.539917,0.666565,0.097595,0.5047,down
327852,5.160156,9.0625,-0.042969,-0.257813,-1.410156,-0.882812,0.546448,0.669556,0.095276,0.493958,down
327857,5.234375,9.023438,-0.082031,-0.257813,-1.410156,-0.882812,0.548523,0.670837,0.094421,0.490112,down
327862,5.234375,9.023438,-0.082031,-0.257813,-1.410156,-0.882812,0.550293,0.671936,0.09375,0.486694,down
327867,5.234375,9.023438,-0.121094,-0.169922,-1.376953,-0.837891,0.550293,0.671936,0.09375,0.486694,down
327872,5.234375,9.023438,-0.121094,-0.169922,-1.376953,-0.837891,0.554871,0.675537,0.091736,0.476807,down
327877,5.195312,9.0625,-0.160156,-0.169922,-1.376953,-0.837891,0.554871,0.675537,0.091736,0.476807,down
327882,5.121094,9.140625,-0.199219,-0.052734,-1.353516,-0.777344,0.554871,0.675537,0.091736,0.476807,down
327888,4.96875,9.25,-0.273438,-0.052734,-1.353516,-0.777344,0.558838,0.679443,0.089966,0.466858,down
327893,4.96875,9.25,-0.273438,0.003906,-1.380859,-0.751953,0.560181,0.680908,0.089294,0.463196,down
327898,4.8125,9.332031,-0.351563,0.009766,-1.40625,-0.734375,0.56134,0.682373,0.088684,0.459839,down
327903,4.777344,9.289063,-0.425781,0.009766,-1.40625,-0.734375,0.56134,0.682373,0.088684,0.459839,down
327908,4.777344,9.289063,-0.425781,0.007813,-1.416016,-0.732422,0.562378,0.683655,0.088074,0.456726,down
327913,4.699219,9.289063,-0.542969,0.007813,-1.416016,-0.732422,0.563538,0.685181,0.08728,0.453186,down
327918,4.699219,9.289063,-0.542969,0.017578,-1.482422,-0.691406,0.564575,0.686707,0.086487,0.449707,down
327923,4.699219,9.140625,-0.582031,0.017578,-1.482422,-0.691406,0.564575,0.686707,0.086487,0.449707,down
327928,4.929687,8.90625,-0.695312,-0.003906,-1.496094,-0.681641,0.566711,0.689697,0.084778,0.442627,down
327934,4.929687,9.027344,-0.617187,-0.003906,-1.496094,-0.681641,0.568848,0.692627,0.083008,0.43573,down
327939,4.851562,9.066406,-0.617187,0.048828,-1.453125,-0.685547,0.568848,0.692627,0.083008,0.43573,down
327944,4.890625,9.210938,-0.582031,0.048828,-1.453125,-0.685547,0.570801,0.695557,0.081421,0.428711,down
327949,4.699219,9.554688,-0.65625,0.048828,-1.453125,-0.685547,0.570801,0.695557,0.081421,0.428711,down
327955,4.621094,9.554688,-0.582031,0.160156,-1.449219,-0.714844,0.570801,0.695557,0.081421,0.428711,down
327960,4.507812,9.675781,-0.425781,0.160156,-1.449219,-0.714844,0.570801,0.695557,0.081421,0.428711,down
327965,4.394531,9.753906,-0.503906,0.222656,-1.398438,-0.707031,0.570801,0.695557,0.081421,0.428711,down
327971,4.316406,9.867188,-0.542969,0.244141,-1.388672,-0.703125,0.570801,0.695557,0.081421,0.428711,down
327976,4.164062,10.015625,-0.582031,0.220703,-1.396484,-0.691406,0.570801,0.695557,0.081421,0.428711,down
327981,4.085937,10.058594,-0.617187,0.220703,-1.396484,-0.691406,0.575623,0.706665,0.077332,0.404053,down
327987,4.046875,10.015625,-0.65625,0.142578,-1.425781,-0.697266,0.575623,0.706665,0.077332,0.404053,down
327992,4.007812,9.9375,-0.617187,0.091797,-1.433594,-0.701172,0.577942,0.710999,0.075256,0.393433,down
327997,3.972656,9.789063,-0.582031,0.091797,-1.433594,-0.701172,0.577942,0.710999,0.075256,0.393433,down
328002,3.972656,9.753906,-0.65625,0.091797,-1.433594,-0.701172,0.578918,0.712402,0.074402,0.389648,down
328008,4.046875,9.710938,-0.542969,-0.072266,-1.392578,-0.681641,0.578918,0.712402,0.074402,0.389648,down
328013,4.085937,9.636719,-0.542969,-0.072266,-1.392578,-0.681641,0.58197,0.715698,0.071899,0.379395,down
328018,4.125,9.671875,-0.542969,-0.072266,-1.392578,-0.681641,0.58197,0.715698,0.071899,0.379395,down
328023,4.164062,9.671875,-0.542969,-0.087891,-1.251953,-0.648437,0.58197,0.715698,0.071899,0.379395,down
328028,4.164062,9.671875,-0.542969,-0.087891,-1.251953,-0.648437,0.583984,0.71759,0.070374,0.372925,down
328033,4.238281,9.675781,-0.425781,-0.052734,-1.201172,-0.642578,0.584961,0.718445,0.069702,0.369812,down
328038,4.238281,9.675781,-0.425781,0.007813,-1.142578,-0.625,0.585815,0.71936,0.069092,0.366821,down
328043,4.277344,9.671875,-0.351563,0.007813,-1.142578,-0.625,0.586487,0.720337,0.068604,0.363831,down
328048,4.277344,9.671875,-0.351563,0.123047,-1.027344,-0.597656,0.587097,0.721313,0.068237,0.361084,down
328053,4.355469,9.710938,-0.351563,0.123047,-1.027344,-0.597656,0.587524,0.722351,0.067993,0.358337,down
328059,4.429687,9.753906,-0.390625,0.123047,-1.027344,-0.597656,0.588135,0.724304,0.067688,0.353333,down
328064,4.46875,9.828125,-0.425781,0.253906,-0.832031,-0.548828,0.588379,0.725342,0.067627,0.350891,down
328069,4.394531,9.980469,-0.464844,0.253906,-0.832031,-0.548828,0.588379,0.725342,0.067627,0.350891,down
328074,4.316406,10.09375,-0.503906,0.230469,-0.755859,-0.550781,0.588379,0.725342,0.067627,0.350891,down
328079,4.199219,10.175781,-0.503906,0.216797,-0.736328,-0.550781,0.588379,0.725342,0.067627,0.350891,down
328085,3.933594,10.441406,-0.582031,0.171875,-0.724609,-0.550781,0.588379,0.725342,0.067627,0.350891,down
328090,3.816406,10.515625,-0.65625,0.144531,-0.710937,-0.556641,0.588379,0.725342,0.067627,0.350891,down
328095,3.78125,10.515625,-0.695312,0.085937,-0.708984,-0.552734,0.588379,0.725342,0.067627,0.350891,down
328100,3.78125,10.476563,-0.65625,0.03125,-0.720703,-0.537109,0.590515,0.730896,0.068115,0.335266,down
328105,3.78125,10.292969,-0.582031,0.03125,-0.720703,-0.537109,0.591003,0.731323,0.068054,0.333435,down
328110,3.855469,10.132813,-0.582031,-0.046875,-0.710937,-0.498047,0.591003,0.731323,0.068054,0.333435,down
328115,3.816406,9.980469,-0.617187,-0.085937,-0.691406,-0.478516,0.591003,0.731323,0.068054,0.333435,down
328121,3.894531,9.710938,-0.65625,-0.085937,-0.691406,-0.478516,0.59314,0.732483,0.067444,0.327271,down
328126,3.972656,9.597656,-0.734375,-0.085937,-0.691406,-0.478516,0.593872,0.732666,0.067139,0.325623,down
328131,3.972656,9.332031,-0.65625,-0.085937,-0.691406,-0.478516,0.593872,0.732666,0.067139,0.325623,down
328137,4.046875,9.253906,-0.65625,-0.085937,-0.691406,-0.478516,0.595764,0.732788,0.066345,0.322021,down
328143,4.046875,9.371094,-0.617187,-0.234375,-0.566406,-0.464844,0.595764,0.732788,0.066345,0.322021,down
328148,3.972656,9.527344,-0.734375,-0.234375,-0.566406,-0.464844,0.597656,0.732788,0.065735,0.318604,down
328153,3.894531,9.554688,-0.695312,-0.175781,-0.533203,-0.488281,0.599365,0.73291,0.065613,0.315125,down
328159,3.742188,9.941406,-0.582031,-0.175781,-0.533203,-0.488281,0.599976,0.733093,0.065857,0.313538,down
328164,3.742188,9.941406,-0.582031,0.048828,-0.423828,-0.560547,0.600464,0.733337,0.066162,0.311951,down
328169,3.703125,10.054688,-0.582031,0.076172,-0.386719,-0.580078,0.600952,0.733643,0.066711,0.310181,down
328175,3.664063,10.097656,-0.464844,0.076172,-0.386719,-0.580078,0.601318,0.733887,0.0672,0.308716,down
328180,3.664063,10.058594,-0.273438,0.076172,-0.386719,-0.580078,0.601746,0.734131,0.06781,0.307251,down
328185,3.589844,10.015625,-0.234375,-0.070312,-0.304688,-0.548828,0.602295,0.734192,0.068298,0.305847,down
328191,3.625,9.90625,-0.199219,-0.1875,-0.287109,-0.529297,0.602295,0.734192,0.068298,0.305847,down
328197,3.550781,9.597656,-0.042969,-0.1875,-0.287109,-0.529297,0.603943,0.733887,0.069092,0.303223,down
328202,3.433594,9.445313,-0.042969,-0.466797,-0.287109,-0.496094,0.603943,0.733887,0.069092,0.303223,down
328208,3.472656,9.367188,0.03125,-0.611328,-0.310547,-0.478516,0.608154,0.731873,0.069153,0.299561,down
328213,3.398438,9.144531,0.148437,-0.611328,-0.310547,-0.478516,0.609985,0.730835,0.068848,0.29834,down
328218,3.398438,9.0625,0.183594,-0.611328,-0.310547,-0.478516,0.609985,0.730835,0.068848,0.29834,down
328223,3.359375,9.023438,0.222656,-0.810547,-0.431641,-0.416016,0.609985,0.730835,0.068848,0.29834,down
328228,3.359375,8.832031,0.148437,-0.794922,-0.474609,-0.398438,0.609985,0.730835,0.068848,0.29834,down
328233,3.320313,8.828125,0.183594,-0.691406,-0.558594,-0.363281,0.61554,0.727966,0.067261,0.294312,down
328238,3.320313,8.789063,0.148437,-0.691406,-0.558594,-0.363281,0.617432,0.727112,0.066528,0.292725,down
328243,3.242188,8.792969,0.109375,-0.691406,-0.558594,-0.363281,0.619019,0.72644,0.065735,0.291199,down
328249,3.207031,8.867188,0.03125,-0.478516,-0.648437,-0.337891,0.620239,0.726013,0.065063,0.289734,down
328254,3.207031,8.867188,0.03125,-0.363281,-0.677734,-0.3125,0.621338,0.725769,0.064331,0.288147,down
328259,3.207031,8.984375,-0.007813,-0.363281,-0.677734,-0.3125,0.622253,0.725708,0.063599,0.286438,down
328264,3.242188,9.0625,-0.042969,-0.199219,-0.746094,-0.275391,0.623047,0.72583,0.062866,0.284729,down
328269,3.242188,9.144531,-0.160156,-0.199219,-0.746094,-0.275391,0.623047,0.72583,0.062866,0.284729,down
328274,3.207031,9.101563,-0.234375,-0.210937,-0.75,-0.263672,0.625183,0.726257,0.060364,0.279419,down
328279,3.207031,9.140625,-0.3125,-0.210937,-0.75,-0.263672,0.625977,0.726257,0.059448,0.277649,down
328285,3.242188,9.253906,-0.464844,-0.210937,-0.75,-0.263672,0.626892,0.726257,0.058533,0.27594,down
328291,3.207031,9.289063,-0.464844,-0.398438,-0.753906,-0.253906,0.626892,0.726257,0.058533,0.27594,down
328296,3.207031,9.367188,-0.464844,-0.462891,-0.746094,-0.253906,0.626892,0.726257,0.058533,0.27594,down
328301,3.207031,9.367188,-0.503906,-0.517578,-0.740234,-0.253906,0.626892,0.726257,0.058533,0.27594,down
328306,3.167969,9.367188,-0.542969,-0.517578,-0.740234,-0.253906,0.63147,0.72522,0.054382,0.269043,down
328311,3.128906,9.40625,-0.582031,-0.544922,-0.720703,-0.251953,0.63147,0.72522,0.054382,0.269043,down
328316,3.167969,9.445313,-0.617187,-0.537109,-0.724609,-0.240234,0.63147,0.72522,0.054382,0.269043,down
328321,3.128906,9.445313,-0.65625,-0.533203,-0.722656,-0.226562,0.63147,0.72522,0.054382,0.269043,down
328326,3.089844,9.410156,-0.773437,-0.533203,-0.722656,-0.226562,0.63147,0.72522,0.054382,0.269043,down
328331,3.089844,9.410156,-0.773437,-0.513672,-0.732422,-0.197266,0.63147,0.72522,0.054382,0.269043,down
328336,3.089844,9.332031,-0.773437,-0.517578,-0.75,-0.1875,0.63147,0.72522,0.054382,0.269043,down
328342,3.167969,9.332031,-0.773437,-0.517578,-0.75,-0.1875,0.63147,0.72522,0.054382,0.269043,down
328347,3.207031,9.328125,-0.886719,-0.517578,-0.75,-0.1875,0.641174,0.722046,0.045105,0.255981,down
328353,3.28125,9.292969,-0.964844,-0.527344,-0.814453,-0.164062,0.641174,0.722046,0.045105,0.255981,down
328359,3.28125,9.253906,-1.003906,-0.527344,-0.814453,-0.164062,0.644714,0.720947,0.041077,0.250854,down
328364,3.320313,9.214844,-1.039063,-0.519531,-0.826172,-0.201172,0.645874,0.720581,0.039734,0.249146,down
328369,3.359375,9.210938,-1.117188,-0.496094,-0.826172,-0.216797,0.647156,0.720154,0.03833,0.247131,down
328374,3.398438,9.25,-1.15625,-0.496094,-0.826172,-0.216797,0.648254,0.719849,0.037048,0.2453,down
328379,3.398438,9.292969,-1.195313,-0.496094,-0.826172,-0.216797,0.64917,0.719666,0.036011,0.243652,down
328384,3.398438,9.40625,-1.269531,-0.496094,-0.826172,-0.216797,0.64917,0.719666,0.036011,0.243652,down
328389,3.398438,9.40625,-1.269531,-0.398438,-0.820312,-0.28125,0.64917,0.719666,0.036011,0.243652,down
328394,3.398438,9.40625,-1.269531,-0.384766,-0.818359,-0.289063,0.652161,0.719055,0.032715,0.237915,down
328400,3.320313,9.449219,-1.347656,-0.392578,-0.802734,-0.310547,0.653259,0.718811,0.031555,0.235718,down
328405,3.28125,9.449219,-1.460938,-0.392578,-0.802734,-0.310547,0.654114,0.718628,0.03064,0.234009,down
328410,3.28125,9.449219,-1.460938,-0.392578,-0.802734,-0.310547,0.65509,0.718445,0.029663,0.231934,down
328417,3.28125,9.449219,-1.539063,-0.392578,-0.802734,-0.310547,0.65509,0.718445,0.029663,0.231934,down
328423,3.28125,9.367188,-1.539063,-0.423828,-0.769531,-0.330078,0.65509,0.718445,0.029663,0.231934,down
328428,3.207031,9.292969,-1.652344,-0.447266,-0.753906,-0.337891,0.65509,0.718445,0.029663,0.231934,down
328433,3.207031,9.253906,-1.652344,-0.447266,-0.753906,-0.337891,0.65918,0.717224,0.026001,0.224426,down
328438,3.207031,9.210938,-1.691406,-0.441406,-0.712891,-0.326172,0.65918,0.717224,0.026001,0.224426,down
328443,3.167969,9.210938,-1.691406,-0.441406,-0.712891,-0.326172,0.661377,0.716431,0.02417,0.220642,down
328448,3.167969,9.210938,-1.730469,-0.441406,-0.712891,-0.326172,0.662415,0.716125,0.023376,0.218872,down
328453,3.167969,9.210938,-1.730469,-0.388672,-0.691406,-0.326172,0.66333,0.715759,0.022583,0.217163,down
328458,3.167969,9.214844,-1.769531,-0.388672,-0.691406,-0.326172,0.664246,0.715515,0.021851,0.215393,down
328463,3.242188,9.25,-1.882813,-0.310547,-0.671875,-0.330078,0.665039,0.715271,0.021118,0.213684,down
328468,3.242188,9.25,-1.882813,-0.310547,-0.671875,-0.330078,0.665039,0.715271,0.021118,0.213684,down
328473,3.242188,9.292969,-1.921875,-0.271484,-0.654297,-0.337891,0.666992,0.715027,0.019287,0.208435,down
328478,3.28125,9.328125,-2.0,-0.271484,-0.654297,-0.337891,0.666992,0.715027,0.019287,0.208435,down
328483,3.398438,9.328125,-2.0,-0.109375,-0.582031,-0.357422,0.666992,0.715027,0.019287,0.208435,down
328489,3.433594,9.328125,-2.035156,-0.09375,-0.546875,-0.353516,0.668274,0.715271,0.018127,0.203613,down
328494,3.472656,9.332031,-2.035156,-0.068359,-0.484375,-0.355469,0.668274,0.715271,0.018127,0.203613,down
328499,3.625,9.214844,-2.074219,-0.056641,-0.443359,-0.351563,0.66864,0.715393,0.017883,0.201965,down
328504,3.625,9.214844,-2.074219,-0.052734,-0.402344,-0.345703,0.669312,0.715576,0.017578,0.19928,down
328509,3.855469,9.144531,-2.113281,-0.052734,-0.402344,-0.345703,0.669312,0.715576,0.017578,0.19928,down
328514,3.894531,9.105469,-2.152344,-0.048828,-0.347656,-0.333984,0.669922,0.715698,0.017517,0.196716,down
328519,4.046875,9.0625,-2.152344,-0.048828,-0.347656,-0.333984,0.670166,0.715759,0.017578,0.195679,down
328524,4.125,9.0625,-2.191406,-0.048828,-0.347656,-0.333984,0.670349,0.71582,0.0177,0.194763,down
328529,4.199219,9.066406,-2.191406,0.027344,-0.160156,-0.298828,0.670349,0.71582,0.0177,0.194763,down
328534,4.277344,9.0625,-2.265625,0.027344,-0.160156,-0.298828,0.670593,0.716003,0.018188,0.193054,down
328539,4.316406,9.175781,-2.265625,0.027344,-0.160156,-0.298828,0.670654,0.716125,0.018494,0.192444,down
328544,4.507812,9.25,-2.382813,0.027344,-0.160156,-0.298828,0.670532,0.71637,0.018921,0.191895,down
328549,4.546875,9.332031,-2.457031,0.183594,-0.009766,-0.253906,0.670532,0.71637,0.018921,0.191895,down
328554,4.699219,9.527344,-2.535156,0.183594,-0.009766,-0.253906,0.67041,0.716675,0.01947,0.191284,down
328560,4.890625,9.710938,-2.765625,0.183594,-0.009766,-0.253906,0.669922,0.717285,0.020508,0.190552,down
328565,4.890625,9.710938,-2.765625,0.275391,0.117188,-0.234375,0.669556,0.717651,0.02124,0.190247,down
328570,5.082031,9.9375,-2.917969,0.275391,0.117188,-0.234375,0.669128,0.71814,0.022095,0.190063,down
328576,5.121094,10.289063,-3.070313,0.275391,0.117188,-0.234375,0.668762,0.718445,0.022827,0.189941,down
328581,5.121094,10.515625,-3.148438,0.289063,0.259766,-0.230469,0.668762,0.718445,0.022827,0.189941,down
328587,5.042969,10.78125,-3.300781,0.261719,0.310547,-0.214844,0.668762,0.718445,0.022827,0.189941,down
328592,4.96875,11.359375,-3.53125,0.210937,0.357422,-0.212891,0.668762,0.718445,0.022827,0.189941,down
328597,4.96875,11.707031,-3.605469,0.150391,0.394531,-0.201172,0.668762,0.718445,0.022827,0.189941,down
328603,4.929687,12.011719,-3.683594,0.074219,0.435547,-0.197266,0.668762,0.718445,0.022827,0.189941,down
328608,4.890625,12.667969,-3.914063,0.007813,0.482422,-0.193359,0.668762,0.718445,0.022827,0.189941,down
328613,4.890625,12.929688,-3.988281,0.007813,0.482422,-0.193359,0.66748,0.718811,0.030212,0.191956,down
328618,4.851562,13.234375,-4.066406,0.007813,0.482422,-0.193359,0.667786,0.718323,0.031555,0.192627,down
328624,4.890625,13.394531,-4.105469,-0.337891,0.714844,-0.199219,0.667786,0.718323,0.031555,0.192627,down
328629,4.890625,13.734375,-4.21875,-0.337891,0.714844,-0.199219,0.669495,0.71582,0.035522,0.195251,down
328634,4.890625,13.890625,-4.21875,-0.552734,0.878906,-0.166016,0.669495,0.71582,0.035522,0.195251,down
328639,4.890625,14.042969,-4.179687,-0.552734,0.878906,-0.166016,0.670471,0.714478,0.037048,0.196533,down
328644,4.929687,14.121094,-4.105469,-0.767578,1.068359,-0.066406,0.670471,0.714478,0.037048,0.196533,down
328649,4.8125,14.15625,-4.066406,-0.767578,1.068359,-0.066406,0.674072,0.709412,0.041443,0.201538,down
328654,4.8125,14.082031,-4.027344,-0.994141,1.277344,0.087891,0.674072,0.709412,0.041443,0.201538,down
328659,4.738281,13.894531,-3.914063,-1.095703,1.373047,0.191406,0.675781,0.70697,0.043091,0.204102,down
328664,4.777344,13.699219,-3.761719,-1.095703,1.373047,0.191406,0.679016,0.702026,0.045837,0.209656,down
328669,4.738281,13.511719,-3.570313,-1.095703,1.373047,0.191406,0.680664,0.699402,0.047058,0.212891,down
328674,4.8125,13.238281,-3.414063,-1.095703,1.373047,0.191406,0.680664,0.699402,0.047058,0.212891,down
328679,4.890625,13.117188,-3.148438,-1.033203,1.828125,0.726562,0.680664,0.699402,0.047058,0.212891,down
328684,4.929687,13.007813,-2.839844,-1.033203,1.828125,0.726562,0.68457,0.691223,0.050964,0.225769,down
328689,5.003906,12.96875,-2.648438,-1.033203,1.828125,0.726562,0.685242,0.688782,0.052307,0.230774,down
328694,5.003906,13.011719,-2.535156,-1.033203,1.828125,0.726562,0.685242,0.688782,0.052307,0.230774,down
328699,5.003906,12.972656,-2.382813,-0.570312,2.144531,1.083984,0.685242,0.688782,0.052307,0.230774,down
328704,4.96875,13.011719,-2.34375,-0.570312,2.144531,1.083984,0.684875,0.682861,0.056824,0.247864,down
328709,4.96875,13.050781,-2.304688,-0.025391,2.419922,1.332031,0.684875,0.682861,0.056824,0.247864,down
328714,4.851562,13.050781,-2.265625,-0.025391,2.419922,1.332031,0.683777,0.681213,0.058777,0.254761,down
328719,4.546875,13.085938,-2.226563,0.130859,2.5,1.400391,0.683777,0.681213,0.058777,0.254761,down
328724,4.355469,13.117188,-2.265625,0.378906,2.619141,1.539063,0.680969,0.678894,0.062439,0.267395,down
328729,4.199219,13.121094,-2.226563,0.378906,2.619141,1.539063,0.678894,0.677856,0.064636,0.274719,down
328734,4.199219,13.121094,-2.226563,0.462891,2.673828,1.599609,0.674316,0.676208,0.068726,0.288574,down
328739,4.046875,13.15625,-2.191406,0.462891,2.673828,1.599609,0.674316,0.676208,0.068726,0.288574,down
328744,3.78125,13.085938,-2.074219,0.462891,2.673828,1.599609,0.674316,0.676208,0.068726,0.288574,down
328749,3.78125,13.085938,-2.074219,0.445312,2.800781,1.808594,0.669128,0.674377,0.072815,0.303589,down
328754,3.625,12.933594,-1.691406,0.232422,2.910156,1.935547,0.669128,0.674377,0.072815,0.303589,down
328759,3.625,12.667969,-1.460938,0.232422,2.910156,1.935547,0.664062,0.671753,0.076538,0.319275,down
328764,3.550781,12.550781,-1.421875,0.232422,2.910156,1.935547,0.661438,0.669922,0.078308,0.327942,down
328769,3.511719,12.433594,-1.269531,-0.068359,3.007813,2.035156,0.657288,0.665588,0.081116,0.344116,down
328774,3.433594,12.046875,-1.117188,-0.068359,3.007813,2.035156,0.655396,0.662842,0.082336,0.3526,down
328779,3.359375,11.898438,-0.964844,-0.068359,3.007813,2.035156,0.655396,0.662842,0.082336,0.3526,down
328784,3.359375,11.746094,-0.773437,-0.488281,3.117188,2.130859,0.655396,0.662842,0.082336,0.3526,down
328789,3.050781,11.480469,-0.542969,-0.546875,3.130859,2.179688,0.655396,0.662842,0.082336,0.3526,down
328795,2.9375,11.402344,-0.351563,-0.546875,3.130859,2.179688,0.648071,0.649353,0.086426,0.388428,down
328800,2.859375,11.242188,-0.082031,-0.59375,3.115234,2.285156,0.646179,0.645874,0.087158,0.397095,down
328806,2.707031,11.136719,0.070312,-0.59375,3.115234,2.285156,0.644348,0.642639,0.087769,0.405151,down
328811,2.628906,10.863281,0.375,-0.59375,3.115234,2.285156,0.644348,0.642639,0.087769,0.405151,down
328817,2.628906,10.863281,0.375,-0.59375,3.035156,2.404297,0.640015,0.635376,0.088745,0.422852,down
328822,2.628906,10.476563,0.683594,-0.59375,3.035156,2.404297,0.640015,0.635376,0.088745,0.422852,down
328827,2.628906,10.476563,0.683594,-0.597656,2.96875,2.457031,0.635315,0.628052,0.089294,0.44043,down
328832,2.667969,9.597656,1.105469,-0.597656,2.96875,2.457031,0.632935,0.62439,0.089417,0.448914,down
328837,2.707031,9.410156,1.179688,-0.626953,2.912109,2.492188,0.632935,0.62439,0.089417,0.448914,down
328843,2.746094,9.25,1.257813,-0.634766,2.888672,2.488281,0.632935,0.62439,0.089417,0.448914,down
328848,2.746094,8.949219,1.488281,-0.634766,2.888672,2.488281,0.625366,0.613098,0.089233,0.474426,down
328854,2.785156,8.75,1.601563,-0.576172,2.841797,2.423828,0.625366,0.613098,0.089233,0.474426,down
328859,2.746094,8.566406,1.71875,-0.576172,2.841797,2.423828,0.620056,0.605347,0.08905,0.491028,down
328864,2.667969,8.257813,1.949219,-0.529297,2.839844,2.382813,0.620056,0.605347,0.08905,0.491028,down
328870,2.628906,8.144531,2.023438,-0.4375,2.833984,2.347656,0.611511,0.594055,0.089539,0.514893,down
328875,2.628906,8.027344,2.175781,-0.271484,2.833984,2.248047,0.608093,0.590088,0.090088,0.523376,down
328880,2.628906,7.878906,2.523438,-0.271484,2.833984,2.248047,0.604919,0.586548,0.09082,0.530823,down
328885,2.785156,7.796875,2.484375,-0.271484,2.833984,2.248047,0.601807,0.583435,0.091614,0.537598,down
328890,2.785156,7.796875,2.484375,-0.271484,2.833984,2.248047,0.601807,0.583435,0.091614,0.537598,down
328895,2.898438,7.800781,2.558594,0.023437,2.814453,2.117188,0.601807,0.583435,0.091614,0.537598,down
328900,2.746094,7.800781,2.714844,0.044922,2.800781,2.080078,0.594727,0.576782,0.093872,0.552063,down
328905,2.746094,7.800781,2.714844,0.044922,2.800781,2.080078,0.594727,0.576782,0.093872,0.552063,down
328910,2.820313,7.875,2.753906,0.099609,2.603516,1.976563,0.594727,0.576782,0.093872,0.552063,down
328915,2.785156,7.71875,3.171875,0.046875,2.513672,1.96875,0.583923,0.5672,0.097473,0.572571,down
328921,2.707031,7.261719,3.59375,0.046875,2.513672,1.96875,0.576843,0.561096,0.099304,0.585327,down
328926,2.707031,7.261719,3.59375,0.019531,2.308594,1.980469,0.573242,0.558105,0.099915,0.591553,down
328931,2.707031,6.996094,3.746094,0.019531,2.308594,1.980469,0.569946,0.55542,0.100342,0.597168,down
328937,2.746094,6.878906,3.863281,0.019531,2.308594,1.980469,0.566406,0.552612,0.100586,0.603027,down
328942,2.746094,6.839844,3.902344,-0.007813,1.986328,1.927734,0.566406,0.552612,0.100586,0.603027,down
328947,2.707031,6.800781,3.941406,0.054687,1.896484,1.890625,0.566406,0.552612,0.100586,0.603027,down
328952,2.59375,6.878906,3.976563,0.115234,1.814453,1.824219,0.556213,0.54541,0.100891,0.618896,down
328957,2.59375,6.878906,3.976563,0.181641,1.740234,1.759766,0.556213,0.54541,0.100891,0.618896,down
328963,2.59375,6.835937,3.941406,0.214844,1.667969,1.685547,0.556213,0.54541,0.100891,0.618896,down
328968,2.59375,6.835937,3.941406,0.232422,1.603516,1.617188,0.546143,0.539551,0.101685,0.63269,down
328974,2.707031,6.726562,3.976563,0.240234,1.554688,1.535156,0.542969,0.537842,0.10199,0.63678,down
328979,2.707031,6.726562,3.976563,0.251953,1.509766,1.462891,0.539795,0.536072,0.102417,0.640869,down
328984,2.785156,6.6875,3.976563,0.251953,1.509766,1.462891,0.536865,0.534424,0.102844,0.644653,down
328989,2.785156,6.6875,3.976563,0.232422,1.451172,1.345703,0.533936,0.532776,0.103394,0.648376,down
328994,2.554688,6.613281,3.824219,0.232422,1.451172,1.345703,0.528442,0.529358,0.104309,0.655457,down
328999,2.515625,6.652344,3.824219,0.232422,1.451172,1.345703,0.528442,0.529358,0.104309,0.655457,down
329004,2.402344,6.648437,3.824219,0.128906,1.341797,1.21875,0.528442,0.529358,0.104309,0.655457,down
329009,2.476563,6.726562,3.863281,0.0625,1.28125,1.201172,0.528442,0.529358,0.104309,0.655457,down
329014,2.4375,6.796875,3.902344,0.0625,1.28125,1.201172,0.521057,0.524231,0.10498,0.665283,down
329020,2.4375,6.765625,4.015625,-0.189453,1.091797,1.160156,0.521057,0.524231,0.10498,0.665283,down
329025,2.324219,6.726562,4.015625,-0.189453,1.091797,1.160156,0.514893,0.518982,0.103943,0.674316,down
329030,2.285156,6.726562,3.976563,-0.189453,1.091797,1.160156,0.513123,0.517395,0.10321,0.677002,down
329035,2.402344,6.570312,4.132812,-0.189453,1.091797,1.160156,0.513123,0.517395,0.10321,0.677002,down
329040,2.4375,6.496094,4.167969,-0.363281,0.832031,1.119141,0.513123,0.517395,0.10321,0.677002,down
329045,2.515625,6.375,4.207031,-0.363281,0.832031,1.119141,0.508057,0.512573,0.100342,0.684875,down
329051,2.667969,5.996094,4.207031,-0.363281,0.832031,1.119141,0.506653,0.510986,0.099121,0.687317,down
329056,2.785156,5.925781,4.207031,-0.566406,0.724609,1.021484,0.505371,0.509338,0.097778,0.689636,down
329061,2.859375,5.84375,4.324219,-0.566406,0.724609,1.021484,0.504211,0.507568,0.096252,0.692017,down
329067,3.050781,5.609375,4.246094,-0.566406,0.724609,1.021484,0.503235,0.50592,0.094849,0.694092,down
329073,3.128906,5.460937,4.246094,-0.636719,0.667969,0.859375,0.503235,0.50592,0.094849,0.694092,down
329078,3.050781,5.386719,4.246094,-0.642578,0.666016,0.808594,0.503235,0.50592,0.094849,0.694092,down
329083,3.128906,5.308594,4.246094,-0.642578,0.666016,0.808594,0.500854,0.500732,0.09082,0.700134,down
329088,3.128906,5.308594,4.246094,-0.642578,0.666016,0.808594,0.500854,0.500732,0.09082,0.700134,down
329093,3.207031,5.15625,4.285156,-0.552734,0.644531,0.701172,0.499512,0.497375,0.088684,0.703735,down
329098,3.207031,5.15625,4.285156,-0.380859,0.640625,0.617187,0.498779,0.495911,0.087891,0.705383,down
329103,3.167969,5.1875,4.285156,-0.380859,0.640625,0.617187,0.498779,0.495911,0.087891,0.705383,down
329108,3.398438,5.1875,4.359375,-0.267578,0.640625,0.576172,0.497131,0.493225,0.087097,0.708496,down
329114,3.359375,5.265625,4.476562,-0.09375,0.634766,0.515625,0.497131,0.493225,0.087097,0.708496,down
329119,3.625,5.347656,4.476562,-0.09375,0.634766,0.515625,0.497131,0.493225,0.087097,0.708496,down
329125,3.742188,5.265625,4.628906,0.033203,0.621094,0.474609,0.497131,0.493225,0.087097,0.708496,down
329130,3.855469,5.226562,4.628906,0.072266,0.638672,0.451172,0.497131,0.493225,0.087097,0.708496,down
329135,3.972656,5.425781,4.476562,0.072266,0.638672,0.451172,0.491272,0.487244,0.088013,0.716614,down
329140,4.125,5.347656,4.667969,0.009766,0.625,0.408203,0.491272,0.487244,0.088013,0.716614,down
329145,4.238281,5.386719,4.667969,-0.025391,0.640625,0.396484,0.490295,0.486145,0.088379,0.717957,down
329151,4.238281,5.386719,4.667969,-0.087891,0.626953,0.367188,0.488831,0.484192,0.088745,0.720276,down
329157,4.429687,5.460937,4.589844,-0.087891,0.626953,0.367188,0.488159,0.482971,0.088867,0.721497,down
329162,4.546875,5.382812,4.667969,-0.230469,0.601562,0.3125,0.487732,0.48175,0.088806,0.722595,down
329167,4.585937,5.265625,4.667969,-0.291016,0.607422,0.291016,0.487366,0.480408,0.088684,0.723755,down
329172,4.8125,5.191406,4.820312,-0.291016,0.607422,0.291016,0.487061,0.479065,0.088501,0.724854,down
329178,4.96875,5.230469,4.972656,-0.304688,0.587891,0.246094,0.487061,0.479065,0.088501,0.724854,down
329183,5.042969,5.304687,5.011719,-0.291016,0.582031,0.236328,0.487061,0.479065,0.088501,0.724854,down
329189,5.195312,5.265625,5.011719,-0.287109,0.59375,0.226562,0.487061,0.479065,0.088501,0.724854,down
329194,5.273437,5.269531,5.128906,-0.267578,0.595703,0.228516,0.487061,0.479065,0.088501,0.724854,down
329199,5.351562,5.269531,5.164062,-0.259766,0.59375,0.228516,0.487061,0.479065,0.088501,0.724854,down
329204,5.425781,5.386719,5.203125,-0.230469,0.597656,0.244141,0.487061,0.479065,0.088501,0.724854,down
329210,5.425781,5.542969,5.242187,-0.199219,0.613281,0.261719,0.487061,0.479065,0.088501,0.724854,down
329216,5.542969,5.609375,5.355469,-0.169922,0.623047,0.277344,0.487061,0.479065,0.088501,0.724854,down
329221,5.582031,5.726562,5.433594,-0.169922,0.623047,0.277344,0.484009,0.465759,0.088257,0.735535,down
329227,5.695312,5.691406,5.511719,-0.169922,0.623047,0.277344,0.483643,0.464539,0.088257,0.736511,down
329232,5.738281,5.613281,5.664062,-0.169922,0.623047,0.277344,0.483215,0.463196,0.088257,0.737671,down
329238,5.777344,5.578125,5.703125,-0.28125,0.664062,0.326172,0.483215,0.463196,0.088257,0.737671,down
329243,5.847656,5.5,5.738281,-0.308594,0.677734,0.326172,0.483215,0.463196,0.088257,0.737671,down
329249,6.0,5.421875,5.738281,-0.308594,0.677734,0.326172,0.481934,0.458679,0.087891,0.741333,down
329255,6.078125,5.421875,5.738281,-0.322266,0.722656,0.322266,0.481934,0.458679,0.087891,0.741333,down
329260,6.078125,5.347656,5.777344,-0.337891,0.75,0.316406,0.481934,0.458679,0.087891,0.741333,down
329265,6.121094,5.347656,5.816406,-0.322266,0.8125,0.292969,0.480774,0.453674,0.087646,0.745239,down
329271,6.082031,5.347656,5.855469,-0.322266,0.8125,0.292969,0.480042,0.450012,0.087769,0.747925,down
329276,6.042969,5.421875,5.855469,-0.222656,0.861328,0.273438,0.479553,0.448059,0.088013,0.749329,down
329282,5.886719,5.578125,6.195312,-0.222656,0.861328,0.273438,0.479065,0.446411,0.088379,0.75061,down
329287,5.734375,5.730469,6.277344,-0.117188,0.929687,0.265625,0.478516,0.44458,0.088867,0.751953,down
329293,5.617187,5.882812,6.390625,-0.068359,0.951172,0.289063,0.478516,0.44458,0.088867,0.751953,down
329298,5.386719,5.960937,6.660156,-0.009766,0.953125,0.304688,0.477112,0.44104,0.090271,0.754761,down
329304,5.273437,5.960937,6.699219,0.017578,0.955078,0.333984,0.477112,0.44104,0.090271,0.754761,down
329309,5.121094,5.996094,6.695312,0.03125,0.955078,0.373047,0.477112,0.44104,0.090271,0.754761,down
329314,4.851562,5.921875,6.855469,0.015625,0.943359,0.419922,0.477112,0.44104,0.090271,0.754761,down
329319,4.777344,5.882812,6.964844,-0.023437,0.919922,0.458984,0.477112,0.44104,0.090271,0.754761,down
329325,4.699219,5.769531,7.0,-0.078125,0.884766,0.505859,0.477112,0.44104,0.090271,0.754761,down
329330,4.699219,5.769531,7.0,-0.162109,0.849609,0.537109,0.471069,0.43103,0.093933,0.763855,down
329335,4.621094,5.578125,6.964844,-0.240234,0.822266,0.548828,0.471069,0.43103,0.093933,0.763855,down
329340,4.621094,5.578125,6.964844,-0.300781,0.800781,0.564453,0.468994,0.427612,0.093811,0.76709,down
329345,4.585937,5.421875,6.925781,-0.300781,0.800781,0.564453,0.468079,0.425842,0.093567,0.768616,down
329350,4.585937,5.421875,6.925781,-0.373047,0.763672,0.525391,0.467224,0.424133,0.093201,0.770142,down
329355,4.738281,5.191406,6.734375,-0.373047,0.763672,0.525391,0.46582,0.420532,0.092468,0.773071,down
329360,4.738281,5.191406,6.699219,-0.373047,0.763672,0.525391,0.46582,0.420532,0.092468,0.773071,down
329365,4.8125,5.15625,6.660156,-0.402344,0.794922,0.339844,0.46582,0.420532,0.092468,0.773071,down
329370,4.851562,5.15625,6.46875,-0.402344,0.794922,0.339844,0.464722,0.416748,0.091919,0.775818,down
329375,4.851562,5.117187,6.433594,-0.402344,0.794922,0.339844,0.464233,0.414795,0.091736,0.777161,down
329381,4.851562,5.078125,6.433594,-0.396484,0.847656,0.253906,0.464233,0.414795,0.091736,0.777161,down
329386,4.890625,4.964844,6.394531,-0.396484,0.847656,0.253906,0.463257,0.40863,0.091553,0.781067,down
329391,4.890625,4.964844,6.3125,-0.40625,0.871094,0.234375,0.463257,0.40863,0.091553,0.781067,down
329396,4.777344,4.964844,6.15625,-0.40625,0.871094,0.234375,0.462708,0.404419,0.091492,0.783569,down
329401,4.699219,4.964844,6.195312,-0.443359,0.857422,0.253906,0.462402,0.402222,0.09137,0.784851,down
329407,4.699219,4.925781,6.199219,-0.443359,0.857422,0.253906,0.462158,0.400269,0.091248,0.786011,down
329412,4.777344,4.808594,6.007812,-0.443359,0.857422,0.253906,0.461853,0.398193,0.090942,0.787292,down
329417,4.890625,4.886719,6.007812,-0.533203,0.794922,0.335938,0.461853,0.398193,0.090942,0.787292,down
329422,4.96875,4.925781,5.96875,-0.544922,0.779297,0.359375,0.461853,0.398193,0.090942,0.787292,down
329427,5.160156,5.0,5.96875,-0.576172,0.773437,0.380859,0.460754,0.391907,0.089539,0.79126,down
329433,5.351562,5.078125,5.96875,-0.576172,0.773437,0.380859,0.460327,0.389771,0.088928,0.792603,down
329438,5.464844,5.117187,5.933594,-0.570312,0.771484,0.392578,0.460327,0.389771,0.088928,0.792603,down
329444,5.65625,5.308594,5.929687,-0.570312,0.771484,0.392578,0.459473,0.385498,0.087708,0.795349,down
329450,5.695312,5.460937,5.851562,-0.507812,0.810547,0.386719,0.459473,0.385498,0.087708,0.795349,down
329455,5.695312,5.578125,5.894531,-0.498047,0.847656,0.386719,0.458008,0.379211,0.086487,0.799377,down
329460,5.847656,5.769531,6.050781,-0.498047,0.847656,0.386719,0.458008,0.379211,0.086487,0.799377,down
329466,5.964844,5.84375,6.160156,-0.519531,0.974609,0.359375,0.458008,0.379211,0.086487,0.799377,down
329471,6.078125,5.84375,6.234375,-0.519531,0.974609,0.359375,0.45697,0.374451,0.085876,0.802246,down
329476,6.230469,5.84375,6.433594,-0.554687,1.041016,0.341797,0.45697,0.374451,0.085876,0.802246,down
329482,6.308594,5.804687,6.582031,-0.554687,1.041016,0.341797,0.45575,0.366333,0.085083,0.806763,down
329487,6.308594,5.804687,6.582031,-0.837891,1.195313,0.361328,0.455444,0.363098,0.084534,0.808411,down
329492,6.191406,5.691406,6.355469,-0.837891,1.195313,0.361328,0.4552,0.359741,0.08374,0.81012,down
329498,6.191406,5.421875,6.511719,-0.837891,1.195313,0.361328,0.455078,0.35614,0.082703,0.811951,down
329503,6.191406,5.347656,6.578125,-1.322266,1.263672,0.451172,0.455078,0.35614,0.082703,0.811951,down
329508,6.191406,5.347656,6.578125,-1.451172,1.255859,0.496094,0.454956,0.348206,0.079468,0.815735,down
329514,6.117187,5.0,6.816406,-1.533203,1.242188,0.539062,0.454956,0.344116,0.077393,0.817688,down
329519,6.117187,5.0,6.816406,-1.554688,1.224609,0.574219,0.454956,0.344116,0.077393,0.817688,down
329524,5.964844,4.695312,7.15625,-1.554688,1.224609,0.574219,0.454834,0.339966,0.075256,0.819641,down
329530,5.964844,4.695312,7.15625,-1.505859,1.203125,0.623047,0.454346,0.331787,0.070801,0.823669,down
329536,5.773437,4.390625,7.15625,-1.298828,1.185547,0.697266,0.453064,0.324219,0.067017,0.827698,down
329541,5.542969,4.351562,7.34375,-1.298828,1.185547,0.697266,0.453064,0.324219,0.067017,0.827698,down
329546,5.464844,4.390625,7.503906,-0.925781,1.175781,0.794922,0.453064,0.324219,0.067017,0.827698,down
329551,5.464844,4.542969,7.808594,-0.724609,1.181641,0.837891,0.453064,0.324219,0.067017,0.827698,down
329556,5.425781,4.390625,7.726562,-0.724609,1.181641,0.837891,0.447388,0.311462,0.063599,0.835937,down
329561,5.425781,4.121094,7.464844,-0.724609,1.181641,0.837891,0.447388,0.311462,0.063599,0.835937,down
329566,5.542969,4.121094,7.539062,-0.257813,1.246094,0.994141,0.447388,0.311462,0.063599,0.835937,down
329571,5.351562,4.503906,7.882812,-0.1875,1.279297,1.037109,0.443542,0.305969,0.063538,0.840027,down
329577,4.851562,4.425781,7.695312,-0.1875,1.279297,1.037109,0.439026,0.300598,0.063965,0.844238,down
329582,4.8125,4.582031,7.808594,-0.181641,1.287109,1.097656,0.439026,0.300598,0.063965,0.844238,down
329587,4.738281,4.695312,7.882812,-0.181641,1.287109,1.097656,0.434143,0.295105,0.064392,0.848694,down
329593,4.507812,4.734375,7.847656,-0.181641,1.287109,1.097656,0.431274,0.292053,0.064453,0.851196,down
329598,4.429687,4.695312,7.765625,-0.296875,1.220703,1.210938,0.429138,0.289734,0.064331,0.853088,down
329604,4.355469,4.65625,7.65625,-0.326172,1.220703,1.230469,0.429138,0.289734,0.064331,0.853088,down
329609,4.007812,4.808594,7.386719,-0.326172,1.220703,1.230469,0.423828,0.28418,0.063843,0.857666,down
329615,3.933594,4.542969,7.617187,-0.345703,1.306641,1.28125,0.423828,0.28418,0.063843,0.857666,down
329621,3.855469,4.542969,7.660156,-0.371094,1.324219,1.28125,0.423828,0.28418,0.063843,0.857666,down
329626,3.78125,4.542969,7.726562,-0.371094,1.324219,1.28125,0.415344,0.275024,0.063049,0.864807,down
329631,3.78125,4.542969,7.726562,-0.427734,1.388672,1.308594,0.412781,0.272095,0.062744,0.866943,down
329636,3.742188,4.542969,7.726562,-0.480469,1.410156,1.322266,0.412781,0.272095,0.062744,0.866943,down
329641,3.589844,4.234375,8.003906,-0.507812,1.388672,1.357422,0.407166,0.265442,0.061768,0.871765,down
329646,3.589844,4.234375,8.003906,-0.507812,1.388672,1.357422,0.407166,0.265442,0.061768,0.871765,down
329651,3.589844,4.234375,8.003906,-0.59375,1.253906,1.464844,0.401367,0.258789,0.060303,0.876526,down
329656,3.050781,3.8125,7.925781,-0.59375,1.253906,1.464844,0.398376,0.255676,0.059387,0.878845,down
329661,2.785156,3.429688,8.082031,-0.59375,1.253906,1.464844,0.391968,0.249695,0.057312,0.883606,down
329666,2.667969,3.355469,7.960937,-0.59375,1.253906,1.464844,0.391968,0.249695,0.057312,0.883606,down
329671,2.476563,3.277344,7.964844,-0.464844,1.121094,1.605469,0.38501,0.244263,0.055481,0.888245,down
329676,2.363281,3.164063,8.078125,-0.464844,1.121094,1.605469,0.38501,0.244263,0.055481,0.888245,down
329681,2.402344,3.203125,8.039063,-0.179687,1.091797,1.697266,0.381104,0.241638,0.054749,0.890686,down
329686,2.324219,3.203125,8.003906,-0.179687,1.091797,1.697266,0.377197,0.239197,0.05426,0.893066,down
329692,2.285156,3.164063,8.1875,-0.009766,1.082031,1.744141,0.377197,0.239197,0.05426,0.893066,down
329698,2.171875,3.355469,8.1875,-0.009766,1.082031,1.744141,0.365356,0.232666,0.053894,0.899719,down
329703,2.054688,3.277344,8.148438,0.144531,1.091797,1.802734,0.361145,0.230591,0.054138,0.901917,down
329708,2.09375,3.203125,8.039063,0.195312,1.09375,1.822266,0.356812,0.228577,0.054504,0.904114,down
329713,2.054688,3.007813,8.042969,0.201172,1.109375,1.84375,0.356812,0.228577,0.054504,0.904114,down
329719,1.980469,2.894531,8.003906,0.201172,1.109375,1.84375,0.347778,0.224426,0.055298,0.90863,down
329724,1.902344,2.933594,8.113281,0.205078,1.154297,1.876953,0.347778,0.224426,0.055298,0.90863,down
329729,1.902344,2.933594,8.113281,0.169922,1.164063,1.898438,0.338562,0.220093,0.056152,0.913086,down
329734,1.632813,2.78125,8.34375,0.169922,1.164063,1.898438,0.338562,0.220093,0.056152,0.913086,down
329739,1.597656,2.664063,8.421875,0.107422,1.148438,1.912109,0.338562,0.220093,0.056152,0.913086,down
329744,1.597656,2.664063,8.421875,-0.107422,0.958984,1.951172,0.329285,0.215637,0.056396,0.917542,down
329750,1.480469,2.398438,8.53125,-0.107422,0.958984,1.951172,0.324768,0.213562,0.056091,0.919678,down
329755,1.441406,2.207031,8.613281,-0.107422,0.958984,1.951172,0.315491,0.209961,0.054504,0.923767,down
329760,1.40625,2.128906,8.53125,-0.189453,0.597656,1.996094,0.315491,0.209961,0.054504,0.923767,down
329766,1.441406,2.167969,8.460938,-0.046875,0.466797,1.972656,0.315491,0.209961,0.054504,0.923767,down
329772,1.480469,2.167969,8.570313,-0.046875,0.466797,1.972656,0.296936,0.205811,0.051086,0.931091,down
329777,1.480469,2.207031,8.6875,0.041016,0.376953,1.970703,0.291809,0.205078,0.050354,0.932861,down
329782,1.558594,2.089844,8.648438,0.042969,0.351563,1.976563,0.286987,0.204529,0.049683,0.934509,down
329788,1.597656,1.9375,8.613281,0.017578,0.333984,2.013672,0.282776,0.204102,0.049072,0.935913,down
329793,1.597656,1.554688,8.730469,0.017578,0.333984,2.013672,0.278015,0.203613,0.048279,0.9375,down
329798,1.597656,1.402344,8.808594,-0.060547,0.244141,2.130859,0.278015,0.203613,0.048279,0.9375,down
329803,1.597656,1.363281,8.6875,-0.054687,0.212891,2.197266,0.278015,0.203613,0.048279,0.9375,down
329808,1.597656,1.285156,8.726563,-0.054687,0.212891,2.197266,0.262756,0.202759,0.045166,0.942261,down
329813,1.558594,0.941406,8.882813,-0.054687,0.212891,2.197266,0.257202,0.202576,0.043945,0.943848,down
329818,1.558594,0.902344,9.109375,-0.042969,0.060547,2.363281,0.257202,0.202576,0.043945,0.943848,down
329823,1.597656,0.902344,9.457031,-0.042969,0.060547,2.363281,0.246216,0.202881,0.041504,0.946838,down
329829,1.671875,0.789062,9.652344,-0.042969,0.060547,2.363281,0.240417,0.203491,0.040344,0.948242,down
329834,1.710938,0.902344,9.492188,0.216797,-0.302734,2.378906,0.240417,0.203491,0.040344,0.948242,down
329839,1.75,0.980469,9.417969,0.316406,-0.390625,2.380859,0.240417,0.203491,0.040344,0.948242,down
329844,1.75,0.863281,9.335938,0.316406,-0.390625,2.380859,0.223206,0.207153,0.037964,0.951721,down
329849,1.75,0.863281,9.335938,0.316406,-0.390625,2.380859,0.223206,0.207153,0.037964,0.951721,down
329854,1.75,0.863281,9.335938,0.542969,-0.708984,2.253906,0.211792,0.21106,0.037476,0.953491,down
329859,1.863281,0.710937,9.300781,0.462891,-0.814453,2.212891,0.206299,0.213318,0.037109,0.954224,down
329864,1.863281,0.710937,9.300781,0.462891,-0.814453,2.212891,0.206299,0.213318,0.037109,0.954224,down
329870,1.980469,0.367188,9.226563,0.544922,-0.886719,2.146484,0.195679,0.218567,0.036377,0.955322,down
329876,1.941406,0.328125,8.917969,0.476562,-1.017578,2.019531,0.195679,0.218567,0.036377,0.955322,down
329881,1.941406,0.328125,8.84375,0.476562,-1.017578,2.019531,0.185852,0.224243,0.035583,0.955994,down
329886,1.980469,0.328125,8.996094,0.433594,-1.126953,1.914063,0.185852,0.224243,0.035583,0.955994,down
329891,2.054688,0.480469,9.109375,0.337891,-1.236328,1.884766,0.171936,0.233948,0.033569,0.95636,down
329896,2.171875,0.441406,9.109375,0.337891,-1.236328,1.884766,0.171936,0.233948,0.033569,0.95636,down
329901,2.285156,0.214844,9.070313,0.337891,-1.236328,1.884766,0.167358,0.237732,0.032593,0.956238,down
329906,2.363281,0.136719,8.996094,0.259766,-1.587891,1.792969,0.167358,0.237732,0.032593,0.956238,down
329912,2.4375,-0.09375,8.914063,0.283203,-1.697266,1.767578,0.167358,0.237732,0.032593,0.956238,down
329917,2.515625,-0.09375,8.917969,0.283203,-1.697266,1.767578,0.150391,0.255432,0.028381,0.954651,down
329922,2.59375,-0.207031,8.886719,0.427734,-1.925781,1.601563,0.150391,0.255432,0.028381,0.954651,down
329927,2.628906,-0.246094,8.765625,0.427734,-1.925781,1.601563,0.142883,0.264893,0.026978,0.953247,down
329932,2.859375,-0.246094,8.917969,0.427734,-1.925781,1.601563,0.142883,0.264893,0.026978,0.953247,down
329937,2.859375,-0.285156,8.996094,0.550781,-1.945313,1.492188,0.13916,0.269775,0.026489,0.952454,down
329942,2.859375,-0.285156,8.996094,0.589844,-1.960938,1.451172,0.135559,0.274719,0.026184,0.951599,down
329947,2.859375,-0.285156,8.996094,0.589844,-1.960938,1.451172,0.128296,0.285034,0.025818,0.949524,down
329952,2.976563,-0.667969,8.765625,0.589844,-1.960938,1.451172,0.128296,0.285034,0.025818,0.949524,down
329957,3.011719,-0.746094,8.648438,0.638672,-2.210938,1.306641,0.121643,0.296021,0.025574,0.947083,down
329962,3.050781,-0.746094,8.613281,0.712891,-2.419922,1.144531,0.121643,0.296021,0.025574,0.947083,down
329967,3.128906,-0.476562,8.609375,0.712891,-2.419922,1.144531,0.118286,0.30249,0.025635,0.945435,down
329972,3.167969,-0.359375,8.6875,0.878906,-2.552734,0.96875,0.118286,0.30249,0.025635,0.945435,down
329977,3.242188,-0.398438,8.691406,0.878906,-2.552734,0.96875,0.109924,0.321655,0.026978,0.940063,down
329982,3.398438,-0.132812,8.425781,0.878906,-2.552734,0.96875,0.109924,0.321655,0.026978,0.940063,down
329987,3.433594,-0.054687,8.503906,0.878906,-2.552734,0.96875,0.105286,0.334473,0.02887,0.936096,down
329992,3.511719,-0.09375,8.609375,0.878906,-2.552734,0.96875,0.105286,0.334473,0.02887,0.936096,down
329997,3.589844,-0.167969,8.53125,1.054688,-2.957031,0.669922,0.100952,0.349243,0.031067,0.93103,down
330002,3.742188,-0.167969,8.6875,0.921875,-3.292969,0.507812,0.100952,0.349243,0.031067,0.93103,down
330008,3.742188,-0.167969,8.6875,0.857422,-3.443359,0.396484,0.097839,0.364563,0.032776,0.925415,down
330013,3.742188,-0.167969,8.6875,0.857422,-3.443359,0.396484,0.097839,0.364563,0.032776,0.925415,down
330018,4.046875,-0.515625,8.308594,0.759766,-3.564453,0.308594,0.097839,0.364563,0.032776,0.925415,down
330023,4.585937,-0.972656,7.042969,0.603516,-3.621094,0.210937,0.095886,0.381531,0.033875,0.918762,down
330028,4.585937,-0.972656,7.042969,0.603516,-3.621094,0.210937,0.095886,0.381531,0.033875,0.918762,down
330033,4.585937,-0.972656,7.042969,0.392578,-3.285156,-0.029297,0.095032,0.405884,0.03418,0.908325,down
330039,5.273437,-0.285156,6.890625,0.392578,-3.285156,-0.029297,0.095154,0.413452,0.034424,0.904907,down
330044,5.386719,-0.015625,7.039062,0.392578,-3.285156,-0.029297,0.095337,0.42041,0.034851,0.901672,down
330049,5.351562,0.136719,7.039062,0.605469,-2.923828,-0.21875,0.095337,0.42041,0.034851,0.901672,down
330055,5.3125,0.328125,7.042969,0.671875,-2.908203,-0.289063,0.095337,0.42041,0.034851,0.901672,down
330060,5.160156,0.519531,6.894531,0.671875,-2.908203,-0.289063,0.096252,0.440552,0.03772,0.891724,down
330065,5.234375,0.480469,6.894531,0.71875,-3.011719,-0.429687,0.096252,0.440552,0.03772,0.891724,down
330071,5.386719,0.519531,6.921875,0.71875,-3.103516,-0.53125,0.096252,0.440552,0.03772,0.891724,down
330076,5.695312,0.558594,6.8125,0.705078,-3.185547,-0.638672,0.096252,0.440552,0.03772,0.891724,down
330081,5.925781,0.480469,6.8125,0.492187,-3.322266,-0.832031,0.096252,0.440552,0.03772,0.891724,down
330087,6.15625,0.519531,6.773437,0.492187,-3.322266,-0.832031,0.101135,0.475891,0.044434,0.872559,down
330092,6.15625,0.519531,6.773437,0.289063,-3.394531,-0.921875,0.103088,0.483215,0.045471,0.868225,down
330097,6.648437,0.367188,6.160156,0.107422,-3.40625,-1.015625,0.103088,0.483215,0.045471,0.868225,down
330102,6.648437,0.367188,6.160156,-0.09375,-3.339844,-1.107422,0.108276,0.497742,0.046509,0.859253,down
330107,7.109375,0.25,5.394531,-0.09375,-3.339844,-1.107422,0.11145,0.504517,0.04657,0.854919,down
330112,7.414062,0.597656,4.972656,-0.455078,-2.96875,-1.277344,0.114929,0.510742,0.046448,0.850769,down
330117,7.34375,0.519531,4.820312,-0.539062,-2.734375,-1.351563,0.122803,0.52179,0.046082,0.842957,down
330122,7.148437,0.75,4.515625,-0.517578,-2.265625,-1.511719,0.122803,0.52179,0.046082,0.842957,down
330127,6.996094,0.789062,4.476562,-0.517578,-2.265625,-1.511719,0.131287,0.530823,0.046326,0.835999,down
330132,6.542969,0.902344,4.742187,-0.517578,-2.265625,-1.511719,0.131287,0.530823,0.046326,0.835999,down
330137,6.34375,1.171875,4.78125,-0.457031,-2.011719,-1.730469,0.131287,0.530823,0.046326,0.835999,down
330142,6.269531,1.324219,4.550781,-0.457031,-2.011719,-1.730469,0.140076,0.538635,0.047241,0.829468,down
330147,6.347656,1.246094,4.359375,-0.373047,-2.058594,-1.8125,0.140076,0.538635,0.047241,0.829468,down
330152,6.539062,1.363281,4.246094,-0.373047,-2.058594,-1.8125,0.153809,0.550354,0.049866,0.819153,down
330157,6.613281,1.746094,4.285156,-0.373047,-2.058594,-1.8125,0.153809,0.550354,0.049866,0.819153,down
330162,6.6875,1.976563,4.207031,-0.228516,-2.308594,-1.875,0.153809,0.550354,0.049866,0.819153,down
330167,6.882812,2.089844,3.863281,-0.228516,-2.308594,-1.875,0.167175,0.56311,0.053284,0.807556,down
330172,7.070312,2.207031,3.59375,-0.228516,-2.308594,-1.875,0.171814,0.567383,0.054443,0.803467,down
330177,7.496094,2.472656,3.328125,-0.228516,-2.308594,-1.875,0.171814,0.567383,0.054443,0.803467,down
330182,7.613281,2.625,3.171875,-0.283203,-2.123047,-1.925781,0.180908,0.575012,0.056885,0.795898,down
330187,7.609375,3.007813,3.058594,-0.283203,-2.123047,-1.925781,0.180908,0.575012,0.056885,0.795898,down
330192,7.609375,3.007813,3.058594,-0.335938,-1.791016,-2.013672,0.185547,0.578247,0.058228,0.792358,down
330197,7.496094,3.085938,2.980469,-0.335938,-1.791016,-2.013672,0.190552,0.581238,0.059692,0.788879,down
330202,6.992187,3.164063,2.828125,-0.513672,-1.488281,-2.160156,0.195618,0.583679,0.061096,0.785706,down
330207,6.992187,3.164063,2.828125,-0.513672,-1.488281,-2.160156,0.195618,0.583679,0.061096,0.785706,down
330212,6.992187,3.164063,2.828125,-0.669922,-1.376953,-2.263672,0.20697,0.587769,0.06366,0.779541,down
330218,6.921875,3.007813,2.484375,-0.669922,-1.376953,-2.263672,0.220215,0.590576,0.06604,0.773499,down
330224,5.925781,3.355469,2.828125,-0.669922,-1.376953,-2.263672,0.226746,0.591675,0.0672,0.770691,down
330229,5.925781,3.355469,2.828125,-1.025391,-1.210938,-2.623047,0.233765,0.592896,0.06842,0.767578,down
330234,5.695312,3.507813,2.828125,-1.025391,-1.210938,-2.623047,0.240417,0.594238,0.06958,0.764343,down
330239,5.734375,3.738281,2.980469,-1.025391,-1.210938,-2.623047,0.247314,0.595947,0.070862,0.760681,down
330244,6.191406,4.160156,2.828125,-1.025391,-1.210938,-2.623047,0.247314,0.595947,0.070862,0.760681,down
330249,6.464844,4.390625,2.636719,-0.730469,-1.609375,-2.369141,0.247314,0.595947,0.070862,0.760681,down
330256,6.503906,4.734375,2.445313,-0.646484,-1.615234,-2.353516,0.247314,0.595947,0.070862,0.760681,down
330261,6.574219,5.578125,1.910156,-0.646484,-1.615234,-2.353516,0.247314,0.595947,0.070862,0.760681,down
330266,6.648437,5.769531,1.757813,-0.646484,-1.615234,-2.353516,0.276306,0.606323,0.077576,0.741638,down
330272,6.648437,5.769531,1.757813,-0.195312,-1.474609,-2.458984,0.281433,0.608398,0.079651,0.737793,down
330277,6.765625,6.074219,1.066406,-0.105469,-1.318359,-2.517578,0.286316,0.610229,0.082031,0.734131,down
330282,6.765625,6.074219,1.066406,-0.107422,-1.130859,-2.566406,0.286316,0.610229,0.082031,0.734131,down
330288,6.804687,6.152344,0.875,-0.107422,-1.130859,-2.566406,0.291504,0.611877,0.0849,0.730347,down
330293,6.804687,6.152344,0.875,-0.449219,-0.78125,-2.658203,0.302124,0.61377,0.090454,0.723755,down
330298,6.230469,7.261719,1.257813,-1.044922,-0.775391,-2.582031,0.308167,0.614075,0.092957,0.720642,down
330304,5.964844,6.53125,1.449219,-1.044922,-0.775391,-2.582031,0.320984,0.613892,0.095764,0.714844,down
330309,6.0,6.535156,1.449219,-1.873047,-0.910156,-2.388672,0.328308,0.613403,0.095825,0.711853,down
330315,6.230469,6.417969,1.371094,-1.873047,-0.910156,-2.388672,0.335693,0.612854,0.095032,0.708984,down
330321,6.421875,6.152344,1.371094,-2.375,-1.097656,-2.228516,0.335693,0.612854,0.095032,0.708984,down
330326,6.609375,5.996094,1.371094,-2.460938,-1.132813,-2.210938,0.335693,0.612854,0.095032,0.708984,down
330331,6.84375,5.613281,1.449219,-2.441406,-1.132813,-2.210938,0.335693,0.612854,0.095032,0.708984,down
330337,6.886719,5.539062,1.527344,-2.275391,-1.076172,-2.25,0.335693,0.612854,0.095032,0.708984,down
330342,6.765625,5.578125,1.527344,-1.601563,-0.902344,-2.333984,0.335693,0.612854,0.095032,0.708984,down
330347,6.570312,5.730469,1.601563,-1.601563,-0.902344,-2.333984,0.381409,0.608826,0.086426,0.690247,down
330352,6.34375,5.996094,1.566406,-1.601563,-0.902344,-2.333984,0.381409,0.608826,0.086426,0.690247,down
330357,6.34375,5.996094,1.566406,-1.150391,-0.771484,-2.390625,0.393494,0.608154,0.088318,0.683777,down
330362,6.34375,5.996094,1.566406,-0.419922,-0.542969,-2.496094,0.398682,0.608032,0.090515,0.680542,down
330367,6.191406,6.957031,1.257813,-0.419922,-0.542969,-2.496094,0.403503,0.607971,0.093262,0.677429,down
330372,6.039062,7.679687,1.296875,-0.419922,-0.542969,-2.496094,0.408264,0.607849,0.096497,0.674133,down
330377,5.425781,8.296875,1.71875,-0.419922,-0.542969,-2.496094,0.408264,0.607849,0.096497,0.674133,down
330382,5.195312,8.339844,2.140625,-0.208984,-0.347656,-2.476563,0.408264,0.607849,0.096497,0.674133,down
330387,5.195312,8.484375,2.140625,-0.208984,-0.347656,-2.476563,0.421936,0.607056,0.105835,0.665039,down
330393,5.3125,8.527344,2.292969,-0.953125,-0.498047,-2.201172,0.421936,0.607056,0.105835,0.665039,down
330398,5.695312,8.257813,2.332031,-0.953125,-0.498047,-2.201172,0.437439,0.604675,0.11084,0.65625,down
330403,6.0,7.796875,2.40625,-0.953125,-0.498047,-2.201172,0.443054,0.603333,0.110779,0.653748,down
330408,6.078125,7.457031,2.484375,-2.097656,-0.644531,-2.144531,0.443054,0.603333,0.110779,0.653748,down
330413,6.039062,7.179687,2.558594,-2.097656,-0.644531,-2.144531,0.450317,0.601379,0.110046,0.650757,down
330418,5.925781,6.996094,2.828125,-2.203125,-0.675781,-2.199219,0.450317,0.601379,0.110046,0.650757,down
330424,5.503906,7.03125,2.90625,-2.203125,-0.675781,-2.199219,0.470459,0.595398,0.107605,0.642334,down
330429,5.503906,7.03125,2.90625,-1.845703,-0.544922,-2.337891,0.477356,0.593262,0.1073,0.639221,down
330434,5.503906,7.03125,2.90625,-1.560547,-0.449219,-2.378906,0.477356,0.593262,0.1073,0.639221,down
330439,4.851562,7.644531,2.867188,-1.560547,-0.449219,-2.378906,0.483704,0.59137,0.107483,0.63623,down
330444,4.851562,7.644531,2.867188,-1.21875,-0.355469,-2.447266,0.489563,0.5896,0.108398,0.633179,down
330449,4.738281,7.878906,2.945313,-1.21875,-0.355469,-2.447266,0.495178,0.588074,0.110046,0.630005,down
330454,4.738281,7.878906,2.945313,-0.378906,-0.101563,-2.484375,0.504883,0.585693,0.115051,0.623535,down
330460,3.855469,9.027344,3.289063,-0.378906,-0.101563,-2.484375,0.509155,0.584656,0.118042,0.620483,down
330466,3.742188,9.066406,3.328125,-0.273438,-0.128906,-2.408203,0.509155,0.584656,0.118042,0.620483,down
330471,3.78125,9.140625,3.328125,-0.357422,-0.1875,-2.367188,0.517517,0.582703,0.123962,0.614197,down
330476,3.816406,9.144531,3.289063,-0.357422,-0.1875,-2.367188,0.521729,0.581665,0.126404,0.611084,down
330481,3.742188,9.140625,3.289063,-0.78125,-0.306641,-2.277344,0.521729,0.581665,0.126404,0.611084,down
330486,3.78125,9.214844,3.171875,-1.007813,-0.373047,-2.246094,0.521729,0.581665,0.126404,0.611084,down
330491,3.816406,8.984375,3.136719,-1.365234,-0.427734,-2.246094,0.521729,0.581665,0.126404,0.611084,down
330496,3.933594,8.183594,3.171875,-1.365234,-0.427734,-2.246094,0.521729,0.581665,0.126404,0.611084,down
330502,3.894531,7.800781,3.25,-1.365234,-0.427734,-2.246094,0.547974,0.572571,0.131348,0.59552,down
330508,3.894531,7.414062,3.402344,-2.074219,-0.453125,-2.351563,0.547974,0.572571,0.131348,0.59552,down
330513,3.855469,7.222656,3.59375,-2.074219,-0.453125,-2.351563,0.560791,0.566772,0.130676,0.589233,down
330518,3.78125,7.035156,3.554688,-1.992188,-0.384766,-2.404297,0.5672,0.563721,0.130493,0.586121,down
330523,3.78125,7.035156,3.554688,-1.875,-0.294922,-2.476563,0.573669,0.560486,0.130676,0.582764,down
330528,3.550781,7.335937,3.746094,-1.875,-0.294922,-2.476563,0.579834,0.557495,0.131165,0.579468,down
330533,3.550781,7.335937,3.746094,-1.486328,-0.121094,-2.574219,0.585876,0.554504,0.132263,0.57605,down
330539,3.089844,7.683594,4.054687,-1.486328,-0.121094,-2.574219,0.596619,0.549255,0.135864,0.569153,down
330545,2.515625,7.800781,3.976563,-1.486328,-0.121094,-2.574219,0.601562,0.546936,0.138428,0.565491,down
330550,1.980469,7.796875,4.054687,-1.486328,-0.121094,-2.574219,0.606018,0.544983,0.141235,0.561951,down
330555,1.902344,7.914062,4.054687,-0.537109,-0.011719,-2.660156,0.606018,0.544983,0.141235,0.561951,down
330561,1.824219,7.914062,3.976563,-0.619141,-0.068359,-2.669922,0.606018,0.544983,0.141235,0.561951,down
330566,1.863281,7.988281,4.054687,-0.777344,-0.144531,-2.708984,0.606018,0.544983,0.141235,0.561951,down
330572,1.863281,8.066406,4.054687,-0.964844,-0.207031,-2.75,0.606018,0.544983,0.141235,0.561951,down
330578,1.824219,7.984375,4.015625,-1.169922,-0.253906,-2.808594,0.635437,0.531799,0.155396,0.537842,down
330583,1.902344,7.761719,3.746094,-1.169922,-0.253906,-2.808594,0.641418,0.528748,0.156921,0.533325,down
330588,1.863281,7.761719,3.710938,-1.169922,-0.253906,-2.808594,0.641418,0.528748,0.156921,0.533325,down
330593,1.863281,7.761719,3.710938,-1.615234,-0.371094,-3.019531,0.647461,0.525452,0.158203,0.528809,down
330598,1.863281,7.679687,3.785156,-1.683594,-0.384766,-3.076172,0.647461,0.525452,0.158203,0.528809,down
330603,1.902344,7.535156,3.785156,-1.726563,-0.34375,-3.121094,0.647461,0.525452,0.158203,0.528809,down
330608,1.902344,7.535156,3.785156,-1.697266,-0.296875,-3.128906,0.666504,0.514709,0.162048,0.514404,down
330613,1.632813,7.875,3.941406,-1.697266,-0.296875,-3.128906,0.672913,0.510864,0.163452,0.509399,down
330619,1.023438,8.644531,4.207031,-1.697266,-0.296875,-3.128906,0.685059,0.503296,0.166687,0.499573,down
330624,0.753906,8.828125,4.207031,-1.697266,-0.296875,-3.128906,0.690369,0.5,0.168335,0.495056,down
330629,0.484375,8.945313,4.207031,-1.228516,-0.21875,-2.925781,0.690369,0.5,0.168335,0.495056,down
330634,0.101563,9.171875,4.324219,-1.228516,-0.21875,-2.925781,0.701355,0.493286,0.172119,0.484924,down
330639,-0.203125,9.410156,4.398437,-1.228516,-0.21875,-2.925781,0.705444,0.490967,0.17395,0.480652,down
330644,-0.359375,9.671875,4.515625,-0.625,-0.306641,-2.810547,0.710266,0.488525,0.17627,0.47522,down
330649,-0.433594,9.832031,4.515625,-0.490234,-0.341797,-2.78125,0.713989,0.486755,0.178284,0.470581,down
330654,-0.433594,9.832031,4.515625,-0.490234,-0.341797,-2.78125,0.713989,0.486755,0.178284,0.470581,down
330659,-0.585937,9.910156,4.398437,-0.451172,-0.373047,-2.748047,0.713989,0.486755,0.178284,0.470581,down
330664,-0.585937,9.910156,4.398437,-0.501953,-0.388672,-2.716797,0.721741,0.483337,0.182556,0.460571,down
330669,-0.625,9.9375,4.589844,-0.501953,-0.388672,-2.716797,0.725769,0.481445,0.18457,0.455444,down
330674,-0.664062,9.789063,4.628906,-0.863281,-0.324219,-2.638672,0.729675,0.479431,0.18634,0.4505,down
330680,-0.816406,9.671875,4.820312,-0.863281,-0.324219,-2.638672,0.738037,0.474304,0.189575,0.440918,down
330685,-0.96875,9.523438,4.820312,-1.259766,-0.289063,-2.650391,0.738037,0.474304,0.189575,0.440918,down
330690,-1.007813,9.371094,4.78125,-1.466797,-0.277344,-2.664063,0.746887,0.467773,0.192078,0.431824,down
330696,-0.96875,9.25,5.128906,-1.466797,-0.277344,-2.664063,0.75177,0.463684,0.193054,0.427185,down
330702,-1.085938,9.40625,5.320312,-1.666016,-0.263672,-2.693359,0.75177,0.463684,0.193054,0.427185,down
330708,-1.316406,9.554688,5.320312,-1.642578,-0.25,-2.683594,0.75177,0.463684,0.193054,0.427185,down
330714,-1.316406,9.558594,5.433594,-1.439453,-0.25,-2.632813,0.75177,0.463684,0.193054,0.427185,down
330719,-1.46875,9.675781,5.546875,-1.439453,-0.25,-2.632813,0.775452,0.442993,0.197876,0.404114,down
330724,-1.546875,9.710938,5.664062,-1.166016,-0.3125,-2.544922,0.779602,0.439453,0.198914,0.399414,down
330729,-1.660156,9.792969,5.738281,-1.166016,-0.3125,-2.544922,0.779602,0.439453,0.198914,0.399414,down
330735,-1.660156,9.792969,5.738281,-1.007813,-0.365234,-2.501953,0.78302,0.436707,0.199829,0.395264,down
330740,-1.773438,9.710938,5.703125,-1.007813,-0.365234,-2.501953,0.786743,0.433838,0.200928,0.390442,down
330746,-1.851563,9.59375,5.816406,-0.8125,-0.433594,-2.421875,0.790222,0.431396,0.201904,0.38562,down
330751,-1.851563,9.59375,5.816406,-0.791016,-0.496094,-2.365234,0.796936,0.426636,0.203735,0.375977,down
330756,-1.660156,9.367188,5.855469,-0.791016,-0.496094,-2.365234,0.796936,0.426636,0.203735,0.375977,down
330762,-1.699219,9.328125,6.007812,-0.927734,-0.541016,-2.359375,0.796936,0.426636,0.203735,0.375977,down
330768,-1.738281,9.105469,5.929687,-0.927734,-0.541016,-2.359375,0.810547,0.415955,0.206116,0.357056,down
330773,-1.738281,8.949219,5.929687,-0.927734,-0.541016,-2.359375,0.810547,0.415955,0.206116,0.357056,down
330778,-1.738281,8.910156,5.96875,-1.222656,-0.529297,-2.384766,0.810547,0.415955,0.206116,0.357056,down
330784,-1.890625,8.945313,6.199219,-1.222656,-0.529297,-2.384766,0.82135,0.406128,0.207153,0.342896,down
330790,-2.082031,9.023438,6.199219,-1.222656,-0.529297,-2.384766,0.824707,0.402954,0.207764,0.338196,down
330795,-2.082031,9.023438,6.199219,-0.865234,-0.363281,-2.417969,0.828308,0.399597,0.208679,0.332703,down
330800,-2.3125,9.027344,6.238281,-0.865234,-0.363281,-2.417969,0.831299,0.396851,0.209839,0.327698,down
330806,-2.464844,9.449219,6.316406,-0.865234,-0.363281,-2.417969,0.833679,0.394775,0.21106,0.323425,down
330812,-2.464844,9.449219,6.316406,-0.320313,-0.226562,-2.400391,0.836365,0.392578,0.212769,0.317932,down
330817,-2.578125,9.632813,6.351562,-0.208984,-0.203125,-2.380859,0.836365,0.392578,0.212769,0.317932,down
330822,-2.734375,10.4375,6.121094,-0.208984,-0.203125,-2.380859,0.836365,0.392578,0.212769,0.317932,down
330827,-2.734375,10.902344,6.007812,-0.148437,-0.201172,-2.376953,0.842651,0.387939,0.217834,0.303345,down
330832,-2.734375,10.902344,6.007812,-0.148437,-0.201172,-2.376953,0.842651,0.387939,0.217834,0.303345,down
330837,-2.617188,10.515625,5.816406,-0.328125,-0.267578,-2.396484,0.842651,0.387939,0.217834,0.303345,down
330842,-2.578125,10.25,5.96875,-0.328125,-0.267578,-2.396484,0.849792,0.38147,0.221985,0.288208,down
330847,-2.503906,9.90625,6.046875,-1.166016,-0.363281,-2.466797,0.849792,0.38147,0.221985,0.288208,down
330853,-2.386719,9.027344,6.160156,-1.486328,-0.371094,-2.507813,0.849792,0.38147,0.221985,0.288208,down
330858,-2.3125,8.601563,6.277344,-1.486328,-0.371094,-2.507813,0.86322,0.363708,0.224182,0.268921,down
330863,-2.234375,8.144531,6.390625,-1.486328,-0.371094,-2.507813,0.86322,0.363708,0.224182,0.268921,down
330868,-2.195313,7.839844,6.542969,-2.701172,-0.384766,-2.654297,0.86322,0.363708,0.224182,0.268921,down
330873,-2.121094,7.492187,6.734375,-2.701172,-0.384766,-2.654297,0.871521,0.350464,0.223877,0.259705,down
330879,-2.15625,6.765625,7.238281,-2.701172,-0.384766,-2.654297,0.88031,0.335266,0.223633,0.250244,down
330884,-2.15625,6.648437,7.464844,-2.503906,-0.175781,-2.791016,0.88031,0.335266,0.223633,0.250244,down
330889,-2.273438,6.726562,7.617187,-2.503906,-0.175781,-2.791016,0.887939,0.32135,0.224365,0.240601,down
330894,-2.65625,6.648437,7.847656,-2.503906,-0.175781,-2.791016,0.887939,0.32135,0.224365,0.240601,down
330899,-2.65625,6.648437,7.847656,-1.855469,-0.076172,-2.804688,0.891296,0.315308,0.225159,0.235535,down
330904,-2.886719,6.609375,7.925781,-1.855469,-0.076172,-2.804688,0.894287,0.309998,0.226318,0.230042,down
330909,-3.308594,6.839844,7.925781,-0.984375,-0.107422,-2.748047,0.89679,0.305847,0.227539,0.224487,down
330914,-3.308594,6.839844,7.925781,-0.607422,-0.152344,-2.703125,0.898987,0.302612,0.228882,0.218811,down
330919,-3.308594,6.839844,7.925781,-0.607422,-0.152344,-2.703125,0.902588,0.298157,0.231628,0.206848,down
330924,-3.460938,7.71875,7.503906,-0.607422,-0.152344,-2.703125,0.902588,0.298157,0.231628,0.206848,down
330929,-3.382813,7.722656,7.308594,-0.607422,-0.152344,-2.703125,0.904358,0.296265,0.23291,0.200256,down
330934,-3.460938,7.679687,7.234375,-0.294922,-0.460937,-2.527344,0.904358,0.296265,0.23291,0.200256,down
330939,-3.421875,7.800781,7.234375,-0.294922,-0.460937,-2.527344,0.907654,0.292725,0.23468,0.188232,down
330944,-3.308594,7.957031,7.117187,-0.701172,-0.560547,-2.505859,0.909363,0.290588,0.235229,0.182495,down
330949,-3.230469,7.984375,6.964844,-0.701172,-0.560547,-2.505859,0.911194,0.288025,0.235535,0.176819,down
330954,-3.191406,7.878906,6.851562,-1.365234,-0.648437,-2.539063,0.913086,0.285095,0.235657,0.171692,down
330960,-3.152344,7.683594,6.851562,-1.365234,-0.648437,-2.539063,0.91803,0.276001,0.235168,0.160339,down
330966,-3.191406,7.222656,7.347656,-1.365234,-0.648437,-2.539063,0.920593,0.270813,0.234741,0.155273,down
330971,-3.191406,7.222656,7.347656,-1.365234,-0.648437,-2.539063,0.920593,0.270813,0.234741,0.155273,down
330977,-3.191406,7.222656,7.347656,-2.035156,-0.572266,-2.654297,0.925842,0.258911,0.234131,0.144775,down
330982,-3.191406,7.222656,7.347656,-1.962891,-0.441406,-2.6875,0.928406,0.252747,0.23407,0.139282,down
330987,-3.691406,6.6875,8.226563,-1.962891,-0.441406,-2.6875,0.928406,0.252747,0.23407,0.139282,down
330992,-3.804688,6.574219,8.421875,-1.880859,-0.412109,-2.660156,0.932922,0.241333,0.234131,0.128723,down
330998,-4.417969,6.535156,8.730469,-1.46875,-0.404297,-2.556641,0.932922,0.241333,0.234131,0.128723,down
331003,-4.496094,6.726562,8.804688,-0.933594,-0.484375,-2.380859,0.932922,0.241333,0.234131,0.128723,down
331008,-4.648437,7.148437,8.609375,-0.933594,-0.484375,-2.380859,0.938416,0.227478,0.234436,0.112549,down
331013,-4.800781,7.453125,8.347656,-0.511719,-0.597656,-2.279297,0.938416,0.227478,0.234436,0.112549,down
331018,-4.914062,7.875,8.464844,-0.511719,-0.597656,-2.279297,0.94104,0.22168,0.234192,0.102051,down
331024,-4.914062,8.21875,8.460938,-0.498047,-0.787109,-2.244141,0.94104,0.22168,0.234192,0.102051,down
331029,-4.914062,8.605469,8.304688,-0.615234,-0.892578,-2.248047,0.943542,0.217041,0.233154,0.091125,down
331035,-4.953125,8.75,8.191406,-0.845703,-1.003906,-2.291016,0.944824,0.214478,0.232239,0.085571,down
331041,-4.761719,8.484375,8.113281,-0.845703,-1.003906,-2.291016,0.947815,0.208069,0.229675,0.07489,down
331046,-4.800781,8.21875,8.039063,-1.546875,-1.144531,-2.333984,0.949646,0.203552,0.227966,0.069458,down
331051,-4.800781,8.21875,8.039063,-1.935547,-1.193359,-2.351563,0.951538,0.198242,0.226135,0.064331,down
331056,-4.6875,7.339844,8.304688,-1.935547,-1.193359,-2.351563,0.951538,0.198242,0.226135,0.064331,down
331061,-4.6875,7.339844,8.304688,-2.273438,-1.216797,-2.355469,0.955811,0.185059,0.221924,0.054443,down
331066,-4.609375,6.917969,8.5,-2.273438,-1.216797,-2.355469,0.955811,0.185059,0.221924,0.054443,down
331071,-4.570312,6.113281,8.730469,-2.667969,-1.117188,-2.332031,0.9599,0.17041,0.217834,0.045105,down
331076,-4.722656,5.804687,9.035156,-2.667969,-1.117188,-2.332031,0.961975,0.162537,0.215881,0.040405,down
331081,-4.878906,5.960937,9.109375,-2.621094,-1.015625,-2.291016,0.961975,0.162537,0.215881,0.040405,down
331086,-5.070312,6.1875,9.300781,-2.521484,-1.023438,-2.294922,0.961975,0.162537,0.215881,0.040405,down
331091,-5.222656,6.34375,9.492188,-2.425781,-1.09375,-2.322266,0.961975,0.162537,0.215881,0.040405,down
331097,-5.492187,6.726562,9.652344,-2.425781,-1.09375,-2.322266,0.968689,0.133362,0.208252,0.021973,down
331102,-5.566406,6.609375,9.796875,-2.298828,-1.375,-2.423828,0.968689,0.133362,0.208252,0.021973,down
331107,-5.605469,6.574219,10.035156,-2.332031,-1.589844,-2.482422,0.968689,0.133362,0.208252,0.021973,down
331112,-5.71875,6.035156,10.484375,-2.332031,-1.589844,-2.482422,0.968689,0.133362,0.208252,0.021973,down
331118,-5.683594,5.578125,10.722656,-2.332031,-1.589844,-2.482422,0.975098,0.105225,0.195251,0.000732,down
331124,-5.605469,5.039062,10.875,-2.78125,-2.667969,-2.564453,0.975098,0.105225,0.195251,0.000732,down
331129,-5.414062,3.699219,11.023438,-2.78125,-2.667969,-2.564453,0.978638,0.0896,0.184875,-0.010498,down
331134,-5.414062,3.699219,11.023438,-2.837891,-2.910156,-2.486328,0.978638,0.0896,0.184875,-0.010498,down
331140,-5.261719,3.238281,11.140625,-2.837891,-2.910156,-2.486328,0.980469,0.081238,0.178528,-0.016113,down
331145,-4.53125,2.167969,11.023438,-2.476563,-3.277344,-2.351563,0.983826,0.06543,0.164429,-0.026917,down
331150,-4.53125,2.167969,11.023438,-2.476563,-3.277344,-2.351563,0.983826,0.06543,0.164429,-0.026917,down
331155,-4.378906,0.902344,11.644531,-2.849609,-3.333984,-2.15625,0.988098,0.043762,0.141479,-0.041199,down
331160,-4.148437,1.09375,11.484375,-2.849609,-3.333984,-2.15625,0.989136,0.039124,0.134155,-0.045776,down
331166,-4.53125,1.898438,10.683594,-2.849609,-3.333984,-2.15625,0.98999,0.035828,0.127136,-0.050293,down
331171,-4.570312,2.207031,10.453125,0.097656,-2.837891,-1.845703,0.990662,0.034119,0.120056,-0.055115,down
331176,-4.496094,2.511719,10.453125,0.716797,-2.867188,-1.839844,0.990662,0.034119,0.120056,-0.055115,down
331181,-4.304687,2.625,10.414063,0.716797,-2.867188,-1.839844,0.991577,0.035522,0.105957,-0.065186,down
331186,-4.304687,2.703125,10.300781,0.716797,-2.867188,-1.839844,0.991882,0.03833,0.098999,-0.070312,down
331192,-4.304687,2.703125,10.300781,2.361328,-2.716797,-1.785156,0.991943,0.042542,0.092102,-0.075562,down
331197,-4.304687,2.816406,10.105469,2.792969,-2.679688,-1.701172,0.991943,0.048096,0.0849,-0.080872,down
331202,-4.304687,2.816406,10.105469,2.792969,-2.679688,-1.701172,0.991943,0.048096,0.0849,-0.080872,down
331207,-4.457031,3.316406,9.300781,3.132813,-2.720703,-1.59375,0.991943,0.048096,0.0849,-0.080872,down
331212,-4.457031,3.316406,9.300781,3.417969,-3.003906,-1.304688,0.991089,0.069153,0.062622,-0.095154,down
331218,-3.382813,5.039062,9.109375,3.417969,-3.003906,-1.304688,0.991089,0.069153,0.062622,-0.095154,down
331223,-2.65625,5.347656,9.296875,3.128906,-3.269531,-0.964844,0.991089,0.069153,0.062622,-0.095154,down
331228,-1.773438,5.539062,9.414063,2.849609,-3.306641,-0.837891,0.991089,0.069153,0.062622,-0.095154,down
331234,-1.773438,5.539062,9.414063,2.560547,-3.1875,-0.742187,0.989014,0.095703,0.028625,-0.109009,down
331239,-0.664062,5.269531,9.269531,2.560547,-3.1875,-0.742187,0.989014,0.095703,0.028625,-0.109009,down
331244,-0.394531,5.078125,9.035156,2.173828,-2.824219,-0.572266,0.989014,0.095703,0.028625,-0.109009,down
331249,-0.394531,5.078125,9.035156,2.109375,-2.625,-0.478516,0.989014,0.095703,0.028625,-0.109009,down
331255,0.101563,4.808594,8.425781,2.109375,-2.625,-0.478516,0.985657,0.118774,-0.007263,-0.119507,down
331260,0.179687,4.464844,7.921875,1.960938,-1.863281,-0.238281,0.985657,0.118774,-0.007263,-0.119507,down
331265,0.0625,4.234375,7.542969,1.960938,-1.863281,-0.238281,0.984131,0.127625,-0.017944,-0.121765,down
331270,-0.050781,4.121094,7.382812,1.867188,-1.412109,-0.054687,0.984131,0.127625,-0.017944,-0.121765,down
331275,-0.394531,4.003906,7.234375,1.939453,-1.222656,0.037109,0.983398,0.131897,-0.022278,-0.122437,down
331280,-0.394531,4.082031,7.425781,1.939453,-1.222656,0.037109,0.981934,0.140747,-0.029541,-0.122803,down
331285,-0.433594,4.195312,7.808594,2.257813,-0.955078,0.144531,0.981934,0.140747,-0.029541,-0.122803,down
331290,-0.433594,4.351562,8.191406,2.257813,-0.955078,0.144531,0.980347,0.150696,-0.0354,-0.122498,down
331296,-0.203125,4.542969,8.609375,2.257813,-0.955078,0.144531,0.979309,0.156555,-0.03833,-0.122253,down
331301,-0.164062,4.773437,8.460938,2.767578,-0.826172,0.121094,0.979309,0.156555,-0.03833,-0.122253,down
331307,-0.089844,4.964844,8.34375,2.861328,-0.830078,0.089844,0.979309,0.156555,-0.03833,-0.122253,down
331313,0.027344,5.191406,8.386719,2.861328,-0.830078,0.089844,0.975647,0.17627,-0.047058,-0.121582,down
331318,0.027344,5.191406,8.386719,2.845703,-0.841797,0.03125,0.974243,0.183105,-0.050049,-0.12146,down
331323,0.292969,5.539062,8.308594,2.845703,-0.841797,0.03125,0.9729,0.189575,-0.052917,-0.12146,down
331328,0.523437,5.652344,8.003906,2.845703,-0.841797,0.03125,0.9729,0.189575,-0.052917,-0.12146,down
331333,0.523437,5.652344,8.003906,2.587891,-0.798828,0.021484,0.970154,0.201721,-0.058411,-0.121399,down
331338,0.601562,5.460937,7.886719,2.587891,-0.798828,0.021484,0.970154,0.201721,-0.058411,-0.121399,down
331343,0.601562,5.421875,7.84375,2.070313,-0.671875,0.0625,0.970154,0.201721,-0.058411,-0.121399,down
331348,0.636719,5.308594,7.765625,2.070313,-0.671875,0.0625,0.970154,0.201721,-0.058411,-0.121399,down
331353,0.636719,5.230469,7.769531,1.779297,-0.580078,0.091797,0.970154,0.201721,-0.058411,-0.121399,down
331358,0.675781,5.230469,7.730469,1.65625,-0.533203,0.113281,0.970154,0.201721,-0.058411,-0.121399,down
331363,0.792969,5.117187,7.660156,1.65625,-0.533203,0.113281,0.96344,0.228577,-0.071106,-0.120361,down
331368,0.832031,5.078125,7.621094,1.466797,-0.457031,0.117188,0.96344,0.228577,-0.071106,-0.120361,down
331373,0.984375,5.0,7.617187,1.414063,-0.416016,0.115234,0.96344,0.228577,-0.071106,-0.120361,down
331378,1.058594,4.925781,7.65625,1.402344,-0.376953,0.09375,0.96344,0.228577,-0.071106,-0.120361,down
331383,1.214844,4.808594,7.582031,1.402344,-0.376953,0.09375,0.96344,0.228577,-0.071106,-0.120361,down
331388,1.214844,4.695312,7.578125,1.402344,-0.376953,0.09375,0.958984,0.245178,-0.078125,-0.11908,down
331393,1.289063,4.617187,7.5,1.441406,-0.222656,-0.001953,0.958984,0.245178,-0.078125,-0.11908,down
331398,1.328125,4.65625,7.5,1.441406,-0.222656,-0.001953,0.957031,0.252197,-0.080078,-0.118835,down
331403,1.328125,4.617187,7.460937,1.441406,-0.222656,-0.001953,0.957031,0.252197,-0.080078,-0.118835,down
331408,1.328125,4.617187,7.5,1.441406,-0.222656,-0.001953,0.955078,0.259155,-0.081299,-0.118713,down
331413,1.328125,4.617187,7.5,1.59375,-0.023437,-0.140625,0.953979,0.262939,-0.081787,-0.118774,down
331418,1.441406,4.734375,7.503906,1.59375,-0.023437,-0.140625,0.953979,0.262939,-0.081787,-0.118774,down
331423,1.441406,4.734375,7.503906,1.638672,0.023437,-0.183594,0.95166,0.270874,-0.082397,-0.118958,down
331429,1.40625,4.886719,7.503906,1.638672,0.023437,-0.183594,0.9505,0.274963,-0.08252,-0.11908,down
331434,1.40625,4.886719,7.503906,1.722656,0.144531,-0.263672,0.94928,0.279053,-0.08252,-0.119263,down
331439,1.25,5.386719,7.464844,1.722656,0.144531,-0.263672,0.947998,0.283325,-0.082458,-0.119507,down
331445,1.25,5.460937,7.460937,1.677734,0.203125,-0.302734,0.947998,0.283325,-0.082458,-0.119507,down
331450,1.289063,5.5,7.578125,1.677734,0.203125,-0.302734,0.944153,0.295715,-0.081848,-0.120239,down
331455,1.367188,5.539062,7.5,1.677734,0.203125,-0.302734,0.944153,0.295715,-0.081848,-0.120239,down
331460,1.289063,5.5,7.5,1.507813,0.267578,-0.236328,0.94281,0.299988,-0.081543,-0.120422,down
331465,1.214844,5.5,7.542969,1.507813,0.267578,-0.236328,0.941589,0.303711,-0.081177,-0.120544,down
331470,1.214844,5.539062,7.542969,1.400391,0.273438,-0.152344,0.940491,0.307312,-0.080811,-0.120605,down
331476,1.058594,5.730469,7.503906,1.400391,0.273438,-0.152344,0.938354,0.313843,-0.080139,-0.120422,down
331481,1.097656,5.804687,7.65625,1.248047,0.226562,-0.066406,0.937256,0.317322,-0.079834,-0.120239,down
331486,1.214844,5.882812,7.695312,1.248047,0.226562,-0.066406,0.93634,0.320251,-0.07959,-0.119995,down
331491,1.289063,5.921875,7.660156,1.248047,0.226562,-0.066406,0.93634,0.320251,-0.07959,-0.119995,down
331496,1.40625,5.921875,7.660156,1.009766,0.179687,0.009766,0.934631,0.325439,-0.079346,-0.119385,down
331501,1.441406,5.84375,7.660156,1.009766,0.179687,0.009766,0.93396,0.327515,-0.079224,-0.11908,down
331506,1.558594,5.769531,7.617187,1.009766,0.179687,0.009766,0.933105,0.330078,-0.078979,-0.118652,down
331512,1.558594,5.691406,7.464844,1.009766,0.179687,0.009766,0.932495,0.332092,-0.078796,-0.118347,down
331518,1.558594,5.613281,7.425781,0.880859,0.259766,0.029297,0.932495,0.332092,-0.078796,-0.118347,down
331524,1.632813,5.539062,7.460937,0.855469,0.283203,0.029297,0.932495,0.332092,-0.078796,-0.118347,down
331529,1.632813,5.539062,7.5,0.820312,0.3125,0.007813,0.932495,0.332092,-0.078796,-0.118347,down
331534,1.632813,5.5,7.460937,0.810547,0.349609,-0.009766,0.932495,0.332092,-0.078796,-0.118347,down
331539,1.671875,5.5,7.464844,0.810547,0.386719,-0.046875,0.932495,0.332092,-0.078796,-0.118347,down
331544,1.75,5.5,7.460937,0.822266,0.441406,-0.078125,0.932495,0.332092,-0.078796,-0.118347,down
331550,1.671875,5.539062,7.464844,0.84375,0.490234,-0.113281,0.932495,0.332092,-0.078796,-0.118347,down
331555,1.597656,5.578125,7.386719,0.935547,0.578125,-0.164062,0.932495,0.332092,-0.078796,-0.118347,down
331560,1.40625,5.613281,7.308594,0.935547,0.578125,-0.164062,0.926392,0.351135,-0.072449,-0.115234,down
331565,1.289063,5.652344,7.308594,0.935547,0.578125,-0.164062,0.925537,0.353638,-0.071167,-0.11499,down
331570,1.289063,5.769531,7.308594,1.03125,0.576172,-0.189453,0.925537,0.353638,-0.071167,-0.11499,down
331576,1.25,6.035156,7.308594,1.058594,0.566406,-0.199219,0.925537,0.353638,-0.071167,-0.11499,down
331582,1.367188,6.265625,7.304687,1.058594,0.566406,-0.199219,0.921936,0.364014,-0.066528,-0.114258,down
331587,1.367188,6.34375,7.234375,1.080078,0.542969,-0.205078,0.920959,0.366821,-0.065369,-0.114136,down
