timestamp,ax,ay,az,gx,gy,gz,qw,qx,qy,qz,label
203235,6.652344,7.070312,-2.226563,0.423828,-0.064453,-0.072266,0.372009,0.776367,0.105835,0.49762,down
203241,6.652344,6.992187,-2.304688,0.423828,-0.064453,-0.072266,0.371521,0.776733,0.106323,0.497375,down
203246,6.613281,6.957031,-2.382813,0.166016,-0.058594,-0.052734,0.371216,0.776978,0.106689,0.497131,down
203252,6.652344,6.917969,-2.417969,0.029297,-0.068359,-0.056641,0.371216,0.776978,0.106689,0.497131,down
203258,6.730469,6.875,-2.382813,0.029297,-0.068359,-0.056641,0.371216,0.776978,0.106689,0.497131,down
203263,6.769531,6.835937,-2.304688,-0.162109,-0.078125,-0.050781,0.371216,0.776978,0.106689,0.497131,down
203268,6.730469,6.769531,-2.265625,-0.208984,-0.054687,-0.054687,0.371216,0.776978,0.106689,0.497131,down
203273,6.769531,6.6875,-2.226563,-0.208984,-0.054687,-0.054687,0.372498,0.776855,0.106506,0.496338,down
203278,6.808594,6.609375,-2.265625,-0.203125,0.013672,-0.068359,0.372498,0.776855,0.106506,0.496338,down
203284,6.765625,6.609375,-2.226563,-0.171875,0.039063,-0.078125,0.372498,0.776855,0.106506,0.496338,down
203289,6.765625,6.574219,-2.226563,-0.119141,0.068359,-0.09375,0.374084,0.776001,0.106689,0.49646,down
203294,6.765625,6.574219,-2.152344,-0.119141,0.068359,-0.09375,0.374207,0.775879,0.107056,0.496521,down
203299,6.765625,6.574219,-2.226563,0.162109,0.113281,-0.164062,0.374207,0.775879,0.107056,0.496521,down
203304,6.765625,6.609375,-2.152344,0.263672,0.130859,-0.1875,0.374146,0.775818,0.107544,0.496582,down
203310,6.730469,6.6875,-2.191406,0.263672,0.130859,-0.1875,0.373535,0.775818,0.109314,0.496582,down
203316,6.652344,6.835937,-2.191406,0.263672,0.130859,-0.1875,0.373108,0.775879,0.110291,0.496582,down
203321,6.574219,6.839844,-2.191406,0.361328,0.152344,-0.234375,0.37262,0.776001,0.111389,0.496582,down
203326,6.5,6.917969,-2.113281,0.361328,0.152344,-0.234375,0.372131,0.776062,0.112549,0.496521,down
203331,6.421875,6.953125,-2.113281,0.361328,0.152344,-0.234375,0.372131,0.776062,0.112549,0.496521,down
203337,6.382812,6.957031,-2.113281,0.263672,0.054687,-0.179687,0.372131,0.776062,0.112549,0.496521,down
203343,6.382812,6.992187,-2.074219,0.193359,0.033203,-0.138672,0.372131,0.776062,0.112549,0.496521,down
203349,6.460937,6.917969,-2.113281,0.193359,0.033203,-0.138672,0.370911,0.77655,0.115723,0.495972,down
203354,6.539062,6.875,-2.074219,0.193359,0.033203,-0.138672,0.370911,0.77655,0.115723,0.495972,down
203359,6.574219,6.800781,-2.035156,-0.03125,-0.09375,-0.021484,0.370911,0.77655,0.115723,0.495972,down
203364,6.574219,6.574219,-2.0,-0.064453,-0.113281,-0.009766,0.370911,0.77655,0.115723,0.495972,down
203370,6.613281,6.535156,-2.035156,-0.013672,-0.128906,0.005859,0.371216,0.776794,0.115601,0.495361,down
203375,6.613281,6.535156,-2.152344,-0.013672,-0.128906,0.005859,0.371338,0.7771,0.115417,0.494873,down
203381,6.609375,6.535156,-2.191406,-0.013672,-0.128906,0.005859,0.371216,0.777283,0.115417,0.494629,down
203386,6.730469,6.765625,-2.226563,-0.013672,-0.128906,0.005859,0.370911,0.777649,0.11554,0.494324,down
203392,6.730469,6.835937,-2.226563,0.253906,-0.09375,-0.003906,0.370911,0.777649,0.11554,0.494324,down
203397,6.652344,6.914062,-2.304688,0.308594,-0.056641,-0.021484,0.370911,0.777649,0.11554,0.494324,down
203403,6.652344,6.996094,-2.382813,0.308594,-0.056641,-0.021484,0.369446,0.778564,0.116577,0.493713,down
203408,6.652344,7.035156,-2.34375,0.402344,-0.021484,-0.027344,0.369446,0.778564,0.116577,0.493713,down
203414,6.652344,7.074219,-2.304688,0.427734,-0.003906,-0.041016,0.369446,0.778564,0.116577,0.493713,down
203419,6.613281,7.113281,-2.34375,0.433594,0.005859,-0.041016,0.369446,0.778564,0.116577,0.493713,down
203425,6.613281,7.070312,-2.34375,0.404297,0.017578,-0.042969,0.365601,0.780334,0.11969,0.492981,down
203430,6.652344,7.03125,-2.304688,0.263672,0.025391,-0.017578,0.36499,0.78064,0.120178,0.49292,down
203435,6.652344,6.914062,-2.304688,0.263672,0.025391,-0.017578,0.364563,0.780762,0.120605,0.49292,down
203440,6.730469,6.878906,-2.265625,0.263672,0.025391,-0.017578,0.364258,0.780823,0.12085,0.49292,down
203445,6.730469,6.796875,-2.265625,0.0625,0.027344,0.011719,0.364075,0.780884,0.121033,0.492981,down
203450,6.730469,6.769531,-2.304688,0.035156,0.027344,0.009766,0.363953,0.780884,0.121155,0.493042,down
203456,6.652344,6.726562,-2.417969,0.035156,0.027344,0.009766,0.363831,0.780884,0.121216,0.493103,down
203461,6.652344,6.726562,-2.417969,0.041016,0.003906,0.005859,0.36377,0.780884,0.121338,0.493164,down
203466,6.648437,6.648437,-2.34375,0.041016,0.003906,0.005859,0.363647,0.780884,0.12146,0.493164,down
203473,6.691406,6.648437,-2.34375,0.103516,-0.025391,-0.009766,0.363647,0.780884,0.12146,0.493164,down
203478,6.730469,6.648437,-2.382813,0.103516,-0.025391,-0.009766,0.363647,0.780884,0.12146,0.493164,down
203483,6.765625,6.648437,-2.417969,0.220703,-0.013672,-0.027344,0.363647,0.780884,0.12146,0.493164,down
203489,6.726562,6.6875,-2.382813,0.296875,-0.015625,-0.035156,0.363647,0.780884,0.12146,0.493164,down
203494,6.769531,6.726562,-2.34375,0.296875,-0.015625,-0.035156,0.361877,0.781799,0.123047,0.492676,down
203499,6.730469,6.726562,-2.304688,0.378906,-0.011719,-0.050781,0.361877,0.781799,0.123047,0.492676,down
203505,6.726562,6.726562,-2.34375,0.378906,0.013672,-0.064453,0.361877,0.781799,0.123047,0.492676,down
203510,6.652344,6.726562,-2.382813,0.378906,0.013672,-0.064453,0.359131,0.783081,0.125488,0.492004,down
203515,6.691406,6.800781,-2.457031,0.320313,0.033203,-0.0625,0.358459,0.783325,0.12616,0.491943,down
203520,6.769531,6.839844,-2.457031,0.320313,0.033203,-0.0625,0.357971,0.783508,0.126709,0.491882,down
203525,6.730469,6.914062,-2.457031,0.296875,0.048828,-0.066406,0.357971,0.783508,0.126709,0.491882,down
203531,6.691406,6.953125,-2.535156,0.296875,0.048828,-0.066406,0.356934,0.783875,0.127869,0.49176,down
203536,6.691406,6.992187,-2.535156,0.265625,0.066406,-0.070312,0.356384,0.783997,0.128418,0.49176,down
203541,6.652344,7.03125,-2.574219,0.238281,0.050781,-0.074219,0.355957,0.784119,0.128967,0.49176,down
203547,6.574219,7.03125,-2.496094,0.238281,0.050781,-0.074219,0.355652,0.784241,0.129456,0.491699,down
203553,6.613281,6.996094,-2.535156,0.169922,0.044922,-0.078125,0.355652,0.784241,0.129456,0.491699,down
203558,6.574219,6.996094,-2.574219,0.142578,0.035156,-0.082031,0.355652,0.784241,0.129456,0.491699,down
203563,6.574219,6.957031,-2.609375,0.105469,0.039063,-0.089844,0.355652,0.784241,0.129456,0.491699,down
203568,6.613281,6.957031,-2.535156,0.083984,0.037109,-0.091797,0.355652,0.784241,0.129456,0.491699,down
203573,6.574219,6.875,-2.535156,0.072266,0.029297,-0.101563,0.355652,0.784241,0.129456,0.491699,down
203578,6.613281,6.839844,-2.417969,0.078125,0.033203,-0.103516,0.355652,0.784241,0.129456,0.491699,down
203583,6.652344,6.726562,-2.382813,0.085937,0.054687,-0.121094,0.355652,0.784241,0.129456,0.491699,down
203588,6.613281,6.726562,-2.417969,0.085937,0.054687,-0.121094,0.354675,0.784241,0.13269,0.491455,down
203593,6.613281,6.769531,-2.457031,0.132812,0.115234,-0.152344,0.354675,0.784241,0.13269,0.491455,down
203598,6.613281,6.769531,-2.457031,0.160156,0.121094,-0.164062,0.354675,0.784241,0.13269,0.491455,down
203604,6.652344,6.796875,-2.496094,0.160156,0.121094,-0.164062,0.353943,0.784058,0.135315,0.491577,down
203609,6.691406,6.875,-2.457031,0.160156,0.121094,-0.164062,0.353943,0.784058,0.135315,0.491577,down
203614,6.691406,6.875,-2.417969,0.292969,0.119141,-0.185547,0.35321,0.784119,0.137085,0.491516,down
203619,6.691406,6.914062,-2.496094,0.292969,0.119141,-0.185547,0.35321,0.784119,0.137085,0.491516,down
203624,6.652344,6.996094,-2.496094,0.292969,0.119141,-0.185547,0.35321,0.784119,0.137085,0.491516,down
203630,6.613281,7.035156,-2.496094,0.388672,0.164062,-0.236328,0.35321,0.784119,0.137085,0.491516,down
203635,6.613281,7.109375,-2.574219,0.388672,0.164062,-0.236328,0.351013,0.784363,0.141479,0.491455,down
203640,6.539062,7.148437,-2.648438,0.388672,0.164062,-0.236328,0.350586,0.784363,0.142517,0.491455,down
203645,6.460937,7.183594,-2.648438,0.388672,0.164062,-0.236328,0.350586,0.784363,0.142517,0.491455,down
203650,6.5,7.152344,-2.6875,0.271484,0.148437,-0.255859,0.350037,0.784241,0.144592,0.491394,down
203656,6.574219,7.113281,-2.609375,0.271484,0.148437,-0.255859,0.350037,0.784119,0.145447,0.491394,down
203661,6.574219,7.113281,-2.609375,0.271484,0.148437,-0.255859,0.350037,0.784119,0.145447,0.491394,down
203666,6.574219,7.070312,-2.574219,0.019531,0.164062,-0.287109,0.350098,0.783936,0.14624,0.491394,down
203671,6.574219,7.070312,-2.574219,0.019531,0.164062,-0.287109,0.350098,0.783936,0.14624,0.491394,down
203676,6.652344,6.992187,-2.609375,-0.003906,0.171875,-0.306641,0.350098,0.783936,0.14624,0.491394,down
203681,6.652344,6.992187,-2.609375,-0.035156,0.191406,-0.318359,0.351379,0.782593,0.149353,0.491699,down
203686,6.613281,6.953125,-2.609375,-0.035156,0.191406,-0.318359,0.351746,0.782166,0.150208,0.491821,down
203692,6.652344,6.996094,-2.535156,-0.035156,0.191406,-0.318359,0.352173,0.781738,0.151062,0.492004,down
203697,6.613281,7.035156,-2.496094,-0.025391,0.273438,-0.365234,0.352173,0.781738,0.151062,0.492004,down
203702,6.574219,7.109375,-2.417969,0.019531,0.271484,-0.373047,0.352966,0.780701,0.153015,0.492432,down
203707,6.5,7.113281,-2.457031,0.019531,0.271484,-0.373047,0.35321,0.780212,0.154114,0.492676,down
203713,6.5,7.179687,-2.457031,0.019531,0.271484,-0.373047,0.35321,0.780212,0.154114,0.492676,down
203718,6.421875,7.183594,-2.457031,0.072266,0.271484,-0.361328,0.35321,0.780212,0.154114,0.492676,down
203723,6.421875,7.183594,-2.457031,0.064453,0.244141,-0.339844,0.35321,0.780212,0.154114,0.492676,down
203729,6.421875,7.109375,-2.382813,0.064453,0.244141,-0.339844,0.354065,0.778564,0.158142,0.493408,down
203734,6.421875,7.03125,-2.34375,-0.005859,0.208984,-0.306641,0.354065,0.778564,0.158142,0.493408,down
203740,6.421875,6.996094,-2.304688,-0.035156,0.199219,-0.296875,0.354065,0.778564,0.158142,0.493408,down
203745,6.460937,6.839844,-2.34375,-0.058594,0.201172,-0.289063,0.354065,0.778564,0.158142,0.493408,down
203750,6.382812,6.800781,-2.304688,-0.060547,0.179687,-0.289063,0.355408,0.776978,0.161194,0.494019,down
203755,6.347656,6.769531,-2.304688,-0.060547,0.179687,-0.289063,0.355835,0.776489,0.161926,0.494141,down
203760,6.347656,6.726562,-2.265625,-0.011719,0.166016,-0.298828,0.356201,0.776123,0.162659,0.494263,down
203766,6.308594,6.652344,-2.226563,-0.011719,0.166016,-0.298828,0.356873,0.775452,0.164062,0.494446,down
203771,6.308594,6.609375,-2.265625,0.0625,0.15625,-0.3125,0.357117,0.775085,0.164978,0.494446,down
203776,6.230469,6.613281,-2.265625,0.119141,0.152344,-0.308594,0.357239,0.774841,0.165833,0.494446,down
203782,6.230469,6.570312,-2.304688,0.177734,0.140625,-0.310547,0.3573,0.774658,0.166687,0.494446,down
203787,6.117187,6.535156,-2.226563,0.177734,0.140625,-0.310547,0.357178,0.774536,0.167725,0.494324,down
203792,6.15625,6.53125,-2.191406,0.279297,0.117188,-0.320313,0.357178,0.774536,0.167725,0.494324,down
203797,6.117187,6.535156,-2.226563,0.298828,0.105469,-0.326172,0.357178,0.774536,0.167725,0.494324,down
203803,6.191406,6.535156,-2.191406,0.298828,0.105469,-0.326172,0.356567,0.774475,0.171082,0.493774,down
203809,6.191406,6.53125,-2.152344,0.310547,0.103516,-0.355469,0.356567,0.774475,0.171082,0.493774,down
203815,6.15625,6.535156,-2.152344,0.310547,0.107422,-0.361328,0.356567,0.774475,0.171082,0.493774,down
203820,6.117187,6.535156,-2.152344,0.310547,0.107422,-0.361328,0.355957,0.774353,0.174744,0.493042,down
203825,6.078125,6.535156,-2.113281,0.224609,0.130859,-0.435547,0.355957,0.774353,0.174744,0.493042,down
203830,6.117187,6.535156,-2.152344,0.224609,0.130859,-0.435547,0.355896,0.774109,0.177246,0.492615,down
203835,6.039062,6.53125,-2.074219,0.224609,0.130859,-0.435547,0.356201,0.773682,0.179687,0.492187,down
203840,6.078125,6.574219,-2.074219,0.083984,0.167969,-0.505859,0.356201,0.773682,0.179687,0.492187,down
203845,6.039062,6.453125,-2.074219,0.083984,0.167969,-0.505859,0.356506,0.773376,0.180908,0.492004,down
203850,5.886719,6.414062,-1.960938,0.044922,0.185547,-0.523437,0.356506,0.773376,0.180908,0.492004,down
203855,5.886719,6.375,-1.960938,0.044922,0.185547,-0.523437,0.357483,0.772461,0.183533,0.49176,down
203860,5.886719,6.230469,-1.882813,0.044922,0.185547,-0.523437,0.358215,0.771851,0.184937,0.491699,down
203866,5.886719,6.152344,-1.804688,-0.080078,0.232422,-0.603516,0.359741,0.770569,0.187561,0.491577,down
203872,5.964844,6.035156,-1.691406,-0.080078,0.232422,-0.603516,0.360474,0.769897,0.188782,0.491577,down
203877,6.078125,5.960937,-1.652344,-0.095703,0.324219,-0.673828,0.360474,0.769897,0.188782,0.491577,down
203883,6.160156,5.921875,-1.578125,-0.09375,0.357422,-0.707031,0.362183,0.76825,0.191772,0.49176,down
203888,6.226562,5.84375,-1.5,-0.080078,0.394531,-0.742187,0.362183,0.76825,0.191772,0.49176,down
203895,6.347656,5.769531,-1.347656,-0.080078,0.394531,-0.742187,0.362183,0.76825,0.191772,0.49176,down
203900,6.382812,5.84375,-1.269531,-0.021484,0.462891,-0.824219,0.362183,0.76825,0.191772,0.49176,down
203905,6.230469,6.304687,-1.078125,0.015625,0.494141,-0.884766,0.362183,0.76825,0.191772,0.49176,down
203910,6.230469,6.609375,-1.117188,0.015625,0.494141,-0.884766,0.366516,0.763245,0.20166,0.492432,down
203916,6.191406,6.917969,-1.195313,-0.015625,0.802734,-1.228516,0.366516,0.763245,0.20166,0.492432,down
203921,6.117187,7.113281,-1.539063,-0.015625,0.802734,-1.228516,0.369751,0.758667,0.210449,0.493408,down
203927,5.964844,8.257813,-2.265625,-0.015625,0.802734,-1.228516,0.371216,0.756836,0.21344,0.493774,down
203932,6.078125,8.644531,-2.152344,-0.326172,0.65625,-1.587891,0.37323,0.754883,0.216675,0.493896,down
203937,6.230469,9.0625,-1.921875,-0.445312,0.507812,-1.714844,0.375732,0.752808,0.219971,0.493652,down
203944,6.382812,9.75,-1.730469,-0.554687,0.445312,-1.847656,0.375732,0.752808,0.219971,0.493652,down
203949,6.460937,10.132813,-1.804688,-0.662109,0.457031,-1.978516,0.375732,0.752808,0.219971,0.493652,down
203954,6.613281,10.480469,-1.84375,-0.777344,0.484375,-2.113281,0.375732,0.752808,0.219971,0.493652,down
203959,6.652344,10.742188,-2.0,-0.949219,0.541016,-2.236328,0.375732,0.752808,0.219971,0.493652,down
203964,6.769531,11.015625,-2.113281,-0.949219,0.541016,-2.236328,0.375732,0.752808,0.219971,0.493652,down
203969,6.769531,11.015625,-2.113281,-1.478516,0.650391,-2.462891,0.399048,0.736694,0.240356,0.490173,down
203974,6.769531,11.015625,-2.113281,-1.888672,0.708984,-2.546875,0.404724,0.732727,0.24353,0.489929,down
203979,7.074219,11.136719,-2.304688,-2.330078,0.765625,-2.628906,0.404724,0.732727,0.24353,0.489929,down
203984,7.304687,10.785156,-2.113281,-2.330078,0.765625,-2.628906,0.418762,0.722778,0.248962,0.490173,down
203989,7.457031,10.941406,-1.882813,-2.330078,0.765625,-2.628906,0.426636,0.717041,0.251099,0.490662,down
203995,7.457031,10.9375,-1.804688,-3.628906,1.085938,-2.683594,0.426636,0.717041,0.251099,0.490662,down
204000,7.417969,11.097656,-1.769531,-3.628906,1.085938,-2.683594,0.444031,0.703857,0.254517,0.492615,down
204006,7.417969,11.207031,-1.730469,-3.794922,1.193359,-2.724609,0.462219,0.688965,0.257385,0.495422,down
204011,7.265625,11.441406,-1.691406,-3.960938,1.451172,-2.826172,0.472656,0.679871,0.259094,0.497253,down
204016,6.84375,11.933594,-1.5,-3.960938,1.451172,-2.826172,0.48175,0.671509,0.260864,0.498901,down
204021,6.539062,12.007813,-1.5,-3.960938,1.451172,-2.826172,0.48999,0.663635,0.262939,0.500366,down
204026,6.539062,12.007813,-1.5,-3.960938,1.451172,-2.826172,0.48999,0.663635,0.262939,0.500366,down
204031,6.269531,11.933594,-1.460938,-3.515625,1.75,-3.136719,0.48999,0.663635,0.262939,0.500366,down
204036,5.425781,13.433594,-1.460938,-3.28125,1.837891,-3.21875,0.50708,0.64624,0.268799,0.502991,down
204041,5.425781,13.433594,-1.460938,-3.28125,1.837891,-3.21875,0.50708,0.64624,0.268799,0.502991,down
204046,5.082031,14.160156,-1.421875,-2.832031,1.908203,-3.257813,0.50708,0.64624,0.268799,0.502991,down
204051,4.507812,15.464844,-0.964844,-2.671875,1.789063,-3.121094,0.50708,0.64624,0.268799,0.502991,down
204056,4.507812,15.464844,-0.964844,-2.671875,1.789063,-3.121094,0.543396,0.60437,0.287964,0.50647,down
204061,3.894531,15.691406,-0.121094,-3.263672,2.041016,-2.990234,0.550598,0.595276,0.291382,0.507507,down
204066,3.894531,15.691406,-0.121094,-3.263672,2.041016,-2.990234,0.550598,0.595276,0.291382,0.507507,down
204071,3.78125,14.582031,0.644531,-3.763672,2.402344,-2.945313,0.557617,0.585876,0.294189,0.509216,down
204076,3.78125,14.582031,0.644531,-4.292969,2.824219,-2.861328,0.56543,0.574463,0.297058,0.511963,down
204081,3.625,14.195313,0.53125,-4.292969,2.824219,-2.861328,0.57312,0.562195,0.299438,0.515564,down
204086,3.625,14.195313,0.53125,-5.09375,3.345703,-2.542969,0.588745,0.534729,0.302856,0.525024,down
204091,2.820313,12.96875,0.761719,-5.09375,3.345703,-2.542969,0.596313,0.520386,0.303894,0.530334,down
204096,2.363281,12.007813,1.949219,-5.775391,3.636719,-2.089844,0.596313,0.520386,0.303894,0.530334,down
204101,2.054688,11.585938,2.445313,-5.775391,3.636719,-2.089844,0.611023,0.489868,0.304871,0.541992,down
204107,1.597656,11.058594,3.058594,-5.775391,3.636719,-2.089844,0.617859,0.473572,0.305542,0.548279,down
204112,1.175781,11.132813,4.550781,-5.775391,3.636719,-2.089844,0.623352,0.45929,0.306458,0.553711,down
204117,1.023438,11.246094,5.050781,-4.472656,3.826172,-1.78125,0.623352,0.45929,0.306458,0.553711,down
204122,1.023438,11.246094,5.050781,-3.841797,3.804688,-1.740234,0.632202,0.432068,0.310059,0.563416,down
204127,0.523437,11.359375,5.089844,-3.841797,3.804688,-1.740234,0.632202,0.432068,0.310059,0.563416,down
204132,0.523437,11.359375,5.089844,-2.898438,3.601563,-1.560547,0.632202,0.432068,0.310059,0.563416,down
204137,0.523437,11.359375,5.089844,-2.898438,3.601563,-1.560547,0.64032,0.397217,0.319214,0.574707,down
204142,-0.625,11.742188,5.738281,-2.898438,3.601563,-1.560547,0.64032,0.397217,0.319214,0.574707,down
204147,-0.855469,11.667969,5.777344,-2.509766,3.234375,-1.25,0.643616,0.377869,0.324585,0.581055,down
204153,-1.316406,11.476563,5.738281,-2.509766,3.234375,-1.25,0.645081,0.368347,0.326477,0.584412,down
204158,-1.582031,11.359375,5.777344,-2.810547,2.587891,-0.654297,0.645081,0.368347,0.326477,0.584412,down
204164,-1.738281,10.824219,5.894531,-3.021484,2.330078,-0.447266,0.647827,0.350708,0.327759,0.591553,down
204170,-1.699219,10.519531,5.96875,-3.240234,2.072266,-0.257813,0.647827,0.350708,0.327759,0.591553,down
204175,-1.660156,10.136719,6.007812,-3.394531,1.826172,-0.082031,0.647827,0.350708,0.327759,0.591553,down
204180,-1.546875,9.40625,6.007812,-3.480469,1.589844,0.078125,0.647827,0.350708,0.327759,0.591553,down
204185,-1.46875,9.144531,5.96875,-3.498047,1.382813,0.208984,0.647827,0.350708,0.327759,0.591553,down
204191,-1.351563,8.871094,6.007812,-3.480469,1.179688,0.316406,0.656128,0.302429,0.312683,0.616638,down
204196,-1.085938,8.40625,5.929687,-3.480469,1.179688,0.316406,0.657227,0.295959,0.308838,0.620544,down
204201,-1.046875,8.257813,5.855469,-3.480469,1.179688,0.316406,0.657227,0.295959,0.308838,0.620544,down
204206,-1.046875,8.257813,5.855469,-3.019531,0.722656,0.513672,0.658081,0.290222,0.305115,0.624146,down
204211,-1.007813,8.144531,5.585937,-2.806641,0.617187,0.568359,0.658081,0.290222,0.305115,0.624146,down
204216,-1.085938,7.839844,5.433594,-2.580078,0.484375,0.617187,0.658081,0.290222,0.305115,0.624146,down
204221,-1.085938,7.839844,5.433594,-2.388672,0.376953,0.669922,0.65979,0.275574,0.293884,0.634338,down
204227,-1.199219,7.453125,5.164062,-2.226563,0.279297,0.740234,0.660034,0.268311,0.286621,0.640503,down
204232,-1.238281,7.183594,5.089844,-2.226563,0.279297,0.740234,0.659912,0.265259,0.28302,0.643494,down
204238,-1.277344,6.574219,4.972656,-2.226563,0.279297,0.740234,0.659546,0.262085,0.278748,0.647034,down
204243,-1.238281,6.453125,4.972656,-1.931641,-0.015625,1.175781,0.659058,0.259888,0.27533,0.649841,down
204249,-1.160156,6.191406,5.011719,-1.880859,-0.082031,1.296875,0.659058,0.259888,0.27533,0.649841,down
204255,-1.085938,5.765625,4.972656,-1.880859,-0.082031,1.296875,0.659058,0.259888,0.27533,0.649841,down
204260,-1.085938,5.609375,4.972656,-1.720703,-0.185547,1.5625,0.659058,0.259888,0.27533,0.649841,down
204265,-1.007813,5.542969,5.089844,-1.683594,-0.228516,1.681641,0.659058,0.259888,0.27533,0.649841,down
204270,-0.777344,5.308594,4.933594,-1.683594,-0.228516,1.681641,0.659058,0.259888,0.27533,0.649841,down
204275,-0.703125,5.121094,4.972656,-1.683594,-0.228516,1.681641,0.650818,0.250366,0.25,0.671753,down
204280,-0.625,4.960937,4.898437,-1.324219,-0.300781,1.927734,0.650818,0.250366,0.25,0.671753,down
204286,-0.625,4.960937,4.898437,-1.117188,-0.318359,1.974609,0.646484,0.249512,0.242554,0.678955,down
204291,-0.625,4.925781,4.859375,-1.117188,-0.318359,1.974609,0.646484,0.249512,0.242554,0.678955,down
204296,-0.585937,5.0,4.933594,-0.779297,-0.365234,2.072266,0.641235,0.250061,0.235779,0.686096,down
204301,-0.585937,5.0,4.933594,-0.779297,-0.365234,2.072266,0.641235,0.250061,0.235779,0.686096,down
204306,-0.625,4.925781,5.007812,-0.486328,-0.402344,2.134766,0.641235,0.250061,0.235779,0.686096,down
204311,-0.550781,4.808594,5.050781,-0.486328,-0.402344,2.134766,0.632141,0.252808,0.226807,0.696472,down
204316,-0.511719,4.65625,5.046875,-0.400391,-0.404297,2.154297,0.632141,0.252808,0.226807,0.696472,down
204321,-0.472656,4.695312,5.164062,-0.400391,-0.404297,2.154297,0.625305,0.25531,0.221069,0.703491,down
204326,-0.472656,4.773437,5.355469,-0.390625,-0.400391,2.177734,0.622131,0.256592,0.218506,0.706665,down
204331,-0.472656,4.886719,5.394531,-0.390625,-0.400391,2.177734,0.618958,0.257813,0.215942,0.709839,down
204336,-0.550781,4.808594,5.507812,-0.46875,-0.376953,2.203125,0.615173,0.259155,0.212891,0.713501,down
204341,-0.472656,4.695312,5.625,-0.46875,-0.376953,2.203125,0.611755,0.260315,0.210022,0.716858,down
204346,-0.359375,4.65625,5.738281,-0.46875,-0.376953,2.203125,0.608459,0.261353,0.207397,0.720093,down
204351,-0.28125,4.617187,5.851562,-0.46875,-0.376953,2.203125,0.604736,0.262451,0.204407,0.723633,down
204357,-0.242187,4.464844,6.117187,-0.505859,-0.308594,2.220703,0.604736,0.262451,0.204407,0.723633,down
204362,-0.242187,4.464844,6.117187,-0.539062,-0.283203,2.238281,0.594421,0.265076,0.196167,0.733459,down
204367,-0.242187,4.464844,6.117187,-0.539062,-0.283203,2.238281,0.594421,0.265076,0.196167,0.733459,down
204372,-0.164062,4.121094,6.273437,-0.527344,-0.273438,2.222656,0.594421,0.265076,0.196167,0.733459,down
204377,0.0625,3.929688,6.46875,-0.501953,-0.285156,2.214844,0.587158,0.266724,0.190491,0.740173,down
204382,0.0625,3.929688,6.46875,-0.501953,-0.285156,2.214844,0.587158,0.266724,0.190491,0.740173,down
204387,0.253906,3.738281,6.65625,-0.443359,-0.359375,2.21875,0.576172,0.269775,0.182007,0.749756,down
204393,0.445312,3.660156,6.816406,-0.443359,-0.359375,2.21875,0.572449,0.271057,0.17926,0.752747,down
204398,0.601562,3.890625,6.964844,-0.443359,-0.359375,2.21875,0.568726,0.272644,0.176514,0.755676,down
204403,0.792969,3.96875,7.308594,-0.443359,-0.359375,2.21875,0.564758,0.274597,0.173706,0.758545,down
204410,0.832031,3.699219,7.421875,0.007813,-0.748047,2.294922,0.564758,0.274597,0.173706,0.758545,down
204416,0.984375,3.238281,7.195312,0.007813,-0.748047,2.294922,0.556335,0.279663,0.168274,0.76416,down
204421,1.058594,3.164063,7.238281,0.007813,-0.748047,2.294922,0.55249,0.282166,0.165955,0.766541,down
204426,1.058594,3.164063,7.238281,0.224609,-0.941406,2.410156,0.547791,0.2854,0.163147,0.769287,down
204432,1.289063,3.164063,7.421875,0.3125,-0.996094,2.425781,0.539307,0.291748,0.158447,0.773926,down
204437,1.519531,3.046875,7.382812,0.490234,-1.101563,2.425781,0.534241,0.295776,0.155823,0.776428,down
204443,1.632813,2.972656,7.34375,0.490234,-1.101563,2.425781,0.530029,0.299255,0.153748,0.778381,down
204448,1.632813,2.972656,7.273437,0.636719,-1.193359,2.392578,0.525391,0.303223,0.151611,0.780396,down
204453,1.789063,3.007813,7.195312,0.636719,-1.193359,2.392578,0.52063,0.307495,0.149475,0.782349,down
204459,2.019531,3.355469,7.078125,0.636719,-1.193359,2.392578,0.515991,0.311768,0.147644,0.784058,down
204464,2.019531,3.355469,7.078125,0.955078,-1.300781,2.261719,0.511169,0.316406,0.145935,0.785706,down
204469,2.171875,3.890625,7.042969,1.046875,-1.351563,2.236328,0.506531,0.321045,0.14447,0.787048,down
204474,2.171875,3.890625,7.042969,1.095703,-1.40625,2.220703,0.506531,0.321045,0.14447,0.787048,down
204479,2.285156,3.96875,6.964844,1.095703,-1.40625,2.220703,0.501892,0.325867,0.143066,0.78833,down
204485,2.285156,3.96875,6.964844,1.103516,-1.439453,2.195313,0.492371,0.335938,0.140198,0.790649,down
204490,2.476563,4.3125,6.3125,1.103516,-1.439453,2.195313,0.487671,0.340881,0.138672,0.791626,down
204495,2.554688,4.390625,6.351562,0.974609,-1.554688,2.207031,0.487671,0.340881,0.138672,0.791626,down
204500,2.628906,4.3125,6.46875,0.871094,-1.613281,2.224609,0.487671,0.340881,0.138672,0.791626,down
204505,2.746094,4.195312,6.46875,0.75,-1.671875,2.25,0.487671,0.340881,0.138672,0.791626,down
204510,2.820313,3.738281,6.394531,0.75,-1.671875,2.25,0.487671,0.340881,0.138672,0.791626,down
204516,2.785156,3.660156,6.3125,0.75,-1.671875,2.25,0.464722,0.365662,0.127075,0.796326,down
204521,3.011719,3.164063,6.394531,0.457031,-1.707031,2.332031,0.464722,0.365662,0.127075,0.796326,down
204526,3.128906,2.894531,6.46875,0.410156,-1.707031,2.333984,0.464722,0.365662,0.127075,0.796326,down
204531,3.359375,2.589844,6.46875,0.410156,-1.707031,2.333984,0.451172,0.379578,0.117371,0.799072,down
204537,3.472656,2.433594,6.433594,0.466797,-1.701172,2.257813,0.451172,0.379578,0.117371,0.799072,down
204542,3.703125,2.359375,6.429687,0.466797,-1.701172,2.257813,0.437744,0.393311,0.107727,0.80127,down
204548,4.238281,2.550781,6.539062,0.466797,-1.701172,2.257813,0.433228,0.39801,0.105225,0.801758,down
204553,4.277344,2.703125,6.511719,1.09375,-1.65625,2.138672,0.428284,0.403076,0.103149,0.802124,down
204558,4.238281,2.855469,6.46875,1.351563,-1.652344,2.126953,0.423279,0.408203,0.101685,0.802368,down
204563,4.238281,2.972656,6.433594,1.351563,-1.652344,2.126953,0.423279,0.408203,0.101685,0.802368,down
204568,4.316406,3.085938,6.351562,1.566406,-1.662109,2.107422,0.412476,0.41925,0.100098,0.802551,down
204573,4.316406,3.085938,6.351562,1.566406,-1.662109,2.107422,0.412476,0.41925,0.100098,0.802551,down
204578,4.316406,3.238281,6.3125,1.828125,-1.748047,2.080078,0.412476,0.41925,0.100098,0.802551,down
204583,4.316406,3.238281,6.3125,1.896484,-1.888672,2.083984,0.401123,0.431091,0.099365,0.802124,down
204589,4.316406,3.621094,5.851562,1.896484,-1.888672,2.083984,0.389771,0.443298,0.098633,0.801147,down
204594,4.394531,3.46875,5.355469,1.808594,-1.994141,2.056641,0.389771,0.443298,0.098633,0.801147,down
204599,4.546875,3.429688,5.128906,1.707031,-2.03125,2.033203,0.389771,0.443298,0.098633,0.801147,down
204604,4.546875,3.429688,5.128906,1.59375,-2.09375,2.011719,0.373169,0.461914,0.096436,0.798828,down
204609,4.890625,3.46875,5.050781,1.59375,-2.09375,2.011719,0.373169,0.461914,0.096436,0.798828,down
204614,5.121094,3.738281,4.820312,1.59375,-2.09375,2.011719,0.362793,0.47406,0.093811,0.796753,down
204619,5.273437,3.660156,4.859375,1.314453,-2.060547,1.96875,0.362793,0.47406,0.093811,0.796753,down
204625,5.425781,3.585938,4.933594,1.234375,-2.072266,1.970703,0.362793,0.47406,0.093811,0.796753,down
204630,5.542969,3.585938,4.972656,1.236328,-2.029297,1.974609,0.362793,0.47406,0.093811,0.796753,down
204635,5.65625,3.125,4.78125,1.236328,-2.029297,1.974609,0.362793,0.47406,0.093811,0.796753,down
204640,5.804687,2.816406,4.78125,1.347656,-1.978516,1.962891,0.362793,0.47406,0.093811,0.796753,down
204645,5.804687,2.816406,4.78125,1.464844,-2.060547,1.960938,0.332703,0.50769,0.084229,0.790222,down
204651,6.121094,2.472656,4.898437,1.628906,-2.162109,1.953125,0.327209,0.513672,0.083008,0.788757,down
204656,6.121094,2.472656,4.898437,1.822266,-2.259766,1.962891,0.321655,0.519775,0.082092,0.78717,down
204661,6.386719,2.472656,4.859375,1.822266,-2.259766,1.962891,0.315918,0.526123,0.081421,0.785339,down
204666,6.386719,2.472656,4.859375,2.261719,-2.447266,1.908203,0.309692,0.533081,0.081177,0.783142,down
204671,6.652344,2.703125,4.054687,2.261719,-2.447266,1.908203,0.309692,0.533081,0.081177,0.783142,down
204676,6.765625,2.816406,3.824219,2.478516,-2.628906,1.808594,0.309692,0.533081,0.081177,0.783142,down
204682,6.84375,3.046875,3.519531,2.646484,-2.648438,1.648438,0.309692,0.533081,0.081177,0.783142,down
204687,6.765625,3.316406,2.714844,2.646484,-2.648438,1.648438,0.278015,0.569458,0.083923,0.768982,down
204692,6.726562,3.355469,2.523438,2.552734,-2.542969,1.476563,0.278015,0.569458,0.083923,0.768982,down
204697,6.808594,3.507813,2.445313,2.552734,-2.542969,1.476563,0.271606,0.576965,0.085022,0.765625,down
204702,6.84375,3.660156,2.332031,2.3125,-2.382813,1.308594,0.271606,0.576965,0.085022,0.765625,down
204707,7.074219,3.738281,2.367188,2.3125,-2.382813,1.308594,0.255554,0.595825,0.087708,0.756287,down
204712,7.148437,3.8125,2.484375,2.3125,-2.382813,1.308594,0.255554,0.595825,0.087708,0.756287,down
204717,7.226562,3.929688,2.523438,1.484375,-2.21875,1.060547,0.255554,0.595825,0.087708,0.756287,down
204722,7.148437,3.96875,2.523438,1.484375,-2.21875,1.060547,0.243347,0.612427,0.087708,0.747009,down
204727,7.074219,3.277344,2.523438,1.484375,-2.21875,1.060547,0.243347,0.612427,0.087708,0.747009,down
204732,6.921875,3.203125,2.523438,0.603516,-2.251953,0.847656,0.240112,0.617981,0.086731,0.743591,down
204738,6.882812,3.085938,2.445313,0.376953,-2.361328,0.771484,0.238037,0.622375,0.08551,0.740723,down
204743,6.992187,2.816406,2.445313,0.376953,-2.361328,0.771484,0.236267,0.627136,0.083801,0.737488,down
204748,6.992187,2.816406,2.445313,0.183594,-2.482422,0.673828,0.235107,0.63147,0.081909,0.734314,down
204753,7.070312,2.589844,2.40625,0.183594,-2.482422,0.673828,0.234314,0.636414,0.079651,0.73053,down
204758,7.070312,2.320313,2.023438,0.035156,-2.623047,0.408203,0.234314,0.636414,0.079651,0.73053,down
204763,7.070312,2.320313,2.023438,0.074219,-2.634766,0.236328,0.233704,0.646057,0.075562,0.722717,down
204768,6.882812,2.589844,1.566406,0.1875,-2.589844,0.074219,0.233826,0.655701,0.072998,0.714233,down
204773,6.804687,2.78125,1.296875,0.1875,-2.589844,0.074219,0.233887,0.660339,0.072571,0.7099,down
204779,6.84375,3.355469,1.066406,0.1875,-2.589844,0.074219,0.234009,0.665161,0.072754,0.705383,down
204785,6.992187,3.585938,1.105469,0.763672,-2.382813,-0.5625,0.234131,0.669678,0.073364,0.700989,down
204790,7.148437,3.777344,1.179688,0.841797,-2.267578,-0.701172,0.234131,0.669678,0.073364,0.700989,down
204795,7.378906,4.121094,1.335938,0.855469,-2.123047,-0.826172,0.234131,0.669678,0.073364,0.700989,down
204801,7.347656,4.273437,1.335938,0.800781,-1.960938,-0.9375,0.234131,0.669678,0.073364,0.700989,down
204806,7.304687,4.273437,1.371094,0.691406,-1.810547,-1.035156,0.234131,0.669678,0.073364,0.700989,down
204811,7.347656,4.273437,1.335938,0.492187,-1.683594,-1.105469,0.234131,0.669678,0.073364,0.700989,down
204816,7.414062,4.082031,1.179688,0.492187,-1.683594,-1.105469,0.234131,0.669678,0.073364,0.700989,down
204821,7.492187,4.003906,1.066406,0.492187,-1.683594,-1.105469,0.24115,0.694092,0.084351,0.673035,down
204827,7.492187,4.003906,1.066406,-0.439453,-1.507813,-1.25,0.243958,0.696106,0.085083,0.6698,down
204832,7.570312,4.042969,1.21875,-0.689453,-1.490234,-1.289063,0.247192,0.697876,0.085449,0.666748,down
204837,7.570312,4.042969,1.21875,-0.849609,-1.472656,-1.339844,0.247192,0.697876,0.085449,0.666748,down
204843,7.53125,4.003906,1.296875,-0.849609,-1.472656,-1.339844,0.251038,0.699585,0.085571,0.663513,down
204848,7.53125,4.003906,1.296875,-0.935547,-1.361328,-1.515625,0.259583,0.702515,0.085754,0.657043,down
204853,7.074219,3.929688,0.375,-0.935547,-1.361328,-1.515625,0.268738,0.704712,0.086914,0.650818,down
204858,6.921875,4.003906,0.222656,-0.935547,-1.361328,-1.515625,0.273376,0.705566,0.088074,0.647827,down
204864,6.613281,4.503906,0.183594,-0.935547,-1.361328,-1.515625,0.278015,0.70636,0.089905,0.644714,down
204870,6.542969,5.0,0.414062,-0.935547,-1.361328,-1.515625,0.282227,0.707214,0.092346,0.641602,down
204876,6.460937,5.230469,0.492187,0.117188,-0.851562,-2.316406,0.282227,0.707214,0.092346,0.641602,down
204881,6.265625,5.539062,0.492187,0.382813,-0.732422,-2.408203,0.282227,0.707214,0.092346,0.641602,down
204887,5.617187,6.070312,0.339844,0.570312,-0.609375,-2.46875,0.292847,0.709656,0.10437,0.632263,down
204893,5.386719,6.304687,0.261719,0.570312,-0.609375,-2.46875,0.295898,0.710327,0.109436,0.62915,down
204898,5.195312,6.570312,0.148437,0.607422,-0.511719,-2.566406,0.302368,0.711426,0.119934,0.622986,down
204903,5.003906,6.835937,0.070312,0.255859,-0.640625,-2.566406,0.305847,0.711792,0.124634,0.619873,down
204908,4.777344,7.109375,0.070312,0.255859,-0.640625,-2.566406,0.309631,0.712097,0.128662,0.616882,down
204913,4.660156,7.296875,-0.007813,-0.357422,-0.816406,-2.507813,0.309631,0.712097,0.128662,0.616882,down
204918,4.507812,7.222656,0.183594,-0.662109,-0.923828,-2.462891,0.314453,0.71228,0.132568,0.613342,down
204923,4.507812,7.222656,0.183594,-0.935547,-1.0,-2.451172,0.324463,0.71228,0.137756,0.606934,down
204928,4.507812,7.222656,0.183594,-0.935547,-1.0,-2.451172,0.324463,0.71228,0.137756,0.606934,down
204933,4.46875,7.109375,0.605469,-1.179688,-1.033203,-2.458984,0.324463,0.71228,0.137756,0.606934,down
204938,4.46875,7.074219,0.605469,-1.367188,-1.041016,-2.5,0.336853,0.71167,0.141418,0.600037,down
204943,4.46875,7.074219,0.605469,-1.367188,-1.041016,-2.5,0.336853,0.71167,0.141418,0.600037,down
204948,4.929687,7.148437,0.875,-1.611328,-1.115234,-2.566406,0.357666,0.709717,0.145447,0.589233,down
204953,5.042969,7.222656,0.875,-1.611328,-1.115234,-2.566406,0.364746,0.708923,0.146851,0.58551,down
204958,4.96875,7.566406,0.875,-1.611328,-1.115234,-2.566406,0.372009,0.708069,0.148499,0.581543,down
204963,4.929687,7.644531,0.835937,-1.611328,-1.115234,-2.566406,0.372009,0.708069,0.148499,0.581543,down
204968,4.890625,7.683594,0.683594,-1.376953,-1.007813,-2.90625,0.372009,0.708069,0.148499,0.581543,down
204974,4.929687,7.988281,0.683594,-1.376953,-1.007813,-2.90625,0.393555,0.705017,0.154968,0.569214,down
204980,4.890625,8.140625,0.875,-1.376953,-1.007813,-2.90625,0.400146,0.703857,0.157227,0.565491,down
204987,4.8125,8.144531,0.875,-1.533203,-0.871094,-3.228516,0.400146,0.703857,0.157227,0.565491,down
204992,4.394531,8.5625,0.875,-1.671875,-0.78125,-3.363281,0.400146,0.703857,0.157227,0.565491,down
204997,4.046875,8.75,0.914062,-1.671875,-0.78125,-3.363281,0.423462,0.698242,0.165405,0.55304,down
205002,3.472656,8.90625,0.988281,-2.046875,-0.701172,-3.630859,0.423462,0.698242,0.165405,0.55304,down
205007,3.472656,8.90625,0.988281,-2.236328,-0.753906,-3.714844,0.441284,0.692627,0.171021,0.544373,down
205012,2.898438,9.0625,1.144531,-2.402344,-0.917969,-3.726563,0.441284,0.692627,0.171021,0.544373,down
205017,2.898438,9.0625,1.144531,-2.642578,-1.095703,-3.669922,0.460205,0.686462,0.175171,0.535095,down
205022,2.324219,8.140625,1.984375,-2.642578,-1.095703,-3.669922,0.460205,0.686462,0.175171,0.535095,down
205027,2.324219,8.140625,1.984375,-2.859375,-1.183594,-3.591797,0.480591,0.679626,0.177246,0.525085,down
205033,2.171875,7.683594,2.484375,-2.859375,-1.183594,-3.591797,0.50177,0.672302,0.177551,0.514465,down
205038,2.402344,7.535156,2.484375,-3.367188,-1.621094,-3.513672,0.50177,0.672302,0.177551,0.514465,down
205043,2.476563,7.53125,2.332031,-3.367188,-1.621094,-3.513672,0.523254,0.664612,0.176819,0.503235,down
205048,2.554688,7.339844,2.0625,-3.367188,-1.621094,-3.513672,0.534302,0.6604,0.176636,0.497192,down
205053,2.476563,7.417969,2.023438,-3.367188,-1.621094,-3.513672,0.545898,0.655823,0.176941,0.490479,down
205058,2.476563,7.71875,2.0625,-3.367188,-1.621094,-3.513672,0.545898,0.655823,0.176941,0.490479,down
205063,2.4375,8.066406,2.101563,-2.572266,-1.146484,-4.480469,0.545898,0.655823,0.176941,0.490479,down
205068,2.363281,8.640625,2.0625,-2.572266,-1.146484,-4.480469,0.565613,0.647644,0.179871,0.477844,down
205073,2.363281,8.640625,2.0625,-2.294922,-0.904297,-4.865234,0.575439,0.64325,0.183105,0.470764,down
205078,2.132813,8.832031,1.949219,-2.294922,-0.904297,-4.865234,0.585083,0.63855,0.187561,0.463379,down
205083,1.441406,8.789063,1.296875,-2.019531,-0.308594,-5.662109,0.595093,0.633301,0.193298,0.455383,down
205088,1.441406,8.789063,1.296875,-2.048828,-0.050781,-6.041016,0.604919,0.627563,0.199951,0.447449,down
205094,0.21875,9.980469,0.914062,-2.048828,-0.050781,-6.041016,0.604919,0.627563,0.199951,0.447449,down
205099,-0.128906,10.253906,0.761719,-2.664063,0.619141,-7.240234,0.604919,0.627563,0.199951,0.447449,down
205104,-0.203125,10.554688,0.988281,-2.664063,0.619141,-7.240234,0.64856,0.595276,0.233582,0.412842,down
205110,-0.472656,11.824219,0.761719,-2.664063,0.619141,-7.240234,0.662292,0.582947,0.242371,0.403442,down
205116,-0.933594,14.308594,0.796875,-5.28125,0.757812,-8.068359,0.662292,0.582947,0.242371,0.403442,down
205121,-1.351563,14.464844,3.554688,-6.185547,0.326172,-7.931641,0.662292,0.582947,0.242371,0.403442,down
205126,-1.351563,14.464844,3.554688,-7.195312,-0.091797,-7.814453,0.708801,0.536499,0.261719,0.375854,down
205131,-1.351563,14.464844,3.554688,-8.142578,-0.269531,-7.675781,0.726013,0.517944,0.264526,0.366943,down
205136,-1.964844,11.359375,3.480469,-8.142578,-0.269531,-7.675781,0.744385,0.497192,0.265625,0.35791,down
205141,-1.738281,10.292969,6.121094,-8.142578,-0.269531,-7.675781,0.744385,0.497192,0.265625,0.35791,down
205146,-1.738281,10.292969,6.121094,-9.125,-1.296875,-7.376953,0.780151,0.455444,0.262878,0.338867,down
205152,-2.503906,7.109375,9.074219,-9.125,-1.296875,-7.376953,0.780151,0.455444,0.262878,0.338867,down
205157,-3.5,6.496094,8.992188,-8.130859,-1.630859,-8.125,0.780151,0.455444,0.262878,0.338867,down
205162,-4.226562,6.378906,8.609375,-7.207031,-1.443359,-8.673828,0.780151,0.455444,0.262878,0.338867,down
205167,-4.226562,6.378906,8.609375,-6.183594,-1.140625,-9.234375,0.843445,0.373413,0.259155,0.286255,down
205172,-5.03125,6.535156,8.269531,-5.097656,-0.796875,-9.787109,0.843445,0.373413,0.259155,0.286255,down
205177,-6.640625,9.976563,7.921875,-5.097656,-0.796875,-9.787109,0.843445,0.373413,0.259155,0.286255,down
205183,-6.640625,9.976563,7.921875,-3.128906,-0.347656,-10.576172,0.876221,0.325256,0.271851,0.229248,down
205188,-9.472656,14.304688,7.003906,-2.595703,-0.308594,-10.904297,0.876221,0.325256,0.271851,0.229248,down
205194,-10.242188,15.382813,6.507812,-2.595703,-0.308594,-10.904297,0.899048,0.284424,0.290466,0.162537,down
205199,-9.894531,16.453125,6.925781,-3.326172,-0.419922,-10.533203,0.906067,0.268494,0.296448,0.138306,down
205204,-9.703125,16.269531,8.957031,-4.232422,-0.103516,-10.142578,0.91156,0.253357,0.300964,0.119446,down
205209,-9.703125,16.269531,8.957031,-4.232422,-0.103516,-10.142578,0.91156,0.253357,0.300964,0.119446,down
205214,-11.8125,16.113281,6.160156,-4.789062,-0.154297,-9.589844,0.91156,0.253357,0.300964,0.119446,down
205219,-11.8125,16.113281,6.160156,-5.421875,-0.402344,-8.941406,0.922363,0.216736,0.308777,0.083496,down
205224,-11.65625,13.429688,9.800781,-5.421875,-0.402344,-8.941406,0.927368,0.196106,0.311401,0.067566,down
205229,-11.007813,10.710938,12.710938,-6.349609,-0.242187,-7.751953,0.93158,0.175781,0.313599,0.053711,down
205234,-10.738281,9.980469,13.636719,-6.414062,-0.28125,-7.166016,0.93158,0.175781,0.313599,0.053711,down
205239,-11.046875,9.0625,13.902344,-5.576172,-0.115234,-6.107422,0.93158,0.175781,0.313599,0.053711,down
205245,-11.046875,9.0625,13.902344,-5.576172,-0.115234,-6.107422,0.942688,0.097656,0.318909,0.010193,down
205250,-11.082031,7.683594,13.59375,-5.576172,-0.115234,-6.107422,0.942688,0.097656,0.318909,0.010193,down
205256,-11.082031,7.683594,13.59375,-3.480469,-0.333984,-5.060547,0.944763,0.073364,0.319336,-0.007935,down
205262,-10.46875,7.605469,13.136719,-3.480469,-0.333984,-5.060547,0.945496,0.065796,0.318481,-0.016785,down
205267,-10.46875,7.605469,13.136719,-0.101563,-1.021484,-3.3125,0.946106,0.061584,0.316956,-0.024902,down
205273,-8.9375,8.679688,11.027344,-0.101563,-1.021484,-3.3125,0.946777,0.059387,0.314636,-0.03241,down
205278,-8.441406,8.5625,10.375,1.138672,-1.359375,-1.582031,0.946777,0.059387,0.314636,-0.03241,down
205284,-7.636719,7.761719,9.269531,1.214844,-1.351563,-1.089844,0.948181,0.059753,0.308899,-0.044006,down
205290,-6.753906,7.03125,8.730469,1.214844,-1.351563,-1.089844,0.949646,0.062988,0.302612,-0.051147,down
205295,-6.410156,6.535156,8.34375,0.970703,-1.203125,-0.302734,0.950439,0.064941,0.299438,-0.053223,down
205300,-6.257812,5.996094,7.921875,0.6875,-1.083984,-0.042969,0.950439,0.064941,0.299438,-0.053223,down
205305,-5.835937,4.695312,7.617187,0.6875,-1.083984,-0.042969,0.951843,0.067627,0.294006,-0.054749,down
205310,-5.644531,4.390625,7.503906,0.205078,-0.869141,0.212891,0.951843,0.067627,0.294006,-0.054749,down
205315,-5.453125,4.273437,7.277344,0.085937,-0.746094,0.226562,0.951843,0.067627,0.294006,-0.054749,down
205321,-5.070312,3.738281,6.921875,0.085937,-0.746094,0.226562,0.953674,0.068665,0.287964,-0.053833,down
205326,-5.070312,3.738281,6.921875,0.050781,-0.591797,0.128906,0.954102,0.068726,0.286499,-0.053528,down
205331,-5.070312,3.738281,6.921875,0.136719,-0.572266,0.0625,0.954529,0.068909,0.285034,-0.053406,down
205337,-4.6875,3.46875,7.421875,0.136719,-0.572266,0.0625,0.954956,0.069275,0.283569,-0.053528,down
205342,-4.304687,3.046875,7.121094,0.136719,-0.572266,0.0625,0.954956,0.069275,0.283569,-0.053528,down
205348,-4.304687,3.046875,7.121094,0.371094,-0.578125,-0.033203,0.955627,0.070618,0.280762,-0.054321,down
205354,-3.996094,2.703125,7.238281,0.371094,-0.578125,-0.033203,0.956299,0.072021,0.277954,-0.054932,down
205359,-3.84375,2.207031,7.234375,0.371094,-0.578125,-0.033203,0.956726,0.072571,0.276306,-0.055054,down
205364,-3.765625,2.050781,7.199219,0.371094,-0.578125,-0.033203,0.957092,0.072815,0.275085,-0.054932,down
205369,-3.726563,1.59375,7.273437,0.041016,-0.572266,0.158203,0.957092,0.072815,0.275085,-0.054932,down
205374,-3.691406,1.054688,7.199219,0.041016,-0.572266,0.158203,0.957947,0.072998,0.272217,-0.054321,down
205379,-3.765625,1.019531,7.238281,0.070312,-0.544922,0.158203,0.957947,0.072998,0.272217,-0.054321,down
205384,-3.84375,0.902344,7.425781,0.134766,-0.529297,0.144531,0.958374,0.07312,0.270691,-0.053955,down
205389,-3.882813,1.054688,7.277344,0.216797,-0.486328,0.142578,0.958679,0.073364,0.269531,-0.053772,down
205395,-3.84375,1.054688,7.421875,0.216797,-0.486328,0.142578,0.959351,0.074402,0.267029,-0.053467,down
205400,-3.921875,0.980469,7.308594,0.464844,-0.423828,0.136719,0.959351,0.074402,0.267029,-0.053467,down
205405,-4.035156,0.980469,7.347656,0.544922,-0.378906,0.15625,0.959351,0.074402,0.267029,-0.053467,down
205411,-4.035156,0.902344,7.460937,0.544922,-0.378906,0.15625,0.9599,0.078064,0.263855,-0.053528,down
205416,-4.148437,0.902344,7.503906,0.621094,-0.287109,0.169922,0.9599,0.078064,0.263855,-0.053528,down
205421,-4.226562,0.902344,7.5,0.630859,-0.253906,0.181641,0.9599,0.078064,0.263855,-0.053528,down
205427,-4.265625,0.941406,7.5,0.611328,-0.240234,0.175781,0.9599,0.078064,0.263855,-0.053528,down
205432,-4.304687,1.171875,7.578125,0.611328,-0.240234,0.175781,0.9599,0.078064,0.263855,-0.053528,down
205438,-4.339844,1.210938,7.578125,0.611328,-0.240234,0.175781,0.960266,0.085693,0.260071,-0.053528,down
205444,-4.378906,1.171875,7.503906,0.394531,-0.201172,0.201172,0.960266,0.085693,0.260071,-0.053528,down
205449,-4.339844,1.171875,7.503906,0.394531,-0.201172,0.201172,0.960449,0.08905,0.258301,-0.05304,down
205454,-4.339844,1.210938,7.460937,0.304688,-0.154297,0.242187,0.960449,0.08905,0.258301,-0.05304,down
205459,-4.339844,1.09375,7.5,0.304688,-0.154297,0.242187,0.960632,0.090881,0.257385,-0.052307,down
205464,-4.378906,0.980469,7.582031,0.304688,-0.154297,0.242187,0.960632,0.090881,0.257385,-0.052307,down
205469,-4.378906,0.902344,7.578125,0.333984,-0.076172,0.300781,0.960632,0.091675,0.257019,-0.05188,down
205474,-4.417969,0.863281,7.617187,0.333984,-0.076172,0.300781,0.960693,0.093689,0.256409,-0.050903,down
205479,-4.496094,0.863281,7.726562,0.333984,-0.076172,0.300781,0.960693,0.093689,0.256409,-0.050903,down
205484,-4.609375,0.902344,7.886719,0.333984,-0.076172,0.300781,0.960632,0.09491,0.256165,-0.050354,down
205489,-4.6875,0.902344,7.960937,0.488281,-0.003906,0.314453,0.96051,0.097534,0.25592,-0.049561,down
205494,-4.800781,0.902344,7.886719,0.537109,0.050781,0.322266,0.96051,0.097534,0.25592,-0.049561,down
205499,-4.800781,1.019531,7.921875,0.537109,0.050781,0.322266,0.960388,0.099182,0.255859,-0.049072,down
205504,-4.839844,1.019531,7.960937,0.537109,0.050781,0.322266,0.960083,0.102051,0.25592,-0.048279,down
205509,-4.914062,1.019531,8.0,0.511719,0.130859,0.339844,0.960083,0.102051,0.25592,-0.048279,down
205514,-4.953125,1.019531,8.039063,0.511719,0.130859,0.339844,0.9599,0.103516,0.256042,-0.047791,down
205519,-4.992187,1.132813,8.0,0.496094,0.154297,0.345703,0.9599,0.103516,0.256042,-0.047791,down
205524,-5.03125,1.132813,8.0,0.496094,0.154297,0.345703,0.959534,0.106445,0.25647,-0.046753,down
205529,-5.070312,1.171875,8.078125,0.388672,0.203125,0.296875,0.959534,0.106445,0.25647,-0.046753,down
205534,-5.109375,1.210938,8.078125,0.388672,0.203125,0.296875,0.959106,0.109131,0.257141,-0.045715,down
205539,-5.144531,1.246094,8.078125,0.388672,0.203125,0.296875,0.958679,0.111267,0.257874,-0.044739,down
205544,-5.144531,1.246094,8.113281,0.388672,0.203125,0.296875,0.958679,0.111267,0.257874,-0.044739,down
205549,-5.144531,1.285156,8.113281,0.236328,0.177734,0.21875,0.958679,0.111267,0.257874,-0.044739,down
205554,-5.109375,1.402344,8.113281,0.236328,0.177734,0.21875,0.958374,0.112854,0.258545,-0.044006,down
205559,-5.109375,1.363281,8.152344,0.236328,0.177734,0.21875,0.958191,0.113586,0.258911,-0.043579,down
205564,-5.03125,1.285156,8.1875,0.173828,0.154297,0.199219,0.958191,0.113586,0.258911,-0.043579,down
205570,-4.992187,1.324219,8.109375,0.144531,0.142578,0.193359,0.958191,0.113586,0.258911,-0.043579,down
205576,-4.839844,1.324219,8.152344,0.144531,0.142578,0.193359,0.957703,0.115784,0.259949,-0.042114,down
205582,-4.878906,1.402344,8.082031,0.152344,0.121094,0.183594,0.957703,0.115784,0.259949,-0.042114,down
205588,-4.839844,1.402344,8.148438,0.162109,0.117188,0.191406,0.957703,0.115784,0.259949,-0.042114,down
205593,-4.839844,1.285156,8.109375,0.181641,0.121094,0.199219,0.957703,0.115784,0.259949,-0.042114,down
205599,-4.839844,1.324219,8.113281,0.197266,0.132812,0.197266,0.957703,0.115784,0.259949,-0.042114,down
205604,-4.878906,1.324219,8.226563,0.220703,0.138672,0.191406,0.957703,0.115784,0.259949,-0.042114,down
205609,-4.914062,1.554688,8.265625,0.248047,0.138672,0.181641,0.957703,0.115784,0.259949,-0.042114,down
205614,-4.992187,1.667969,8.269531,0.248047,0.138672,0.181641,0.956848,0.120239,0.261536,-0.039978,down
205619,-5.03125,1.820313,8.226563,0.244141,0.101563,0.119141,0.956848,0.120239,0.261536,-0.039978,down
205624,-4.953125,1.859375,8.191406,0.244141,0.101563,0.119141,0.956543,0.121826,0.261963,-0.039673,down
205630,-4.992187,2.050781,8.148438,0.244141,0.101563,0.119141,0.956299,0.122986,0.262207,-0.039551,down
205635,-4.992187,2.089844,8.152344,0.107422,0.042969,0.074219,0.956238,0.123474,0.262329,-0.03949,down
205640,-5.03125,2.089844,8.152344,0.037109,0.025391,0.078125,0.956177,0.123718,0.26239,-0.039368,down
205645,-4.953125,2.050781,8.148438,0.037109,0.025391,0.078125,0.956177,0.123779,0.26239,-0.039307,down
205650,-4.914062,2.015625,8.148438,0.037109,0.025391,0.078125,0.956177,0.123779,0.26239,-0.039185,down
205655,-4.953125,1.898438,8.148438,-0.115234,-0.009766,0.052734,0.956238,0.123596,0.262329,-0.039001,down
205660,-4.878906,1.859375,8.152344,-0.115234,-0.009766,0.052734,0.956299,0.123352,0.262329,-0.038879,down
205665,-4.800781,1.859375,8.148438,-0.115234,-0.009766,0.052734,0.956299,0.123108,0.262329,-0.038818,down
205670,-4.761719,1.859375,8.226563,-0.09375,-0.005859,0.037109,0.956299,0.123108,0.262329,-0.038818,down
205675,-4.722656,1.898438,8.152344,-0.09375,-0.005859,0.037109,0.95636,0.122803,0.262268,-0.038635,down
205680,-4.6875,1.898438,8.113281,-0.09375,-0.005859,0.037109,0.95636,0.122742,0.262329,-0.038513,down
205685,-4.648437,1.820313,8.078125,-0.09375,-0.005859,0.037109,0.95636,0.122742,0.26239,-0.038391,down
205690,-4.609375,1.746094,8.0,0.007813,0.097656,0.085937,0.956299,0.122803,0.262573,-0.038208,down
205695,-4.648437,1.707031,8.039063,0.041016,0.138672,0.089844,0.956238,0.122986,0.262817,-0.038025,down
205701,-4.6875,1.859375,8.078125,0.041016,0.138672,0.089844,0.956116,0.12323,0.263123,-0.037964,down
205706,-4.6875,1.859375,8.078125,0.140625,0.179687,0.060547,0.955933,0.123657,0.26355,-0.037842,down
205712,-4.722656,2.050781,8.039063,0.140625,0.179687,0.060547,0.955811,0.124023,0.263916,-0.037842,down
205718,-4.800781,2.242188,8.082031,0.195312,0.207031,0.035156,0.955811,0.124023,0.263916,-0.037842,down
205723,-4.800781,2.28125,8.109375,0.191406,0.210937,0.041016,0.955811,0.124023,0.263916,-0.037842,down
205729,-4.914062,2.28125,8.109375,0.183594,0.210937,0.029297,0.955811,0.124023,0.263916,-0.037842,down
205734,-4.953125,2.320313,8.078125,0.162109,0.197266,0.021484,0.955811,0.124023,0.263916,-0.037842,down
205739,-4.992187,2.320313,8.078125,0.162109,0.197266,0.021484,0.954834,0.126526,0.266174,-0.038025,down
205744,-5.03125,2.359375,8.082031,0.162109,0.197266,0.021484,0.954651,0.126953,0.266602,-0.038147,down
205749,-5.070312,2.398438,8.113281,0.056641,0.095703,-0.041016,0.954651,0.126953,0.266602,-0.038147,down
205754,-5.109375,2.472656,8.078125,0.056641,0.095703,-0.041016,0.954407,0.12738,0.267151,-0.038452,down
205759,-5.070312,2.511719,8.109375,0.056641,0.095703,-0.041016,0.954346,0.127502,0.267395,-0.038635,down
205764,-5.109375,2.550781,8.082031,0.019531,0.039063,-0.070312,0.954346,0.127502,0.267395,-0.038635,down
205770,-4.992187,2.511719,8.039063,0.003906,0.021484,-0.0625,0.954346,0.127502,0.267395,-0.038635,down
