timestamp,ax,ay,az,gx,gy,gz,qw,qx,qy,qz,label
506830,8.382813,4.757812,2.710938,-0.261719,0.164062,-0.263672,0.282043,0.604126,0.078613,0.74115,down
506835,8.382813,4.757812,2.75,-0.244141,0.173828,-0.265625,0.282043,0.604126,0.078613,0.74115,down
506840,8.308594,4.757812,2.710938,-0.244141,0.173828,-0.265625,0.283752,0.603027,0.078735,0.741394,down
506845,8.191406,4.640625,2.710938,-0.232422,0.1875,-0.269531,0.2854,0.601929,0.078918,0.741638,down
506850,8.117188,4.601562,2.710938,-0.232422,0.1875,-0.269531,0.2854,0.601929,0.078918,0.741638,down
506856,8.039063,4.601562,2.710938,-0.201172,0.226562,-0.269531,0.2854,0.601929,0.078918,0.741638,down
506861,7.847656,4.566406,2.671875,-0.201172,0.226562,-0.269531,0.286987,0.600708,0.079285,0.741943,down
506866,7.734375,4.566406,2.710938,-0.181641,0.238281,-0.269531,0.288513,0.599487,0.079712,0.74231,down
506871,7.738281,4.527344,2.75,-0.154297,0.240234,-0.275391,0.288513,0.599487,0.079712,0.74231,down
506876,7.699219,4.601562,2.824219,-0.154297,0.240234,-0.275391,0.289307,0.598755,0.080017,0.742554,down
506881,7.695312,4.640625,2.824219,-0.154297,0.240234,-0.275391,0.290588,0.597595,0.08075,0.74292,down
506886,7.65625,4.640625,2.785156,-0.154297,0.240234,-0.275391,0.291321,0.596985,0.081177,0.743103,down
506891,7.539062,4.679687,2.785156,-0.154297,0.240234,-0.275391,0.291321,0.596985,0.081177,0.743103,down
506896,7.464844,4.757812,2.863281,-0.060547,0.271484,-0.322266,0.291321,0.596985,0.081177,0.743103,down
506901,7.464844,4.757812,2.902344,-0.025391,0.230469,-0.34375,0.292603,0.595764,0.082275,0.743408,down
506906,7.5,4.792969,2.941406,-0.025391,0.230469,-0.34375,0.293945,0.594727,0.083557,0.743591,down
506911,7.503906,4.832031,2.976563,-0.025391,0.230469,-0.34375,0.293945,0.594727,0.083557,0.743591,down
506916,7.539062,4.832031,2.941406,-0.037109,0.183594,-0.335938,0.294617,0.594177,0.084229,0.743652,down
506921,7.5,4.832031,2.941406,-0.037109,0.183594,-0.335938,0.295898,0.593323,0.085327,0.743713,down
506926,7.460937,4.792969,2.941406,-0.037109,0.183594,-0.335938,0.295898,0.593323,0.085327,0.743713,down
506931,7.621094,4.757812,2.976563,-0.029297,0.15625,-0.335938,0.295898,0.593323,0.085327,0.743713,down
506937,7.738281,4.757812,2.902344,-0.009766,0.160156,-0.322266,0.297241,0.592529,0.086487,0.743713,down
506942,7.773437,4.792969,2.941406,-0.009766,0.160156,-0.322266,0.298401,0.591797,0.087585,0.743652,down
506947,7.695312,4.871094,2.863281,-0.009766,0.160156,-0.322266,0.299072,0.59137,0.088196,0.743652,down
506952,7.699219,4.910156,2.824219,-0.009766,0.160156,-0.322266,0.299683,0.591003,0.088745,0.743652,down
506957,7.65625,4.949219,2.863281,-0.009766,0.160156,-0.322266,0.300293,0.590637,0.089233,0.743652,down
506963,7.695312,5.0625,2.902344,-0.009766,0.160156,-0.322266,0.300964,0.590332,0.089722,0.743591,down
506969,7.847656,5.101562,2.902344,-0.009766,0.160156,-0.322266,0.301636,0.590088,0.09021,0.743469,down
506974,7.964844,5.101562,2.902344,-0.025391,0.041016,-0.337891,0.301636,0.590088,0.09021,0.743469,down
506979,8.003906,5.140625,2.863281,-0.017578,0.007813,-0.347656,0.301636,0.590088,0.09021,0.743469,down
506985,8.082031,5.140625,2.863281,-0.001953,-0.013672,-0.345703,0.301636,0.590088,0.09021,0.743469,down
506990,8.121094,5.0625,2.824219,-0.001953,-0.013672,-0.345703,0.301636,0.590088,0.09021,0.743469,down
506995,8.15625,5.023437,2.824219,-0.001953,-0.013672,-0.345703,0.304932,0.589661,0.092651,0.742126,down
507001,8.160156,5.0625,2.824219,0.09375,-0.058594,-0.318359,0.304932,0.589661,0.092651,0.742126,down
507006,8.121094,5.140625,2.785156,0.121094,-0.058594,-0.306641,0.306274,0.589966,0.094482,0.741089,down
507011,8.078125,5.179687,2.824219,0.121094,-0.058594,-0.306641,0.306274,0.589966,0.094482,0.741089,down
507016,8.039063,5.253906,2.863281,0.171875,-0.025391,-0.28125,0.306274,0.589966,0.094482,0.741089,down
507021,8.003906,5.292969,2.941406,0.25,0.007813,-0.279297,0.306274,0.589966,0.094482,0.741089,down
507027,7.804687,5.40625,2.824219,0.25,0.007813,-0.279297,0.307068,0.590332,0.096741,0.740173,down
507032,7.699219,5.40625,2.785156,0.332031,0.025391,-0.292969,0.307251,0.590515,0.098755,0.739685,down
507037,7.65625,5.484375,2.785156,0.332031,0.025391,-0.292969,0.307312,0.590698,0.099731,0.73938,down
507043,7.699219,5.5625,2.824219,0.332031,0.025391,-0.292969,0.307373,0.591064,0.100769,0.738953,down
507048,7.882812,5.714844,2.941406,0.332031,0.025391,-0.292969,0.307556,0.591431,0.101685,0.738403,down
507054,7.964844,5.714844,2.976563,0.277344,-0.191406,-0.314453,0.307739,0.59198,0.102722,0.737793,down
507059,8.078125,5.714844,2.902344,0.248047,-0.222656,-0.314453,0.307739,0.59198,0.102722,0.737793,down
507065,8.15625,5.714844,2.902344,0.21875,-0.242187,-0.318359,0.307739,0.59198,0.102722,0.737793,down
507070,8.15625,5.714844,2.902344,0.181641,-0.244141,-0.314453,0.307739,0.59198,0.102722,0.737793,down
507076,8.117188,5.753906,2.863281,0.154297,-0.248047,-0.310547,0.307739,0.59198,0.102722,0.737793,down
507081,8.078125,5.753906,2.902344,0.085937,-0.205078,-0.291016,0.309509,0.594421,0.105835,0.734619,down
507087,8.039063,5.828125,2.941406,0.085937,-0.205078,-0.291016,0.310486,0.595154,0.106689,0.733459,down
507092,8.042969,5.789062,2.976563,0.046875,-0.164062,-0.275391,0.310974,0.595459,0.107117,0.732971,down
507098,7.964844,5.789062,2.941406,0.046875,-0.164062,-0.275391,0.311462,0.595703,0.107483,0.732544,down
507103,7.84375,5.867187,2.976563,0.041016,-0.130859,-0.28125,0.311951,0.595886,0.107849,0.732117,down
507108,7.804687,5.828125,2.941406,0.050781,-0.130859,-0.277344,0.311951,0.595886,0.107849,0.732117,down
507113,7.886719,5.867187,2.941406,0.050781,-0.130859,-0.277344,0.312988,0.596313,0.108704,0.731201,down
507118,7.921875,5.90625,3.015625,0.050781,-0.130859,-0.277344,0.312988,0.596313,0.108704,0.731201,down
507123,7.921875,5.90625,3.015625,0.097656,-0.179687,-0.292969,0.313904,0.596863,0.109558,0.730225,down
507128,8.0,5.90625,3.015625,0.097656,-0.179687,-0.292969,0.314331,0.597229,0.110046,0.729675,down
507134,8.121094,5.90625,2.976563,0.097656,-0.179687,-0.292969,0.314758,0.597534,0.110535,0.729126,down
507139,8.15625,5.945312,2.902344,0.087891,-0.166016,-0.298828,0.314758,0.597534,0.110535,0.729126,down
507144,8.15625,5.90625,2.941406,0.058594,-0.146484,-0.292969,0.315735,0.598145,0.11145,0.728088,down
507150,8.078125,5.945312,2.902344,0.037109,-0.119141,-0.302734,0.315735,0.598145,0.11145,0.728088,down
507155,8.003906,5.945312,2.941406,0.037109,-0.119141,-0.302734,0.315735,0.598145,0.11145,0.728088,down
507160,7.925781,5.90625,2.902344,-0.023437,-0.041016,-0.292969,0.315735,0.598145,0.11145,0.728088,down
507165,7.84375,5.789062,2.902344,-0.046875,0.0,-0.306641,0.315735,0.598145,0.11145,0.728088,down
507171,7.695312,5.675781,2.824219,-0.046875,0.0,-0.306641,0.319336,0.598083,0.113708,0.726257,down
507176,7.617187,5.597656,2.824219,-0.046875,0.0,-0.306641,0.319336,0.598083,0.113708,0.726257,down
507181,7.582031,5.675781,2.824219,-0.080078,-0.046875,-0.291016,0.319336,0.598083,0.113708,0.726257,down
507186,7.699219,5.753906,2.941406,-0.054687,-0.154297,-0.28125,0.319336,0.598083,0.113708,0.726257,down
507191,7.84375,5.789062,3.09375,-0.054687,-0.154297,-0.28125,0.321289,0.598267,0.11438,0.725098,down
507197,8.042969,5.867187,3.132813,0.076172,-0.410156,-0.271484,0.321289,0.598267,0.11438,0.725098,down
507202,8.160156,5.90625,3.09375,0.076172,-0.410156,-0.271484,0.322998,0.60022,0.11499,0.722656,down
507207,8.15625,5.945312,2.902344,0.076172,-0.410156,-0.271484,0.323364,0.601013,0.115356,0.721741,down
507212,8.226563,6.136719,2.785156,0.324219,-0.431641,-0.300781,0.323364,0.601013,0.115356,0.721741,down
507217,8.230469,6.175781,2.785156,0.402344,-0.427734,-0.310547,0.323669,0.60199,0.115967,0.720703,down
507222,8.230469,6.210937,2.785156,0.402344,-0.427734,-0.310547,0.323853,0.603943,0.117615,0.718689,down
507227,8.230469,6.289062,2.75,0.402344,-0.427734,-0.310547,0.323914,0.604797,0.11853,0.717834,down
507232,8.082031,6.210937,2.632813,0.402344,-0.427734,-0.310547,0.323914,0.604797,0.11853,0.717834,down
507237,8.039063,6.175781,2.480469,0.306641,-0.259766,-0.302734,0.323914,0.604797,0.11853,0.717834,down
507242,8.042969,6.210937,2.402344,0.306641,-0.259766,-0.302734,0.32428,0.606873,0.121033,0.715454,down
507247,8.078125,6.210937,2.441406,0.306641,-0.259766,-0.302734,0.32428,0.606873,0.121033,0.715454,down
507252,8.082031,6.25,2.519531,0.117188,-0.214844,-0.277344,0.325073,0.607727,0.121948,0.714233,down
507257,8.082031,6.289062,2.519531,0.117188,-0.214844,-0.277344,0.325684,0.607971,0.122192,0.713684,down
507262,8.117188,6.328125,2.480469,0.117188,-0.214844,-0.277344,0.326294,0.608032,0.122314,0.713318,down
507267,8.121094,6.328125,2.402344,0.117188,-0.214844,-0.277344,0.326294,0.608032,0.122314,0.713318,down
507272,8.082031,6.289062,2.402344,-0.220703,-0.128906,-0.238281,0.326294,0.608032,0.122314,0.713318,down
507277,8.160156,6.25,2.363281,-0.220703,-0.128906,-0.238281,0.328674,0.608093,0.12207,0.71228,down
507282,8.191406,6.210937,2.402344,-0.220703,-0.123047,-0.220703,0.328674,0.608093,0.12207,0.71228,down
507287,8.191406,6.210937,2.363281,-0.220703,-0.123047,-0.220703,0.330261,0.607971,0.121704,0.71167,down
507292,8.191406,6.210937,2.328125,-0.220703,-0.123047,-0.220703,0.330261,0.607971,0.121704,0.71167,down
507297,8.15625,6.097656,2.289063,-0.152344,-0.041016,-0.183594,0.330933,0.60791,0.121643,0.711426,down
507302,8.160156,6.019531,2.289063,-0.125,-0.011719,-0.166016,0.331604,0.607849,0.121582,0.711182,down
507307,8.160156,6.019531,2.289063,-0.125,-0.011719,-0.166016,0.332153,0.607727,0.121582,0.71106,down
507312,8.121094,6.019531,2.289063,-0.111328,0.011719,-0.152344,0.332153,0.607727,0.121582,0.71106,down
507317,8.0,6.058594,2.480469,-0.111328,0.011719,-0.152344,0.332153,0.607727,0.121582,0.71106,down
507322,7.925781,6.097656,2.671875,-0.095703,0.033203,-0.140625,0.333374,0.607239,0.121765,0.710876,down
507327,7.925781,6.097656,2.671875,-0.095703,0.033203,-0.140625,0.333679,0.606995,0.121887,0.710876,down
507332,7.882812,6.019531,2.632813,-0.023437,0.160156,-0.146484,0.334229,0.606323,0.122498,0.711121,down
507337,7.804687,6.097656,2.632813,-0.023437,0.160156,-0.146484,0.334229,0.606323,0.122498,0.711121,down
507342,7.777344,6.136719,2.710938,-0.015625,0.101563,-0.148437,0.334229,0.606323,0.122498,0.711121,down
507347,7.84375,6.175781,2.75,-0.011719,0.064453,-0.15625,0.334229,0.606323,0.122498,0.711121,down
507352,7.84375,6.175781,2.75,0.021484,0.023437,-0.171875,0.335083,0.605713,0.123291,0.711121,down
507357,7.84375,6.175781,2.75,0.021484,0.023437,-0.171875,0.335388,0.605591,0.123596,0.710999,down
507362,7.847656,6.136719,2.710938,0.021484,0.023437,-0.171875,0.335693,0.60553,0.123962,0.710876,down
507367,7.882812,6.210937,2.632813,0.033203,0.001953,-0.201172,0.335693,0.60553,0.123962,0.710876,down
507372,7.882812,6.210937,2.632813,0.001953,-0.009766,-0.193359,0.336304,0.605408,0.124573,0.71051,down
507377,7.882812,6.25,2.632813,0.001953,-0.009766,-0.193359,0.337097,0.605286,0.125183,0.710144,down
507382,7.886719,6.175781,2.554688,0.001953,-0.009766,-0.193359,0.337097,0.605286,0.125183,0.710144,down
507387,7.734375,6.097656,2.480469,-0.140625,0.037109,-0.191406,0.338135,0.604858,0.125305,0.710022,down
507392,7.738281,6.058594,2.480469,-0.140625,0.037109,-0.191406,0.338135,0.604858,0.125305,0.710022,down
507397,7.695312,6.019531,2.441406,-0.345703,0.035156,-0.169922,0.338135,0.604858,0.125305,0.710022,down
507402,7.660156,5.945312,2.519531,-0.345703,0.035156,-0.169922,0.340576,0.603638,0.124512,0.710022,down
507407,7.621094,5.945312,2.519531,-0.345703,0.035156,-0.169922,0.341431,0.60321,0.124084,0.710022,down
507412,7.621094,5.945312,2.59375,-0.345703,0.035156,-0.169922,0.341431,0.60321,0.124084,0.710022,down
507417,7.617187,5.90625,2.632813,-0.425781,0.003906,-0.144531,0.341431,0.60321,0.124084,0.710022,down
507422,7.617187,5.789062,2.59375,-0.425781,0.003906,-0.144531,0.343262,0.602417,0.123047,0.710022,down
507428,7.582031,5.753906,2.59375,-0.419922,0.009766,-0.144531,0.345093,0.601562,0.122009,0.710022,down
507433,7.582031,5.753906,2.59375,-0.353516,0.017578,-0.15625,0.346008,0.601135,0.121521,0.710022,down
507438,7.582031,5.636719,2.519531,-0.353516,0.017578,-0.15625,0.346863,0.600708,0.121155,0.710022,down
507443,7.539062,5.714844,2.480469,-0.353516,0.017578,-0.15625,0.347473,0.600403,0.120911,0.710022,down
507448,7.542969,5.675781,2.480469,-0.353516,0.017578,-0.15625,0.348145,0.600098,0.120789,0.710022,down
507454,7.5,5.753906,2.554688,-0.208984,0.042969,-0.179687,0.348816,0.599792,0.120667,0.709961,down
507459,7.425781,5.828125,2.59375,-0.208984,0.042969,-0.179687,0.349426,0.599426,0.120667,0.709961,down
507464,7.390625,5.90625,2.519531,-0.177734,0.103516,-0.210937,0.350037,0.59906,0.120728,0.709961,down
507469,7.355469,5.945312,2.480469,-0.164062,0.125,-0.234375,0.350037,0.59906,0.120728,0.709961,down
507474,7.273437,5.980469,2.441406,-0.152344,0.121094,-0.255859,0.350037,0.59906,0.120728,0.709961,down
507479,7.238281,5.980469,2.59375,-0.152344,0.121094,-0.255859,0.350037,0.59906,0.120728,0.709961,down
507484,7.277344,5.980469,2.632813,-0.138672,0.037109,-0.287109,0.350037,0.59906,0.120728,0.709961,down
507491,7.3125,5.980469,2.710938,-0.136719,0.011719,-0.298828,0.350037,0.59906,0.120728,0.709961,down
507496,7.355469,6.019531,2.710938,-0.136719,0.011719,-0.298828,0.350037,0.59906,0.120728,0.709961,down
507502,7.351562,5.980469,2.710938,-0.148437,-0.021484,-0.310547,0.350037,0.59906,0.120728,0.709961,down
507507,7.394531,5.980469,2.710938,-0.183594,-0.046875,-0.3125,0.350037,0.59906,0.120728,0.709961,down
507513,7.425781,6.019531,2.59375,-0.183594,-0.046875,-0.3125,0.357544,0.596313,0.122375,0.708252,down
507518,7.460937,6.019531,2.632813,-0.255859,-0.046875,-0.3125,0.358582,0.596069,0.122375,0.707947,down
507524,7.464844,5.980469,2.519531,-0.255859,-0.046875,-0.3125,0.359497,0.595825,0.122314,0.707703,down
507529,7.464844,5.980469,2.519531,-0.337891,-0.037109,-0.302734,0.360474,0.59552,0.122131,0.707458,down
507534,7.460937,5.980469,2.554688,-0.337891,-0.037109,-0.302734,0.361572,0.595154,0.121948,0.707214,down
507539,7.425781,5.945312,2.554688,-0.357422,-0.046875,-0.287109,0.361572,0.595154,0.121948,0.707214,down
507545,7.425781,5.945312,2.554688,-0.333984,-0.039063,-0.292969,0.361572,0.595154,0.121948,0.707214,down
507550,7.394531,5.945312,2.519531,-0.333984,-0.039063,-0.292969,0.364685,0.594177,0.121277,0.706543,down
507556,7.425781,5.90625,2.519531,-0.257813,-0.035156,-0.285156,0.364685,0.594177,0.121277,0.706543,down
507562,7.394531,5.90625,2.554688,-0.15625,-0.03125,-0.289063,0.364685,0.594177,0.121277,0.706543,down
507568,7.390625,5.945312,2.671875,-0.15625,-0.03125,-0.289063,0.368103,0.593262,0.121399,0.705505,down
507573,7.421875,5.945312,2.59375,-0.056641,0.007813,-0.294922,0.368835,0.593079,0.121704,0.705261,down
507578,7.539062,6.019531,2.632813,-0.056641,0.007813,-0.294922,0.369385,0.592957,0.12207,0.705017,down
507583,7.578125,6.058594,2.59375,-0.009766,0.046875,-0.316406,0.369934,0.592773,0.122559,0.704773,down
507589,7.539062,6.25,2.632813,-0.009766,0.046875,-0.316406,0.370544,0.59259,0.123047,0.70459,down
507594,7.5,6.25,2.632813,-0.005859,0.085937,-0.34375,0.370544,0.59259,0.123047,0.70459,down
507599,7.425781,6.328125,2.59375,-0.007813,0.083984,-0.359375,0.370544,0.59259,0.123047,0.70459,down
507604,7.460937,6.367187,2.632813,-0.007813,0.083984,-0.359375,0.372437,0.591797,0.124817,0.703918,down
507610,7.460937,6.480469,2.671875,-0.007813,0.083984,-0.359375,0.372437,0.591797,0.124817,0.703918,down
507615,7.464844,6.558594,2.671875,-0.119141,0.083984,-0.400391,0.372437,0.591797,0.124817,0.703918,down
507620,7.5,6.59375,2.710938,-0.142578,0.068359,-0.408203,0.374878,0.590698,0.126282,0.703308,down
507625,7.5,6.59375,2.710938,-0.177734,0.064453,-0.40625,0.375854,0.590271,0.126648,0.703064,down
507631,7.5,6.632812,2.785156,-0.177734,0.064453,-0.40625,0.375854,0.590271,0.126648,0.703064,down
507637,7.539062,6.59375,2.785156,-0.236328,0.064453,-0.396484,0.375854,0.590271,0.126648,0.703064,down
507642,7.5,6.632812,2.785156,-0.271484,0.076172,-0.382813,0.378906,0.588928,0.12738,0.702393,down
507647,7.539062,6.59375,2.785156,-0.271484,0.076172,-0.382813,0.379944,0.58844,0.127563,0.702209,down
507653,7.539062,6.59375,2.785156,-0.287109,0.095703,-0.371094,0.379944,0.58844,0.127563,0.702209,down
507658,7.578125,6.519531,2.785156,-0.287109,0.095703,-0.371094,0.383118,0.586792,0.127991,0.701782,down
507663,7.578125,6.558594,2.785156,-0.285156,0.115234,-0.359375,0.383118,0.586792,0.127991,0.701782,down
507668,7.582031,6.519531,2.824219,-0.285156,0.115234,-0.359375,0.384155,0.586243,0.128113,0.701721,down
507673,7.621094,6.558594,2.824219,-0.271484,0.130859,-0.361328,0.384155,0.586243,0.128113,0.701721,down
507679,7.65625,6.558594,2.863281,-0.271484,0.130859,-0.361328,0.387146,0.584351,0.128662,0.701477,down
507684,7.65625,6.558594,2.863281,-0.246094,0.175781,-0.380859,0.388184,0.583679,0.128967,0.701477,down
507689,7.734375,6.59375,2.863281,-0.236328,0.201172,-0.396484,0.389221,0.582886,0.129272,0.701416,down
507695,7.660156,6.671875,2.902344,-0.236328,0.201172,-0.396484,0.390076,0.582275,0.129639,0.701416,down
507700,7.578125,6.710937,2.902344,-0.197266,0.255859,-0.408203,0.390076,0.582275,0.129639,0.701416,down
507705,7.582031,6.824219,2.902344,-0.181641,0.273438,-0.414062,0.390076,0.582275,0.129639,0.701416,down
507710,7.503906,6.976562,2.941406,-0.175781,0.287109,-0.410156,0.390076,0.582275,0.129639,0.701416,down
507715,7.539062,7.054687,2.941406,-0.171875,0.304688,-0.412109,0.390076,0.582275,0.129639,0.701416,down
507721,7.582031,7.054687,2.976563,-0.175781,0.332031,-0.410156,0.390076,0.582275,0.129639,0.701416,down
507726,7.582031,7.132812,2.941406,-0.1875,0.361328,-0.408203,0.390076,0.582275,0.129639,0.701416,down
507732,7.578125,7.132812,2.976563,-0.1875,0.361328,-0.408203,0.397339,0.575195,0.134216,0.702332,down
507737,7.542969,7.09375,3.015625,-0.1875,0.361328,-0.408203,0.397339,0.575195,0.134216,0.702332,down
507742,7.542969,7.09375,3.015625,-0.3125,0.511719,-0.402344,0.397339,0.575195,0.134216,0.702332,down
507747,7.539062,7.09375,2.976563,-0.3125,0.511719,-0.402344,0.399292,0.572693,0.135376,0.703064,down
507753,7.539062,7.054687,3.054688,-0.3125,0.511719,-0.402344,0.401367,0.569763,0.136353,0.704041,down
507758,7.542969,7.054687,3.132813,-0.3125,0.511719,-0.402344,0.401367,0.569763,0.136353,0.704041,down
507763,7.503906,7.015625,3.207031,-0.453125,0.599609,-0.376953,0.401367,0.569763,0.136353,0.704041,down
507768,7.542969,7.09375,3.324219,-0.453125,0.599609,-0.376953,0.404663,0.564941,0.137451,0.705872,down
507773,7.542969,7.09375,3.324219,-0.453125,0.599609,-0.376953,0.404663,0.564941,0.137451,0.705872,down
507778,7.503906,7.09375,3.398438,-0.474609,0.634766,-0.361328,0.404663,0.564941,0.137451,0.705872,down
507783,7.503906,7.132812,3.359375,-0.474609,0.634766,-0.361328,0.407959,0.559692,0.138367,0.707886,down
507788,7.503906,7.207031,3.359375,-0.474609,0.634766,-0.361328,0.408997,0.558105,0.138672,0.708557,down
507793,7.503906,7.285156,3.398438,-0.474609,0.634766,-0.361328,0.408997,0.558105,0.138672,0.708557,down
507798,7.5,7.324219,3.398438,-0.451172,0.646484,-0.337891,0.408997,0.558105,0.138672,0.708557,down
507803,7.460937,7.324219,3.359375,-0.451172,0.646484,-0.337891,0.411133,0.554565,0.139282,0.709961,down
507808,7.460937,7.324219,3.359375,-0.451172,0.646484,-0.337891,0.411133,0.554565,0.139282,0.709961,down
507813,7.425781,7.324219,3.359375,-0.453125,0.677734,-0.339844,0.411133,0.554565,0.139282,0.709961,down
507818,7.425781,7.398437,3.398438,-0.460937,0.746094,-0.328125,0.414062,0.549133,0.140381,0.712219,down
507823,7.425781,7.398437,3.398438,-0.460937,0.746094,-0.328125,0.414062,0.549133,0.140381,0.712219,down
507828,7.425781,7.441406,3.359375,-0.482422,0.794922,-0.333984,0.416077,0.545044,0.141235,0.71405,down
507833,7.460937,7.363281,3.4375,-0.482422,0.794922,-0.333984,0.418335,0.5401,0.142029,0.716309,down
507838,7.460937,7.285156,3.589844,-0.482422,0.794922,-0.333984,0.419312,0.537903,0.142395,0.717346,down
507843,7.425781,7.09375,3.667969,-0.482422,0.794922,-0.333984,0.419312,0.537903,0.142395,0.717346,down
507848,7.3125,7.054687,3.589844,-0.642578,1.095703,-0.349609,0.419312,0.537903,0.142395,0.717346,down
507853,7.160156,7.164062,3.746094,-0.625,1.126953,-0.328125,0.419312,0.537903,0.142395,0.717346,down
507858,7.160156,7.164062,3.746094,-0.625,1.126953,-0.328125,0.423462,0.526855,0.144348,0.722656,down
507863,7.195312,7.28125,4.089844,-0.625,1.126953,-0.328125,0.423462,0.526855,0.144348,0.722656,down
507868,7.195312,7.320312,4.203125,-0.4375,1.083984,-0.289063,0.423462,0.526855,0.144348,0.722656,down
507873,7.273437,7.515625,4.28125,-0.4375,1.083984,-0.289063,0.42511,0.521606,0.145691,0.725281,down
507878,7.273437,7.554687,4.28125,-0.4375,1.083984,-0.289063,0.425781,0.518982,0.146484,0.726562,down
507883,7.234375,7.664062,4.242187,-0.339844,1.111328,-0.279297,0.425781,0.518982,0.146484,0.726562,down
507888,7.234375,7.664062,4.242187,-0.279297,1.107422,-0.28125,0.42688,0.513977,0.148315,0.729065,down
507893,7.273437,7.863281,4.355469,-0.207031,1.175781,-0.287109,0.42688,0.513977,0.148315,0.729065,down
507898,7.273437,8.050781,4.355469,-0.207031,1.175781,-0.287109,0.427734,0.509277,0.150574,0.731506,down
507903,7.273437,8.089844,4.28125,-0.207031,1.175781,-0.287109,0.428101,0.50647,0.151917,0.73291,down
507908,7.234375,8.128906,4.28125,-0.28125,1.314453,-0.279297,0.428101,0.50647,0.151917,0.73291,down
507913,7.234375,8.128906,4.28125,-0.28125,1.314453,-0.279297,0.429382,0.497803,0.155273,0.737366,down
507918,7.121094,8.046875,4.320312,-0.28125,1.314453,-0.279297,0.429382,0.497803,0.155273,0.737366,down
507923,7.042969,8.007813,4.28125,-0.794922,1.605469,-0.244141,0.429382,0.497803,0.155273,0.737366,down
507928,6.96875,7.785156,4.242187,-0.794922,1.605469,-0.244141,0.430725,0.490601,0.156738,0.741089,down
507933,6.929687,7.707031,4.320312,-0.794922,1.605469,-0.244141,0.431641,0.486328,0.157227,0.743286,down
507938,6.929687,7.554687,4.433594,-1.162109,1.763672,-0.236328,0.431641,0.486328,0.157227,0.743286,down
507943,6.96875,7.4375,4.625,-1.162109,1.763672,-0.236328,0.433777,0.477234,0.157593,0.747803,down
507949,6.890625,7.515625,4.738281,-1.162109,1.763672,-0.236328,0.434937,0.472534,0.157593,0.750122,down
507954,6.890625,7.515625,4.738281,-1.212891,1.919922,-0.242187,0.435974,0.467957,0.157654,0.75238,down
507959,6.777344,7.585937,4.855469,-1.212891,1.919922,-0.242187,0.437073,0.462952,0.157837,0.754822,down
507964,6.429687,7.824219,4.933594,-1.134766,2.076172,-0.251953,0.43811,0.457581,0.158142,0.757385,down
507969,6.429687,7.824219,4.933594,-1.078125,2.148438,-0.255859,0.439026,0.452332,0.15863,0.759949,down
507975,6.085937,8.128906,5.390625,-1.013672,2.179688,-0.205078,0.439026,0.452332,0.15863,0.759949,down
507980,6.007812,8.164063,5.507812,-0.998047,2.201172,-0.167969,0.439026,0.452332,0.15863,0.759949,down
507985,5.894531,8.242188,5.507812,-0.998047,2.201172,-0.167969,0.441589,0.430664,0.161377,0.770386,down
507992,5.703125,8.320313,5.773437,-0.998047,2.201172,-0.167969,0.441589,0.430664,0.161377,0.770386,down
507998,5.703125,8.28125,5.851562,-1.113281,2.216797,0.037109,0.441589,0.430664,0.161377,0.770386,down
508003,5.550781,8.164063,6.082031,-1.113281,2.216797,0.037109,0.442444,0.414246,0.162964,0.778564,down
508009,5.472656,8.089844,6.121094,-1.263672,2.208984,0.115234,0.442444,0.414246,0.162964,0.778564,down
508014,5.511719,7.972656,6.234375,-1.263672,2.208984,0.115234,0.442932,0.396851,0.16272,0.787292,down
508020,5.320312,7.589844,6.425781,-1.263672,2.208984,0.115234,0.443054,0.391602,0.162354,0.789917,down
508025,5.320312,7.589844,6.425781,-1.480469,2.216797,0.191406,0.443237,0.385315,0.161682,0.79303,down
508030,5.320312,7.320312,6.539062,-1.480469,2.216797,0.191406,0.44342,0.379578,0.161011,0.795837,down
508035,5.359375,7.203125,6.65625,-1.480469,2.216797,0.191406,0.443604,0.372864,0.160095,0.799133,down
508040,5.28125,7.058594,6.730469,-1.480469,2.216797,0.191406,0.443604,0.372864,0.160095,0.799133,down
508045,5.28125,7.058594,6.730469,-1.707031,2.359375,0.226562,0.443604,0.372864,0.160095,0.799133,down
508050,5.28125,7.058594,6.730469,-1.707031,2.359375,0.226562,0.443909,0.359985,0.158203,0.805176,down
508056,5.167969,6.785156,6.960937,-1.671875,2.404297,0.214844,0.444153,0.347351,0.156494,0.810913,down
508061,4.976562,6.632812,7.078125,-1.671875,2.404297,0.214844,0.444153,0.347351,0.156494,0.810913,down
508066,4.976562,6.632812,7.078125,-1.621094,2.556641,0.234375,0.444092,0.333496,0.154907,0.817017,down
508071,4.4375,6.402344,7.113281,-1.621094,2.556641,0.234375,0.444092,0.333496,0.154907,0.817017,down
508076,4.246094,6.210937,7.308594,-1.621094,2.556641,0.234375,0.444092,0.333496,0.154907,0.817017,down
508081,4.09375,6.136719,7.347656,-1.505859,2.548828,0.294922,0.444092,0.333496,0.154907,0.817017,down
508086,3.980469,6.058594,7.421875,-1.423828,2.539063,0.322266,0.444092,0.333496,0.154907,0.817017,down
508092,3.863281,6.019531,7.652344,-1.333984,2.546875,0.335938,0.444092,0.333496,0.154907,0.817017,down
508098,3.828125,5.90625,7.726562,-1.226563,2.539063,0.351563,0.444092,0.333496,0.154907,0.817017,down
508103,3.75,5.828125,7.808594,-1.138672,2.539063,0.361328,0.444092,0.333496,0.154907,0.817017,down
508108,3.632813,5.789062,7.84375,-1.076172,2.525391,0.365234,0.444092,0.333496,0.154907,0.817017,down
508113,3.558594,5.753906,7.914062,-1.076172,2.525391,0.365234,0.438904,0.273682,0.152832,0.842102,down
508119,3.597656,5.675781,7.914062,-1.091797,2.515625,0.390625,0.438904,0.273682,0.152832,0.842102,down
508124,3.558594,5.597656,7.886719,-1.091797,2.515625,0.390625,0.435669,0.254028,0.153442,0.849792,down
508129,3.367188,5.40625,7.84375,-1.091797,2.515625,0.390625,0.435669,0.254028,0.153442,0.849792,down
508134,3.367188,5.40625,7.84375,-1.21875,2.560547,0.410156,0.434692,0.247986,0.153442,0.852051,down
508139,3.214844,5.40625,7.765625,-1.21875,2.560547,0.410156,0.433594,0.24115,0.15332,0.854614,down
508144,3.214844,5.40625,7.765625,-1.345703,2.650391,0.416016,0.432495,0.234314,0.153137,0.857117,down
508149,3.058594,5.292969,7.730469,-1.408203,2.708984,0.421875,0.432495,0.234314,0.153137,0.857117,down
508154,2.5625,5.0625,7.882812,-1.408203,2.708984,0.421875,0.429077,0.212524,0.151855,0.864685,down
508159,2.410156,5.140625,7.953125,-1.408203,2.708984,0.421875,0.427856,0.204834,0.151123,0.867249,down
508164,2.253906,5.023437,7.992187,-1.576172,2.757813,0.519531,0.426514,0.197449,0.150452,0.869751,down
508169,1.949219,4.71875,8.226563,-1.544922,2.707031,0.568359,0.426514,0.197449,0.150452,0.869751,down
508175,1.71875,4.640625,8.570313,-1.544922,2.707031,0.568359,0.423523,0.182678,0.148926,0.874695,down
508180,1.679688,4.71875,8.722656,-1.394531,2.537109,0.701172,0.421814,0.175842,0.148193,0.877014,down
508186,1.644531,4.71875,8.875,-1.394531,2.537109,0.701172,0.419922,0.169312,0.147583,0.879333,down
508192,1.453125,4.679687,9.105469,-1.394531,2.537109,0.701172,0.417786,0.162964,0.147156,0.881592,down
508198,1.414063,4.679687,9.179688,-0.964844,2.203125,0.847656,0.417786,0.162964,0.147156,0.881592,down
508203,1.375,4.640625,9.261719,-0.964844,2.203125,0.847656,0.413208,0.151733,0.14679,0.885803,down
508209,1.296875,4.601562,9.261719,-0.730469,1.796875,0.898437,0.413208,0.151733,0.14679,0.885803,down
508214,1.183594,4.601562,9.257813,-0.730469,1.796875,0.898437,0.408508,0.142212,0.146606,0.889587,down
508219,0.992187,4.335937,9.257813,-0.712891,1.685547,0.902344,0.408508,0.142212,0.146606,0.889587,down
508224,0.992187,4.183594,9.335938,-0.759766,1.488281,0.898437,0.40387,0.133911,0.14624,0.893066,down
508229,0.992187,4.183594,9.335938,-0.759766,1.488281,0.898437,0.401428,0.129822,0.145813,0.894836,down
508234,0.953125,4.066406,9.296875,-0.785156,1.417969,0.894531,0.401428,0.129822,0.145813,0.894836,down
508239,0.800781,3.914063,9.414063,-0.837891,1.339844,0.884766,0.401428,0.129822,0.145813,0.894836,down
508245,0.800781,3.914063,9.414063,-0.902344,1.287109,0.867187,0.39502,0.119385,0.143616,0.899475,down
508250,0.800781,3.835938,9.300781,-0.988281,1.25,0.835937,0.39502,0.119385,0.143616,0.899475,down
508255,0.761719,3.835938,9.070313,-1.058594,1.222656,0.824219,0.39093,0.112366,0.141174,0.902588,down
508260,0.648437,3.683594,9.144531,-1.117188,1.208984,0.808594,0.387085,0.105225,0.138,0.905579,down
508266,0.53125,3.570313,9.035156,-1.117188,1.208984,0.808594,0.385254,0.101685,0.136292,0.906982,down
508272,0.378906,3.53125,8.917969,-1.208984,1.21875,0.785156,0.385254,0.101685,0.136292,0.906982,down
508278,0.1875,3.800781,8.6875,-1.208984,1.21875,0.785156,0.385254,0.101685,0.136292,0.906982,down
508283,-0.003906,3.914063,8.691406,-1.160156,1.167969,0.808594,0.385254,0.101685,0.136292,0.906982,down
508288,-0.121094,3.800781,8.71875,-1.109375,1.113281,0.837891,0.385254,0.101685,0.136292,0.906982,down
508293,-0.15625,3.761719,8.757813,-1.109375,1.113281,0.837891,0.375671,0.084229,0.127686,0.914062,down
508298,-0.15625,3.683594,8.839844,-1.109375,1.113281,0.837891,0.373657,0.081299,0.126099,0.915344,down
508304,-0.234375,3.683594,8.878906,-0.919922,0.882812,0.960937,0.373657,0.081299,0.126099,0.915344,down
508309,-0.195312,3.722656,8.957031,-0.839844,0.789062,1.017578,0.373657,0.081299,0.126099,0.915344,down
508314,-0.121094,3.800781,8.992188,-0.732422,0.576172,1.097656,0.366699,0.074036,0.121765,0.919373,down
508320,-0.15625,3.761719,8.953125,-0.732422,0.576172,1.097656,0.361511,0.070557,0.118958,0.922058,down
508325,-0.195312,3.644531,8.800781,-0.757812,0.388672,1.132813,0.358887,0.069153,0.117371,0.923401,down
508331,-0.234375,3.378906,8.53125,-0.757812,0.388672,1.132813,0.356628,0.068115,0.115845,0.924561,down
508337,-0.273438,3.070313,8.53125,-0.847656,0.255859,1.101563,0.356628,0.068115,0.115845,0.924561,down
508342,-0.3125,2.839844,8.496094,-0.908203,0.197266,1.074219,0.356628,0.068115,0.115845,0.924561,down
508347,-0.386719,2.726563,8.457031,-0.908203,0.197266,1.074219,0.356628,0.068115,0.115845,0.924561,down
508352,-0.425781,2.6875,8.414063,-0.945312,0.154297,1.041016,0.356628,0.068115,0.115845,0.924561,down
508357,-0.503906,2.574219,8.492188,-0.972656,0.121094,0.96875,0.345215,0.063416,0.105286,0.93042,down
508362,-0.503906,2.574219,8.492188,-0.972656,0.121094,0.96875,0.345215,0.063416,0.105286,0.93042,down
508368,-0.386719,2.726563,9.070313,-0.931641,0.117188,0.943359,0.341125,0.061768,0.100891,0.932556,down
508373,-0.347656,2.535156,9.105469,-0.931641,0.117188,0.943359,0.33905,0.061035,0.098877,0.933594,down
508379,-0.347656,2.417969,8.957031,-0.75,0.107422,0.964844,0.33905,0.061035,0.098877,0.933594,down
508384,-0.386719,2.34375,8.957031,-0.75,0.107422,0.964844,0.334839,0.059753,0.095215,0.935547,down
508389,-0.347656,2.226563,8.878906,-0.669922,0.154297,1.052734,0.332642,0.059143,0.093567,0.936523,down
508394,-0.503906,2.191406,8.757813,-0.669922,0.154297,1.052734,0.330139,0.058411,0.091858,0.937622,down
508400,-0.578125,2.074219,8.722656,-0.650391,0.162109,1.103516,0.32782,0.057739,0.090271,0.93866,down
508405,-0.578125,1.960938,8.757813,-0.650391,0.162109,1.103516,0.323181,0.056519,0.087341,0.940613,down
508410,-0.578125,1.960938,8.875,-0.609375,0.091797,1.125,0.320435,0.055969,0.085632,0.941711,down
508415,-0.695312,2.074219,9.074219,-0.609375,0.091797,1.125,0.31781,0.055603,0.084167,0.942749,down
508420,-0.617187,2.152344,9.183594,-0.609375,0.091797,1.125,0.315552,0.05542,0.082886,0.943665,down
508425,-0.695312,2.152344,9.179688,-0.384766,-0.113281,1.111328,0.312927,0.055481,0.081604,0.944641,down
508430,-0.695312,2.152344,9.179688,-0.289063,-0.191406,1.107422,0.310669,0.055786,0.080627,0.945435,down
508436,-0.808594,2.34375,9.414063,-0.263672,-0.244141,1.105469,0.307983,0.056396,0.079529,0.94635,down
508441,-0.234375,1.769531,8.914063,-0.263672,-0.244141,1.105469,0.305786,0.057007,0.078613,0.947144,down
508447,-0.15625,2.035156,8.953125,-0.326172,-0.367188,1.113281,0.303345,0.0578,0.077454,0.947937,down
508453,-0.273438,2.226563,8.800781,-0.349609,-0.408203,1.152344,0.303345,0.0578,0.077454,0.947937,down
508458,-0.3125,1.769531,8.917969,-0.349609,-0.408203,1.152344,0.303345,0.0578,0.077454,0.947937,down
508464,-0.273438,1.460938,8.953125,-0.46875,-0.490234,1.263672,0.303345,0.0578,0.077454,0.947937,down
508469,-0.234375,1.308594,8.992188,-0.537109,-0.533203,1.320313,0.289856,0.062988,0.06958,0.952454,down
508474,-0.464844,1.195313,9.144531,-0.537109,-0.533203,1.320313,0.289856,0.062988,0.06958,0.952454,down
508479,-0.464844,1.039063,9.261719,-0.537109,-0.533203,1.320313,0.286621,0.064331,0.067566,0.953491,down
508484,-0.425781,0.847656,9.339844,-0.380859,-0.728516,1.59375,0.286621,0.064331,0.067566,0.953491,down
508489,-0.386719,0.3125,9.414063,-0.380859,-0.728516,1.59375,0.279907,0.067505,0.063843,0.955505,down
508494,-0.234375,0.160156,9.339844,-0.380859,-0.728516,1.59375,0.276062,0.069458,0.062195,0.956604,down
508500,-0.195312,0.160156,9.335938,0.179687,-0.857422,1.705078,0.276062,0.069458,0.062195,0.956604,down
508505,-0.15625,0.234375,9.527344,0.179687,-0.857422,1.705078,0.264526,0.076416,0.060059,0.959473,down
508511,-0.15625,0.695312,9.566406,0.179687,-0.857422,1.705078,0.264526,0.076416,0.060059,0.959473,down
508516,-0.15625,0.847656,9.566406,0.685547,-1.074219,1.798828,0.260742,0.079224,0.060364,0.960266,down
508521,-0.15625,0.847656,9.566406,0.685547,-1.074219,1.798828,0.256348,0.082886,0.061218,0.96106,down
508526,0.035156,0.734375,9.527344,1.082031,-1.423828,1.916016,0.251831,0.086975,0.062317,0.961853,down
508531,0.035156,0.734375,9.527344,1.238281,-1.615234,1.980469,0.247131,0.091736,0.063782,0.962524,down
508536,0.035156,0.734375,9.527344,1.238281,-1.615234,1.980469,0.237427,0.102844,0.066895,0.963623,down
508543,0.300781,1.039063,9.566406,1.238281,-1.615234,1.980469,0.237427,0.102844,0.066895,0.963623,down
508548,0.378906,1.078125,9.257813,1.238281,-1.615234,1.980469,0.227112,0.116455,0.069641,0.964355,down
508554,0.378906,1.078125,9.144531,1.279297,-2.742188,2.289063,0.227112,0.116455,0.069641,0.964355,down
508559,0.492187,1.039063,9.105469,1.191406,-2.966797,2.369141,0.210876,0.140442,0.071655,0.964722,down
508564,0.609375,0.773437,8.796875,1.191406,-2.966797,2.369141,0.210876,0.140442,0.071655,0.964722,down
508570,0.800781,0.390625,8.613281,1.037109,-3.501953,2.529297,0.210876,0.140442,0.071655,0.964722,down
508575,0.914062,-0.183594,8.414063,1.037109,-3.501953,2.529297,0.193237,0.168884,0.071228,0.963867,down
508580,1.566406,-1.105469,8.453125,1.037109,-3.501953,2.529297,0.193237,0.168884,0.071228,0.963867,down
508585,1.757813,-1.144531,8.414063,1.037109,-3.501953,2.529297,0.187012,0.179321,0.070984,0.963257,down
508590,1.757813,-1.144531,8.414063,1.355469,-3.755859,2.537109,0.175781,0.198181,0.071777,0.961609,down
508595,1.796875,-1.144531,8.296875,1.355469,-3.755859,2.537109,0.175781,0.198181,0.071777,0.961609,down
508600,2.179688,-1.21875,7.464844,1.921875,-3.779297,2.433594,0.169556,0.20874,0.07312,0.960388,down
508605,2.179688,-1.21875,7.464844,1.921875,-3.779297,2.433594,0.169556,0.20874,0.07312,0.960388,down
508610,2.332031,-0.644531,7.226562,2.542969,-3.974609,2.330078,0.169556,0.20874,0.07312,0.960388,down
508616,2.792969,1.308594,7.347656,2.542969,-3.974609,2.330078,0.14502,0.251526,0.084229,0.953186,down
508622,2.753906,2.0,7.230469,2.542969,-3.974609,2.330078,0.138611,0.263,0.087952,0.950745,down
508627,2.792969,2.152344,7.148437,2.892578,-4.238281,2.214844,0.132507,0.274231,0.091736,0.948059,down
508633,2.984375,2.226563,6.925781,2.810547,-4.376953,2.150391,0.132507,0.274231,0.091736,0.948059,down
508639,3.289063,2.457031,7.078125,2.810547,-4.376953,2.150391,0.132507,0.274231,0.091736,0.948059,down
508644,3.597656,2.613281,7.082031,2.445313,-4.626953,2.091797,0.132507,0.274231,0.091736,0.948059,down
508649,3.597656,2.613281,7.082031,2.169922,-4.742187,2.060547,0.10968,0.321777,0.104492,0.934631,down
508654,3.863281,2.535156,7.226562,1.835938,-4.832031,2.046875,0.10968,0.321777,0.104492,0.934631,down
508659,3.863281,2.535156,7.226562,1.4375,-4.863281,2.027344,0.099792,0.346436,0.106995,0.926575,down
508664,5.242187,0.925781,6.621094,1.4375,-4.863281,2.027344,0.099792,0.346436,0.106995,0.926575,down
508669,5.242187,0.925781,6.621094,1.056641,-4.835937,1.966797,0.091431,0.370483,0.105957,0.918213,down
508674,6.65625,0.773437,6.425781,1.056641,-4.835937,1.966797,0.087891,0.381775,0.104431,0.914124,down
508680,7.117187,0.925781,6.273437,0.265625,-4.09375,1.732422,0.087891,0.381775,0.104431,0.914124,down
508685,7.273437,1.078125,6.273437,0.265625,-4.09375,1.732422,0.078308,0.412231,0.098694,0.902344,down
508690,6.777344,1.347656,6.273437,0.265625,-4.09375,1.732422,0.078308,0.412231,0.098694,0.902344,down
508695,6.621094,1.347656,5.734375,0.865234,-3.425781,1.515625,0.075012,0.421082,0.097839,0.898621,down
508700,6.621094,1.347656,5.734375,0.865234,-3.425781,1.515625,0.075012,0.421082,0.097839,0.898621,down
508705,6.355469,1.230469,5.277344,1.580078,-3.150391,1.376953,0.075012,0.421082,0.097839,0.898621,down
508710,6.355469,1.230469,5.277344,1.886719,-3.175781,1.322266,0.063599,0.444458,0.100891,0.887817,down
508715,6.699219,2.265625,4.585937,1.886719,-3.175781,1.322266,0.059509,0.452148,0.10321,0.883972,down
508720,6.773437,2.535156,5.046875,1.869141,-3.267578,1.0,0.055481,0.460022,0.105896,0.879822,down
508725,7.582031,2.382813,4.625,1.869141,-3.267578,1.0,0.051636,0.468201,0.108521,0.875427,down
508730,7.738281,2.035156,4.203125,1.669922,-3.240234,0.896484,0.046021,0.482849,0.11261,0.867249,down
508735,7.84375,1.460938,4.011719,1.669922,-3.240234,0.896484,0.046021,0.482849,0.11261,0.867249,down
508740,7.886719,1.003906,3.9375,0.800781,-3.236328,0.621094,0.046021,0.482849,0.11261,0.867249,down
508745,8.1875,0.695312,4.011719,0.800781,-3.236328,0.621094,0.042297,0.49762,0.114868,0.858704,down
508751,8.539063,0.695312,3.707031,0.556641,-3.166016,0.59375,0.040344,0.511414,0.11499,0.850647,down
508756,8.964844,0.621094,3.515625,0.128906,-2.931641,0.548828,0.039734,0.518677,0.11438,0.846375,down
508761,9.570313,1.039063,3.859375,0.128906,-2.931641,0.548828,0.039429,0.524963,0.113525,0.84259,down
508766,9.53125,1.347656,3.859375,0.128906,-2.931641,0.548828,0.039429,0.524963,0.113525,0.84259,down
508771,9.53125,1.347656,3.859375,0.070312,-2.478516,0.451172,0.039185,0.529907,0.112854,0.8396,down
508776,9.226563,1.730469,3.628906,0.162109,-2.275391,0.433594,0.039185,0.529907,0.112854,0.8396,down
508781,8.421875,2.417969,3.707031,0.298828,-2.138672,0.396484,0.03833,0.539856,0.111938,0.833374,down
508786,8.421875,2.417969,3.707031,0.505859,-2.064453,0.335938,0.037659,0.544373,0.112061,0.830505,down
508791,7.960937,2.839844,3.820313,0.505859,-2.064453,0.335938,0.036804,0.548889,0.112671,0.827454,down
508796,7.960937,2.839844,3.820313,0.585937,-2.152344,0.242187,0.036804,0.548889,0.112671,0.827454,down
508801,7.960937,2.6875,3.746094,0.390625,-2.238281,0.230469,0.034668,0.562866,0.114685,0.81781,down
508806,8.308594,2.074219,3.707031,0.390625,-2.238281,0.230469,0.034546,0.567078,0.114624,0.814941,down
508811,8.582031,1.578125,3.589844,-0.132812,-2.353516,0.205078,0.034912,0.57251,0.114014,0.811157,down
508817,9.265625,0.773437,2.976563,-0.132812,-2.353516,0.205078,0.035522,0.576721,0.113098,0.808289,down
508822,9.375,0.847656,3.054688,-0.523437,-2.300781,0.068359,0.035522,0.576721,0.113098,0.808289,down
508828,9.496094,0.8125,2.902344,-0.537109,-2.185547,-0.041016,0.035522,0.576721,0.113098,0.808289,down
508834,9.496094,0.847656,2.75,-0.517578,-2.050781,-0.152344,0.035522,0.576721,0.113098,0.808289,down
508840,9.226563,1.269531,2.671875,-0.517578,-2.050781,-0.152344,0.035522,0.576721,0.113098,0.808289,down
508845,9.152344,1.730469,2.328125,-0.326172,-1.769531,-0.328125,0.035522,0.576721,0.113098,0.808289,down
508850,8.996094,2.574219,2.328125,-0.171875,-1.654297,-0.396484,0.035522,0.576721,0.113098,0.808289,down
508855,8.996094,2.574219,2.328125,-0.171875,-1.654297,-0.396484,0.047607,0.606689,0.108398,0.786072,down
508860,8.652344,2.957031,2.136719,-0.171875,-1.654297,-0.396484,0.047607,0.606689,0.108398,0.786072,down
508865,8.609375,2.957031,2.210938,0.121094,-1.376953,-0.472656,0.047607,0.606689,0.108398,0.786072,down
508870,8.609375,2.957031,2.210938,0.119141,-1.353516,-0.451172,0.049988,0.611938,0.109863,0.781616,down
508875,8.503906,3.070313,2.328125,0.119141,-1.353516,-0.451172,0.049988,0.611938,0.109863,0.781616,down
508880,8.542969,2.996094,2.25,-0.105469,-1.337891,-0.382813,0.052368,0.617004,0.110901,0.777344,down
508885,8.542969,2.996094,2.25,-0.332031,-1.355469,-0.361328,0.053772,0.619446,0.11084,0.77533,down
508890,8.730469,2.535156,2.25,-0.332031,-1.355469,-0.361328,0.055664,0.622009,0.110291,0.773254,down
508895,8.613281,2.304688,2.289063,-1.095703,-1.337891,-0.384766,0.057861,0.62439,0.109253,0.77124,down
508900,8.578125,2.152344,2.171875,-1.095703,-1.337891,-0.384766,0.06073,0.626953,0.107666,0.769226,down
508905,8.609375,1.921875,2.097656,-1.310547,-1.267578,-0.509766,0.063721,0.62915,0.105835,0.767395,down
508910,8.609375,1.921875,2.097656,-1.273438,-1.203125,-0.611328,0.066956,0.631287,0.103943,0.765625,down
508915,9.113281,1.039063,1.753906,-1.273438,-1.203125,-0.611328,0.070251,0.633179,0.102234,0.763977,down
508921,9.191406,1.078125,1.675781,-1.150391,-1.134766,-0.744141,0.077698,0.636902,0.099609,0.760498,down
508926,8.886719,1.425781,1.523438,-1.150391,-1.134766,-0.744141,0.077698,0.636902,0.099609,0.760498,down
508931,8.808594,1.617188,1.445313,-0.886719,-0.976562,-0.931641,0.08429,0.639709,0.098816,0.757568,down
508936,8.726563,1.84375,1.5625,-0.650391,-0.830078,-1.080078,0.088013,0.641052,0.098999,0.755981,down
508941,8.265625,2.574219,1.945313,-0.650391,-0.830078,-1.080078,0.088013,0.641052,0.098999,0.755981,down
508946,8.265625,2.574219,1.945313,-0.425781,-0.757812,-1.107422,0.093994,0.643127,0.100037,0.753357,down
508951,8.078125,3.03125,2.25,-0.351563,-0.767578,-1.089844,0.093994,0.643127,0.100037,0.753357,down
508956,8.0,3.222656,2.480469,-0.351563,-0.767578,-1.089844,0.099976,0.645386,0.101868,0.750366,down
508962,7.582031,3.414063,2.632813,-0.351563,-0.767578,-1.089844,0.102478,0.646484,0.1026,0.749023,down
508967,7.65625,3.261719,2.59375,-0.486328,-0.880859,-0.927734,0.105164,0.647705,0.103149,0.747498,down
508973,7.777344,3.300781,2.519531,-0.601562,-0.955078,-0.863281,0.105164,0.647705,0.103149,0.747498,down
508978,7.921875,3.300781,2.402344,-0.746094,-1.021484,-0.804687,0.105164,0.647705,0.103149,0.747498,down
508983,8.539063,3.148438,1.90625,-0.746094,-1.021484,-0.804687,0.113953,0.651978,0.102661,0.742554,down
508989,8.804688,3.109375,1.714844,-1.009766,-1.095703,-0.78125,0.113953,0.651978,0.102661,0.742554,down
508994,9.03125,2.996094,1.484375,-1.095703,-1.113281,-0.820312,0.113953,0.651978,0.102661,0.742554,down
508999,9.378906,2.804688,1.175781,-1.095703,-1.113281,-0.820312,0.113953,0.651978,0.102661,0.742554,down
509005,9.492188,2.6875,1.140625,-1.095703,-1.113281,-0.820312,0.128601,0.65802,0.098755,0.735291,down
509010,9.492188,2.6875,1.140625,-1.173828,-0.986328,-1.023438,0.132568,0.659241,0.0979,0.733643,down
509015,9.492188,2.6875,1.140625,-1.117188,-0.912109,-1.117188,0.136475,0.660278,0.09729,0.732056,down
509020,9.917969,2.648438,0.949219,-1.117188,-0.912109,-1.117188,0.136475,0.660278,0.09729,0.732056,down
509025,9.957031,2.957031,0.910156,-1.015625,-0.808594,-1.205078,0.136475,0.660278,0.09729,0.732056,down
509030,9.957031,2.957031,0.910156,-0.753906,-0.603516,-1.449219,0.148682,0.662537,0.097412,0.727661,down
509035,9.1875,4.144531,1.675781,-0.753906,-0.603516,-1.449219,0.152649,0.662964,0.098083,0.726318,down
509041,8.84375,4.105469,1.714844,-0.677734,-0.583984,-1.478516,0.152649,0.662964,0.098083,0.726318,down
509046,8.609375,4.066406,1.789063,-0.677734,-0.583984,-1.478516,0.164917,0.664307,0.101074,0.721985,down
509051,8.613281,4.066406,1.753906,-0.677734,-0.583984,-1.478516,0.168335,0.664856,0.10199,0.720581,down
509056,8.882813,4.105469,1.714844,-0.677734,-0.583984,-1.478516,0.172363,0.665588,0.102905,0.718811,down
509061,9.1875,4.257812,1.523438,-0.746094,-0.765625,-1.25,0.172363,0.665588,0.102905,0.718811,down
509066,9.417969,4.410156,1.40625,-0.746094,-0.765625,-1.25,0.179565,0.666931,0.10376,0.715698,down
509071,9.800781,4.488281,1.253906,-0.982422,-0.779297,-1.158203,0.179565,0.666931,0.10376,0.715698,down
509076,9.878906,4.449219,1.101563,-0.982422,-0.779297,-1.158203,0.1875,0.668213,0.103516,0.712463,down
509081,9.953125,4.488281,1.0625,-1.013672,-0.669922,-1.160156,0.1875,0.668213,0.103516,0.712463,down
509086,9.878906,4.601562,1.023438,-1.013672,-0.669922,-1.160156,0.195068,0.669006,0.10321,0.709717,down
509092,9.609375,5.0625,0.910156,-1.013672,-0.669922,-1.160156,0.198792,0.66925,0.103394,0.708496,down
509097,9.496094,5.292969,0.949219,-0.794922,-0.439453,-1.236328,0.202393,0.669312,0.10376,0.707275,down
509103,9.304688,5.445312,0.910156,-0.767578,-0.380859,-1.242188,0.206116,0.669312,0.104309,0.706177,down
509108,8.960938,5.523437,1.0625,-0.767578,-0.380859,-1.242188,0.209595,0.66925,0.104858,0.705139,down
509114,8.808594,5.675781,1.214844,-0.800781,-0.314453,-1.216797,0.209595,0.66925,0.104858,0.705139,down
509119,8.582031,5.753906,1.445313,-0.800781,-0.308594,-1.195313,0.209595,0.66925,0.104858,0.705139,down
509125,8.386719,5.445312,1.597656,-0.826172,-0.341797,-1.179688,0.209595,0.66925,0.104858,0.705139,down
509130,8.386719,5.445312,1.597656,-0.851562,-0.392578,-1.171875,0.223816,0.668518,0.106506,0.701172,down
509135,8.34375,5.445312,1.523438,-0.886719,-0.453125,-1.164063,0.227417,0.668457,0.10675,0.700073,down
509140,8.34375,5.445312,1.523438,-0.927734,-0.539062,-1.148438,0.231018,0.668518,0.106812,0.698792,down
509145,8.691406,5.445312,1.636719,-0.927734,-0.539062,-1.148438,0.231018,0.668518,0.106812,0.698792,down
509150,8.691406,5.445312,1.636719,-0.984375,-0.617187,-1.148438,0.238586,0.668823,0.106628,0.695984,down
509156,9.113281,5.636719,1.484375,-0.984375,-0.617187,-1.148438,0.246338,0.669067,0.106445,0.693054,down
509161,9.03125,5.828125,1.523438,-0.984375,-0.617187,-1.148438,0.249817,0.669067,0.106567,0.691772,down
509167,9.035156,5.945312,1.367188,-0.804687,-0.396484,-1.197266,0.253479,0.669006,0.106873,0.690491,down
509172,8.84375,5.945312,1.367188,-0.804687,-0.396484,-1.197266,0.256897,0.668762,0.107361,0.689392,down
509177,8.730469,5.945312,1.332031,-0.705078,-0.230469,-1.248047,0.26062,0.668396,0.108032,0.688232,down
509182,8.503906,5.980469,1.445313,-0.705078,-0.230469,-1.248047,0.263611,0.667969,0.108704,0.687378,down
509187,8.082031,6.019531,1.789063,-0.710937,-0.164062,-1.242188,0.267334,0.667419,0.109558,0.686401,down
509192,8.082031,6.019531,1.789063,-0.71875,-0.193359,-1.214844,0.270386,0.666931,0.110229,0.685547,down
509198,7.0,5.636719,1.714844,-0.71875,-0.193359,-1.214844,0.273621,0.666504,0.11084,0.68457,down
509204,7.160156,5.867187,1.597656,-0.726562,-0.371094,-1.117188,0.273621,0.666504,0.11084,0.68457,down
509209,7.351562,6.097656,1.523438,-0.746094,-0.460937,-1.072266,0.273621,0.666504,0.11084,0.68457,down
509215,7.617187,6.367187,1.40625,-0.820312,-0.523437,-1.048828,0.273621,0.666504,0.11084,0.68457,down
509220,7.773437,6.441406,1.445313,-0.818359,-0.603516,-1.054688,0.273621,0.666504,0.11084,0.68457,down
509225,7.882812,6.402344,1.367188,-0.818359,-0.603516,-1.054688,0.289978,0.666199,0.111572,0.677979,down
509231,8.039063,6.328125,1.332031,-0.753906,-0.605469,-1.089844,0.289978,0.666199,0.111572,0.677979,down
509236,8.117188,6.328125,1.292969,-0.753906,-0.605469,-1.089844,0.296692,0.666504,0.111816,0.674683,down
509241,8.15625,6.367187,1.253906,-0.671875,-0.486328,-1.123047,0.296692,0.666504,0.111816,0.674683,down
509246,8.117188,6.558594,1.253906,-0.671875,-0.486328,-1.123047,0.303101,0.666748,0.112549,0.671509,down
509252,8.117188,6.632812,1.101563,-0.671875,-0.486328,-1.123047,0.309265,0.666321,0.113037,0.669006,down
509257,8.121094,6.59375,1.140625,-1.009766,-0.232422,-1.046875,0.313049,0.66571,0.113037,0.667908,down
509262,8.082031,6.441406,1.101563,-1.111328,-0.160156,-1.048828,0.316711,0.664856,0.112854,0.667053,down
509268,7.921875,6.441406,1.175781,-1.111328,-0.160156,-1.048828,0.319946,0.664001,0.11261,0.666382,down
509273,7.277344,6.328125,1.292969,-1.111328,-0.160156,-1.048828,0.319946,0.664001,0.11261,0.666382,down
509278,7.277344,6.328125,1.292969,-1.21875,-0.060547,-1.056641,0.323669,0.662842,0.112305,0.665771,down
509284,6.617187,6.097656,1.292969,-1.21875,-0.060547,-1.056641,0.327393,0.661682,0.112,0.665161,down
509289,6.585937,6.25,0.910156,-1.132813,-0.25,-1.109375,0.327393,0.661682,0.112,0.665161,down
509295,7.117187,6.671875,0.71875,-1.132813,-0.25,-1.109375,0.338928,0.658875,0.111206,0.662354,down
509300,7.421875,6.75,0.71875,-1.029297,-0.427734,-1.175781,0.338928,0.658875,0.111206,0.662354,down
509305,7.582031,6.863281,0.71875,-1.029297,-0.427734,-1.175781,0.34668,0.657776,0.111023,0.659424,down
509311,7.617187,6.941406,0.832031,-1.029297,-0.427734,-1.175781,0.353271,0.657104,0.111694,0.656433,down
509316,7.539062,7.015625,0.910156,-1.029297,-0.427734,-1.175781,0.353271,0.657104,0.111694,0.656433,down
509321,7.503906,7.132812,0.910156,-0.376953,-0.373047,-1.285156,0.353271,0.657104,0.111694,0.656433,down
509327,7.464844,7.285156,0.757812,-0.376953,-0.373047,-1.285156,0.362061,0.656677,0.114807,0.65155,down
509332,7.464844,7.515625,0.640625,-0.546875,-0.292969,-1.220703,0.365234,0.656372,0.115906,0.649902,down
509337,7.390625,7.703125,0.601562,-0.732422,-0.246094,-1.1875,0.36853,0.655823,0.116699,0.648437,down
509342,7.273437,7.820312,0.679687,-0.732422,-0.246094,-1.1875,0.371277,0.655212,0.117065,0.647461,down
509347,7.003906,7.707031,0.871094,-1.042969,-0.164062,-1.097656,0.375183,0.654114,0.117188,0.64624,down
509353,6.777344,7.585937,0.984375,-1.042969,-0.164062,-1.097656,0.378296,0.653137,0.117065,0.645447,down
509359,6.8125,7.164062,1.140625,-1.042969,-0.164062,-1.097656,0.38208,0.651917,0.116699,0.644531,down
509365,6.8125,7.132812,1.214844,-1.177734,-0.136719,-0.978516,0.38208,0.651917,0.116699,0.644531,down
509370,6.851562,7.207031,1.253906,-1.15625,-0.140625,-0.955078,0.38208,0.651917,0.116699,0.644531,down
509376,7.042969,7.203125,1.40625,-1.130859,-0.140625,-0.941406,0.38208,0.651917,0.116699,0.644531,down
509381,7.121094,7.324219,1.523438,-1.074219,-0.160156,-0.929687,0.398865,0.64624,0.114807,0.640381,down
509386,7.082031,7.4375,1.597656,-1.074219,-0.160156,-0.929687,0.398865,0.64624,0.114807,0.640381,down
509391,7.082031,7.589844,1.5625,-0.857422,-0.212891,-0.945312,0.398865,0.64624,0.114807,0.640381,down
509396,7.273437,7.703125,1.636719,-0.769531,-0.253906,-0.970703,0.398865,0.64624,0.114807,0.640381,down
509401,7.425781,7.746094,1.675781,-0.769531,-0.253906,-0.970703,0.407715,0.643982,0.114807,0.637024,down
509406,7.464844,7.667969,1.753906,-0.689453,-0.345703,-1.005859,0.407715,0.643982,0.114807,0.637024,down
509412,7.464844,7.558594,1.714844,-0.701172,-0.361328,-1.021484,0.407715,0.643982,0.114807,0.637024,down
509418,7.425781,7.4375,1.675781,-0.701172,-0.361328,-1.021484,0.419067,0.64209,0.115479,0.63147,down
509423,7.390625,7.398437,1.636719,-0.794922,-0.308594,-1.025391,0.419067,0.64209,0.115479,0.63147,down
509428,7.390625,7.398437,1.636719,-0.857422,-0.275391,-1.027344,0.42511,0.640747,0.115601,0.628784,down
509433,7.425781,7.480469,1.5625,-0.857422,-0.275391,-1.027344,0.42511,0.640747,0.115601,0.628784,down
509438,7.425781,7.480469,1.5625,-0.982422,-0.185547,-1.041016,0.428223,0.639893,0.115601,0.627563,down
509443,7.273437,7.585937,1.714844,-0.982422,-0.185547,-1.041016,0.428223,0.639893,0.115601,0.627563,down
509448,7.003906,7.664062,2.019531,-1.052734,-0.162109,-1.050781,0.438049,0.636536,0.115356,0.624207,down
509454,6.738281,7.054687,2.632813,-1.052734,-0.162109,-1.050781,0.441406,0.635376,0.115234,0.623047,down
509459,6.851562,6.859375,2.632813,-0.898437,-0.232422,-1.039063,0.441406,0.635376,0.115234,0.623047,down
509464,6.929687,6.75,2.632813,-0.806641,-0.273438,-1.015625,0.441406,0.635376,0.115234,0.623047,down
509469,6.890625,6.898437,2.554688,-0.806641,-0.273438,-1.015625,0.4505,0.632751,0.115356,0.619141,down
509476,6.96875,6.941406,2.402344,-0.701172,-0.390625,-1.0,0.4505,0.632751,0.115356,0.619141,down
509481,6.96875,6.941406,2.363281,-0.652344,-0.550781,-1.011719,0.4505,0.632751,0.115356,0.619141,down
509486,6.890625,7.167969,2.019531,-0.652344,-0.550781,-1.011719,0.45874,0.631531,0.115479,0.614319,down
509491,6.890625,7.246094,1.867188,-0.611328,-0.607422,-1.03125,0.45874,0.631531,0.115479,0.614319,down
509496,6.96875,7.28125,1.675781,-0.611328,-0.607422,-1.03125,0.464172,0.631348,0.115479,0.610413,down
509502,6.96875,7.480469,1.523438,-0.474609,-0.685547,-1.078125,0.469543,0.631653,0.115906,0.605957,down
509507,7.003906,7.707031,1.214844,-0.474609,-0.685547,-1.078125,0.469543,0.631653,0.115906,0.605957,down
509512,6.929687,7.824219,1.0625,-0.376953,-0.583984,-1.109375,0.469543,0.631653,0.115906,0.605957,down
509517,6.929687,8.011719,0.910156,-0.376953,-0.583984,-1.109375,0.474731,0.631958,0.11676,0.601379,down
509522,6.777344,8.164063,0.757812,-0.376953,-0.583984,-1.109375,0.47937,0.631836,0.117737,0.597595,down
509527,6.660156,8.207031,0.679687,-0.376953,-0.583984,-1.109375,0.481812,0.63147,0.118103,0.595947,down
509532,6.429687,8.246094,0.757812,-0.376953,-0.583984,-1.109375,0.481812,0.63147,0.118103,0.595947,down
509537,6.277344,8.125,0.871094,-0.710937,-0.283203,-1.037109,0.487427,0.630005,0.118652,0.592834,down
509543,6.203125,7.9375,1.0625,-0.710937,-0.283203,-1.037109,0.490295,0.628967,0.118652,0.591553,down
509548,5.972656,7.703125,1.636719,-0.947266,-0.212891,-0.931641,0.493164,0.627869,0.11853,0.590332,down
509553,5.78125,7.519531,1.714844,-0.947266,-0.212891,-0.931641,0.496033,0.626709,0.118286,0.589172,down
509558,5.742187,7.515625,1.828125,-0.931641,-0.283203,-0.845703,0.496033,0.626709,0.118286,0.589172,down
509564,5.933594,7.703125,2.058594,-0.931641,-0.283203,-0.845703,0.501648,0.624756,0.117493,0.586731,down
509569,6.007812,7.859375,2.019531,-0.826172,-0.373047,-0.771484,0.504211,0.623962,0.117004,0.585449,down
509575,6.007812,7.96875,1.90625,-0.734375,-0.373047,-0.761719,0.504211,0.623962,0.117004,0.585449,down
509581,6.046875,8.167969,1.980469,-0.734375,-0.373047,-0.761719,0.504211,0.623962,0.117004,0.585449,down
509586,6.046875,8.285156,1.980469,-0.455078,-0.367188,-0.785156,0.504211,0.623962,0.117004,0.585449,down
509591,6.046875,8.285156,1.980469,-0.328125,-0.355469,-0.822266,0.512878,0.622192,0.116577,0.579895,down
509596,6.007812,8.429688,2.058594,-0.261719,-0.34375,-0.845703,0.512878,0.622192,0.116577,0.579895,down
509601,6.007812,8.429688,2.058594,-0.234375,-0.332031,-0.880859,0.516357,0.621948,0.117554,0.576843,down
509606,5.855469,8.546875,2.097656,-0.234375,-0.332031,-0.880859,0.518188,0.621826,0.118164,0.575195,down
509611,5.855469,8.546875,2.097656,-0.341797,-0.289063,-0.929687,0.52002,0.621582,0.118774,0.573669,down
509616,5.625,8.46875,1.980469,-0.341797,-0.289063,-0.929687,0.52002,0.621582,0.118774,0.573669,down
509622,5.664062,8.550781,1.980469,-0.568359,-0.222656,-0.943359,0.52002,0.621582,0.118774,0.573669,down
509627,5.625,8.589844,2.058594,-0.773437,-0.125,-0.947266,0.52002,0.621582,0.118774,0.573669,down
509632,5.320312,8.507813,2.25,-0.773437,-0.125,-0.947266,0.53186,0.617493,0.120483,0.566895,down
509637,5.167969,8.46875,2.402344,-0.873047,-0.085937,-0.929687,0.53186,0.617493,0.120483,0.566895,down
509642,5.015625,8.394531,2.671875,-0.873047,-0.085937,-0.929687,0.53479,0.616028,0.120667,0.565674,down
509647,4.9375,8.394531,2.75,-0.824219,-0.146484,-0.871094,0.53479,0.616028,0.120667,0.565674,down
509652,4.859375,8.207031,2.785156,-0.824219,-0.146484,-0.871094,0.542297,0.612488,0.120667,0.562317,down
509657,4.976562,8.203125,2.785156,-0.728516,-0.25,-0.816406,0.542297,0.612488,0.120667,0.562317,down
509662,5.050781,8.207031,2.785156,-0.697266,-0.275391,-0.798828,0.544861,0.61145,0.120605,0.560974,down
509667,5.128906,8.125,2.902344,-0.697266,-0.275391,-0.798828,0.549316,0.609863,0.120361,0.558411,down
509672,5.167969,8.125,2.785156,-0.697266,-0.275391,-0.798828,0.551331,0.609192,0.120361,0.557129,down
509677,5.242187,8.285156,2.785156,-0.697266,-0.275391,-0.798828,0.551331,0.609192,0.120361,0.557129,down
509682,5.207031,8.359375,2.785156,-0.447266,-0.244141,-0.845703,0.551331,0.609192,0.120361,0.557129,down
509687,5.050781,8.472656,2.785156,-0.447266,-0.244141,-0.845703,0.55542,0.607971,0.120605,0.554382,down
509693,4.976562,8.46875,2.785156,-0.384766,-0.203125,-0.880859,0.55542,0.607971,0.120605,0.554382,down
509698,4.9375,8.507813,2.75,-0.384766,-0.203125,-0.880859,0.561218,0.606323,0.12207,0.550049,down
509703,4.746094,8.625,2.710938,-0.384766,-0.203125,-0.880859,0.563293,0.605652,0.122681,0.548523,down
509708,4.746094,8.507813,2.75,-0.384766,-0.203125,-0.880859,0.565125,0.60498,0.123108,0.547302,down
509713,4.859375,8.320313,2.632813,-0.589844,-0.128906,-0.994141,0.567566,0.603943,0.123718,0.545715,down
509718,4.9375,8.128906,2.671875,-0.589844,-0.128906,-0.994141,0.570007,0.602905,0.124268,0.54425,down
509723,4.820312,8.085938,2.75,-0.589844,-0.128906,-0.994141,0.572144,0.601868,0.124695,0.54303,down
509728,4.59375,8.167969,2.824219,-0.666016,-0.074219,-1.076172,0.57489,0.600525,0.125366,0.541443,down
509734,4.285156,8.011719,2.824219,-0.666016,-0.074219,-1.076172,0.577087,0.599487,0.125854,0.540161,down
509740,4.09375,8.246094,2.824219,-0.666016,-0.074219,-1.076172,0.579651,0.598328,0.126465,0.538574,down
509746,4.09375,8.324219,2.863281,-0.623047,-0.171875,-1.013672,0.579651,0.598328,0.126465,0.538574,down
509751,4.054687,8.394531,2.824219,-0.611328,-0.214844,-0.986328,0.579651,0.598328,0.126465,0.538574,down
509757,4.054687,8.394531,2.824219,-0.609375,-0.244141,-0.966797,0.579651,0.598328,0.126465,0.538574,down
509762,4.09375,8.390625,2.824219,-0.544922,-0.296875,-0.955078,0.588806,0.594604,0.127869,0.53241,down
509767,4.132812,8.359375,2.785156,-0.544922,-0.296875,-0.955078,0.591187,0.59375,0.128174,0.530579,down
509772,4.132812,8.359375,2.785156,-0.496094,-0.279297,-0.970703,0.593201,0.593079,0.128479,0.529053,down
509777,4.210937,8.324219,2.75,-0.441406,-0.251953,-0.986328,0.595276,0.592407,0.128906,0.527283,down
509782,4.210937,8.324219,2.75,-0.433594,-0.220703,-1.021484,0.597351,0.591736,0.129456,0.525635,down
509788,4.246094,8.359375,2.75,-0.433594,-0.220703,-1.021484,0.599365,0.591003,0.130127,0.523926,down
509794,4.210937,8.390625,2.671875,-0.455078,-0.134766,-1.066406,0.603638,0.589294,0.131714,0.52063,down
509799,3.980469,8.472656,2.710938,-0.455078,-0.134766,-1.066406,0.605774,0.588257,0.132568,0.518982,down
509804,4.019531,8.472656,2.671875,-0.513672,-0.007813,-1.171875,0.605774,0.588257,0.132568,0.518982,down
509809,3.863281,8.585938,2.785156,-0.535156,0.021484,-1.201172,0.605774,0.588257,0.132568,0.518982,down
509814,3.597656,8.589844,2.976563,-0.535156,0.021484,-1.201172,0.605774,0.588257,0.132568,0.518982,down
509819,3.597656,8.589844,2.976563,-0.566406,0.015625,-1.191406,0.605774,0.588257,0.132568,0.518982,down
509824,3.519531,8.433594,3.167969,-0.566406,0.015625,-1.191406,0.605774,0.588257,0.132568,0.518982,down
509829,3.519531,8.433594,3.167969,-0.566406,-0.0625,-1.136719,0.605774,0.588257,0.132568,0.518982,down
509835,3.441406,8.246094,3.476563,-0.566406,-0.0625,-1.136719,0.62207,0.57959,0.139526,0.507568,down
509840,3.558594,8.207031,3.398438,-0.601562,-0.166016,-1.0625,0.62207,0.57959,0.139526,0.507568,down
509846,3.597656,8.167969,3.476563,-0.626953,-0.201172,-1.035156,0.62207,0.57959,0.139526,0.507568,down
509851,3.632813,8.207031,3.550781,-0.626953,-0.201172,-1.035156,0.628906,0.576294,0.14093,0.502502,down
509857,3.75,8.125,3.628906,-0.626953,-0.201172,-1.035156,0.628906,0.576294,0.14093,0.502502,down
509862,3.789063,8.164063,3.476563,-0.480469,-0.265625,-1.021484,0.628906,0.576294,0.14093,0.502502,down
509868,3.863281,8.246094,3.398438,-0.480469,-0.265625,-1.021484,0.635437,0.573364,0.142029,0.497314,down
509873,3.863281,8.320313,3.324219,-0.423828,-0.261719,-1.042969,0.639465,0.571899,0.143188,0.493469,down
509878,3.902344,8.394531,3.246094,-0.359375,-0.25,-1.115234,0.641663,0.571106,0.143921,0.491333,down
509884,3.863281,8.507813,3.132813,-0.359375,-0.25,-1.115234,0.643677,0.570374,0.144775,0.489258,down
509889,3.828125,8.773438,3.015625,-0.359375,-0.25,-1.115234,0.645447,0.569763,0.145569,0.487427,down
509895,3.671875,8.972656,2.976563,-0.351563,-0.1875,-1.230469,0.645447,0.569763,0.145569,0.487427,down
509900,3.519531,9.199219,3.015625,-0.373047,-0.177734,-1.257813,0.649597,0.568115,0.147644,0.483154,down
509905,3.328125,9.390625,3.054688,-0.373047,-0.177734,-1.257813,0.651733,0.567261,0.148682,0.481018,down
509911,3.097656,9.429688,2.976563,-0.373047,-0.177734,-1.257813,0.651733,0.567261,0.148682,0.481018,down
509916,2.945313,9.507813,2.941406,-0.505859,-0.238281,-1.212891,0.651733,0.567261,0.148682,0.481018,down
509922,2.90625,9.550781,2.976563,-0.552734,-0.296875,-1.169922,0.660767,0.563293,0.151428,0.472412,down
509927,2.945313,9.546875,2.976563,-0.552734,-0.296875,-1.169922,0.660767,0.563293,0.151428,0.472412,down
509932,2.945313,9.546875,2.976563,-0.617187,-0.423828,-1.083984,0.663086,0.562317,0.151672,0.470276,down
509937,3.023438,9.46875,2.902344,-0.603516,-0.453125,-1.039063,0.665344,0.561401,0.151672,0.46814,down
509942,3.023438,9.46875,2.902344,-0.556641,-0.443359,-1.0,0.665344,0.561401,0.151672,0.46814,down
509948,3.023438,9.46875,2.902344,-0.556641,-0.443359,-1.0,0.669556,0.559814,0.151794,0.463928,down
509953,3.023438,9.46875,2.902344,-0.398438,-0.376953,-0.964844,0.671448,0.559143,0.151978,0.461975,down
509958,3.328125,9.46875,2.75,-0.248047,-0.273438,-0.947266,0.671448,0.559143,0.151978,0.461975,down
509963,3.175781,9.550781,2.59375,-0.248047,-0.273438,-0.947266,0.676453,0.557556,0.153564,0.455994,down
509968,3.058594,9.578125,2.554688,-0.248047,-0.273438,-0.947266,0.677795,0.557129,0.154236,0.454346,down
509973,2.984375,9.738281,2.519531,-0.220703,-0.1875,-0.980469,0.677795,0.557129,0.154236,0.454346,down
509979,2.90625,9.773438,2.441406,-0.220703,-0.1875,-0.980469,0.680786,0.55603,0.155762,0.450684,down
509984,2.792969,9.738281,2.554688,-0.373047,-0.171875,-1.021484,0.682495,0.555237,0.156555,0.448853,down
509989,2.792969,9.738281,2.554688,-0.441406,-0.195312,-1.011719,0.684265,0.554321,0.157227,0.447021,down
509995,2.675781,9.582031,2.75,-0.441406,-0.195312,-1.011719,0.686096,0.553345,0.157715,0.445251,down
510000,2.753906,9.578125,2.785156,-0.523437,-0.232422,-0.988281,0.686096,0.553345,0.157715,0.445251,down
510005,2.753906,9.617188,2.785156,-0.578125,-0.251953,-0.957031,0.689941,0.551208,0.158508,0.441589,down
510010,2.675781,9.777344,2.785156,-0.630859,-0.248047,-0.919922,0.689941,0.551208,0.158508,0.441589,down
510015,2.714844,9.738281,2.824219,-0.669922,-0.240234,-0.882812,0.689941,0.551208,0.158508,0.441589,down
510021,2.792969,9.578125,2.863281,-0.703125,-0.242187,-0.857422,0.689941,0.551208,0.158508,0.441589,down
510026,2.675781,9.550781,2.902344,-0.681641,-0.216797,-0.849609,0.689941,0.551208,0.158508,0.441589,down
510031,2.523438,9.507813,2.902344,-0.625,-0.175781,-0.855469,0.699768,0.544922,0.158997,0.433655,down
510037,2.601563,9.351563,2.941406,-0.625,-0.175781,-0.855469,0.699768,0.544922,0.158997,0.433655,down
510043,2.410156,9.394531,2.941406,-0.449219,-0.066406,-0.875,0.699768,0.544922,0.158997,0.433655,down
510048,2.371094,9.355469,2.976563,-0.449219,-0.066406,-0.875,0.706482,0.540405,0.160767,0.427795,down
510053,2.179688,9.433594,3.09375,-0.449219,-0.066406,-0.875,0.706482,0.540405,0.160767,0.427795,down
510058,2.0625,9.390625,3.09375,-0.308594,-0.003906,-0.876953,0.708191,0.539246,0.161621,0.426208,down
510064,1.796875,9.582031,3.207031,-0.308594,-0.003906,-0.876953,0.710815,0.537415,0.163208,0.423401,down
510070,1.757813,9.621094,3.324219,-0.308594,-0.003906,-0.876953,0.712036,0.536621,0.164001,0.422058,down
510075,1.796875,9.621094,3.285156,-0.275391,-0.072266,-0.837891,0.713318,0.535828,0.164795,0.420593,down
510080,1.796875,9.578125,3.359375,-0.298828,-0.123047,-0.806641,0.713318,0.535828,0.164795,0.420593,down
510086,1.871094,9.621094,3.359375,-0.298828,-0.123047,-0.806641,0.715942,0.534302,0.165894,0.417664,down
510091,1.835938,9.65625,3.285156,-0.375,-0.158203,-0.742187,0.715942,0.534302,0.165894,0.417664,down
510096,1.871094,9.699219,3.246094,-0.416016,-0.160156,-0.716797,0.715942,0.534302,0.165894,0.417664,down
510102,1.988281,9.695313,3.359375,-0.474609,-0.154297,-0.677734,0.715942,0.534302,0.165894,0.417664,down
510108,1.988281,9.621094,3.359375,-0.546875,-0.140625,-0.646484,0.715942,0.534302,0.165894,0.417664,down
510113,2.027344,9.546875,3.476563,-0.654297,-0.058594,-0.578125,0.715942,0.534302,0.165894,0.417664,down
510118,1.988281,9.234375,3.667969,-0.654297,-0.058594,-0.578125,0.724426,0.528076,0.166931,0.410522,down
510124,1.988281,9.234375,3.667969,-0.638672,0.017578,-0.550781,0.727295,0.525208,0.166992,0.408997,down
510129,1.835938,8.929688,3.820313,-0.556641,0.052734,-0.544922,0.72876,0.523743,0.167175,0.408264,down
510134,1.835938,8.929688,3.820313,-0.470703,0.068359,-0.556641,0.729858,0.522583,0.16748,0.407593,down
510139,1.757813,8.929688,4.011719,-0.470703,0.068359,-0.556641,0.729858,0.522583,0.16748,0.407593,down
510144,1.757813,8.929688,4.011719,-0.371094,0.080078,-0.591797,0.730957,0.521484,0.167969,0.40686,down
510149,1.605469,9.394531,3.972656,-0.371094,0.080078,-0.591797,0.731995,0.520569,0.168579,0.405945,down
510154,1.605469,9.394531,3.972656,-0.371094,0.080078,-0.591797,0.731995,0.520569,0.168579,0.405945,down
510159,1.375,9.65625,4.089844,-0.115234,0.011719,-0.757812,0.734741,0.518677,0.171143,0.402283,down
510164,1.335938,9.699219,4.128906,-0.007813,-0.095703,-0.835937,0.735779,0.518311,0.17218,0.400513,down
510170,1.453125,9.660156,4.164062,-0.007813,-0.095703,-0.835937,0.736511,0.518066,0.172913,0.399048,down
510175,1.527344,9.699219,4.128906,-0.007813,-0.095703,-0.835937,0.737488,0.517822,0.173767,0.397217,down
510181,1.488281,9.890625,4.011719,-0.007813,-0.095703,-0.835937,0.737488,0.517822,0.173767,0.397217,down
510186,1.566406,9.8125,4.011719,-0.25,-0.175781,-0.792969,0.737488,0.517822,0.173767,0.397217,down
510191,1.527344,9.929688,4.128906,-0.376953,-0.148437,-0.748047,0.737488,0.517822,0.173767,0.397217,down
510197,1.414063,9.964844,4.164062,-0.460937,-0.107422,-0.701172,0.737488,0.517822,0.173767,0.397217,down
510203,1.335938,10.042969,4.203125,-0.53125,-0.068359,-0.677734,0.737488,0.517822,0.173767,0.397217,down
510208,1.257813,10.042969,4.203125,-0.576172,-0.037109,-0.658203,0.737488,0.517822,0.173767,0.397217,down
510214,1.066406,10.042969,4.320312,-0.578125,-0.013672,-0.634766,0.747742,0.509888,0.176758,0.386841,down
510219,1.03125,9.933594,4.433594,-0.460937,0.017578,-0.632812,0.747742,0.509888,0.176758,0.386841,down
510224,1.03125,9.816406,4.472656,-0.460937,0.017578,-0.632812,0.75,0.507629,0.177551,0.38501,down
510230,0.761719,9.894531,4.472656,-0.460937,0.017578,-0.632812,0.750916,0.506836,0.17804,0.384155,down
510235,0.761719,10.003906,4.511719,-0.460937,0.017578,-0.632812,0.75177,0.506104,0.178711,0.383118,down
510240,0.800781,10.0,4.546875,-0.148437,-0.035156,-0.589844,0.75177,0.506104,0.178711,0.383118,down
510246,0.839844,10.042969,4.472656,-0.162109,-0.070312,-0.5625,0.75177,0.506104,0.178711,0.383118,down
510251,0.839844,10.039063,4.433594,-0.207031,-0.103516,-0.542969,0.754089,0.504517,0.180176,0.379944,down
510256,0.914062,9.929688,4.511719,-0.277344,-0.123047,-0.525391,0.754089,0.504517,0.180176,0.379944,down
510262,1.03125,9.773438,4.546875,-0.322266,-0.148437,-0.507812,0.754089,0.504517,0.180176,0.379944,down
510268,1.144531,9.316406,4.472656,-0.322266,-0.148437,-0.507812,0.756836,0.502441,0.180603,0.376953,down
510273,1.105469,9.195313,4.546875,-0.322266,-0.148437,-0.507812,0.757874,0.501648,0.180542,0.375977,down
510279,1.066406,8.972656,4.703125,-0.367188,-0.132812,-0.480469,0.757874,0.501648,0.180542,0.375977,down
510284,1.03125,8.667969,4.816406,-0.367188,-0.132812,-0.480469,0.760864,0.499207,0.180603,0.37323,down
510290,0.953125,8.585938,4.777344,-0.367188,-0.132812,-0.480469,0.761658,0.498596,0.180786,0.372314,down
510296,0.839844,8.742188,4.855469,-0.056641,-0.056641,-0.537109,0.76239,0.498108,0.181213,0.371277,down
510302,0.800781,8.972656,4.855469,0.134766,-0.046875,-0.560547,0.76239,0.498108,0.181213,0.371277,down
510307,0.722656,9.578125,4.738281,0.134766,-0.046875,-0.560547,0.76239,0.498108,0.181213,0.371277,down
510312,0.570312,10.0,4.585937,0.4375,0.007813,-0.591797,0.76239,0.498108,0.181213,0.371277,down
510317,0.457031,10.386719,4.355469,0.507812,0.009766,-0.580078,0.76239,0.498108,0.181213,0.371277,down
510322,0.648437,10.695313,4.164062,0.507812,0.009766,-0.580078,0.76239,0.498108,0.181213,0.371277,down
510328,0.683594,10.882813,4.128906,0.386719,-0.005859,-0.507812,0.76239,0.498108,0.181213,0.371277,down
510333,0.683594,10.886719,4.050781,0.046875,-0.007813,-0.394531,0.76239,0.498108,0.181213,0.371277,down
510338,0.800781,10.273438,4.089844,0.046875,-0.007813,-0.394531,0.763184,0.500854,0.188843,0.362,down
510343,0.800781,9.894531,4.164062,0.046875,-0.007813,-0.394531,0.763611,0.500549,0.189209,0.361328,down
510348,0.800781,9.46875,4.164062,-0.490234,-0.039063,-0.298828,0.763611,0.500549,0.189209,0.361328,down
510354,0.761719,8.511719,4.28125,-0.765625,-0.046875,-0.267578,0.763611,0.500549,0.189209,0.361328,down
510360,0.722656,8.011719,4.585937,-0.765625,-0.046875,-0.267578,0.768188,0.494751,0.187744,0.360291,down
510365,0.609375,7.703125,4.816406,-1.111328,-0.125,-0.291016,0.769836,0.492615,0.18689,0.360168,down
510370,0.648437,7.820312,4.738281,-1.046875,-0.132812,-0.318359,0.771545,0.490479,0.186035,0.359924,down
510376,0.492187,7.972656,4.664062,-1.046875,-0.132812,-0.318359,0.773071,0.488525,0.185364,0.359558,down
510382,0.609375,8.128906,4.855469,-0.691406,-0.152344,-0.412109,0.773071,0.488525,0.185364,0.359558,down
510387,0.648437,8.433594,4.894531,-0.357422,-0.152344,-0.458984,0.773071,0.488525,0.185364,0.359558,down
510392,0.609375,8.703125,4.777344,0.017578,-0.111328,-0.509766,0.773071,0.488525,0.185364,0.359558,down
510397,0.53125,9.160156,4.664062,0.017578,-0.111328,-0.509766,0.773071,0.488525,0.185364,0.359558,down
510403,0.53125,9.238281,4.625,0.017578,-0.111328,-0.509766,0.776794,0.48584,0.186218,0.354797,down
510408,0.492187,9.351563,4.664062,0.306641,-0.076172,-0.560547,0.776794,0.48584,0.186218,0.354797,down
510413,0.457031,9.472656,4.585937,0.220703,-0.070312,-0.556641,0.776794,0.48584,0.186218,0.354797,down
510418,0.457031,9.429688,4.585937,0.220703,-0.070312,-0.556641,0.777466,0.486633,0.188599,0.350952,down
510424,0.339844,9.394531,4.511719,-0.234375,-0.023437,-0.529297,0.777466,0.486633,0.188599,0.350952,down
510429,0.300781,9.355469,4.546875,-0.234375,-0.023437,-0.529297,0.779419,0.485107,0.190002,0.348022,down
510435,0.148437,9.273438,4.855469,-0.234375,-0.023437,-0.529297,0.780457,0.483948,0.190186,0.347229,down
510440,0.070312,9.238281,4.855469,-0.644531,-0.052734,-0.478516,0.781616,0.482483,0.190186,0.346558,down
510445,-0.003906,9.238281,4.894531,-0.695312,-0.060547,-0.484375,0.781616,0.482483,0.190186,0.346558,down
510450,-0.082031,9.277344,4.96875,-0.695312,-0.060547,-0.484375,0.781616,0.482483,0.190186,0.346558,down
510455,-0.121094,9.3125,4.96875,-0.675781,-0.085937,-0.486328,0.784119,0.479492,0.189941,0.345215,down
510460,-0.121094,9.3125,4.96875,-0.675781,-0.085937,-0.486328,0.785339,0.478027,0.189819,0.344421,down
510465,-0.042969,9.160156,4.96875,-0.535156,-0.144531,-0.5,0.785339,0.478027,0.189819,0.344421,down
510470,-0.042969,9.160156,4.96875,-0.441406,-0.177734,-0.501953,0.787598,0.475769,0.189514,0.342712,down
510476,0.070312,9.089844,4.96875,-0.441406,-0.177734,-0.501953,0.789551,0.47406,0.189331,0.340637,down
510482,0.148437,9.050781,5.007812,-0.326172,-0.205078,-0.501953,0.789551,0.47406,0.189331,0.340637,down
510487,0.148437,9.007813,4.96875,-0.357422,-0.205078,-0.501953,0.791382,0.472595,0.189209,0.338501,down
510493,0.109375,9.050781,5.007812,-0.402344,-0.197266,-0.503906,0.791382,0.472595,0.189209,0.338501,down
510499,0.070312,9.085938,5.046875,-0.470703,-0.199219,-0.505859,0.791382,0.472595,0.189209,0.338501,down
510504,0.035156,9.15625,5.085937,-0.470703,-0.199219,-0.505859,0.795715,0.468445,0.188477,0.334412,down
510509,-0.003906,9.195313,5.085937,-0.615234,-0.269531,-0.535156,0.795715,0.468445,0.188477,0.334412,down
510514,0.035156,9.15625,5.085937,-0.615234,-0.269531,-0.535156,0.796875,0.467346,0.18811,0.333496,down
510519,0.148437,9.277344,5.085937,-0.636719,-0.300781,-0.550781,0.796875,0.467346,0.18811,0.333496,down
510524,0.148437,9.390625,5.046875,-0.669922,-0.304688,-0.5625,0.7995,0.464783,0.187195,0.331238,down
510529,0.1875,9.429688,5.007812,-0.669922,-0.304688,-0.5625,0.802307,0.461975,0.186279,0.328979,down
510534,0.261719,9.511719,4.933594,-0.669922,-0.304688,-0.5625,0.802307,0.461975,0.186279,0.328979,down
510539,0.261719,9.511719,4.894531,-0.763672,-0.261719,-0.574219,0.803833,0.460449,0.18573,0.327698,down
510544,0.339844,9.511719,4.894531,-0.763672,-0.261719,-0.574219,0.805298,0.458862,0.185242,0.326538,down
510549,0.339844,9.238281,4.816406,-0.763672,-0.261719,-0.574219,0.806763,0.457153,0.184753,0.3255,down
510554,0.261719,8.589844,4.933594,-0.945312,-0.224609,-0.595703,0.806763,0.457153,0.184753,0.3255,down
510559,0.1875,8.433594,5.046875,-1.039063,-0.201172,-0.619141,0.809937,0.453308,0.183777,0.323608,down
510564,0.148437,8.390625,5.199219,-1.039063,-0.201172,-0.619141,0.813538,0.44873,0.182739,0.321533,down
510569,0.109375,8.363281,5.199219,-1.039063,-0.201172,-0.619141,0.813538,0.44873,0.182739,0.321533,down
510574,-0.121094,8.363281,5.316406,-0.921875,-0.222656,-0.666016,0.815247,0.446533,0.182251,0.320496,down
510579,-0.234375,8.320313,5.46875,-0.921875,-0.222656,-0.666016,0.816772,0.444641,0.181885,0.319458,down
510584,-0.347656,8.359375,5.542969,-0.677734,-0.308594,-0.667969,0.818604,0.442505,0.181396,0.318115,down
510589,-0.386719,8.433594,5.507812,-0.677734,-0.308594,-0.667969,0.820007,0.440918,0.180969,0.316833,down
510595,-0.386719,8.433594,5.507812,-0.279297,-0.402344,-0.667969,0.822388,0.438965,0.180298,0.313904,down
510600,-0.386719,8.851563,5.507812,-0.140625,-0.439453,-0.669922,0.823364,0.438477,0.179993,0.312012,down
510605,-0.273438,9.085938,5.390625,-0.140625,-0.439453,-0.669922,0.824219,0.438354,0.179749,0.310181,down
510610,-0.273438,9.238281,5.316406,-0.140625,-0.439453,-0.669922,0.82489,0.438293,0.179504,0.308594,down
510615,-0.273438,9.355469,5.277344,-0.076172,-0.484375,-0.615234,0.825745,0.438232,0.179138,0.30658,down
510621,-0.195312,9.46875,5.160156,-0.076172,-0.484375,-0.615234,0.826416,0.43811,0.178772,0.305176,down
510626,-0.15625,9.582031,5.046875,-0.076172,-0.484375,-0.615234,0.827454,0.437622,0.178223,0.303345,down
510631,-0.121094,9.550781,4.96875,-0.076172,-0.484375,-0.615234,0.82843,0.43689,0.177612,0.302063,down
510638,0.070312,9.511719,4.894531,-0.076172,-0.484375,-0.615234,0.82843,0.43689,0.177612,0.302063,down
510644,0.109375,9.3125,5.007812,-1.027344,-0.408203,-0.46875,0.82843,0.43689,0.177612,0.302063,down
510650,0.109375,9.195313,4.96875,-1.027344,-0.408203,-0.46875,0.834961,0.428772,0.17334,0.298279,down
510655,0.109375,8.933594,5.007812,-1.587891,-0.302734,-0.367188,0.837158,0.425415,0.171875,0.297791,down
510660,0.070312,8.511719,5.160156,-1.587891,-0.302734,-0.367188,0.839417,0.421814,0.170349,0.297424,down
510665,-0.003906,8.359375,5.277344,-1.587891,-0.302734,-0.367188,0.841187,0.418762,0.169189,0.297241,down
510670,-0.042969,8.207031,5.316406,-1.587891,-0.302734,-0.367188,0.843445,0.415039,0.167786,0.297058,down
510675,-0.042969,8.089844,5.390625,-1.773438,-0.208984,-0.361328,0.845886,0.410767,0.166199,0.296875,down
510680,-0.121094,7.972656,5.542969,-1.773438,-0.208984,-0.361328,0.847717,0.407654,0.165039,0.296692,down
510685,-0.042969,7.742187,5.890625,-1.773438,-0.208984,-0.361328,0.850098,0.403442,0.163513,0.296326,down
510690,-0.082031,7.746094,6.121094,-1.773438,-0.208984,-0.361328,0.850098,0.403442,0.163513,0.296326,down
510696,-0.15625,7.707031,6.273437,-1.623047,-0.230469,-0.402344,0.853821,0.397034,0.161133,0.295532,down
510701,-0.195312,7.707031,6.386719,-1.623047,-0.230469,-0.402344,0.853821,0.397034,0.161133,0.295532,down
510706,-0.195312,7.707031,6.386719,-1.349609,-0.214844,-0.441406,0.853821,0.397034,0.161133,0.295532,down
510712,-0.3125,7.902344,6.386719,-1.349609,-0.214844,-0.441406,0.859253,0.387878,0.157898,0.293823,down
510718,-0.347656,7.859375,6.425781,-1.349609,-0.214844,-0.441406,0.861145,0.384644,0.15686,0.29303,down
510724,-0.347656,7.746094,6.464844,-1.423828,-0.226562,-0.498047,0.861145,0.384644,0.15686,0.29303,down
510729,-0.386719,7.667969,6.464844,-1.439453,-0.238281,-0.503906,0.86438,0.378967,0.155029,0.291809,down
510734,-0.464844,7.4375,6.464844,-1.439453,-0.238281,-0.503906,0.86615,0.375916,0.153992,0.291077,down
510740,-0.425781,7.402344,6.578125,-1.460938,-0.242187,-0.517578,0.86615,0.375916,0.153992,0.291077,down
510745,-0.464844,7.476562,6.730469,-1.460938,-0.242187,-0.517578,0.871765,0.365906,0.150635,0.288818,down
510750,-0.539062,7.476562,6.808594,-1.460938,-0.242187,-0.517578,0.871765,0.365906,0.150635,0.288818,down
510755,-0.578125,7.585937,6.886719,-1.408203,-0.222656,-0.501953,0.875061,0.359985,0.148682,0.287415,down
510760,-0.578125,7.558594,7.0,-1.408203,-0.222656,-0.501953,0.876648,0.357117,0.147766,0.286621,down
510765,-0.539062,7.589844,7.0,-1.234375,-0.226562,-0.498047,0.878296,0.354065,0.146729,0.285767,down
510771,-0.65625,7.863281,7.152344,-1.234375,-0.226562,-0.498047,0.8797,0.351563,0.145874,0.285034,down
510776,-0.617187,8.089844,7.191406,-1.234375,-0.226562,-0.498047,0.881165,0.348816,0.14502,0.284241,down
510782,-0.578125,8.128906,7.230469,-1.173828,-0.207031,-0.537109,0.881165,0.348816,0.14502,0.284241,down
510787,-0.578125,8.207031,7.191406,-1.205078,-0.21875,-0.556641,0.884094,0.343567,0.143372,0.282471,down
510792,-0.617187,8.167969,7.191406,-1.205078,-0.21875,-0.556641,0.885681,0.340698,0.142517,0.281494,down
510798,-0.65625,8.050781,7.269531,-1.386719,-0.238281,-0.597656,0.885681,0.340698,0.142517,0.281494,down
510803,-0.695312,7.824219,7.382812,-1.507813,-0.275391,-0.615234,0.885681,0.340698,0.142517,0.281494,down
510808,-0.695312,7.554687,7.460937,-1.615234,-0.294922,-0.630859,0.885681,0.340698,0.142517,0.281494,down
510814,-0.847656,6.976562,7.691406,-1.785156,-0.353516,-0.642578,0.885681,0.340698,0.142517,0.281494,down
510819,-0.925781,6.75,7.769531,-1.785156,-0.353516,-0.642578,0.894653,0.323364,0.136658,0.276367,down
510825,-0.886719,6.367187,8.035156,-1.808594,-0.398438,-0.646484,0.894653,0.323364,0.136658,0.276367,down
510830,-0.847656,6.289062,8.1875,-1.808594,-0.398438,-0.646484,0.898804,0.315063,0.133362,0.274048,down
510835,-0.847656,6.289062,8.1875,-1.679688,-0.46875,-0.646484,0.900635,0.311462,0.131775,0.272949,down
510840,-0.847656,6.058594,8.378906,-1.541016,-0.486328,-0.658203,0.900635,0.311462,0.131775,0.272949,down
510845,-0.886719,6.019531,8.496094,-1.341797,-0.496094,-0.660156,0.904175,0.304749,0.128479,0.270264,down
510850,-0.886719,6.019531,8.496094,-1.341797,-0.496094,-0.660156,0.904175,0.304749,0.128479,0.270264,down
510855,-0.886719,6.058594,8.535156,-1.097656,-0.494141,-0.664062,0.908142,0.298584,0.124817,0.265625,down
510860,-0.960937,6.632812,8.648438,-1.097656,-0.494141,-0.664062,0.908142,0.298584,0.124817,0.265625,down
510865,-0.960937,6.785156,8.609375,-0.160156,-0.451172,-0.609375,0.909119,0.297607,0.123901,0.263794,down
510870,-0.960937,6.785156,8.609375,-0.160156,-0.451172,-0.609375,0.910339,0.296997,0.12262,0.260742,down
510875,-1.039063,7.167969,8.453125,-0.005859,-0.427734,-0.541016,0.910339,0.296997,0.12262,0.260742,down
510880,-1.0,7.4375,8.230469,-0.048828,-0.423828,-0.505859,0.910889,0.297058,0.122009,0.259094,down
510885,-0.886719,7.515625,8.148438,-0.048828,-0.423828,-0.505859,0.911926,0.296936,0.120728,0.256226,down
510890,-0.847656,7.398437,8.074219,-0.048828,-0.423828,-0.505859,0.912476,0.296509,0.119995,0.255127,down
510895,-0.847656,7.246094,8.152344,-0.474609,-0.482422,-0.447266,0.912476,0.296509,0.119995,0.255127,down
510900,-0.695312,6.902344,8.1875,-0.474609,-0.482422,-0.447266,0.91394,0.294678,0.117981,0.252808,down
510905,-0.695312,6.710937,8.269531,-0.628906,-0.490234,-0.441406,0.91394,0.294678,0.117981,0.252808,down
510910,-0.695312,6.519531,8.339844,-0.599609,-0.476562,-0.447266,0.914917,0.293274,0.116638,0.251465,down
510916,-0.695312,6.519531,8.339844,-0.546875,-0.457031,-0.429687,0.916504,0.291077,0.114563,0.24939,down
510921,-0.769531,6.210937,8.414063,-0.546875,-0.457031,-0.429687,0.917358,0.289917,0.113403,0.248108,down
510926,-0.808594,6.210937,8.492188,-0.375,-0.429687,-0.412109,0.917358,0.289917,0.113403,0.248108,down
510931,-0.808594,6.210937,8.492188,-0.25,-0.40625,-0.404297,0.918579,0.288574,0.111694,0.245972,down
510937,-0.769531,6.136719,8.339844,-0.25,-0.40625,-0.404297,0.919006,0.288269,0.111023,0.244873,down
510942,-0.769531,6.175781,8.265625,0.042969,-0.369141,-0.408203,0.919373,0.28833,0.110474,0.243774,down
510947,-0.808594,6.210937,8.191406,0.169922,-0.355469,-0.417969,0.919373,0.28833,0.110474,0.243774,down
510953,-0.886719,6.441406,8.109375,0.263672,-0.355469,-0.429687,0.919373,0.28833,0.110474,0.243774,down
510959,-1.0,6.558594,8.109375,0.326172,-0.369141,-0.4375,0.919373,0.28833,0.110474,0.243774,down
510965,-0.960937,6.558594,7.996094,0.330078,-0.427734,-0.447266,0.919373,0.28833,0.110474,0.243774,down
510970,-0.925781,6.59375,7.84375,0.330078,-0.427734,-0.447266,0.920166,0.291809,0.108582,0.237366,down
510975,-0.886719,6.632812,7.804687,0.261719,-0.455078,-0.429687,0.920532,0.293274,0.107483,0.234619,down
510980,-0.925781,6.671875,7.730469,0.261719,-0.455078,-0.429687,0.920532,0.293274,0.107483,0.234619,down
510985,-0.808594,6.558594,7.6875,0.083984,-0.478516,-0.402344,0.921082,0.294006,0.106018,0.232117,down
510990,-0.808594,6.558594,7.652344,-0.050781,-0.460937,-0.355469,0.921082,0.294006,0.106018,0.232117,down
510995,-0.695312,6.558594,7.691406,-0.089844,-0.435547,-0.333984,0.921448,0.294128,0.105225,0.230957,down
511000,-0.617187,6.59375,7.652344,-0.089844,-0.435547,-0.333984,0.921814,0.294128,0.104431,0.229858,down
511006,-0.578125,6.519531,7.726562,-0.115234,-0.322266,-0.302734,0.92218,0.294067,0.103638,0.228882,down
511011,-0.578125,6.519531,7.726562,-0.095703,-0.265625,-0.289063,0.922791,0.293762,0.1026,0.227234,down
511016,-0.617187,6.441406,7.914062,-0.052734,-0.216797,-0.283203,0.923096,0.293579,0.102173,0.226379,down
511022,-0.808594,6.328125,8.074219,-0.052734,-0.216797,-0.283203,0.923279,0.293579,0.101929,0.225708,down
511027,-0.925781,6.402344,8.03125,-0.052734,-0.216797,-0.283203,0.923401,0.293762,0.101868,0.224976,down
511033,-1.0,6.441406,8.070313,0.195312,-0.142578,-0.279297,0.923401,0.293762,0.101868,0.224976,down
511039,-1.0,6.441406,8.113281,0.25,-0.148437,-0.291016,0.923401,0.293762,0.101868,0.224976,down
511045,-1.039063,6.59375,7.996094,0.298828,-0.166016,-0.292969,0.923462,0.296021,0.101868,0.221863,down
511050,-1.0,6.59375,8.03125,0.298828,-0.166016,-0.292969,0.923462,0.296021,0.101868,0.221863,down
511055,-1.0,6.632812,8.074219,0.320313,-0.228516,-0.292969,0.923462,0.296021,0.101868,0.221863,down
511060,-0.960937,6.671875,8.070313,0.357422,-0.253906,-0.277344,0.923462,0.296021,0.101868,0.221863,down
511065,-0.960937,6.671875,7.992187,0.357422,-0.253906,-0.277344,0.923279,0.298584,0.10144,0.219238,down
511070,-0.925781,6.710937,7.996094,0.345703,-0.306641,-0.238281,0.923279,0.298584,0.10144,0.219238,down
511075,-0.808594,6.75,7.996094,0.324219,-0.326172,-0.208984,0.923157,0.301208,0.100342,0.216858,down
511080,-0.808594,6.75,7.957031,0.324219,-0.326172,-0.208984,0.923096,0.30188,0.099854,0.216248,down
511085,-0.65625,6.632812,7.996094,0.324219,-0.326172,-0.208984,0.923096,0.30188,0.099854,0.216248,down
511090,-0.617187,6.519531,7.957031,0.166016,-0.339844,-0.123047,0.923096,0.30188,0.099854,0.216248,down
511095,-0.578125,6.519531,7.996094,0.164062,-0.302734,-0.111328,0.923096,0.30188,0.099854,0.216248,down
511100,-0.65625,6.59375,8.03125,0.185547,-0.287109,-0.121094,0.923157,0.303467,0.098206,0.214722,down
511105,-0.617187,6.59375,8.03125,0.185547,-0.287109,-0.121094,0.923096,0.304016,0.097717,0.214172,down
511110,-0.695312,6.59375,8.035156,0.185547,-0.287109,-0.121094,0.923096,0.304626,0.09729,0.213684,down
511115,-0.65625,6.671875,8.070313,0.242187,-0.285156,-0.15625,0.923096,0.304626,0.09729,0.213684,down
511120,-0.65625,6.59375,8.074219,0.242187,-0.285156,-0.15625,0.923035,0.305908,0.096558,0.212524,down
511125,-0.578125,6.59375,8.074219,0.402344,-0.322266,-0.222656,0.923035,0.305908,0.096558,0.212524,down
511130,-0.617187,6.671875,7.992187,0.402344,-0.322266,-0.222656,0.922852,0.307739,0.095764,0.210999,down
511135,-0.503906,6.671875,7.882812,0.402344,-0.322266,-0.222656,0.922668,0.308777,0.095459,0.210144,down
511140,-0.503906,6.671875,7.882812,0.503906,-0.324219,-0.251953,0.922546,0.309998,0.095215,0.20929,down
511145,-0.503906,6.632812,7.847656,0.503906,-0.324219,-0.251953,0.922302,0.311218,0.09491,0.208435,down
511150,-0.503906,6.632812,7.847656,0.509766,-0.337891,-0.244141,0.922119,0.3125,0.094604,0.207458,down
511155,-0.503906,6.671875,7.808594,0.509766,-0.337891,-0.244141,0.921936,0.313782,0.094299,0.206604,down
511160,-0.464844,6.671875,7.882812,0.478516,-0.380859,-0.228516,0.921936,0.313782,0.094299,0.206604,down
511165,-0.386719,6.671875,7.917969,0.478516,-0.380859,-0.228516,0.92157,0.316345,0.093506,0.204773,down
511170,-0.3125,6.710937,7.886719,0.457031,-0.390625,-0.234375,0.92157,0.316345,0.093506,0.204773,down
511176,-0.273438,6.75,7.882812,0.445312,-0.396484,-0.232422,0.921082,0.319885,0.092102,0.202087,down
511181,-0.273438,6.785156,7.917969,0.431641,-0.416016,-0.240234,0.920898,0.321167,0.091553,0.20105,down
511186,-0.273438,6.75,7.996094,0.431641,-0.416016,-0.240234,0.920776,0.322205,0.091064,0.200195,down
511192,-0.273438,6.710937,8.03125,0.431641,-0.416016,-0.240234,0.920654,0.323364,0.090515,0.199219,down
511198,-0.234375,6.710937,7.917969,0.435547,-0.433594,-0.240234,0.920471,0.324646,0.089905,0.198181,down
511203,-0.273438,6.710937,7.917969,0.423828,-0.429687,-0.234375,0.920471,0.324646,0.089905,0.198181,down
511208,-0.273438,6.710937,7.808594,0.423828,-0.429687,-0.234375,0.920166,0.326782,0.088867,0.196411,down
511213,-0.3125,6.671875,7.769531,0.4375,-0.425781,-0.228516,0.920166,0.326782,0.088867,0.196411,down
511219,-0.3125,6.59375,7.804687,0.441406,-0.417969,-0.220703,0.920166,0.326782,0.088867,0.196411,down
511225,-0.273438,6.671875,7.765625,0.464844,-0.417969,-0.212891,0.919434,0.331604,0.08667,0.19281,down
511230,-0.273438,6.671875,7.765625,0.464844,-0.417969,-0.212891,0.919434,0.331604,0.08667,0.19281,down
511235,-0.234375,6.671875,7.804687,0.511719,-0.412109,-0.201172,0.919434,0.331604,0.08667,0.19281,down
511241,-0.195312,6.710937,7.730469,0.544922,-0.404297,-0.197266,0.919434,0.331604,0.08667,0.19281,down
511247,-0.273438,6.75,7.652344,0.544922,-0.404297,-0.197266,0.918335,0.337158,0.084717,0.189331,down
511253,-0.3125,6.824219,7.613281,0.630859,-0.394531,-0.232422,0.917969,0.338684,0.084351,0.188416,down
511259,-0.347656,6.863281,7.609375,0.65625,-0.410156,-0.240234,0.917969,0.338684,0.084351,0.188416,down
511264,-0.347656,6.941406,7.5,0.65625,-0.410156,-0.240234,0.917969,0.338684,0.084351,0.188416,down
511270,-0.3125,7.054687,7.5,0.619141,-0.449219,-0.244141,0.917969,0.338684,0.084351,0.188416,down
511275,-0.3125,7.054687,7.5,0.541016,-0.453125,-0.220703,0.917969,0.338684,0.084351,0.188416,down
511280,-0.195312,7.015625,7.5,0.541016,-0.453125,-0.220703,0.91626,0.346497,0.08197,0.183411,down
511285,-0.15625,7.054687,7.503906,0.541016,-0.453125,-0.220703,0.916016,0.347839,0.08136,0.182495,down
511291,-0.234375,7.054687,7.503906,0.466797,-0.427734,-0.185547,0.916016,0.347839,0.08136,0.182495,down
511296,-0.273438,7.054687,7.386719,0.466797,-0.427734,-0.185547,0.915466,0.350464,0.0802,0.180664,down
511302,-0.273438,7.09375,7.382812,0.466797,-0.427734,-0.185547,0.915039,0.352722,0.078979,0.179077,down
511307,-0.234375,7.015625,7.386719,0.369141,-0.443359,-0.152344,0.915039,0.352722,0.078979,0.179077,down
511313,-0.234375,6.976562,7.382812,0.355469,-0.453125,-0.150391,0.915039,0.352722,0.078979,0.179077,down
511318,-0.15625,6.941406,7.347656,0.355469,-0.453125,-0.150391,0.91449,0.355774,0.076904,0.176819,down
511323,-0.15625,6.941406,7.304687,0.376953,-0.439453,-0.167969,0.91449,0.355774,0.076904,0.176819,down
511328,-0.15625,6.902344,7.308594,0.412109,-0.429687,-0.175781,0.91449,0.355774,0.076904,0.176819,down
511333,-0.15625,6.863281,7.152344,0.441406,-0.417969,-0.189453,0.91449,0.355774,0.076904,0.176819,down
511339,-0.195312,6.824219,7.152344,0.472656,-0.404297,-0.197266,0.91449,0.355774,0.076904,0.176819,down
511344,-0.15625,6.785156,7.152344,0.476562,-0.400391,-0.199219,0.91449,0.355774,0.076904,0.176819,down
511349,-0.121094,6.824219,7.113281,0.488281,-0.402344,-0.193359,0.91449,0.355774,0.076904,0.176819,down
511354,-0.042969,6.785156,7.003906,0.501953,-0.394531,-0.195312,0.91449,0.355774,0.076904,0.176819,down
511360,-0.042969,6.863281,7.042969,0.501953,-0.394531,-0.195312,0.912415,0.365112,0.072449,0.170166,down
511366,-0.082031,6.863281,7.003906,0.546875,-0.375,-0.197266,0.911682,0.367859,0.071655,0.168457,down
511371,-0.082031,7.019531,6.921875,0.546875,-0.375,-0.197266,0.911682,0.367859,0.071655,0.168457,down
511376,-0.082031,7.019531,6.886719,0.607422,-0.337891,-0.216797,0.911682,0.367859,0.071655,0.168457,down
511381,-0.042969,7.019531,6.847656,0.607422,-0.337891,-0.216797,0.910828,0.370972,0.070984,0.166626,down
511386,-0.003906,7.097656,6.808594,0.585937,-0.320313,-0.208984,0.9104,0.372437,0.070679,0.165771,down
511391,-0.003906,7.097656,6.808594,0.558594,-0.308594,-0.216797,0.909973,0.37384,0.070435,0.164978,down
511396,0.035156,7.136719,6.730469,0.558594,-0.308594,-0.216797,0.909241,0.376526,0.069946,0.163269,down
511401,0.070312,7.164062,6.695312,0.558594,-0.308594,-0.216797,0.909241,0.376526,0.069946,0.163269,down
511406,-0.042969,7.167969,6.695312,0.484375,-0.277344,-0.207031,0.909241,0.376526,0.069946,0.163269,down
511411,-0.121094,7.136719,6.617187,0.396484,-0.253906,-0.203125,0.908569,0.378784,0.069519,0.161804,down
511416,-0.121094,7.164062,6.617187,0.396484,-0.253906,-0.203125,0.908264,0.379883,0.069336,0.161011,down
511421,-0.121094,7.164062,6.617187,0.345703,-0.267578,-0.193359,0.907837,0.381531,0.068787,0.159607,down
511426,-0.121094,7.167969,6.730469,0.345703,-0.267578,-0.193359,0.907837,0.381531,0.068787,0.159607,down
511431,-0.042969,7.054687,6.769531,0.345703,-0.267578,-0.193359,0.907837,0.381531,0.068787,0.159607,down
511436,-0.042969,7.054687,6.769531,0.326172,-0.316406,-0.164062,0.907532,0.383118,0.067993,0.158142,down
511442,-0.003906,7.058594,6.695312,0.326172,-0.316406,-0.164062,0.907104,0.384827,0.067139,0.156677,down
511448,0.070312,7.019531,6.65625,0.326172,-0.316406,-0.164062,0.90686,0.385742,0.066772,0.156006,down
511453,0.148437,7.097656,6.578125,0.425781,-0.306641,-0.175781,0.906555,0.38678,0.066406,0.155334,down
511459,0.1875,7.019531,6.539062,0.443359,-0.291016,-0.171875,0.906555,0.38678,0.066406,0.155334,down
