timestamp,ax,ay,az,gx,gy,gz,qw,qx,qy,qz,label
476,-3.078125,-1.28125,9.226563,0.0,0.0,0.0,0.938782,-0.014954,0.171875,-0.298218,down
481,-3.039063,-1.320313,9.191406,0.0,0.0,0.0,0.938782,-0.014954,0.171875,-0.298218,down
486,-3.039063,-1.28125,9.226563,-0.003906,0.001953,0.0,0.938782,-0.014954,0.171875,-0.298218,down
491,-3.078125,-1.28125,9.226563,-0.003906,0.001953,0.0,0.938782,-0.014954,0.171875,-0.298218,down
496,-3.039063,-1.28125,9.226563,-0.003906,0.001953,0.0,0.938782,-0.014954,0.171875,-0.298218,down
502,-3.039063,-1.28125,9.1875,0.0,0.001953,-0.003906,0.938782,-0.014954,0.171875,-0.298218,down
508,-3.078125,-1.28125,9.226563,0.0,0.001953,-0.003906,0.938782,-0.014954,0.171875,-0.298157,down
513,-3.078125,-1.28125,9.226563,0.0,0.003906,-0.001953,0.938782,-0.014954,0.171875,-0.298157,down
518,-3.0,-1.320313,9.230469,0.0,0.003906,-0.001953,0.938782,-0.014954,0.171875,-0.298157,down
523,-3.039063,-1.28125,9.1875,0.0,0.003906,-0.001953,0.938782,-0.014954,0.171875,-0.298157,down
528,-3.039063,-1.28125,9.269531,0.0,0.003906,-0.001953,0.938782,-0.014954,0.171875,-0.298157,down
533,-3.039063,-1.28125,9.269531,0.001953,0.0,0.009766,0.938782,-0.014954,0.171875,-0.298157,down
540,-3.078125,-1.28125,9.226563,0.001953,0.0,0.009766,0.938782,-0.014954,0.171875,-0.298157,down
545,-3.078125,-1.320313,9.230469,0.001953,0.0,0.009766,0.938782,-0.014954,0.171875,-0.298157,down
551,-3.039063,-1.28125,9.226563,0.0,0.0,-0.001953,0.938782,-0.014954,0.171875,-0.298157,down
556,-3.039063,-1.28125,9.1875,0.0,-0.003906,0.0,0.938843,-0.014954,0.171875,-0.297974,down
561,-3.039063,-1.28125,9.1875,0.0,-0.003906,0.0,0.938843,-0.014954,0.171875,-0.297974,down
566,-3.039063,-1.28125,9.269531,0.0,-0.003906,0.0,0.938843,-0.014954,0.171814,-0.297974,down
571,-3.078125,-1.242188,9.226563,0.001953,-0.001953,-0.005859,0.938843,-0.014954,0.171814,-0.297974,down
577,-3.039063,-1.28125,9.226563,-0.007813,0.0,0.001953,0.938843,-0.014954,0.171814,-0.297974,down
582,-3.078125,-1.28125,9.269531,-0.007813,0.0,0.001953,0.938904,-0.015015,0.171814,-0.297913,down
587,-3.039063,-1.242188,9.269531,-0.007813,0.0,0.001953,0.938904,-0.015015,0.171814,-0.297913,down
592,-3.078125,-1.242188,9.1875,0.001953,-0.003906,0.0,0.938904,-0.015015,0.171814,-0.297913,down
597,-3.078125,-1.320313,9.191406,0.001953,-0.003906,0.0,0.938904,-0.015015,0.171814,-0.297791,down
602,-3.0,-1.320313,9.300781,0.001953,-0.003906,0.0,0.938904,-0.015076,0.171875,-0.297791,down
607,-3.078125,-1.242188,9.226563,0.011719,-0.007813,0.001953,0.938904,-0.015076,0.171875,-0.297791,down
612,-3.117188,-1.320313,9.230469,0.011719,-0.007813,0.001953,0.938965,-0.015076,0.171814,-0.297729,down
617,-3.078125,-1.320313,9.230469,0.011719,-0.007813,0.001953,0.938965,-0.015076,0.171814,-0.297668,down
622,-3.039063,-1.242188,9.1875,0.003906,-0.001953,-0.003906,0.938965,-0.015076,0.171814,-0.297668,down
627,-3.039063,-1.28125,9.226563,-0.003906,0.005859,0.003906,0.938965,-0.015076,0.171814,-0.297668,down
632,-3.078125,-1.320313,9.230469,-0.003906,0.005859,0.003906,0.938965,-0.015076,0.171814,-0.297546,down
637,-3.039063,-1.320313,9.265625,-0.003906,0.005859,0.003906,0.939026,-0.015076,0.171814,-0.297546,down
642,-3.078125,-1.320313,9.265625,0.003906,-0.009766,-0.001953,0.939026,-0.015076,0.171814,-0.297546,down
647,-3.0,-1.28125,9.1875,-0.001953,0.001953,-0.001953,0.939026,-0.015076,0.171753,-0.297485,down
653,-3.0,-1.28125,9.1875,0.001953,0.003906,0.0,0.939026,-0.015076,0.171753,-0.297424,down
658,-3.078125,-1.242188,9.1875,0.001953,0.003906,0.0,0.939087,-0.015076,0.171753,-0.297424,down
663,-3.039063,-1.203125,9.226563,-0.005859,-0.003906,-0.007813,0.939087,-0.015076,0.171753,-0.297424,down
668,-3.039063,-1.242188,9.226563,-0.005859,-0.003906,-0.007813,0.939087,-0.015137,0.171692,-0.297363,down
673,-3.117188,-1.320313,9.230469,-0.005859,-0.003906,-0.007813,0.939087,-0.015137,0.171692,-0.297302,down
679,-3.0,-1.28125,9.226563,-0.005859,-0.003906,-0.007813,0.939087,-0.015198,0.171692,-0.297302,down
684,-3.039063,-1.242188,9.226563,-0.005859,-0.003906,-0.007813,0.939087,-0.015259,0.171692,-0.297241,down
690,-3.152344,-1.320313,9.230469,-0.005859,-0.003906,-0.007813,0.939148,-0.01532,0.171692,-0.297241,down
696,-3.078125,-1.355469,9.191406,-0.021484,-0.007813,-0.005859,0.939148,-0.01532,0.171692,-0.297241,down
702,-3.039063,-1.433594,9.226563,-0.023437,-0.007813,-0.003906,0.939148,-0.015503,0.171692,-0.297119,down
707,-3.039063,-1.320313,9.230469,-0.023437,-0.007813,-0.003906,0.939148,-0.015564,0.171692,-0.297058,down
712,-3.039063,-1.28125,9.296875,0.003906,0.005859,0.001953,0.939148,-0.015564,0.171692,-0.297058,down
717,-3.078125,-1.28125,9.226563,0.013672,0.0,0.001953,0.939148,-0.015564,0.171692,-0.297058,down
723,-3.039063,-1.242188,9.1875,0.013672,0.0,0.001953,0.939209,-0.015564,0.171631,-0.296997,down
728,-3.0,-1.242188,9.1875,0.011719,0.001953,0.007813,0.939209,-0.015503,0.171631,-0.296936,down
734,-3.039063,-1.242188,9.1875,0.011719,0.001953,0.007813,0.939209,-0.015503,0.171631,-0.296875,down
739,-3.078125,-1.28125,9.226563,0.007813,-0.001953,0.001953,0.93927,-0.015503,0.171631,-0.296875,down
745,-3.039063,-1.28125,9.1875,0.007813,-0.001953,0.001953,0.93927,-0.015503,0.171631,-0.296814,down
751,-3.039063,-1.28125,9.226563,0.003906,-0.007813,-0.001953,0.93927,-0.015503,0.171631,-0.296814,down
757,-3.078125,-1.28125,9.269531,-0.003906,-0.003906,-0.003906,0.93927,-0.015503,0.171631,-0.296814,down
762,-3.078125,-1.28125,9.296875,-0.003906,-0.003906,-0.003906,0.939331,-0.015564,0.17157,-0.296692,down
767,-3.078125,-1.320313,9.265625,-0.009766,0.001953,0.001953,0.939331,-0.015564,0.17157,-0.296692,down
772,-3.078125,-1.242188,9.269531,-0.009766,0.003906,0.003906,0.939331,-0.015564,0.17157,-0.296692,down
778,-3.078125,-1.320313,9.230469,-0.005859,-0.003906,0.001953,0.939392,-0.015625,0.17157,-0.296509,down
783,-3.039063,-1.320313,9.230469,0.001953,0.003906,-0.005859,0.939392,-0.015686,0.17157,-0.296448,down
788,-3.039063,-1.28125,9.1875,0.001953,0.003906,-0.005859,0.939392,-0.015686,0.17157,-0.296448,down
793,-3.0,-1.320313,9.230469,0.003906,0.005859,-0.001953,0.939392,-0.015686,0.17157,-0.296387,down
799,-3.039063,-1.28125,9.226563,0.003906,0.005859,-0.001953,0.939392,-0.015686,0.171631,-0.296387,down
804,-3.039063,-1.28125,9.269531,0.005859,-0.001953,-0.005859,0.939392,-0.015686,0.171631,-0.296387,down
809,-3.0,-1.28125,9.226563,-0.003906,0.003906,-0.001953,0.939392,-0.015686,0.171631,-0.296387,down
815,-3.039063,-1.320313,9.265625,0.0,-0.005859,-0.001953,0.939392,-0.015686,0.171631,-0.296387,down
821,-3.039063,-1.28125,9.226563,-0.011719,-0.001953,-0.001953,0.939392,-0.015686,0.171631,-0.296387,down
826,-3.039063,-1.28125,9.269531,0.0,-0.001953,0.009766,0.939392,-0.015686,0.171631,-0.296387,down
832,-3.078125,-1.28125,9.226563,0.003906,-0.001953,-0.003906,0.939392,-0.015686,0.171631,-0.296387,down
837,-3.039063,-1.242188,9.152344,-0.005859,0.001953,0.001953,0.939392,-0.015686,0.171631,-0.296387,down
842,-3.078125,-1.28125,9.226563,0.005859,-0.001953,-0.001953,0.939392,-0.015686,0.171631,-0.296387,down
847,-3.078125,-1.28125,9.226563,0.005859,-0.001953,-0.001953,0.939514,-0.015808,0.17157,-0.296021,down
853,-3.117188,-1.28125,9.226563,0.005859,-0.001953,-0.001953,0.939514,-0.015808,0.171509,-0.296021,down
858,-3.117188,-1.28125,9.269531,0.005859,0.001953,-0.005859,0.939514,-0.015808,0.171509,-0.296021,down
863,-3.039063,-1.28125,9.226563,0.005859,0.001953,-0.005859,0.939575,-0.015808,0.171509,-0.295959,down
868,-3.078125,-1.28125,9.226563,0.005859,0.001953,-0.005859,0.939575,-0.015808,0.171509,-0.295898,down
873,-3.039063,-1.320313,9.265625,0.003906,0.001953,0.001953,0.939575,-0.015808,0.171509,-0.295898,down
878,-3.039063,-1.320313,9.191406,0.003906,0.001953,0.001953,0.939575,-0.015808,0.171509,-0.295837,down
883,-3.0,-1.28125,9.226563,0.003906,0.001953,0.001953,0.939575,-0.015808,0.171509,-0.295837,down
889,-3.0,-1.28125,9.226563,0.003906,0.001953,0.001953,0.939575,-0.015808,0.171509,-0.295776,down
894,-3.0,-1.28125,9.226563,-0.005859,0.003906,-0.001953,0.939636,-0.015808,0.171509,-0.295776,down
899,-3.039063,-1.320313,9.230469,-0.005859,0.003906,-0.001953,0.939636,-0.015869,0.171509,-0.295715,down
905,-3.078125,-1.242188,9.226563,-0.005859,0.003906,-0.001953,0.939636,-0.015869,0.171509,-0.295715,down
911,-3.078125,-1.28125,9.269531,0.013672,0.003906,-0.003906,0.939636,-0.015869,0.171509,-0.295715,down
916,-3.078125,-1.28125,9.269531,0.003906,0.003906,0.001953,0.939636,-0.015869,0.171509,-0.295715,down
922,-3.078125,-1.320313,9.265625,-0.001953,0.001953,0.003906,0.939636,-0.015869,0.171509,-0.295715,down
927,-3.078125,-1.28125,9.226563,-0.001953,0.001953,0.003906,0.939636,-0.015869,0.171509,-0.295593,down
932,-3.078125,-1.28125,9.226563,0.003906,-0.003906,0.0,0.939636,-0.015869,0.171509,-0.295593,down
938,-3.078125,-1.320313,9.230469,0.003906,-0.003906,0.0,0.939697,-0.015869,0.171448,-0.295532,down
943,-3.078125,-1.320313,9.230469,-0.005859,0.001953,-0.001953,0.939697,-0.015869,0.171448,-0.295532,down
948,-3.039063,-1.28125,9.269531,0.0,0.0,0.003906,0.939697,-0.015869,0.171448,-0.295532,down
953,-3.117188,-1.28125,9.226563,0.0,0.0,0.003906,0.939697,-0.01593,0.171448,-0.295471,down
959,-3.039063,-1.320313,9.265625,0.0,0.0,0.003906,0.939697,-0.01593,0.171448,-0.29541,down
964,-3.039063,-1.320313,9.300781,-0.003906,0.005859,-0.009766,0.939697,-0.01593,0.171448,-0.29541,down
970,-3.039063,-1.28125,9.269531,0.005859,0.003906,0.001953,0.939758,-0.01593,0.171448,-0.29541,down
975,-3.039063,-1.28125,9.269531,0.001953,0.003906,0.0,0.939758,-0.01593,0.171448,-0.295349,down
981,-3.039063,-1.320313,9.230469,0.001953,0.003906,0.0,0.939758,-0.01593,0.171448,-0.295349,down
986,-3.078125,-1.28125,9.226563,0.003906,0.003906,-0.005859,0.939758,-0.01593,0.171448,-0.295349,down
991,-3.039063,-1.320313,9.265625,-0.005859,0.007813,0.001953,0.939758,-0.01593,0.171448,-0.295349,down
997,-3.039063,-1.28125,9.226563,-0.005859,0.007813,0.001953,0.939758,-0.01593,0.171448,-0.295288,down
1002,-3.117188,-1.28125,9.1875,0.0,-0.003906,0.003906,0.939758,-0.01593,0.171448,-0.295288,down
1008,-3.078125,-1.28125,9.226563,-0.005859,0.005859,0.005859,0.939758,-0.01593,0.171448,-0.295288,down
1013,-3.078125,-1.242188,9.1875,-0.005859,0.005859,0.005859,0.939819,-0.01593,0.171448,-0.295166,down
1018,-3.078125,-1.242188,9.226563,-0.005859,0.005859,0.005859,0.939819,-0.01593,0.171448,-0.295105,down
1024,-3.078125,-1.28125,9.226563,-0.001953,0.003906,0.003906,0.939819,-0.01593,0.171448,-0.295105,down
1029,-3.078125,-1.320313,9.230469,-0.001953,0.003906,0.003906,0.939819,-0.01593,0.171448,-0.295105,down
1034,-3.078125,-1.320313,9.230469,-0.003906,0.003906,-0.001953,0.939819,-0.01593,0.171448,-0.295044,down
1040,-3.039063,-1.28125,9.1875,-0.003906,0.003906,-0.001953,0.939819,-0.01593,0.171448,-0.295044,down
1045,-3.039063,-1.28125,9.226563,0.0,-0.001953,0.003906,0.939819,-0.01593,0.171448,-0.295044,down
1050,-3.039063,-1.28125,9.226563,-0.003906,0.007813,0.001953,0.93988,-0.015991,0.171448,-0.294983,down
1055,-2.960938,-1.164063,9.269531,-0.003906,0.007813,0.001953,0.93988,-0.015991,0.171448,-0.294983,down
1061,-3.117188,-1.089844,9.230469,0.007813,0.001953,-0.009766,0.93988,-0.015991,0.171448,-0.294983,down
1066,-2.808594,-1.703125,9.1875,0.007813,0.001953,-0.009766,0.93988,-0.015991,0.171448,-0.294983,down
1072,-2.960938,-1.128906,9.375,0.007813,0.001953,-0.009766,0.93988,-0.016052,0.171509,-0.294922,down
1077,-2.925781,-1.164063,9.296875,0.015625,-0.03125,-0.003906,0.93988,-0.016052,0.171509,-0.294922,down
1083,-3.117188,-1.355469,9.03125,0.019531,0.027344,0.001953,0.93988,-0.016052,0.171509,-0.294922,down
1088,-2.925781,-1.28125,9.113281,0.019531,0.027344,0.001953,0.93988,-0.016052,0.171448,-0.294861,down
1093,-3.0,-1.242188,9.269531,0.005859,0.005859,0.001953,0.93988,-0.016052,0.171448,-0.294861,down
1098,-3.117188,-1.320313,9.230469,0.005859,0.005859,0.001953,0.93988,-0.016113,0.171448,-0.294861,down
1103,-3.078125,-1.320313,9.265625,0.005859,0.005859,0.001953,0.93988,-0.016113,0.171448,-0.2948,down
1108,-3.152344,-1.28125,9.269531,0.005859,0.005859,0.001953,0.93988,-0.016113,0.171448,-0.2948,down
1113,-3.078125,-1.242188,9.296875,0.011719,-0.011719,0.001953,0.93988,-0.016113,0.171448,-0.2948,down
1118,-3.117188,-1.28125,9.152344,0.0,0.007813,-0.009766,0.93988,-0.016113,0.171448,-0.2948,down
1124,-3.078125,-1.28125,9.1875,0.0,0.007813,-0.009766,0.939941,-0.016052,0.171387,-0.2948,down
1129,-2.960938,-1.28125,9.226563,0.003906,0.005859,0.001953,0.939941,-0.016052,0.171387,-0.2948,down
1134,-3.0,-1.203125,9.296875,0.003906,0.007813,0.0,0.939941,-0.016052,0.171387,-0.2948,down
1139,-3.117188,-1.242188,9.226563,0.003906,0.007813,0.0,0.939941,-0.016052,0.171387,-0.294739,down
1145,-2.960938,-1.28125,9.296875,0.003906,0.007813,0.0,0.939941,-0.016052,0.171448,-0.294739,down
1151,-2.960938,-1.28125,9.269531,-0.013672,-0.003906,-0.003906,0.939941,-0.016052,0.171448,-0.294739,down
1157,-3.078125,-1.320313,9.148438,-0.003906,-0.005859,-0.001953,0.939941,-0.016052,0.171448,-0.294739,down
1163,-3.039063,-1.320313,9.148438,-0.001953,0.005859,0.003906,0.939941,-0.016052,0.171448,-0.294739,down
1168,-3.0,-1.320313,9.300781,0.005859,0.001953,-0.003906,0.939941,-0.016052,0.171448,-0.294739,down
1173,-3.078125,-1.28125,9.226563,0.007813,-0.003906,0.0,0.939941,-0.016113,0.171448,-0.294678,down
1178,-3.078125,-1.28125,9.226563,0.007813,-0.003906,0.0,0.940002,-0.016113,0.171387,-0.294617,down
1183,-3.078125,-1.355469,9.230469,0.007813,-0.003906,0.0,0.940002,-0.016113,0.171387,-0.294617,down
1188,-3.039063,-1.28125,9.226563,-0.001953,0.0,0.003906,0.940002,-0.016113,0.171387,-0.294617,down
1194,-3.078125,-1.28125,9.269531,0.001953,0.003906,-0.003906,0.940002,-0.016113,0.171387,-0.294617,down
1199,-3.078125,-1.320313,9.148438,0.001953,0.003906,-0.003906,0.940002,-0.016113,0.171387,-0.294556,down
1204,-3.078125,-1.320313,9.230469,0.003906,0.005859,0.005859,0.940002,-0.016113,0.171387,-0.294556,down
1209,-3.0,-1.320313,9.230469,0.003906,0.005859,0.005859,0.940002,-0.016113,0.171387,-0.294556,down
1214,-3.039063,-1.320313,9.230469,0.003906,0.005859,0.005859,0.940002,-0.016113,0.171387,-0.294495,down
1219,-3.117188,-1.28125,9.226563,0.003906,0.0,-0.001953,0.940002,-0.016113,0.171387,-0.294495,down
1224,-3.117188,-1.28125,9.1875,0.003906,0.0,-0.001953,0.940002,-0.016113,0.171387,-0.294495,down
1230,-3.0,-1.28125,9.226563,0.003906,0.0,-0.001953,0.940002,-0.016113,0.171387,-0.294495,down
1235,-3.117188,-1.28125,9.226563,-0.005859,0.0,-0.007813,0.940002,-0.016113,0.171387,-0.294495,down
1241,-3.039063,-1.28125,9.269531,-0.005859,0.009766,-0.003906,0.940002,-0.016113,0.171387,-0.294495,down
1246,-3.039063,-1.320313,9.230469,-0.005859,0.009766,-0.003906,0.940002,-0.016113,0.171387,-0.294495,down
1251,-3.039063,-1.320313,9.230469,-0.005859,0.001953,-0.001953,0.940002,-0.016113,0.171387,-0.294495,down
1257,-3.078125,-1.28125,9.1875,0.0,-0.005859,-0.001953,0.940002,-0.016113,0.171387,-0.294495,down
1262,-3.117188,-1.28125,9.226563,0.001953,-0.001953,0.001953,0.940002,-0.016113,0.171387,-0.294495,down
1268,-3.078125,-1.28125,9.226563,-0.007813,0.003906,-0.005859,0.940002,-0.016113,0.171387,-0.294495,down
1273,-3.117188,-1.28125,9.226563,0.007813,0.0,0.003906,0.940063,-0.016174,0.171326,-0.294434,down
1278,-3.078125,-1.28125,9.1875,0.007813,0.0,0.003906,0.940063,-0.016174,0.171387,-0.294434,down
1284,-3.039063,-1.320313,9.230469,-0.001953,0.0,-0.001953,0.940063,-0.016174,0.171387,-0.294434,down
1289,-3.039063,-1.320313,9.230469,0.001953,0.0,0.001953,0.940063,-0.016174,0.171387,-0.294434,down
1294,-3.078125,-1.355469,9.230469,0.005859,-0.001953,0.001953,0.940063,-0.016174,0.171387,-0.294434,down
1299,-3.039063,-1.355469,9.191406,0.005859,-0.001953,0.001953,0.940063,-0.016174,0.171326,-0.294373,down
1304,-3.039063,-1.320313,9.230469,0.003906,-0.005859,0.003906,0.940063,-0.016174,0.171326,-0.294373,down
1310,-3.0,-1.242188,9.226563,0.003906,-0.005859,0.003906,0.940063,-0.016174,0.171326,-0.294373,down
1315,-3.0,-1.242188,9.226563,0.003906,-0.001953,0.005859,0.940063,-0.016174,0.171326,-0.294373,down
1321,-3.0,-1.28125,9.269531,0.003906,-0.001953,0.005859,0.940063,-0.016174,0.171265,-0.294373,down
1326,-3.039063,-1.28125,9.339844,-0.003906,0.003906,-0.003906,0.940063,-0.016174,0.171265,-0.294373,down
1331,-3.039063,-1.28125,9.269531,0.005859,0.005859,0.003906,0.940063,-0.016174,0.171265,-0.294373,down
1336,-3.039063,-1.320313,9.191406,0.005859,0.005859,0.003906,0.940063,-0.016174,0.171265,-0.294373,down
1342,-3.039063,-1.28125,9.1875,0.005859,0.0,0.0,0.940063,-0.016174,0.171265,-0.294373,down
1347,-3.078125,-1.242188,9.226563,0.003906,-0.005859,-0.003906,0.940063,-0.016174,0.171265,-0.294373,down
1352,-3.078125,-1.28125,9.226563,0.001953,0.003906,-0.001953,0.940063,-0.016174,0.171265,-0.294373,down
1357,-3.039063,-1.320313,9.230469,-0.001953,0.005859,0.001953,0.940063,-0.016174,0.171265,-0.294373,down
1362,-3.117188,-1.28125,9.226563,0.0,0.001953,-0.001953,0.940063,-0.016174,0.171265,-0.294373,down
1367,-3.078125,-1.28125,9.269531,-0.003906,-0.007813,0.007813,0.940063,-0.016174,0.171265,-0.294373,down
1372,-3.039063,-1.28125,9.1875,-0.003906,-0.007813,0.007813,0.940063,-0.016174,0.171265,-0.294373,down
1377,-3.039063,-1.28125,9.1875,0.003906,-0.003906,-0.001953,0.940063,-0.016174,0.171265,-0.294373,down
1382,-3.039063,-1.320313,9.191406,0.003906,0.001953,0.001953,0.940063,-0.016174,0.171265,-0.294373,down
1387,-3.039063,-1.320313,9.230469,0.007813,0.003906,0.0,0.940063,-0.016174,0.171265,-0.294373,down
1393,-3.078125,-1.320313,9.230469,0.007813,0.003906,0.0,0.940063,-0.016174,0.171265,-0.294373,down
1398,-3.0,-1.28125,9.226563,-0.007813,0.007813,0.001953,0.940063,-0.016174,0.171265,-0.294373,down
1404,-3.039063,-1.320313,9.265625,0.001953,-0.005859,0.0,0.940063,-0.016174,0.171265,-0.294373,down
1409,-3.039063,-1.320313,9.265625,0.001953,-0.005859,0.0,0.940125,-0.016113,0.171204,-0.29425,down
1414,-3.039063,-1.242188,9.226563,0.007813,-0.001953,0.0,0.940125,-0.016113,0.171204,-0.29425,down
1419,-3.039063,-1.28125,9.1875,0.007813,-0.001953,0.0,0.940125,-0.016113,0.171204,-0.294312,down
1424,-3.191406,-1.128906,9.226563,0.007813,-0.001953,0.0,0.940125,-0.016113,0.171204,-0.294312,down
1429,-3.230469,-1.203125,9.074219,0.007813,-0.001953,0.0,0.940125,-0.016052,0.171204,-0.294312,down
1434,-3.152344,-1.203125,9.152344,0.007813,-0.001953,0.0,0.940125,-0.016052,0.171204,-0.294312,down
1439,-2.960938,-1.28125,9.269531,-0.023437,0.009766,0.001953,0.940125,-0.016052,0.171204,-0.294312,down
1445,-2.960938,-1.28125,9.269531,-0.005859,0.001953,0.001953,0.940125,-0.016174,0.171265,-0.29425,down
1450,-3.152344,-1.472656,9.109375,-0.005859,0.001953,0.001953,0.940125,-0.016174,0.171204,-0.294312,down
1455,-3.039063,-1.433594,9.113281,0.003906,-0.007813,-0.003906,0.940125,-0.016113,0.171204,-0.294312,down
1460,-2.886719,-1.320313,9.152344,0.003906,-0.007813,-0.003906,0.940125,-0.016113,0.171143,-0.294312,down
1465,-3.078125,-1.242188,9.269531,0.003906,-0.007813,-0.003906,0.940125,-0.016113,0.171143,-0.294312,down
1470,-3.152344,-1.28125,9.152344,-0.017578,0.009766,0.003906,0.940125,-0.016113,0.171143,-0.294312,down
1475,-3.039063,-1.242188,9.226563,-0.003906,0.015625,0.015625,0.940125,-0.016113,0.171143,-0.294312,down
1480,-3.0,-1.203125,9.296875,-0.003906,0.015625,0.015625,0.940125,-0.016174,0.171204,-0.294312,down
1486,-3.117188,-1.28125,9.296875,-0.003906,0.015625,0.015625,0.940125,-0.016174,0.171204,-0.294312,down
1491,-3.152344,-1.28125,9.226563,0.015625,0.001953,-0.001953,0.940125,-0.016174,0.171204,-0.294312,down
1497,-3.039063,-1.164063,9.070313,0.029297,-0.009766,-0.005859,0.940125,-0.016174,0.171204,-0.294312,down
1503,-2.925781,-1.203125,9.226563,0.011719,-0.003906,-0.005859,0.940125,-0.016174,0.171204,-0.294312,down
1508,-3.039063,-1.203125,9.226563,0.005859,-0.003906,-0.001953,0.940125,-0.016174,0.171204,-0.294312,down
1513,-3.078125,-1.28125,9.226563,-0.005859,0.011719,-0.001953,0.940125,-0.016174,0.171204,-0.294312,down
1519,-3.0,-1.320313,9.265625,-0.021484,0.005859,-0.001953,0.940063,-0.016113,0.171204,-0.294373,down
1524,-3.0,-1.355469,9.230469,-0.021484,-0.003906,0.003906,0.940063,-0.016113,0.171204,-0.294373,down
1529,-3.078125,-1.320313,9.265625,-0.021484,-0.003906,0.003906,0.940063,-0.016235,0.171204,-0.294373,down
1534,-3.117188,-1.355469,9.265625,-0.021484,-0.003906,0.003906,0.940063,-0.016235,0.171204,-0.294373,down
1539,-3.0,-1.355469,9.191406,0.007813,-0.003906,-0.007813,0.940063,-0.016235,0.171204,-0.294373,down
1545,-3.0,-1.355469,9.191406,0.005859,0.003906,-0.003906,0.940063,-0.016235,0.171204,-0.294434,down
1550,-3.078125,-1.355469,9.265625,0.005859,0.003906,-0.003906,0.940063,-0.016174,0.171204,-0.294434,down
1556,-3.0,-1.28125,9.226563,0.005859,0.003906,-0.003906,0.940063,-0.016174,0.171204,-0.294434,down
1562,-3.0,-1.28125,9.226563,0.011719,-0.003906,0.005859,0.940063,-0.016174,0.171204,-0.294434,down
1567,-3.039063,-1.242188,9.152344,0.001953,0.003906,-0.001953,0.940063,-0.016174,0.171204,-0.294434,down
1572,-3.117188,-1.164063,9.269531,0.001953,0.003906,-0.001953,0.940063,-0.016113,0.171143,-0.294434,down
1578,-3.039063,-1.242188,9.226563,0.003906,-0.001953,-0.003906,0.940063,-0.016113,0.171143,-0.294434,down
1584,-3.0,-1.242188,9.226563,-0.003906,-0.003906,0.005859,0.940063,-0.016113,0.171143,-0.294434,down
1589,-3.117188,-1.242188,9.226563,-0.003906,-0.003906,0.005859,0.940063,-0.016113,0.171143,-0.294495,down
1594,-3.117188,-1.242188,9.226563,-0.003906,-0.003906,0.005859,0.940063,-0.016113,0.171143,-0.294495,down
1599,-3.078125,-1.242188,9.226563,-0.009766,-0.003906,0.005859,0.940063,-0.016113,0.171143,-0.294495,down
1604,-3.039063,-1.28125,9.226563,-0.015625,0.001953,-0.005859,0.940063,-0.016113,0.171143,-0.294495,down
1610,-3.078125,-1.355469,9.265625,-0.015625,0.001953,-0.005859,0.940063,-0.016174,0.171143,-0.294556,down
1615,-3.078125,-1.355469,9.265625,-0.007813,0.003906,-0.005859,0.940063,-0.016174,0.171143,-0.294556,down
1621,-3.0,-1.355469,9.265625,-0.007813,0.003906,-0.005859,0.940063,-0.016174,0.171143,-0.294556,down
1626,-3.039063,-1.394531,9.1875,-0.007813,0.003906,-0.005859,0.940063,-0.016174,0.171143,-0.294556,down
1632,-3.039063,-1.355469,9.230469,0.003906,-0.001953,-0.001953,0.940063,-0.016174,0.171143,-0.294556,down
1637,-3.0,-1.355469,9.265625,-0.003906,0.003906,-0.003906,0.940063,-0.016174,0.171143,-0.294556,down
1642,-3.0,-1.320313,9.230469,-0.003906,-0.005859,-0.001953,0.940063,-0.016174,0.171143,-0.294556,down
1647,-3.039063,-1.320313,9.230469,-0.003906,-0.005859,-0.001953,0.940063,-0.016174,0.171143,-0.294556,down
1653,-3.078125,-1.28125,9.269531,0.003906,0.005859,-0.001953,0.940063,-0.016174,0.171143,-0.294556,down
1658,-3.039063,-1.242188,9.226563,0.005859,0.001953,0.003906,0.940063,-0.016174,0.171143,-0.294556,down
1663,-3.078125,-1.203125,9.226563,0.005859,0.001953,0.003906,0.940002,-0.016113,0.171143,-0.294678,down
1669,-3.078125,-1.203125,9.226563,0.007813,0.007813,-0.001953,0.940002,-0.016113,0.171143,-0.294678,down
1674,-3.117188,-1.203125,9.1875,0.0,0.009766,0.0,0.940002,-0.016113,0.171143,-0.294678,down
1679,-3.039063,-1.203125,9.226563,0.001953,-0.001953,-0.001953,0.940002,-0.016113,0.171143,-0.294678,down
1684,-3.078125,-1.203125,9.269531,0.001953,-0.001953,-0.001953,0.940002,-0.016052,0.171143,-0.294739,down
1689,-3.078125,-1.242188,9.226563,-0.007813,-0.001953,-0.003906,0.939941,-0.016052,0.171143,-0.2948,down
1695,-3.039063,-1.320313,9.230469,-0.007813,-0.003906,-0.001953,0.939941,-0.016052,0.171143,-0.2948,down
1701,-3.039063,-1.355469,9.230469,-0.007813,-0.003906,-0.001953,0.939941,-0.016113,0.171204,-0.294861,down
1706,-3.039063,-1.355469,9.265625,-0.003906,0.001953,-0.001953,0.939941,-0.016113,0.171204,-0.294861,down
1711,-3.039063,-1.355469,9.265625,-0.003906,0.001953,-0.001953,0.939941,-0.016113,0.171204,-0.294861,down
1717,-3.0,-1.355469,9.230469,-0.003906,0.001953,-0.001953,0.939941,-0.016113,0.171204,-0.294922,down
1723,-3.0,-1.355469,9.265625,0.001953,-0.003906,0.005859,0.939941,-0.016113,0.171204,-0.294922,down
1728,-3.039063,-1.320313,9.265625,-0.003906,0.0,-0.001953,0.939941,-0.016113,0.171204,-0.294922,down
1733,-3.078125,-1.28125,9.1875,0.005859,0.0,-0.001953,0.939941,-0.016113,0.171204,-0.294922,down
1739,-3.039063,-1.28125,9.226563,0.009766,0.005859,-0.001953,0.939941,-0.016113,0.171204,-0.294922,down
1744,-3.039063,-1.242188,9.226563,0.009766,0.005859,-0.001953,0.93988,-0.016113,0.171204,-0.294983,down
1749,-3.039063,-1.242188,9.269531,0.003906,0.003906,-0.003906,0.93988,-0.016113,0.171204,-0.294983,down
1754,-3.039063,-1.242188,9.226563,0.003906,0.003906,-0.003906,0.93988,-0.016052,0.171204,-0.295044,down
1759,-3.078125,-1.242188,9.1875,0.005859,-0.003906,0.001953,0.93988,-0.016052,0.171204,-0.295044,down
1764,-3.039063,-1.242188,9.226563,-0.001953,0.0,0.003906,0.93988,-0.016052,0.171204,-0.295044,down
1769,-3.039063,-1.242188,9.226563,-0.005859,-0.001953,-0.003906,0.93988,-0.016052,0.171204,-0.295105,down
1774,-3.078125,-1.28125,9.269531,-0.005859,-0.001953,-0.003906,0.93988,-0.016052,0.171204,-0.295105,down
1779,-3.078125,-1.320313,9.191406,-0.005859,-0.001953,-0.003906,0.93988,-0.016052,0.171204,-0.295105,down
1784,-3.039063,-1.320313,9.265625,-0.005859,-0.003906,0.001953,0.93988,-0.016052,0.171204,-0.295105,down
1789,-3.039063,-1.320313,9.265625,-0.005859,-0.003906,0.001953,0.939819,-0.016113,0.171204,-0.295166,down
1794,-3.039063,-1.320313,9.230469,-0.005859,-0.003906,0.001953,0.939819,-0.016113,0.171204,-0.295166,down
1799,-3.039063,-1.320313,9.230469,0.003906,-0.001953,0.001953,0.939819,-0.016113,0.171204,-0.295166,down
1804,-3.0,-1.355469,9.191406,0.007813,-0.003906,-0.001953,0.939819,-0.016113,0.171204,-0.295166,down
1809,-3.039063,-1.320313,9.265625,0.007813,-0.003906,-0.001953,0.939819,-0.016052,0.171204,-0.295227,down
1814,-3.039063,-1.28125,9.226563,0.001953,0.0,-0.003906,0.939819,-0.016052,0.171204,-0.295288,down
1819,-3.078125,-1.320313,9.191406,0.001953,0.0,-0.003906,0.939819,-0.016052,0.171204,-0.295288,down
1825,-3.0,-1.28125,9.226563,0.0,-0.001953,0.001953,0.939819,-0.016052,0.171204,-0.295288,down
1830,-3.0,-1.28125,9.269531,0.001953,0.005859,-0.001953,0.939819,-0.016052,0.171204,-0.295349,down
1835,-3.0,-1.28125,9.269531,-0.005859,-0.001953,0.0,0.939758,-0.016052,0.171204,-0.29541,down
1840,-3.039063,-1.242188,9.1875,-0.005859,-0.001953,0.0,0.939758,-0.016052,0.171204,-0.29541,down
1845,-3.078125,-1.242188,9.226563,-0.003906,0.001953,0.003906,0.939758,-0.016052,0.171204,-0.29541,down
1850,-3.078125,-1.242188,9.226563,-0.003906,0.001953,0.003906,0.939758,-0.016052,0.171204,-0.295471,down
1855,-3.078125,-1.203125,9.226563,0.001953,0.001953,0.003906,0.939758,-0.016052,0.171204,-0.295471,down
1860,-3.078125,-1.28125,9.1875,0.001953,0.001953,0.003906,0.939758,-0.016052,0.171204,-0.295471,down
1865,-3.078125,-1.28125,9.226563,0.001953,0.001953,-0.001953,0.939758,-0.016052,0.171204,-0.295471,down
1870,-3.039063,-1.242188,9.226563,0.001953,0.001953,-0.001953,0.939697,-0.016052,0.171204,-0.295532,down
1875,-3.039063,-1.320313,9.230469,0.001953,0.001953,-0.001953,0.939697,-0.016052,0.171204,-0.295593,down
1880,-3.039063,-1.320313,9.191406,0.001953,0.001953,-0.001953,0.939697,-0.016052,0.171204,-0.295593,down
1885,-3.039063,-1.320313,9.191406,-0.003906,0.0,-0.003906,0.939697,-0.016052,0.171204,-0.295593,down
1890,-3.039063,-1.320313,9.191406,-0.003906,0.0,-0.003906,0.939697,-0.016052,0.171204,-0.295654,down
1896,-3.039063,-1.355469,9.265625,-0.003906,0.0,-0.003906,0.939697,-0.016052,0.171204,-0.295654,down
1902,-3.039063,-1.28125,9.226563,-0.003906,0.0,-0.003906,0.939697,-0.016052,0.171204,-0.295715,down
1907,-3.039063,-1.28125,9.226563,0.005859,-0.003906,-0.003906,0.939697,-0.016052,0.171204,-0.295715,down
1912,-3.039063,-1.28125,9.226563,0.003906,0.007813,0.003906,0.939697,-0.016052,0.171204,-0.295715,down
1918,-3.039063,-1.28125,9.226563,0.005859,-0.003906,0.003906,0.939697,-0.016052,0.171204,-0.295715,down
1923,-3.039063,-1.242188,9.226563,0.005859,0.0,-0.001953,0.939697,-0.016052,0.171204,-0.295715,down
1929,-3.078125,-1.28125,9.226563,0.005859,0.0,0.003906,0.939697,-0.016052,0.171204,-0.295715,down
1934,-3.078125,-1.242188,9.226563,0.005859,0.0,0.003906,0.939636,-0.015991,0.171204,-0.295837,down
1939,-3.078125,-1.242188,9.1875,0.003906,-0.001953,0.007813,0.939636,-0.015991,0.171204,-0.295837,down
1945,-3.078125,-1.28125,9.226563,-0.007813,-0.001953,-0.001953,0.939636,-0.015991,0.171204,-0.295837,down
1950,-3.078125,-1.28125,9.269531,-0.007813,-0.001953,-0.001953,0.939636,-0.015991,0.171204,-0.295898,down
1955,-3.078125,-1.28125,9.226563,-0.003906,-0.001953,0.0,0.939636,-0.015991,0.171204,-0.295898,down
1960,-3.078125,-1.320313,9.230469,-0.003906,-0.001953,0.0,0.939575,-0.015991,0.171204,-0.295959,down
1965,-3.078125,-1.320313,9.230469,-0.003906,-0.001953,0.0,0.939575,-0.015991,0.171204,-0.295959,down
1970,-3.0,-1.320313,9.230469,-0.003906,-0.001953,0.0,0.939575,-0.015991,0.171204,-0.295959,down
1975,-3.0,-1.320313,9.191406,-0.003906,-0.001953,0.0,0.939575,-0.015991,0.171204,-0.295959,down
1980,-3.039063,-1.320313,9.265625,-0.001953,0.001953,0.0,0.939575,-0.015991,0.171204,-0.295959,down
1985,-3.039063,-1.28125,9.1875,-0.001953,0.001953,0.0,0.939575,-0.015991,0.171143,-0.296021,down
1990,-3.039063,-1.320313,9.265625,-0.001953,0.001953,0.0,0.939575,-0.015991,0.171143,-0.296082,down
1995,-3.039063,-1.320313,9.230469,0.007813,0.003906,0.003906,0.939575,-0.015991,0.171143,-0.296082,down
2000,-3.078125,-1.320313,9.230469,0.007813,0.003906,0.003906,0.939575,-0.01593,0.171143,-0.296082,down
2005,-3.078125,-1.28125,9.226563,0.007813,0.003906,0.003906,0.939575,-0.01593,0.171143,-0.296143,down
2010,-3.039063,-1.28125,9.226563,-0.005859,0.0,0.001953,0.939575,-0.01593,0.171143,-0.296143,down
2015,-3.078125,-1.28125,9.226563,-0.005859,0.0,0.001953,0.939514,-0.01593,0.171143,-0.296143,down
2020,-3.039063,-1.242188,9.226563,-0.003906,0.005859,-0.005859,0.939514,-0.01593,0.171143,-0.296143,down
2026,-3.039063,-1.28125,9.269531,-0.003906,0.005859,-0.005859,0.939514,-0.01593,0.171143,-0.296204,down
2031,-3.039063,-1.28125,9.226563,-0.003906,0.001953,0.005859,0.939514,-0.01593,0.171143,-0.296265,down
2037,-3.117188,-1.320313,9.230469,0.003906,0.003906,-0.001953,0.939514,-0.01593,0.171143,-0.296265,down
2042,-3.078125,-1.28125,9.226563,0.001953,0.001953,-0.001953,0.939514,-0.01593,0.171143,-0.296265,down
2049,-3.078125,-1.28125,9.1875,0.0,0.003906,-0.001953,0.939514,-0.01593,0.171143,-0.296265,down
2054,-3.039063,-1.320313,9.148438,-0.001953,-0.001953,0.0,0.939514,-0.01593,0.171143,-0.296265,down
2059,-3.039063,-1.320313,9.230469,0.003906,0.001953,0.003906,0.939514,-0.01593,0.171143,-0.296265,down
2064,-3.039063,-1.320313,9.230469,0.003906,0.001953,0.003906,0.939453,-0.01593,0.171143,-0.296387,down
2070,-3.039063,-1.320313,9.191406,-0.011719,0.005859,0.0,0.939453,-0.01593,0.171143,-0.296387,down
2075,-3.039063,-1.320313,9.265625,-0.011719,0.005859,0.0,0.939453,-0.015869,0.171143,-0.296448,down
2080,-3.0,-1.320313,9.265625,-0.011719,0.005859,0.0,0.939453,-0.015869,0.171143,-0.296509,down
2085,-3.039063,-1.320313,9.230469,-0.011719,0.005859,0.0,0.939453,-0.015869,0.171143,-0.296509,down
2090,-3.078125,-1.28125,9.226563,0.003906,-0.001953,0.003906,0.939453,-0.015869,0.171143,-0.296509,down
2095,-3.039063,-1.242188,9.226563,0.003906,-0.001953,0.003906,0.939392,-0.015869,0.171143,-0.29657,down
2100,-3.078125,-1.28125,9.1875,0.003906,-0.001953,0.003906,0.939392,-0.015869,0.171143,-0.29657,down
2105,-3.039063,-1.242188,9.226563,0.001953,0.007813,0.0,0.939392,-0.015869,0.171143,-0.29657,down
2111,-3.078125,-1.28125,9.269531,0.001953,0.007813,0.0,0.939392,-0.015808,0.171143,-0.296631,down
2116,-3.078125,-1.28125,9.269531,0.003906,-0.007813,0.003906,0.939392,-0.015808,0.171143,-0.296692,down
2121,-3.078125,-1.28125,9.226563,0.003906,-0.007813,0.003906,0.939392,-0.015808,0.171143,-0.296692,down
2126,-3.078125,-1.28125,9.1875,0.003906,-0.007813,0.003906,0.939392,-0.015808,0.171143,-0.296753,down
2132,-3.039063,-1.320313,9.265625,0.003906,-0.007813,0.003906,0.939331,-0.015808,0.171143,-0.296753,down
2137,-3.039063,-1.320313,9.230469,-0.003906,0.003906,-0.001953,0.939331,-0.015869,0.171143,-0.296814,down
2143,-3.039063,-1.28125,9.1875,-0.007813,0.001953,-0.001953,0.939331,-0.015869,0.171143,-0.296814,down
2149,-3.039063,-1.320313,9.230469,-0.007813,0.001953,-0.001953,0.939331,-0.015869,0.171143,-0.296875,down
2154,-3.078125,-1.320313,9.230469,-0.001953,0.003906,-0.005859,0.939331,-0.015869,0.171143,-0.296875,down
2160,-3.039063,-1.320313,9.265625,-0.001953,-0.001953,0.005859,0.939331,-0.015869,0.171143,-0.296875,down
2165,-3.039063,-1.28125,9.226563,-0.001953,-0.001953,0.005859,0.93927,-0.015869,0.171204,-0.296936,down
2170,-3.078125,-1.28125,9.269531,-0.001953,-0.001953,0.005859,0.93927,-0.015869,0.171204,-0.296936,down
2175,-3.078125,-1.320313,9.230469,0.003906,0.0,0.001953,0.93927,-0.015869,0.171204,-0.296936,down
2180,-3.039063,-1.28125,9.226563,0.003906,0.0,0.003906,0.93927,-0.015869,0.171204,-0.296936,down
2186,-3.039063,-1.28125,9.226563,0.005859,-0.003906,0.003906,0.93927,-0.015808,0.171143,-0.297058,down
2191,-3.039063,-1.28125,9.226563,0.0,-0.001953,-0.005859,0.93927,-0.015808,0.171143,-0.297058,down
2197,-3.078125,-1.242188,9.269531,0.0,-0.001953,-0.005859,0.93927,-0.015808,0.171143,-0.297119,down
2202,-3.078125,-1.28125,9.226563,0.0,-0.001953,-0.005859,0.93927,-0.015808,0.171143,-0.297119,down
2209,-3.078125,-1.320313,9.265625,-0.001953,-0.003906,0.007813,0.93927,-0.015808,0.171143,-0.297119,down
2214,-3.039063,-1.28125,9.226563,0.001953,-0.003906,0.001953,0.93927,-0.015808,0.171143,-0.297119,down
2220,-3.039063,-1.28125,9.226563,0.001953,0.001953,-0.001953,0.93927,-0.015808,0.171143,-0.297119,down
2225,-3.078125,-1.320313,9.265625,-0.003906,-0.003906,0.005859,0.93927,-0.015808,0.171143,-0.297119,down
2230,-3.078125,-1.320313,9.265625,0.0,0.005859,-0.003906,0.93927,-0.015808,0.171143,-0.297119,down
2235,-3.039063,-1.320313,9.191406,0.0,0.003906,-0.005859,0.93927,-0.015808,0.171143,-0.297119,down
2240,-3.039063,-1.28125,9.269531,-0.003906,-0.003906,0.001953,0.939209,-0.015808,0.171143,-0.297302,down
2245,-3.039063,-1.28125,9.226563,-0.003906,-0.003906,0.001953,0.939209,-0.015808,0.171143,-0.297302,down
2250,-3.039063,-1.28125,9.1875,0.0,0.0,-0.001953,0.939209,-0.015808,0.171143,-0.297302,down
2256,-3.078125,-1.28125,9.1875,0.0,0.0,-0.001953,0.939148,-0.015808,0.171143,-0.297363,down
2262,-3.039063,-1.28125,9.226563,0.0,0.0,-0.001953,0.939148,-0.015808,0.171143,-0.297424,down
2267,-3.0,-1.320313,9.230469,-0.001953,0.003906,-0.001953,0.939148,-0.015808,0.171143,-0.297424,down
2274,-3.039063,-1.242188,9.269531,-0.005859,0.0,-0.005859,0.939148,-0.015808,0.171143,-0.297424,down
2279,-3.039063,-1.320313,9.265625,-0.005859,0.0,-0.005859,0.939087,-0.015808,0.171143,-0.297485,down
2284,-3.039063,-1.28125,9.269531,-0.001953,-0.003906,-0.003906,0.939087,-0.015808,0.171143,-0.297485,down
2289,-3.078125,-1.28125,9.269531,-0.003906,-0.005859,0.001953,0.939087,-0.015808,0.171143,-0.297485,down
2294,-3.078125,-1.28125,9.269531,-0.003906,-0.005859,0.001953,0.939087,-0.015808,0.171143,-0.297485,down
2299,-3.039063,-1.28125,9.226563,0.005859,-0.003906,0.003906,0.939087,-0.015808,0.171143,-0.297485,down
2304,-3.039063,-1.320313,9.230469,0.005859,-0.003906,0.003906,0.939087,-0.015808,0.171143,-0.297607,down
2309,-3.039063,-1.320313,9.230469,0.0,0.001953,0.001953,0.939087,-0.015808,0.171143,-0.297607,down
2314,-3.078125,-1.28125,9.226563,-0.003906,0.0,0.001953,0.939087,-0.015808,0.171143,-0.297607,down
2319,-3.039063,-1.320313,9.230469,-0.001953,0.0,-0.007813,0.939087,-0.015808,0.171143,-0.297607,down
2325,-3.039063,-1.320313,9.265625,0.005859,0.003906,0.001953,0.939087,-0.015808,0.171143,-0.297607,down
2330,-3.078125,-1.320313,9.265625,0.005859,0.003906,0.001953,0.939026,-0.015747,0.171143,-0.297791,down
2335,-3.039063,-1.28125,9.226563,0.0,-0.003906,-0.001953,0.939026,-0.015747,0.171143,-0.297791,down
2340,-3.039063,-1.28125,9.226563,-0.003906,0.003906,-0.003906,0.939026,-0.015747,0.171143,-0.297791,down
2345,-3.039063,-1.28125,9.269531,-0.003906,0.003906,-0.003906,0.939026,-0.015747,0.171143,-0.297852,down
2350,-3.039063,-1.28125,9.269531,-0.003906,0.003906,-0.003906,0.938965,-0.015747,0.171143,-0.297913,down
2355,-3.078125,-1.28125,9.226563,0.001953,0.003906,0.003906,0.938965,-0.015747,0.171143,-0.297913,down
2361,-3.078125,-1.28125,9.226563,0.005859,-0.003906,-0.001953,0.938965,-0.015747,0.171143,-0.297913,down
2367,-3.078125,-1.28125,9.226563,0.005859,-0.003906,-0.001953,0.938965,-0.015747,0.171143,-0.298035,down
2372,-3.039063,-1.28125,9.226563,0.007813,-0.007813,0.007813,0.938965,-0.015747,0.171143,-0.298035,down
2378,-3.039063,-1.28125,9.226563,0.005859,0.003906,-0.001953,0.938965,-0.015747,0.171143,-0.298035,down
2383,-3.039063,-1.242188,9.226563,0.005859,0.003906,-0.001953,0.938904,-0.015686,0.171143,-0.298096,down
2389,-3.039063,-1.28125,9.226563,0.007813,-0.009766,0.003906,0.938904,-0.015686,0.171143,-0.298096,down
2394,-3.078125,-1.28125,9.226563,-0.009766,0.003906,0.001953,0.938904,-0.015686,0.171143,-0.298096,down
2400,-3.078125,-1.320313,9.265625,-0.007813,0.001953,0.001953,0.938904,-0.015686,0.171143,-0.298096,down
2405,-3.039063,-1.28125,9.226563,0.0,0.001953,0.001953,0.938904,-0.015686,0.171143,-0.298096,down
2411,-3.078125,-1.28125,9.269531,0.003906,-0.001953,0.001953,0.938904,-0.015686,0.171143,-0.298096,down
2416,-3.078125,-1.320313,9.230469,0.0,0.001953,0.0,0.938843,-0.015686,0.171143,-0.298279,down
2421,-3.039063,-1.320313,9.191406,0.0,0.001953,0.0,0.938843,-0.015686,0.171143,-0.29834,down
2426,-3.039063,-1.320313,9.230469,-0.003906,-0.003906,-0.001953,0.938843,-0.015686,0.171143,-0.29834,down
2431,-3.078125,-1.28125,9.269531,-0.003906,-0.003906,-0.001953,0.938843,-0.015686,0.171143,-0.298401,down
2436,-3.039063,-1.28125,9.226563,-0.003906,-0.003906,-0.001953,0.938843,-0.015686,0.171143,-0.298462,down
2441,-3.0,-1.28125,9.226563,0.001953,-0.001953,0.003906,0.938843,-0.015686,0.171143,-0.298462,down
2447,-3.0,-1.28125,9.226563,-0.001953,0.003906,-0.001953,0.938782,-0.015686,0.171143,-0.298523,down
2452,-3.039063,-1.28125,9.226563,-0.001953,0.003906,-0.001953,0.938782,-0.015686,0.171143,-0.298523,down
2458,-3.039063,-1.28125,9.226563,-0.001953,0.003906,-0.001953,0.938782,-0.015686,0.171143,-0.298584,down
2464,-3.039063,-1.320313,9.230469,0.001953,0.001953,-0.003906,0.938782,-0.015686,0.171143,-0.298584,down
2469,-3.078125,-1.242188,9.226563,0.001953,0.001953,0.001953,0.938782,-0.015686,0.171143,-0.298584,down
2474,-3.039063,-1.28125,9.226563,0.0,-0.001953,0.005859,0.938782,-0.015686,0.171143,-0.298584,down
2480,-3.039063,-1.28125,9.226563,-0.001953,0.0,-0.001953,0.938782,-0.015686,0.171143,-0.298584,down
2486,-3.039063,-1.320313,9.265625,0.001953,-0.005859,0.005859,0.938782,-0.015686,0.171143,-0.298584,down
2491,-3.0,-1.28125,9.269531,-0.005859,0.005859,-0.005859,0.938721,-0.015625,0.171143,-0.298706,down
2496,-3.078125,-1.28125,9.226563,-0.005859,0.005859,-0.005859,0.938721,-0.015625,0.171143,-0.298767,down
2501,-3.039063,-1.28125,9.226563,-0.005859,0.005859,-0.005859,0.938721,-0.015625,0.171143,-0.298767,down
2506,-3.039063,-1.320313,9.230469,-0.003906,0.001953,-0.005859,0.938721,-0.015625,0.171143,-0.298767,down
2512,-3.039063,-1.28125,9.226563,-0.003906,0.001953,-0.005859,0.938721,-0.015625,0.171204,-0.298828,down
2517,-3.039063,-1.28125,9.226563,-0.001953,-0.001953,0.003906,0.938721,-0.015686,0.171204,-0.298828,down
2523,-3.039063,-1.28125,9.269531,-0.001953,-0.001953,0.003906,0.938721,-0.015686,0.171204,-0.298828,down
2528,-3.039063,-1.28125,9.226563,-0.001953,-0.001953,0.003906,0.938721,-0.015625,0.171204,-0.298828,down
2534,-3.078125,-1.28125,9.269531,0.0,0.001953,-0.005859,0.938721,-0.015625,0.171204,-0.298828,down
2539,-3.039063,-1.320313,9.230469,-0.001953,-0.001953,0.001953,0.938721,-0.015625,0.171204,-0.298828,down
2544,-3.039063,-1.28125,9.226563,0.003906,0.001953,-0.003906,0.938721,-0.015625,0.171204,-0.298828,down
2549,-3.078125,-1.28125,9.269531,0.003906,-0.001953,0.005859,0.938721,-0.015625,0.171204,-0.298828,down
2554,-3.078125,-1.28125,9.226563,0.0,-0.003906,-0.003906,0.938721,-0.015625,0.171204,-0.298828,down
2559,-3.039063,-1.320313,9.230469,0.0,-0.001953,-0.003906,0.938721,-0.015625,0.171204,-0.298828,down
2565,-3.039063,-1.320313,9.300781,0.0,-0.001953,-0.003906,0.938721,-0.015625,0.171204,-0.298828,down
2571,-3.078125,-1.28125,9.1875,0.0,0.003906,0.001953,0.938721,-0.015625,0.171204,-0.298828,down
2576,-3.039063,-1.28125,9.1875,0.0,-0.001953,0.001953,0.938721,-0.015625,0.171204,-0.298828,down
2582,-3.039063,-1.28125,9.269531,0.0,-0.001953,0.001953,0.938599,-0.015564,0.171143,-0.299194,down
2587,-3.039063,-1.320313,9.230469,0.001953,0.001953,-0.001953,0.938599,-0.015564,0.171143,-0.299255,down
2593,-3.039063,-1.28125,9.226563,0.001953,0.001953,-0.001953,0.938599,-0.015503,0.171143,-0.299255,down
2598,-3.039063,-1.28125,9.269531,0.009766,-0.003906,0.001953,0.938599,-0.015503,0.171143,-0.299255,down
2605,-3.078125,-1.28125,9.269531,0.009766,-0.003906,0.001953,0.938599,-0.015503,0.171143,-0.299255,down
2611,-3.039063,-1.28125,9.269531,0.003906,0.003906,-0.003906,0.938599,-0.015503,0.171143,-0.299255,down
2616,-3.039063,-1.28125,9.226563,0.003906,0.003906,-0.003906,0.938538,-0.015442,0.171082,-0.2995,down
2621,-3.039063,-1.28125,9.226563,0.003906,0.003906,-0.003906,0.938477,-0.015442,0.171082,-0.2995,down
2626,-3.078125,-1.320313,9.191406,0.003906,0.003906,-0.003906,0.938477,-0.015442,0.171082,-0.2995,down
2631,-3.039063,-1.320313,9.230469,0.005859,-0.005859,0.005859,0.938477,-0.015442,0.171082,-0.2995,down
2636,-3.078125,-1.28125,9.226563,0.005859,-0.005859,0.005859,0.938477,-0.015442,0.171082,-0.299683,down
2641,-3.039063,-1.320313,9.191406,0.005859,-0.005859,0.005859,0.938477,-0.015442,0.171082,-0.299683,down
2646,-3.039063,-1.28125,9.226563,0.005859,-0.005859,0.005859,0.938477,-0.015442,0.171082,-0.299683,down
2651,-3.039063,-1.28125,9.226563,0.0,-0.005859,0.0,0.938477,-0.015442,0.171082,-0.299683,down
2656,-3.078125,-1.28125,9.226563,0.003906,-0.001953,0.001953,0.938416,-0.015442,0.171082,-0.299744,down
2661,-3.039063,-1.28125,9.226563,0.003906,-0.001953,0.001953,0.938416,-0.015442,0.171082,-0.299744,down
2666,-3.039063,-1.28125,9.269531,0.003906,-0.001953,-0.003906,0.938416,-0.015381,0.171082,-0.299744,down
2671,-3.039063,-1.28125,9.269531,0.003906,-0.001953,-0.003906,0.938416,-0.015381,0.171082,-0.299805,down
2676,-3.078125,-1.28125,9.269531,0.003906,-0.001953,-0.003906,0.938416,-0.015381,0.171082,-0.299805,down
2681,-3.039063,-1.320313,9.230469,0.0,-0.001953,0.003906,0.938416,-0.015381,0.171082,-0.299805,down
2686,-3.039063,-1.242188,9.269531,0.0,-0.001953,-0.001953,0.938416,-0.015381,0.171082,-0.299805,down
2691,-3.039063,-1.242188,9.269531,0.0,-0.001953,-0.001953,0.938354,-0.015381,0.171082,-0.299927,down
2696,-3.078125,-1.28125,9.226563,0.0,-0.001953,-0.001953,0.938354,-0.015381,0.171082,-0.299927,down
2701,-3.078125,-1.28125,9.226563,0.001953,0.001953,-0.003906,0.938354,-0.015381,0.171082,-0.299927,down
2707,-3.039063,-1.28125,9.226563,0.001953,0.001953,-0.003906,0.938354,-0.015381,0.171082,-0.299988,down
2712,-3.078125,-1.28125,9.269531,0.001953,0.003906,-0.005859,0.938354,-0.015381,0.171082,-0.300049,down
2717,-3.039063,-1.28125,9.226563,0.001953,0.003906,-0.005859,0.938354,-0.015381,0.171082,-0.300049,down
2722,-3.078125,-1.28125,9.1875,0.001953,0.003906,-0.005859,0.938354,-0.015381,0.171082,-0.300049,down
2728,-3.039063,-1.320313,9.230469,0.001953,0.003906,-0.005859,0.938293,-0.015381,0.171082,-0.30011,down
2733,-3.039063,-1.28125,9.226563,0.0,0.003906,-0.001953,0.938293,-0.015381,0.171082,-0.30011,down
2738,-3.039063,-1.28125,9.226563,0.001953,-0.005859,-0.003906,0.938293,-0.015381,0.171082,-0.30011,down
2743,-3.078125,-1.28125,9.226563,0.001953,-0.005859,-0.003906,0.938293,-0.015381,0.171082,-0.300171,down
2748,-3.039063,-1.320313,9.265625,-0.005859,0.0,0.001953,0.938293,-0.015381,0.171082,-0.300171,down
2753,-3.078125,-1.28125,9.269531,0.0,-0.001953,0.007813,0.938293,-0.015381,0.171082,-0.300171,down
2758,-3.039063,-1.28125,9.226563,-0.005859,0.005859,0.0,0.938293,-0.015381,0.171082,-0.300171,down
2763,-3.039063,-1.320313,9.230469,-0.005859,0.005859,0.0,0.938232,-0.015381,0.171143,-0.300293,down
2770,-3.078125,-1.28125,9.226563,-0.005859,0.005859,0.0,0.938232,-0.015381,0.171143,-0.300293,down
2775,-3.078125,-1.28125,9.226563,0.005859,-0.003906,0.005859,0.938232,-0.015381,0.171143,-0.300293,down
2780,-3.039063,-1.28125,9.226563,0.005859,-0.003906,0.005859,0.938232,-0.015381,0.171082,-0.300354,down
2786,-3.039063,-1.320313,9.265625,-0.003906,0.001953,-0.001953,0.938232,-0.015381,0.171082,-0.300354,down
2791,-3.078125,-1.28125,9.226563,0.0,-0.001953,0.003906,0.938232,-0.015381,0.171082,-0.300354,down
2797,-3.039063,-1.320313,9.230469,-0.003906,0.003906,0.0,0.938171,-0.015381,0.171143,-0.300476,down
2802,-3.039063,-1.320313,9.230469,0.001953,0.005859,-0.003906,0.938171,-0.015381,0.171143,-0.300537,down
2807,-3.078125,-1.28125,9.269531,0.003906,0.005859,0.001953,0.938171,-0.015381,0.171143,-0.300537,down
2812,-3.039063,-1.28125,9.226563,0.003906,0.005859,0.001953,0.938171,-0.01532,0.171143,-0.300598,down
2817,-3.039063,-1.28125,9.226563,0.003906,0.005859,0.001953,0.93811,-0.01532,0.171143,-0.300598,down
2822,-3.039063,-1.28125,9.269531,-0.001953,-0.003906,-0.001953,0.93811,-0.01532,0.171143,-0.300598,down
2827,-3.039063,-1.320313,9.230469,-0.001953,-0.003906,-0.001953,0.93811,-0.01532,0.171143,-0.300659,down
2833,-3.078125,-1.28125,9.226563,-0.001953,-0.003906,-0.001953,0.93811,-0.01532,0.171143,-0.300659,down
2838,-3.078125,-1.28125,9.226563,0.005859,-0.003906,0.005859,0.93811,-0.01532,0.171143,-0.30072,down
2844,-3.039063,-1.28125,9.226563,0.005859,-0.003906,0.005859,0.93811,-0.01532,0.171143,-0.30072,down
2850,-3.039063,-1.28125,9.226563,0.005859,-0.003906,0.005859,0.93811,-0.01532,0.171143,-0.300781,down
2856,-3.039063,-1.28125,9.226563,-0.003906,0.003906,0.001953,0.93811,-0.01532,0.171143,-0.300781,down
2862,-3.039063,-1.28125,9.226563,0.0,-0.001953,-0.005859,0.93811,-0.01532,0.171143,-0.300781,down
2867,-3.078125,-1.28125,9.269531,0.0,-0.005859,0.0,0.93811,-0.01532,0.171143,-0.300781,down
2872,-3.078125,-1.28125,9.269531,0.001953,0.003906,-0.003906,0.938049,-0.01532,0.171143,-0.300903,down
2877,-3.039063,-1.28125,9.226563,-0.003906,0.001953,-0.001953,0.938049,-0.01532,0.171143,-0.300903,down
2882,-3.078125,-1.28125,9.226563,-0.003906,0.001953,-0.001953,0.938049,-0.01532,0.171143,-0.300903,down
2888,-3.039063,-1.28125,9.269531,-0.003906,0.001953,-0.001953,0.938049,-0.01532,0.171143,-0.300964,down
2893,-3.039063,-1.320313,9.191406,0.005859,-0.003906,0.001953,0.937988,-0.01532,0.171143,-0.300964,down
2898,-3.0,-1.28125,9.226563,0.0,-0.001953,-0.001953,0.937988,-0.01532,0.171143,-0.301025,down
2903,-3.039063,-1.320313,9.265625,0.001953,0.0,0.003906,0.937988,-0.01532,0.171143,-0.301025,down
2908,-3.0,-1.28125,9.1875,0.003906,-0.001953,0.003906,0.937988,-0.01532,0.171143,-0.301025,down
2913,-3.039063,-1.320313,9.230469,-0.001953,-0.001953,0.005859,0.937988,-0.015259,0.171143,-0.301025,down
2919,-3.078125,-1.28125,9.269531,0.001953,0.0,0.0,0.937988,-0.015259,0.171143,-0.301025,down
2924,-3.039063,-1.28125,9.1875,0.001953,0.0,0.0,0.937988,-0.015259,0.171143,-0.301086,down
2930,-3.078125,-1.320313,9.230469,0.0,-0.003906,-0.001953,0.937988,-0.015259,0.171143,-0.301086,down
2935,-3.039063,-1.28125,9.269531,0.001953,-0.001953,0.0,0.937988,-0.015259,0.171143,-0.301086,down
2941,-3.078125,-1.320313,9.265625,-0.003906,-0.001953,-0.001953,0.937988,-0.015259,0.171143,-0.301086,down
2947,-3.078125,-1.320313,9.191406,-0.003906,-0.001953,-0.001953,0.937988,-0.015259,0.171143,-0.301147,down
2952,-3.078125,-1.355469,9.191406,-0.003906,0.001953,0.001953,0.937988,-0.015259,0.171143,-0.301147,down
2957,-3.039063,-1.28125,9.269531,0.0,0.0,-0.001953,0.937988,-0.015259,0.171143,-0.301147,down
2962,-3.078125,-1.28125,9.226563,0.0,0.0,-0.001953,0.937927,-0.015259,0.171143,-0.30127,down
2967,-3.039063,-1.28125,9.269531,0.0,0.0,-0.001953,0.937927,-0.015259,0.171143,-0.30127,down
2972,-3.039063,-1.28125,9.269531,-0.005859,-0.001953,-0.003906,0.937927,-0.015259,0.171143,-0.30127,down
2977,-3.078125,-1.28125,9.226563,-0.005859,-0.001953,-0.003906,0.937927,-0.015259,0.171143,-0.301331,down
2982,-3.078125,-1.28125,9.226563,-0.005859,-0.001953,-0.003906,0.937866,-0.015259,0.171143,-0.301392,down
2987,-3.039063,-1.28125,9.226563,0.005859,-0.005859,0.005859,0.937866,-0.015259,0.171143,-0.301392,down
2992,-3.078125,-1.28125,9.269531,0.005859,-0.005859,0.005859,0.937866,-0.015198,0.171143,-0.301392,down
2997,-3.039063,-1.28125,9.269531,-0.001953,0.005859,0.001953,0.937866,-0.015198,0.171143,-0.301392,down
3002,-3.039063,-1.28125,9.226563,0.001953,0.005859,0.003906,0.937866,-0.015198,0.171143,-0.301392,down
3008,-3.117188,-1.28125,9.113281,0.001953,0.005859,0.003906,0.937866,-0.015198,0.171143,-0.301453,down
3014,-3.039063,-1.203125,9.417969,0.001953,0.005859,0.003906,0.937866,-0.015198,0.171143,-0.301514,down
3019,-3.117188,-1.320313,9.191406,-0.013672,0.029297,-0.001953,0.937866,-0.015198,0.171143,-0.301514,down
3024,-3.039063,-1.320313,9.074219,0.0,-0.015625,-0.001953,0.937805,-0.015198,0.171204,-0.301575,down
3030,-3.0,-1.394531,9.226563,0.019531,-0.013672,0.001953,0.937805,-0.015198,0.171204,-0.301575,down
3035,-3.078125,-1.089844,9.191406,0.019531,-0.013672,0.001953,0.937805,-0.015198,0.171204,-0.301575,down
3040,-2.925781,-1.203125,9.226563,-0.007813,0.009766,-0.003906,0.937805,-0.015198,0.171204,-0.301575,down
3046,-3.230469,-1.472656,9.226563,0.035156,-0.007813,0.005859,0.937805,-0.015198,0.171204,-0.301575,down
3051,-3.078125,-1.203125,9.113281,-0.021484,-0.001953,-0.007813,0.937805,-0.015198,0.171204,-0.301575,down
3057,-2.847656,-1.203125,9.265625,-0.007813,0.021484,0.005859,0.937805,-0.015198,0.171204,-0.301575,down
3062,-3.0,-1.28125,9.378906,0.03125,-0.033203,0.009766,0.937805,-0.015137,0.171143,-0.301758,down
3067,-3.191406,-1.320313,9.152344,0.03125,-0.033203,0.009766,0.937744,-0.015137,0.171143,-0.301758,down
3072,-3.0,-1.28125,9.269531,0.015625,-0.013672,-0.005859,0.937744,-0.015076,0.171143,-0.301819,down
3077,-3.0,-1.242188,9.269531,0.015625,-0.013672,-0.005859,0.937744,-0.015076,0.171143,-0.301819,down
3082,-3.078125,-1.320313,9.300781,-0.011719,0.0,-0.001953,0.937744,-0.015076,0.171143,-0.301819,down
3088,-3.078125,-1.28125,9.226563,-0.011719,0.0,-0.001953,0.937744,-0.015076,0.171143,-0.301941,down
3093,-2.960938,-1.320313,9.148438,-0.009766,-0.017578,-0.001953,0.937744,-0.015076,0.171143,-0.301941,down
3098,-3.0,-1.320313,9.300781,-0.009766,-0.011719,0.001953,0.937744,-0.015076,0.171143,-0.301941,down
3103,-3.078125,-1.28125,9.269531,-0.009766,-0.011719,0.001953,0.937683,-0.015137,0.171143,-0.302002,down
3109,-3.039063,-1.28125,9.226563,-0.009766,-0.011719,0.001953,0.937683,-0.015137,0.171204,-0.302002,down
3115,-3.039063,-1.355469,9.265625,0.007813,-0.015625,-0.003906,0.937683,-0.015137,0.171204,-0.302002,down
3120,-3.039063,-1.355469,9.148438,-0.007813,0.015625,0.001953,0.937683,-0.015137,0.171204,-0.302002,down
3125,-3.0,-1.242188,9.269531,-0.007813,0.015625,0.001953,0.937683,-0.015137,0.171204,-0.302002,down
3131,-3.039063,-1.320313,9.265625,-0.007813,0.015625,0.001953,0.937683,-0.015076,0.171143,-0.302124,down
3137,-3.039063,-1.320313,9.230469,-0.009766,0.007813,-0.011719,0.937683,-0.015076,0.171143,-0.302124,down
3142,-3.039063,-1.320313,9.230469,0.0,-0.001953,0.003906,0.937622,-0.015076,0.171143,-0.302185,down
3147,-3.078125,-1.355469,9.265625,-0.011719,0.0,-0.003906,0.937622,-0.015076,0.171143,-0.302185,down
3152,-3.078125,-1.28125,9.296875,-0.001953,0.019531,-0.003906,0.937622,-0.015137,0.171143,-0.302246,down
3157,-3.078125,-1.320313,9.148438,-0.001953,0.019531,-0.003906,0.937622,-0.015076,0.171143,-0.302307,down
3162,-3.117188,-1.355469,9.191406,-0.001953,0.019531,-0.003906,0.937622,-0.015076,0.171143,-0.302307,down
3167,-3.078125,-1.355469,9.191406,-0.003906,-0.001953,-0.003906,0.937622,-0.015076,0.171143,-0.302307,down
3172,-3.039063,-1.28125,9.226563,-0.003906,-0.001953,-0.003906,0.937561,-0.015076,0.171143,-0.302368,down
3177,-3.078125,-1.28125,9.226563,-0.003906,-0.001953,-0.003906,0.937561,-0.015076,0.171143,-0.302368,down
3182,-3.039063,-1.28125,9.1875,-0.003906,-0.001953,-0.003906,0.937561,-0.015076,0.171143,-0.302368,down
3187,-3.039063,-1.320313,9.265625,-0.003906,-0.001953,-0.003906,0.937561,-0.015076,0.171143,-0.302368,down
3192,-3.0,-1.28125,9.269531,0.005859,0.005859,-0.003906,0.937561,-0.015076,0.171143,-0.302368,down
3198,-2.960938,-1.28125,9.226563,0.005859,0.005859,-0.003906,0.937561,-0.015015,0.171143,-0.302429,down
3203,-3.039063,-1.28125,9.226563,0.005859,0.003906,-0.003906,0.937561,-0.015015,0.171143,-0.30249,down
3208,-3.078125,-1.28125,9.226563,0.005859,0.003906,-0.003906,0.937561,-0.015015,0.171143,-0.30249,down
3213,-3.039063,-1.28125,9.269531,0.005859,0.003906,-0.003906,0.937561,-0.015015,0.171082,-0.302551,down
3218,-3.078125,-1.28125,9.269531,-0.011719,0.007813,-0.001953,0.9375,-0.015015,0.171143,-0.302551,down
3224,-3.078125,-1.28125,9.1875,-0.011719,0.007813,-0.001953,0.9375,-0.015015,0.171143,-0.302551,down
3229,-3.0,-1.355469,9.230469,-0.011719,0.007813,-0.001953,0.9375,-0.015015,0.171143,-0.302551,down
3235,-3.078125,-1.320313,9.265625,0.0,0.001953,0.005859,0.9375,-0.015015,0.171143,-0.302551,down
3241,-3.078125,-1.320313,9.230469,0.001953,0.003906,-0.001953,0.9375,-0.015015,0.171143,-0.302551,down
3247,-3.0,-1.28125,9.226563,0.007813,-0.001953,0.003906,0.9375,-0.015015,0.171143,-0.302673,down
3252,-3.039063,-1.242188,9.1875,0.007813,-0.001953,0.003906,0.9375,-0.015015,0.171143,-0.302673,down
3257,-3.117188,-1.28125,9.113281,0.003906,0.003906,0.001953,0.9375,-0.015015,0.171143,-0.302673,down
3262,-2.925781,-1.203125,9.226563,0.005859,-0.009766,0.003906,0.937439,-0.014954,0.171143,-0.302734,down
3267,-3.152344,-1.242188,9.035156,0.005859,-0.009766,0.003906,0.937439,-0.014954,0.171143,-0.302734,down
3272,-3.039063,-1.203125,9.152344,0.015625,-0.005859,0.009766,0.937439,-0.014954,0.171143,-0.302795,down
3277,-2.925781,-1.511719,9.230469,0.015625,-0.005859,0.009766,0.937439,-0.014954,0.171143,-0.302795,down
3282,-3.117188,-1.011719,9.265625,0.015625,-0.005859,0.009766,0.937439,-0.014954,0.171143,-0.302795,down
3287,-3.0,-1.164063,9.152344,0.064453,-0.009766,0.005859,0.937439,-0.015015,0.171204,-0.302856,down
3292,-3.0,-1.511719,9.300781,0.064453,-0.009766,0.005859,0.937378,-0.014893,0.171204,-0.302917,down
3297,-3.152344,-1.511719,9.191406,0.064453,-0.009766,0.005859,0.937439,-0.014893,0.171143,-0.302917,down
3302,-3.078125,-1.242188,9.113281,0.025391,-0.033203,-0.001953,0.937439,-0.014893,0.171143,-0.302917,down
3307,-2.925781,-1.28125,9.296875,0.025391,-0.033203,-0.001953,0.937378,-0.014954,0.171204,-0.302979,down
3312,-3.117188,-1.433594,9.1875,-0.027344,0.025391,0.013672,0.937378,-0.014893,0.171082,-0.302979,down
3317,-3.117188,-1.433594,9.1875,-0.027344,0.025391,0.013672,0.937378,-0.014954,0.171143,-0.30304,down
3323,-3.0,-1.203125,9.1875,-0.027344,0.025391,0.013672,0.937378,-0.014954,0.171143,-0.30304,down
3328,-2.925781,-1.320313,9.191406,-0.003906,-0.021484,0.007813,0.937378,-0.014954,0.171143,-0.303101,down
3333,-3.0,-1.355469,9.375,-0.003906,-0.021484,0.007813,0.937317,-0.014893,0.171143,-0.303101,down
3338,-3.191406,-1.203125,9.335938,0.029297,0.0,-0.005859,0.937317,-0.014832,0.171143,-0.303162,down
3344,-3.0,-1.28125,9.226563,0.029297,0.0,-0.005859,0.937317,-0.014832,0.171082,-0.303162,down
3349,-3.078125,-1.320313,9.300781,-0.017578,0.021484,0.005859,0.937317,-0.014832,0.171082,-0.303162,down
3356,-3.117188,-1.164063,9.296875,-0.003906,0.011719,-0.003906,0.937317,-0.014832,0.171082,-0.303162,down
3362,-3.0,-1.355469,9.191406,-0.003906,0.011719,-0.003906,0.937317,-0.014832,0.171082,-0.303284,down
3368,-3.0,-1.355469,9.148438,-0.009766,0.009766,0.005859,0.937317,-0.014832,0.171143,-0.303284,down
3373,-3.078125,-1.242188,9.296875,-0.009766,0.009766,0.005859,0.937256,-0.014832,0.171143,-0.303284,down
3379,-3.0,-1.320313,9.300781,-0.003906,-0.013672,-0.001953,0.937256,-0.014832,0.171082,-0.303345,down
3384,-3.0,-1.320313,9.230469,-0.009766,0.023437,0.003906,0.937256,-0.014893,0.171143,-0.303345,down
3389,-3.078125,-1.320313,9.230469,-0.009766,0.023437,0.003906,0.937256,-0.014893,0.171143,-0.303345,down
3395,-3.0,-1.355469,9.265625,-0.009766,0.023437,0.003906,0.937256,-0.014893,0.171143,-0.303406,down
3400,-3.039063,-1.320313,9.230469,0.003906,0.003906,0.003906,0.937256,-0.014893,0.171143,-0.303406,down
3407,-3.078125,-1.28125,9.226563,-0.005859,0.015625,0.003906,0.937256,-0.014893,0.171143,-0.303406,down
3413,-3.0,-1.355469,9.191406,0.003906,-0.007813,-0.001953,0.937256,-0.014893,0.171143,-0.303406,down
3418,-3.039063,-1.320313,9.265625,0.007813,-0.009766,0.0,0.937256,-0.014893,0.171143,-0.303406,down
3423,-3.039063,-1.242188,9.269531,-0.009766,0.009766,0.0,0.937195,-0.014832,0.171143,-0.303467,down
3429,-3.117188,-1.320313,9.230469,-0.009766,0.009766,0.0,0.937195,-0.014832,0.171143,-0.303528,down
3434,-3.117188,-1.28125,9.226563,-0.005859,0.005859,0.001953,0.937195,-0.014832,0.171143,-0.303528,down
3439,-3.117188,-1.28125,9.226563,-0.001953,0.005859,0.003906,0.937195,-0.014832,0.171143,-0.303528,down
3444,-3.039063,-1.203125,9.269531,-0.001953,0.005859,0.003906,0.937195,-0.014832,0.171143,-0.303528,down
3450,-3.078125,-1.320313,9.230469,-0.001953,0.005859,0.003906,0.937195,-0.014832,0.171143,-0.303589,down
3456,-3.117188,-1.320313,9.300781,-0.003906,0.009766,0.0,0.937195,-0.014832,0.171143,-0.303589,down
3462,-3.039063,-1.320313,9.230469,0.0,-0.003906,-0.003906,0.937195,-0.014832,0.171143,-0.303589,down
3468,-3.039063,-1.28125,9.269531,0.001953,-0.007813,-0.007813,0.937195,-0.014832,0.171143,-0.303589,down
3473,-3.039063,-1.320313,9.265625,-0.005859,0.005859,-0.001953,0.937195,-0.014832,0.171143,-0.303589,down
3478,-3.039063,-1.320313,9.230469,0.005859,0.003906,0.001953,0.937195,-0.014832,0.171143,-0.303589,down
3483,-3.039063,-1.355469,9.191406,-0.003906,0.001953,-0.005859,0.937195,-0.014832,0.171143,-0.303589,down
3488,-3.0,-1.320313,9.265625,-0.003906,0.003906,0.003906,0.937134,-0.014832,0.171143,-0.303772,down
3493,-3.039063,-1.28125,9.269531,-0.003906,0.003906,0.003906,0.937134,-0.014832,0.171143,-0.303833,down
3498,-3.039063,-1.320313,9.265625,-0.003906,0.003906,0.003906,0.937134,-0.014832,0.171143,-0.303833,down
3504,-3.039063,-1.320313,9.265625,-0.003906,0.005859,-0.003906,0.937134,-0.014832,0.171143,-0.303833,down
3509,-3.078125,-1.28125,9.226563,0.005859,0.003906,0.0,0.937073,-0.014832,0.171204,-0.303833,down
3515,-3.039063,-1.242188,9.269531,0.005859,0.003906,0.0,0.937073,-0.014832,0.171204,-0.303894,down
3520,-3.078125,-1.28125,9.226563,0.005859,0.003906,0.0,0.937073,-0.014771,0.171143,-0.303894,down
3526,-3.078125,-1.242188,9.1875,0.001953,0.007813,-0.003906,0.937073,-0.014771,0.171143,-0.303894,down
3531,-3.039063,-1.242188,9.226563,0.003906,-0.003906,0.001953,0.937073,-0.014771,0.171143,-0.303894,down
3536,-3.078125,-1.28125,9.226563,0.001953,-0.005859,0.0,0.937073,-0.014771,0.171143,-0.303894,down
3542,-3.039063,-1.28125,9.226563,0.001953,-0.005859,0.0,0.937073,-0.014771,0.171143,-0.303894,down
3547,-3.039063,-1.28125,9.226563,-0.005859,-0.001953,-0.001953,0.937073,-0.014771,0.171143,-0.303894,down
3553,-3.078125,-1.28125,9.269531,-0.001953,-0.001953,-0.003906,0.937073,-0.014771,0.171143,-0.303894,down
3558,-3.039063,-1.28125,9.226563,-0.007813,0.005859,-0.003906,0.937012,-0.014832,0.171143,-0.304077,down
3563,-3.039063,-1.28125,9.226563,-0.007813,0.005859,-0.003906,0.937012,-0.014832,0.171143,-0.304077,down
3568,-3.039063,-1.320313,9.265625,0.0,-0.001953,0.005859,0.937012,-0.014832,0.171204,-0.304138,down
3573,-3.039063,-1.320313,9.265625,0.0,-0.001953,0.005859,0.937012,-0.014832,0.171204,-0.304138,down
3578,-3.039063,-1.28125,9.226563,0.0,-0.001953,0.005859,0.937012,-0.014832,0.171204,-0.304138,down
3583,-3.039063,-1.28125,9.226563,0.011719,-0.001953,0.001953,0.937012,-0.014832,0.171204,-0.304138,down
3588,-3.039063,-1.320313,9.230469,0.011719,-0.001953,0.001953,0.937012,-0.014771,0.171204,-0.304199,down
3594,-3.039063,-1.320313,9.230469,0.0,0.005859,0.0,0.936951,-0.014771,0.171204,-0.30426,down
3599,-3.039063,-1.320313,9.230469,0.003906,0.0,-0.001953,0.936951,-0.014771,0.171204,-0.30426,down
3604,-3.039063,-1.320313,9.230469,-0.005859,0.001953,0.001953,0.936951,-0.014771,0.171204,-0.304321,down
3610,-3.078125,-1.28125,9.269531,-0.005859,0.001953,0.001953,0.936951,-0.014771,0.171204,-0.304321,down
3615,-3.078125,-1.28125,9.226563,-0.003906,0.001953,-0.003906,0.936951,-0.014771,0.171204,-0.304321,down
3621,-3.039063,-1.28125,9.226563,-0.001953,-0.001953,0.0,0.936951,-0.014771,0.171204,-0.304321,down
3626,-3.039063,-1.28125,9.226563,-0.003906,0.001953,0.0,0.936951,-0.014771,0.171204,-0.304321,down
3631,-3.039063,-1.28125,9.226563,-0.003906,0.005859,0.001953,0.936951,-0.014771,0.171204,-0.304321,down
3636,-3.078125,-1.320313,9.265625,-0.003906,0.001953,-0.001953,0.936951,-0.014771,0.171204,-0.304321,down
3642,-3.039063,-1.320313,9.230469,0.001953,0.001953,0.001953,0.936951,-0.014771,0.171204,-0.304321,down
3648,-3.039063,-1.28125,9.226563,0.001953,0.001953,0.001953,0.93689,-0.014709,0.171265,-0.304504,down
3653,-3.039063,-1.28125,9.269531,0.001953,0.001953,0.001953,0.93689,-0.014709,0.171265,-0.304504,down
3658,-3.039063,-1.320313,9.230469,0.003906,-0.001953,0.003906,0.93689,-0.014709,0.171265,-0.304504,down
3663,-3.0,-1.320313,9.230469,-0.003906,0.005859,-0.003906,0.936829,-0.014709,0.171265,-0.304565,down
3668,-3.0,-1.320313,9.230469,-0.003906,0.005859,-0.003906,0.936829,-0.014709,0.171265,-0.304565,down
3673,-3.039063,-1.28125,9.226563,0.0,0.0,0.001953,0.936829,-0.014709,0.171265,-0.304565,down
3678,-3.039063,-1.28125,9.226563,-0.001953,0.0,0.003906,0.936829,-0.014709,0.171265,-0.304565,down
3683,-3.078125,-1.28125,9.226563,-0.003906,0.001953,-0.005859,0.936829,-0.014709,0.171265,-0.304626,down
3688,-3.078125,-1.242188,9.269531,-0.003906,0.001953,-0.005859,0.936829,-0.014709,0.171265,-0.304626,down
3693,-3.039063,-1.242188,9.269531,0.0,0.001953,0.001953,0.936829,-0.014709,0.171265,-0.304626,down
3698,-3.039063,-1.28125,9.226563,0.009766,-0.003906,0.0,0.936829,-0.014709,0.171265,-0.304626,down
3704,-3.078125,-1.242188,9.226563,0.001953,-0.005859,0.009766,0.936829,-0.014709,0.171204,-0.304688,down
3709,-3.039063,-1.28125,9.226563,0.001953,-0.003906,-0.001953,0.936829,-0.014648,0.171204,-0.304749,down
3715,-3.039063,-1.28125,9.226563,0.001953,-0.003906,-0.001953,0.936768,-0.014648,0.171204,-0.304749,down
3720,-3.039063,-1.320313,9.265625,0.001953,-0.003906,-0.001953,0.936768,-0.014648,0.171204,-0.30481,down
3725,-3.039063,-1.320313,9.230469,0.0,-0.001953,-0.003906,0.936768,-0.014648,0.171204,-0.30481,down
3731,-3.0,-1.28125,9.226563,-0.003906,-0.001953,-0.003906,0.936768,-0.014648,0.171204,-0.30481,down
3736,-3.0,-1.320313,9.230469,-0.003906,-0.001953,-0.003906,0.936768,-0.014709,0.171204,-0.304871,down
3742,-3.039063,-1.28125,9.226563,-0.001953,-0.001953,-0.003906,0.936768,-0.014709,0.171204,-0.304871,down
3748,-3.039063,-1.28125,9.1875,-0.001953,0.003906,-0.001953,0.936768,-0.014709,0.171204,-0.304871,down
3753,-3.0,-1.28125,9.226563,0.001953,-0.001953,0.001953,0.936768,-0.014709,0.171204,-0.304871,down
3758,-3.039063,-1.320313,9.230469,0.001953,-0.001953,0.001953,0.936768,-0.014709,0.171204,-0.304932,down
3763,-3.039063,-1.28125,9.226563,-0.003906,0.001953,0.0,0.936768,-0.014709,0.171204,-0.304932,down
3768,-3.039063,-1.28125,9.269531,-0.005859,0.005859,-0.001953,0.936768,-0.014709,0.171204,-0.304932,down
3773,-3.039063,-1.28125,9.269531,-0.005859,0.005859,-0.001953,0.936707,-0.014648,0.171265,-0.304993,down
3778,-3.117188,-1.242188,9.226563,-0.005859,0.005859,-0.001953,0.936707,-0.014648,0.171265,-0.304993,down
3783,-3.078125,-1.242188,9.226563,0.0,-0.001953,-0.001953,0.936707,-0.014648,0.171265,-0.304993,down
3788,-3.039063,-1.28125,9.226563,-0.005859,0.003906,0.0,0.936707,-0.014648,0.171265,-0.304993,down
3793,-3.078125,-1.28125,9.269531,-0.005859,0.003906,0.0,0.936707,-0.014648,0.171265,-0.305054,down
3798,-3.039063,-1.28125,9.226563,-0.001953,0.001953,0.001953,0.936707,-0.014648,0.171265,-0.305054,down
3803,-3.039063,-1.28125,9.226563,-0.001953,-0.003906,0.001953,0.936707,-0.014648,0.171265,-0.305054,down
3809,-3.078125,-1.320313,9.230469,-0.001953,-0.003906,0.001953,0.936707,-0.014648,0.171265,-0.305115,down
3814,-3.039063,-1.320313,9.230469,-0.005859,0.003906,-0.001953,0.936646,-0.014648,0.171265,-0.305115,down
3820,-3.078125,-1.28125,9.226563,-0.005859,0.003906,-0.001953,0.936646,-0.014648,0.171265,-0.305115,down
3825,-3.039063,-1.320313,9.230469,-0.005859,0.003906,-0.001953,0.936646,-0.014648,0.171265,-0.305176,down
3831,-3.078125,-1.320313,9.230469,-0.005859,0.003906,-0.001953,0.936646,-0.014648,0.171265,-0.305176,down
28310,5.65625,5.039062,7.0,-0.076172,-0.158203,-0.195312,0.470764,0.37854,0.066467,0.794128,down
28315,5.65625,5.15625,7.039062,-0.025391,-0.076172,-0.150391,0.470764,0.37854,0.066467,0.794128,down
28321,5.65625,5.230469,7.160156,-0.025391,-0.076172,-0.150391,0.47168,0.378845,0.066528,0.793457,down
28326,5.65625,5.269531,7.199219,-0.03125,-0.039063,-0.080078,0.471924,0.378845,0.066528,0.793274,down
28332,5.65625,5.308594,7.273437,-0.03125,-0.039063,-0.080078,0.472107,0.378906,0.066467,0.793213,down
28337,5.65625,5.308594,7.308594,-0.03125,-0.039063,-0.080078,0.47229,0.378845,0.066406,0.793091,down
28342,5.695312,5.308594,7.304687,-0.117188,-0.029297,-0.011719,0.47229,0.378845,0.066406,0.793091,down
28347,5.773437,5.308594,7.234375,-0.15625,-0.033203,-0.005859,0.47229,0.378845,0.066406,0.793091,down
28352,5.808594,5.269531,7.234375,-0.1875,-0.03125,0.019531,0.47229,0.378845,0.066406,0.793091,down
28357,5.886719,5.230469,7.234375,-0.1875,-0.03125,0.019531,0.47229,0.378845,0.066406,0.793091,down
28362,5.886719,5.230469,7.234375,-0.224609,-0.027344,0.050781,0.47229,0.378845,0.066406,0.793091,down
28367,5.847656,5.230469,7.308594,-0.224609,-0.027344,0.050781,0.47229,0.378845,0.066406,0.793091,down
28372,5.847656,5.230469,7.425781,-0.224609,-0.027344,0.050781,0.47229,0.378845,0.066406,0.793091,down
28378,5.808594,5.269531,7.460937,-0.193359,0.042969,0.085937,0.47229,0.378845,0.066406,0.793091,down
28384,5.808594,5.230469,7.582031,-0.164062,0.076172,0.097656,0.47229,0.378845,0.066406,0.793091,down
28389,5.808594,5.269531,7.578125,-0.164062,0.076172,0.097656,0.473083,0.376709,0.062561,0.793945,down
28395,5.695312,5.269531,7.542969,-0.164062,0.076172,0.097656,0.472778,0.376038,0.062195,0.794495,down
28400,5.65625,5.308594,7.65625,-0.164062,0.076172,0.097656,0.472778,0.376038,0.062195,0.794495,down
28405,5.695312,5.308594,7.730469,-0.085937,0.132812,0.167969,0.472778,0.376038,0.062195,0.794495,down
28410,5.65625,5.269531,7.808594,-0.085937,0.132812,0.167969,0.47229,0.375366,0.06189,0.795105,down
28415,5.695312,5.269531,7.804687,-0.132812,0.146484,0.21875,0.47229,0.375366,0.06189,0.795105,down
28420,5.65625,5.269531,7.726562,-0.132812,0.146484,0.21875,0.47168,0.374634,0.061462,0.795898,down
28425,5.617187,5.269531,7.578125,-0.173828,0.169922,0.228516,0.47168,0.374634,0.061462,0.795898,down
28430,5.617187,5.269531,7.539062,-0.173828,0.169922,0.228516,0.471008,0.373596,0.060791,0.796753,down
28435,5.503906,5.269531,7.542969,-0.302734,0.177734,0.287109,0.471008,0.373596,0.060791,0.796753,down
28440,5.503906,5.191406,7.539062,-0.302734,0.177734,0.287109,0.470398,0.372375,0.059692,0.797791,down
28445,5.542969,5.15625,7.464844,-0.302734,0.177734,0.287109,0.470032,0.371582,0.05896,0.798401,down
28450,5.503906,5.117187,7.386719,-0.302734,0.177734,0.287109,0.469788,0.370911,0.05835,0.79895,down
28456,5.425781,5.117187,7.382812,-0.355469,0.230469,0.3125,0.469055,0.369141,0.056824,0.800293,down
28461,5.3125,5.039062,7.347656,-0.355469,0.230469,0.3125,0.468689,0.368286,0.056152,0.800964,down
28466,5.273437,4.964844,7.347656,-0.355469,0.230469,0.3125,0.468323,0.367432,0.055542,0.801575,down
28471,5.234375,4.925781,7.34375,-0.34375,0.263672,0.353516,0.468323,0.367432,0.055542,0.801575,down
28476,5.234375,4.847656,7.347656,-0.34375,0.263672,0.353516,0.467896,0.366516,0.05481,0.802307,down
28482,5.195312,4.734375,7.347656,-0.34375,0.263672,0.353516,0.467041,0.364807,0.053406,0.803711,down
28487,5.160156,4.695312,7.34375,-0.390625,0.263672,0.380859,0.466553,0.363831,0.052612,0.804443,down
28492,5.042969,4.617187,7.277344,-0.433594,0.269531,0.384766,0.466125,0.362854,0.051758,0.805176,down
28497,5.003906,4.582031,7.273437,-0.433594,0.269531,0.384766,0.465698,0.361816,0.050842,0.805969,down
28502,5.003906,4.464844,7.199219,-0.433594,0.269531,0.384766,0.465698,0.361816,0.050842,0.805969,down
28507,5.042969,4.425781,7.304687,-0.533203,0.248047,0.416016,0.464966,0.359741,0.048767,0.807495,down
28513,5.082031,4.425781,7.347656,-0.5625,0.242187,0.419922,0.464966,0.359741,0.048767,0.807495,down
28518,5.160156,4.351562,7.34375,-0.5625,0.242187,0.419922,0.464172,0.357483,0.046326,0.809082,down
28525,5.160156,4.3125,7.308594,-0.611328,0.291016,0.416016,0.464172,0.357483,0.046326,0.809082,down
28530,5.160156,4.234375,7.304687,-0.632812,0.326172,0.410156,0.464172,0.357483,0.046326,0.809082,down
28535,5.160156,4.082031,7.199219,-0.648437,0.34375,0.416016,0.464172,0.357483,0.046326,0.809082,down
28540,5.121094,4.003906,7.199219,-0.648437,0.34375,0.416016,0.462891,0.352173,0.041321,0.812378,down
28546,5.121094,4.003906,7.199219,-0.683594,0.390625,0.410156,0.462341,0.348938,0.038635,0.81427,down
28551,5.082031,4.003906,7.234375,-0.712891,0.457031,0.398438,0.462341,0.348938,0.038635,0.81427,down
28556,5.003906,4.003906,7.273437,-0.736328,0.5,0.392578,0.462097,0.347229,0.037415,0.815186,down
28561,5.003906,4.003906,7.308594,-0.736328,0.5,0.392578,0.46167,0.343445,0.034851,0.817139,down
28566,4.929687,4.003906,7.347656,-0.736328,0.5,0.392578,0.46167,0.343445,0.034851,0.817139,down
28571,4.929687,4.003906,7.347656,-0.873047,0.568359,0.371094,0.461487,0.339539,0.032288,0.81897,down
28576,4.851562,4.121094,7.5,-0.873047,0.568359,0.371094,0.461426,0.337036,0.03064,0.820129,down
28581,4.8125,4.082031,7.539062,-0.955078,0.585937,0.367188,0.461426,0.337036,0.03064,0.820129,down
28586,4.738281,3.96875,7.65625,-0.955078,0.585937,0.367188,0.461365,0.334778,0.029114,0.821106,down
28592,4.738281,3.96875,7.65625,-1.099609,0.572266,0.371094,0.461487,0.330444,0.02594,0.822937,down
28597,4.699219,3.890625,7.808594,-1.193359,0.548828,0.386719,0.461609,0.327698,0.023682,0.823975,down
28602,4.738281,3.890625,7.765625,-1.306641,0.533203,0.388672,0.461792,0.325134,0.021423,0.824951,down
28608,4.660156,3.699219,7.804687,-1.306641,0.533203,0.388672,0.462036,0.322815,0.019165,0.825806,down
28613,4.621094,3.621094,7.726562,-1.585938,0.521484,0.40625,0.462402,0.319885,0.016296,0.826782,down
28619,4.621094,3.546875,7.695312,-1.716797,0.511719,0.408203,0.462402,0.319885,0.016296,0.826782,down
28624,4.585937,3.355469,7.730469,-1.847656,0.501953,0.404297,0.462402,0.319885,0.016296,0.826782,down
28630,4.546875,3.277344,7.730469,-1.958984,0.494141,0.394531,0.462402,0.319885,0.016296,0.826782,down
28635,4.546875,3.277344,7.730469,-2.064453,0.488281,0.386719,0.464783,0.307251,0.002197,0.830383,down
28640,4.507812,3.125,7.769531,-2.179688,0.474609,0.371094,0.465637,0.303711,-0.002014,0.831238,down
28645,4.507812,3.125,7.769531,-2.179688,0.474609,0.371094,0.465637,0.303711,-0.002014,0.831238,down
28650,4.585937,2.625,7.882812,-2.273438,0.458984,0.351563,0.465637,0.303711,-0.002014,0.831238,down
28656,4.585937,2.625,7.882812,-2.306641,0.492187,0.318359,0.468567,0.292725,-0.015442,0.833374,down
28662,4.429687,2.511719,7.84375,-2.306641,0.492187,0.318359,0.470581,0.285339,-0.024231,0.834595,down
28667,4.355469,2.359375,7.847656,-2.228516,0.509766,0.300781,0.47168,0.281128,-0.029114,0.835266,down
28673,4.355469,2.207031,7.84375,-2.228516,0.509766,0.300781,0.472534,0.277832,-0.032776,0.835754,down
28678,3.972656,2.320313,7.808594,-2.228516,0.509766,0.300781,0.473511,0.273743,-0.037354,0.836365,down
28683,3.894531,2.167969,7.695312,-2.160156,0.572266,0.382813,0.473511,0.273743,-0.037354,0.836365,down
28690,3.816406,2.050781,7.695312,-2.167969,0.574219,0.457031,0.473511,0.273743,-0.037354,0.836365,down
28695,3.703125,2.050781,8.003906,-2.146484,0.523437,0.542969,0.473511,0.273743,-0.037354,0.836365,down
28700,3.78125,1.9375,8.078125,-2.154297,0.431641,0.677734,0.473511,0.273743,-0.037354,0.836365,down
28705,3.703125,1.746094,8.1875,-2.154297,0.431641,0.677734,0.475586,0.255371,-0.057922,0.839783,down
28711,3.78125,1.476563,8.226563,-2.212891,0.185547,0.732422,0.475586,0.255371,-0.057922,0.839783,down
28716,3.894531,1.246094,8.425781,-2.212891,0.185547,0.732422,0.475464,0.248535,-0.067261,0.841187,down
28721,3.894531,1.132813,8.5,-2.269531,0.066406,0.746094,0.475281,0.245483,-0.072144,0.841797,down
28726,3.894531,1.132813,8.5,-2.269531,0.066406,0.746094,0.475281,0.245483,-0.072144,0.841797,down
28731,3.78125,0.710937,7.804687,-2.304688,0.005859,0.783203,0.474792,0.239624,-0.082825,0.842773,down
28736,3.78125,0.710937,7.804687,-2.386719,-0.064453,0.835937,0.474792,0.239624,-0.082825,0.842773,down
28742,3.933594,0.136719,8.082031,-2.386719,-0.064453,0.835937,0.473572,0.23114,-0.099609,0.843994,down
28747,4.085937,-0.132812,8.425781,-2.386719,-0.064453,0.835937,0.4729,0.22821,-0.105957,0.844421,down
28752,3.972656,-0.4375,8.347656,-2.386719,-0.064453,0.835937,0.47229,0.226074,-0.110718,0.844727,down
28757,3.855469,-0.746094,8.421875,-2.009766,-0.253906,0.912109,0.471436,0.223633,-0.116394,0.845093,down
28762,3.816406,-1.128906,8.265625,-1.841797,-0.257813,0.941406,0.470398,0.221619,-0.121338,0.84552,down
28767,3.703125,-1.355469,8.226563,-1.841797,-0.257813,0.941406,0.46936,0.220093,-0.125305,0.845886,down
28772,3.703125,-1.894531,8.386719,-1.841797,-0.257813,0.941406,0.467896,0.218567,-0.130066,0.846375,down
28778,3.78125,-1.96875,8.347656,-1.177734,-0.503906,0.949219,0.466614,0.217834,-0.133362,0.846802,down
28783,3.855469,-1.816406,8.804688,-1.177734,-0.503906,0.949219,0.464905,0.217529,-0.136658,0.847229,down
28788,3.855469,-1.777344,8.917969,-1.177734,-0.503906,0.949219,0.46283,0.217957,-0.139771,0.847778,down
28794,3.894531,-1.894531,8.042969,-1.177734,-0.503906,0.949219,0.46283,0.217957,-0.139771,0.847778,down
28799,3.933594,-1.933594,8.148438,-0.216797,-1.013672,1.117188,0.46283,0.217957,-0.139771,0.847778,down
28804,3.972656,-1.894531,8.382813,-0.039063,-1.164063,1.1875,0.46283,0.217957,-0.139771,0.847778,down
28810,4.085937,-2.046875,8.535156,-0.039063,-1.164063,1.1875,0.46283,0.217957,-0.139771,0.847778,down
28816,4.046875,-2.238281,8.308594,0.353516,-1.408203,1.365234,0.46283,0.217957,-0.139771,0.847778,down
28821,4.046875,-2.507813,8.34375,0.548828,-1.550781,1.423828,0.46283,0.217957,-0.139771,0.847778,down
28826,4.007812,-2.582031,8.148438,0.548828,-1.550781,1.423828,0.440979,0.233337,-0.153015,0.853027,down
28831,4.199219,-2.429688,8.191406,0.548828,-1.550781,1.423828,0.436279,0.237732,-0.154236,0.854004,down
28836,4.199219,-2.429688,8.191406,1.060547,-1.994141,1.527344,0.432068,0.241882,-0.15509,0.854858,down
28841,4.277344,-2.125,8.386719,1.228516,-2.169922,1.519531,0.432068,0.241882,-0.15509,0.854858,down
28846,4.277344,-2.125,8.386719,1.40625,-2.3125,1.486328,0.422302,0.252686,-0.15625,0.856384,down
28852,4.316406,-1.777344,8.34375,1.40625,-2.3125,1.486328,0.417297,0.258728,-0.156433,0.856995,down
28857,4.316406,-1.777344,8.34375,1.816406,-2.800781,1.423828,0.411926,0.265503,-0.156494,0.857544,down
28863,4.699219,-0.667969,8.003906,1.896484,-2.949219,1.396484,0.406616,0.272522,-0.156433,0.857849,down
28868,4.890625,-0.707031,8.082031,1.923828,-3.091797,1.376953,0.395569,0.287964,-0.156128,0.858032,down
28873,4.96875,-0.898437,8.042969,1.886719,-3.253906,1.361328,0.390076,0.295959,-0.156128,0.857849,down
28880,5.082031,-1.050781,7.726562,1.886719,-3.253906,1.361328,0.384521,0.30426,-0.156372,0.857361,down
28886,5.234375,-1.128906,7.65625,1.667969,-3.539063,1.310547,0.384521,0.30426,-0.156372,0.857361,down
28891,5.386719,-1.128906,7.621094,1.558594,-3.863281,1.154297,0.384521,0.30426,-0.156372,0.857361,down
28896,5.542969,-0.9375,7.421875,1.558594,-3.863281,1.154297,0.368103,0.33075,-0.158936,0.854309,down
28901,5.886719,-1.320313,6.894531,1.496094,-3.960938,1.072266,0.362976,0.339905,-0.160156,0.852661,down
28906,5.886719,-1.320313,6.894531,1.496094,-3.960938,1.072266,0.362976,0.339905,-0.160156,0.852661,down
28911,6.191406,-1.394531,6.816406,1.316406,-4.005859,0.871094,0.362976,0.339905,-0.160156,0.852661,down
28916,6.191406,-1.394531,6.816406,1.353516,-3.964844,0.789062,0.348328,0.368225,-0.164429,0.846191,down
28921,6.570312,-1.164063,6.238281,1.353516,-3.964844,0.789062,0.343811,0.377319,-0.165466,0.843811,down
28927,6.5,-1.242188,5.894531,1.724609,-3.679688,0.685547,0.334045,0.395996,-0.165649,0.839172,down
28932,6.691406,-0.78125,5.511719,2.316406,-3.601563,0.666016,0.334045,0.395996,-0.165649,0.839172,down
28938,6.921875,-0.09375,5.894531,2.316406,-3.601563,0.666016,0.324097,0.413452,-0.163269,0.835083,down
28943,7.113281,-0.09375,5.472656,2.757813,-3.554688,0.630859,0.318359,0.423035,-0.161194,0.832886,down
28948,7.113281,-0.515625,5.164062,2.757813,-3.554688,0.630859,0.312378,0.432861,-0.15863,0.830627,down
28953,6.960937,-0.554687,5.203125,2.757813,-3.554688,0.630859,0.312378,0.432861,-0.15863,0.830627,down
28958,6.960937,-0.554687,5.203125,2.976563,-3.390625,0.507812,0.307251,0.441223,-0.156189,0.828552,down
28963,6.804687,-0.132812,5.050781,2.976563,-3.390625,0.507812,0.307251,0.441223,-0.156189,0.828552,down
28968,7.074219,-0.359375,4.285156,3.005859,-3.398438,0.455078,0.295837,0.459473,-0.150208,0.823914,down
28973,7.074219,-0.359375,4.285156,3.005859,-3.398438,0.455078,0.295837,0.459473,-0.150208,0.823914,down
28978,7.878906,-0.4375,4.207031,2.828125,-3.451172,0.3125,0.295837,0.459473,-0.150208,0.823914,down
28984,8.183594,-0.667969,4.476562,2.755859,-3.441406,0.1875,0.27478,0.495361,-0.137817,0.812439,down
28989,8.035156,-0.515625,4.246094,2.755859,-3.441406,0.1875,0.27478,0.495361,-0.137817,0.812439,down
28995,8.03125,-0.589844,4.167969,2.910156,-3.082031,-0.109375,0.27478,0.495361,-0.137817,0.812439,down
29000,7.953125,-0.09375,4.015625,3.099609,-3.021484,-0.152344,0.27478,0.495361,-0.137817,0.812439,down
29006,7.800781,0.980469,3.289063,3.316406,-2.917969,-0.158203,0.27478,0.495361,-0.137817,0.812439,down
29011,7.835937,1.554688,3.289063,3.392578,-2.853516,-0.121094,0.27478,0.495361,-0.137817,0.812439,down
29016,7.835937,1.554688,3.289063,3.351563,-2.833984,-0.0625,0.245972,0.544128,-0.111328,0.794373,down
29021,8.070313,2.015625,3.632813,3.259766,-2.806641,-0.027344,0.245972,0.544128,-0.111328,0.794373,down
29026,8.070313,2.015625,3.632813,3.070313,-2.685547,-0.048828,0.245972,0.544128,-0.111328,0.794373,down
29032,8.070313,2.015625,3.632813,3.070313,-2.685547,-0.048828,0.231018,0.565918,-0.09729,0.7854,down
29037,8.070313,2.015625,3.632813,2.591797,-2.457031,-0.09375,0.226746,0.572388,-0.093323,0.782471,down
29042,8.414063,1.707031,3.519531,2.316406,-2.386719,-0.117188,0.219421,0.584412,-0.086609,0.776428,down
29047,8.183594,0.941406,3.441406,1.736328,-2.388672,-0.179687,0.219421,0.584412,-0.086609,0.776428,down
29052,8.109375,0.863281,3.402344,1.736328,-2.388672,-0.179687,0.213989,0.59552,-0.081848,0.769958,down
29057,8.457031,0.367188,3.441406,1.736328,-2.388672,-0.179687,0.211731,0.60144,-0.079956,0.766174,down
29062,8.679688,0.175781,3.441406,1.736328,-2.388672,-0.179687,0.210266,0.606201,-0.078613,0.762939,down
29067,8.875,0.25,3.25,1.736328,-2.388672,-0.179687,0.210266,0.606201,-0.078613,0.762939,down
29072,8.914063,0.40625,3.058594,1.035156,-2.113281,-0.554687,0.210266,0.606201,-0.078613,0.762939,down
29077,8.839844,0.671875,2.789063,1.035156,-2.113281,-0.554687,0.208008,0.616028,-0.075562,0.755981,down
29082,8.953125,0.710937,2.484375,1.175781,-1.947266,-0.65625,0.207092,0.620483,-0.073608,0.752747,down
29087,8.953125,0.710937,2.484375,1.175781,-1.947266,-0.65625,0.207092,0.620483,-0.073608,0.752747,down
29092,8.878906,0.789062,2.332031,1.507813,-1.650391,-0.849609,0.207092,0.620483,-0.073608,0.752747,down
29097,8.878906,0.789062,2.332031,1.615234,-1.492188,-0.929687,0.204102,0.632751,-0.064453,0.744202,down
29102,8.601563,1.054688,2.292969,1.615234,-1.492188,-0.929687,0.202148,0.639771,-0.056519,0.739319,down
29107,8.566406,1.210938,2.214844,1.615234,-1.492188,-0.929687,0.202148,0.639771,-0.056519,0.739319,down
29112,8.457031,1.210938,2.0625,1.494141,-1.09375,-1.132813,0.202148,0.639771,-0.056519,0.739319,down
29117,8.296875,1.4375,2.0625,0.955078,-0.861328,-1.275391,0.202148,0.639771,-0.056519,0.739319,down
29122,7.957031,1.628906,1.984375,0.955078,-0.861328,-1.275391,0.201843,0.648193,-0.044434,0.73291,down
29128,7.835937,1.402344,2.253906,0.955078,-0.861328,-1.275391,0.204346,0.651978,-0.038635,0.729126,down
29133,7.839844,1.4375,2.40625,0.117188,-0.78125,-1.341797,0.204346,0.651978,-0.038635,0.729126,down
29139,7.957031,1.402344,2.484375,0.117188,-0.78125,-1.341797,0.208496,0.655029,-0.034668,0.725464,down
29144,8.152344,1.402344,2.445313,-0.173828,-0.726562,-1.330078,0.21106,0.656433,-0.03302,0.723511,down
29149,8.378906,1.515625,2.175781,-0.173828,-0.726562,-1.330078,0.213745,0.657654,-0.031616,0.72168,down
29154,8.414063,1.667969,1.984375,-0.285156,-0.587891,-1.363281,0.216614,0.658691,-0.030212,0.71991,down
29160,8.378906,1.746094,1.757813,-0.279297,-0.492187,-1.408203,0.216614,0.658691,-0.030212,0.71991,down
29165,8.335938,1.898438,1.601563,-0.259766,-0.388672,-1.466797,0.216614,0.658691,-0.030212,0.71991,down
29171,8.152344,2.128906,1.488281,-0.259766,-0.388672,-1.466797,0.216614,0.658691,-0.030212,0.71991,down
29177,8.152344,2.242188,1.449219,-0.240234,-0.117188,-1.654297,0.216614,0.658691,-0.030212,0.71991,down
29182,8.261719,2.511719,1.21875,-0.240234,-0.117188,-1.654297,0.232056,0.661499,-0.020813,0.71283,down
29188,8.261719,2.511719,1.21875,-0.470703,0.072266,-1.800781,0.239319,0.661316,-0.016296,0.710693,down
29193,7.769531,2.78125,1.257813,-0.621094,0.087891,-1.833984,0.243774,0.660889,-0.014038,0.709656,down
29198,7.769531,2.78125,1.257813,-0.757812,0.121094,-1.859375,0.247986,0.660339,-0.012207,0.70874,down
29203,7.269531,3.429688,1.296875,-0.757812,0.121094,-1.859375,0.247986,0.660339,-0.012207,0.70874,down
29208,7.269531,3.429688,1.296875,-0.916016,0.138672,-1.871094,0.252625,0.659607,-0.010498,0.707825,down
29213,7.378906,3.8125,1.488281,-0.916016,0.138672,-1.871094,0.25769,0.658752,-0.009094,0.706787,down
29218,7.378906,3.8125,1.488281,-1.310547,0.140625,-1.857422,0.268494,0.656555,-0.007446,0.704834,down
29224,7.1875,3.394531,1.527344,-1.310547,0.140625,-1.857422,0.274475,0.65509,-0.007019,0.703857,down
29230,7.265625,3.238281,1.566406,-1.740234,0.263672,-1.835938,0.274475,0.65509,-0.007019,0.703857,down
29235,7.269531,3.007813,1.757813,-1.730469,0.318359,-1.845703,0.274475,0.65509,-0.007019,0.703857,down
29242,7.378906,2.78125,1.910156,-1.730469,0.318359,-1.845703,0.274475,0.65509,-0.007019,0.703857,down
29247,7.492187,2.894531,1.984375,-1.550781,0.677734,-2.021484,0.274475,0.65509,-0.007019,0.703857,down
29252,7.765625,2.855469,1.910156,-1.550781,0.677734,-2.021484,0.304871,0.645569,-0.004822,0.700195,down
29257,8.378906,2.972656,1.335938,-1.517578,0.828125,-2.15625,0.311401,0.642883,-0.003479,0.699768,down
29263,8.152344,3.46875,1.296875,-1.414063,1.005859,-2.472656,0.311401,0.642883,-0.003479,0.699768,down
29268,7.375,4.234375,1.792969,-1.414063,1.005859,-2.472656,0.330811,0.63446,0.002808,0.698608,down
29273,6.769531,4.503906,2.445313,-1.064453,0.841797,-2.611328,0.337036,0.631897,0.005676,0.697876,down
29279,6.503906,4.808594,2.714844,-1.064453,0.841797,-2.611328,0.342896,0.6297,0.008545,0.697021,down
29284,6.191406,5.386719,2.867188,-0.875,0.611328,-2.488281,0.342896,0.6297,0.008545,0.697021,down
29290,5.964844,5.730469,2.867188,-0.892578,0.5,-2.349609,0.342896,0.6297,0.008545,0.697021,down
29295,5.886719,5.964844,2.90625,-0.892578,0.5,-2.349609,0.342896,0.6297,0.008545,0.697021,down
29300,6.039062,6.109375,2.980469,-1.123047,0.367188,-2.1875,0.342896,0.6297,0.008545,0.697021,down
29306,6.039062,6.109375,2.980469,-1.433594,0.253906,-2.044922,0.37146,0.620239,0.018433,0.690674,down
29311,6.191406,6.492187,3.058594,-1.433594,0.253906,-2.044922,0.377502,0.618103,0.01825,0.68927,down
29316,6.425781,6.152344,2.867188,-2.394531,0.125,-1.810547,0.383972,0.615723,0.017334,0.687866,down
29322,7.074219,4.886719,3.019531,-2.394531,0.125,-1.810547,0.383972,0.615723,0.017334,0.687866,down
29328,7.265625,3.96875,3.402344,-2.84375,0.207031,-1.9375,0.383972,0.615723,0.017334,0.687866,down
29333,7.230469,3.8125,3.632813,-2.84375,0.207031,-1.9375,0.407104,0.606018,0.012573,0.683228,down
29338,7.230469,3.8125,3.59375,-2.441406,0.552734,-2.359375,0.407104,0.606018,0.012573,0.683228,down
29343,7.191406,3.96875,3.59375,-2.441406,0.552734,-2.359375,0.430481,0.595093,0.011475,0.678528,down
29348,7.113281,4.273437,3.710938,-2.441406,0.552734,-2.359375,0.437012,0.59198,0.012329,0.677063,down
29353,6.460937,5.15625,4.132812,-1.740234,0.734375,-2.650391,0.444885,0.588257,0.014038,0.675171,down
29358,6.1875,5.652344,4.285156,-1.740234,0.734375,-2.650391,0.451111,0.585388,0.015869,0.673462,down
29363,5.925781,6.035156,4.285156,-1.197266,0.632812,-2.640625,0.451111,0.585388,0.015869,0.673462,down
29369,5.847656,6.691406,4.207031,-1.197266,0.632812,-2.640625,0.463318,0.580261,0.020813,0.669495,down
29374,5.847656,6.691406,4.207031,-0.8125,0.416016,-2.443359,0.468933,0.578186,0.02356,0.667297,down
29379,5.847656,6.691406,4.207031,-0.734375,0.275391,-2.314453,0.473938,0.576477,0.026123,0.6651,down
29384,6.039062,7.679687,4.207031,-0.734375,0.275391,-2.314453,0.473938,0.576477,0.026123,0.6651,down
29389,6.039062,7.875,4.054687,-0.845703,0.197266,-2.191406,0.47876,0.575012,0.02832,0.662842,down
29394,6.039062,7.875,4.054687,-1.142578,0.183594,-2.103516,0.483826,0.573242,0.03009,0.660583,down
29399,5.964844,7.957031,3.554688,-1.142578,0.183594,-2.103516,0.489075,0.571167,0.031067,0.658508,down
29404,6.460937,6.996094,3.59375,-1.142578,0.183594,-2.103516,0.501648,0.565002,0.03064,0.654419,down
29410,6.652344,5.613281,3.785156,-1.142578,0.183594,-2.103516,0.508728,0.560974,0.02948,0.652405,down
29415,6.691406,5.191406,3.863281,-3.072266,0.384766,-2.185547,0.516602,0.556274,0.028076,0.65033,down
29420,6.6875,4.886719,4.550781,-3.072266,0.384766,-2.185547,0.516602,0.556274,0.028076,0.65033,down
29427,6.386719,5.039062,4.742187,-3.050781,0.572266,-2.375,0.516602,0.556274,0.028076,0.65033,down
29432,5.847656,5.230469,4.972656,-2.662109,0.685547,-2.476563,0.516602,0.556274,0.028076,0.65033,down
29437,5.847656,5.230469,4.972656,-2.662109,0.685547,-2.476563,0.547913,0.536072,0.024658,0.641724,down
29442,5.042969,5.191406,5.128906,-2.662109,0.685547,-2.476563,0.547913,0.536072,0.024658,0.641724,down
29447,4.738281,5.503906,5.089844,-1.914063,0.603516,-2.453125,0.547913,0.536072,0.024658,0.641724,down
29452,4.738281,5.503906,5.089844,-1.375,0.474609,-2.410156,0.547913,0.536072,0.024658,0.641724,down
29458,4.085937,6.535156,4.742187,-1.375,0.474609,-2.410156,0.577637,0.519836,0.031189,0.628601,down
29463,4.546875,7.261719,5.011719,-0.257813,0.035156,-2.185547,0.577637,0.519836,0.031189,0.628601,down
29468,4.738281,7.535156,4.859375,-0.150391,-0.029297,-2.128906,0.58197,0.51886,0.033875,0.625244,down
29473,4.851562,7.683594,4.707031,-0.150391,-0.029297,-2.128906,0.588867,0.517944,0.038696,0.619263,down
29478,4.890625,7.878906,4.589844,-0.150391,-0.029297,-2.128906,0.592163,0.517517,0.041016,0.616333,down
29483,5.003906,8.140625,4.476562,-0.396484,0.027344,-2.085938,0.592163,0.517517,0.041016,0.616333,down
29488,5.082031,8.179688,4.476562,-0.732422,0.099609,-2.103516,0.59613,0.516724,0.043457,0.612976,down
29493,5.273437,7.953125,4.359375,-0.732422,0.099609,-2.103516,0.604126,0.513733,0.046814,0.607422,down
29498,5.273437,7.796875,4.167969,-0.732422,0.099609,-2.103516,0.609192,0.510864,0.047668,0.604675,down
29503,5.351562,7.453125,4.246094,-2.255859,0.320313,-2.234375,0.609192,0.510864,0.047668,0.604675,down
29508,5.234375,6.726562,4.476562,-2.255859,0.320313,-2.234375,0.615479,0.506775,0.047913,0.601685,down
29513,5.003906,6.574219,4.707031,-2.255859,0.320313,-2.234375,0.628052,0.497498,0.04718,0.596558,down
29518,4.738281,6.53125,5.089844,-2.255859,0.320313,-2.234375,0.628052,0.497498,0.04718,0.596558,down
29523,4.394531,6.496094,5.433594,-2.869141,0.464844,-2.261719,0.642029,0.486145,0.045776,0.591064,down
29528,3.933594,6.152344,5.625,-2.869141,0.464844,-2.261719,0.648437,0.480835,0.045105,0.58844,down
29533,3.664063,6.152344,5.703125,-2.869141,0.464844,-2.261719,0.648437,0.480835,0.045105,0.58844,down
29538,3.664063,6.152344,5.703125,-2.412109,0.380859,-2.091797,0.654236,0.476074,0.044678,0.585937,down
29543,3.433594,6.226562,5.703125,-2.072266,0.298828,-2.046875,0.654236,0.476074,0.044678,0.585937,down
29548,3.28125,6.378906,5.703125,-1.675781,0.240234,-2.007813,0.654236,0.476074,0.044678,0.585937,down
29553,3.28125,6.378906,5.703125,-1.263672,0.167969,-1.988281,0.669739,0.464722,0.045105,0.577454,down
29559,3.78125,6.496094,5.585937,-0.867187,0.136719,-1.996094,0.677429,0.460876,0.047607,0.57135,down
29565,3.855469,6.609375,5.433594,-0.867187,0.136719,-1.996094,0.680847,0.459717,0.049622,0.568054,down
29571,3.894531,6.652344,5.242187,-0.132812,0.085937,-2.058594,0.680847,0.459717,0.049622,0.568054,down
29576,3.933594,6.835937,5.089844,-0.070312,0.115234,-2.085938,0.686951,0.458252,0.054199,0.561401,down
29581,4.085937,6.878906,5.050781,-0.158203,0.142578,-2.125,0.686951,0.458252,0.054199,0.561401,down
29587,4.164062,7.03125,4.972656,-0.380859,0.189453,-2.136719,0.686951,0.458252,0.054199,0.561401,down
29592,4.046875,7.183594,4.898437,-0.689453,0.269531,-2.142578,0.686951,0.458252,0.054199,0.561401,down
29598,3.816406,7.222656,5.089844,-0.978516,0.332031,-2.162109,0.686951,0.458252,0.054199,0.561401,down
29603,3.589844,7.335937,5.164062,-0.978516,0.332031,-2.162109,0.705139,0.449585,0.064758,0.544434,down
29608,3.320313,7.492187,5.28125,-1.371094,0.414062,-2.142578,0.709534,0.44635,0.066284,0.541199,down
29613,2.9375,7.53125,5.433594,-1.371094,0.414062,-2.142578,0.713867,0.442993,0.067566,0.538147,down
29618,2.707031,7.535156,5.472656,-1.371094,0.414062,-2.142578,0.717957,0.439758,0.068787,0.535217,down
29623,2.4375,7.53125,5.777344,-1.357422,0.335938,-2.080078,0.721985,0.436523,0.069824,0.532227,down
29628,2.4375,7.53125,5.777344,-1.357422,0.335938,-2.080078,0.721985,0.436523,0.069824,0.532227,down
29633,2.4375,7.53125,6.007812,-1.183594,0.203125,-2.005859,0.721985,0.436523,0.069824,0.532227,down
29638,2.4375,7.53125,6.007812,-1.134766,0.154297,-1.982422,0.733948,0.427612,0.072876,0.522644,down
29643,2.667969,6.835937,6.351562,-1.134766,0.154297,-1.982422,0.737732,0.424927,0.073853,0.519348,down
29648,2.746094,6.765625,6.542969,-0.880859,0.121094,-1.943359,0.741272,0.422424,0.074829,0.516174,down
29654,2.859375,6.535156,6.542969,-0.880859,0.121094,-1.943359,0.748108,0.417969,0.077148,0.509583,down
29659,2.9375,6.457031,6.578125,-0.738281,0.173828,-1.943359,0.75177,0.415649,0.078674,0.505859,down
29665,2.976563,6.417969,6.734375,-0.693359,0.214844,-1.962891,0.754883,0.413635,0.080139,0.502625,down
29670,2.976563,6.574219,6.894531,-0.693359,0.214844,-1.962891,0.757629,0.411804,0.081604,0.499695,down
29675,2.859375,6.765625,6.960937,-0.591797,0.3125,-2.027344,0.760681,0.409851,0.083435,0.496399,down
29681,2.402344,7.257812,6.851562,-0.591797,0.3125,-2.027344,0.763794,0.407837,0.085571,0.49292,down
29686,2.132813,7.601562,7.003906,-0.435547,0.412109,-2.119141,0.763794,0.407837,0.085571,0.49292,down
29692,1.863281,7.914062,7.195312,-0.371094,0.433594,-2.15625,0.763794,0.407837,0.085571,0.49292,down
29697,1.480469,8.410156,7.195312,-0.371094,0.433594,-2.15625,0.763794,0.407837,0.085571,0.49292,down
29703,1.25,8.5625,7.308594,-0.234375,0.351563,-2.042969,0.763794,0.407837,0.085571,0.49292,down
29708,0.945312,8.988281,7.347656,-0.234375,0.351563,-2.042969,0.778015,0.399231,0.098145,0.475098,down
29713,0.984375,9.140625,7.386719,-0.234375,0.351563,-2.042969,0.780518,0.397888,0.100464,0.471558,down
29718,1.097656,9.292969,7.386719,-0.394531,0.171875,-1.828125,0.782959,0.396545,0.102539,0.46814,down
29723,1.175781,9.253906,7.15625,-0.394531,0.171875,-1.828125,0.785583,0.39502,0.104492,0.4646,down
29728,1.289063,9.210938,7.195312,-0.394531,0.171875,-1.828125,0.788086,0.393433,0.106079,0.461426,down
29733,1.367188,9.101563,7.15625,-0.394531,0.171875,-1.828125,0.790527,0.391663,0.107361,0.458435,down
29738,1.367188,9.101563,7.15625,-0.769531,0.132812,-1.730469,0.793213,0.389587,0.108521,0.455261,down
29743,1.597656,8.644531,7.082031,-0.884766,0.146484,-1.732422,0.795837,0.387329,0.109497,0.452332,down
29748,1.597656,8.644531,7.082031,-1.013672,0.171875,-1.742188,0.795837,0.387329,0.109497,0.452332,down
29754,1.597656,8.644531,7.082031,-1.013672,0.171875,-1.742188,0.801636,0.381836,0.111328,0.44635,down
29759,1.597656,8.644531,7.082031,-1.349609,0.287109,-1.785156,0.807861,0.375122,0.112915,0.440308,down
29765,1.519531,8.0625,7.234375,-1.412109,0.333984,-1.789063,0.810974,0.37146,0.113708,0.437439,down
29770,1.136719,7.53125,7.65625,-1.412109,0.333984,-1.789063,0.814209,0.367554,0.114502,0.434509,down
29775,0.867187,7.414062,7.765625,-1.40625,0.382813,-1.759766,0.817322,0.36377,0.115356,0.431702,down
29782,0.675781,7.300781,7.921875,-1.332031,0.371094,-1.724609,0.817322,0.36377,0.115356,0.431702,down
29787,0.371094,7.109375,8.148438,-1.332031,0.371094,-1.724609,0.817322,0.36377,0.115356,0.431702,down
29793,0.292969,7.109375,8.191406,-1.09375,0.275391,-1.626953,0.817322,0.36377,0.115356,0.431702,down
29798,0.332031,7.183594,8.347656,-0.923828,0.199219,-1.582031,0.817322,0.36377,0.115356,0.431702,down
29803,0.410156,7.148437,8.304688,-0.923828,0.199219,-1.582031,0.83075,0.347839,0.11969,0.417847,down
29808,0.484375,7.070312,8.230469,-0.923828,0.199219,-1.582031,0.83313,0.34552,0.120605,0.414673,down
29814,0.484375,7.183594,8.152344,-0.529297,0.072266,-1.509766,0.83313,0.34552,0.120605,0.414673,down
29819,0.523437,7.261719,7.960937,-0.529297,0.072266,-1.509766,0.838989,0.340332,0.123169,0.406311,down
29824,0.484375,7.339844,7.769531,-0.564453,0.107422,-1.53125,0.841187,0.338379,0.124268,0.403076,down
29829,0.484375,7.453125,7.730469,-0.685547,0.126953,-1.539063,0.841187,0.338379,0.124268,0.403076,down
29834,0.484375,7.644531,7.765625,-0.685547,0.126953,-1.539063,0.845276,0.334229,0.125916,0.397461,down
29840,0.332031,7.953125,7.539062,-0.685547,0.126953,-1.539063,0.847534,0.331482,0.126587,0.394653,down
29845,0.292969,7.878906,7.503906,-1.431641,0.191406,-1.583984,0.850098,0.328064,0.127014,0.391968,down
29850,0.253906,7.683594,7.578125,-1.771484,0.216797,-1.599609,0.850098,0.328064,0.127014,0.391968,down
29855,0.21875,7.261719,7.730469,-1.771484,0.216797,-1.599609,0.850098,0.328064,0.127014,0.391968,down
29860,0.140625,6.878906,7.808594,-2.089844,0.248047,-1.613281,0.855957,0.318909,0.127136,0.386658,down
29865,0.140625,6.878906,7.808594,-2.089844,0.248047,-1.613281,0.859131,0.313477,0.126892,0.384094,down
29871,0.027344,6.113281,8.1875,-2.40625,0.326172,-1.644531,0.865723,0.301453,0.126221,0.379028,down
29876,-0.203125,5.691406,8.574219,-2.400391,0.324219,-1.621094,0.865723,0.301453,0.126221,0.379028,down
29882,-0.320313,5.15625,8.804688,-2.400391,0.324219,-1.621094,0.872131,0.289307,0.125549,0.373962,down
29887,-0.359375,4.964844,8.847656,-2.175781,0.294922,-1.542969,0.872131,0.289307,0.125549,0.373962,down
29893,-0.394531,4.773437,8.996094,-2.175781,0.294922,-1.542969,0.872131,0.289307,0.125549,0.373962,down
29899,-0.394531,4.808594,9.070313,-1.177734,0.277344,-1.476563,0.872131,0.289307,0.125549,0.373962,down
29904,-0.433594,5.0,9.035156,-0.765625,0.279297,-1.472656,0.88269,0.269714,0.125488,0.363831,down
29909,-0.472656,5.921875,8.917969,-0.765625,0.279297,-1.472656,0.88623,0.264771,0.127197,0.358276,down
29914,-0.472656,6.34375,8.730469,-0.271484,0.271484,-1.519531,0.88623,0.264771,0.127197,0.358276,down
29919,-0.472656,6.648437,8.613281,-0.271484,0.271484,-1.519531,0.887817,0.263062,0.128601,0.35498,down
29924,-0.433594,7.109375,8.386719,-0.228516,0.285156,-1.558594,0.887817,0.263062,0.128601,0.35498,down
29930,-0.28125,7.300781,8.265625,-0.228516,0.285156,-1.558594,0.89209,0.258728,0.132812,0.345764,down
29935,-0.28125,7.300781,8.265625,-0.779297,0.421875,-1.6875,0.89386,0.256348,0.134216,0.342407,down
29941,-0.359375,7.109375,7.960937,-0.779297,0.421875,-1.6875,0.895813,0.253174,0.135498,0.339294,down
29947,-0.359375,6.304687,7.808594,-0.779297,0.421875,-1.6875,0.895813,0.253174,0.135498,0.339294,down
29952,-0.320313,5.769531,7.84375,-2.242188,0.568359,-1.818359,0.895813,0.253174,0.135498,0.339294,down
29957,-0.320313,5.769531,7.84375,-2.664063,0.611328,-1.863281,0.90332,0.236633,0.137695,0.330261,down
29963,-0.28125,4.808594,8.1875,-2.910156,0.691406,-1.902344,0.90625,0.229187,0.138,0.327393,down
29968,-0.28125,4.808594,8.1875,-3.023438,0.759766,-1.925781,0.909302,0.220947,0.138306,0.324463,down
29973,-0.816406,4.542969,8.957031,-3.023438,0.759766,-1.925781,0.91217,0.21283,0.138611,0.321655,down
29978,-0.816406,4.542969,8.957031,-2.9375,0.765625,-1.804688,0.914978,0.20459,0.138977,0.318787,down
29983,-1.546875,3.203125,9.535156,-2.9375,0.765625,-1.804688,0.914978,0.20459,0.138977,0.318787,down
29989,-1.621094,3.164063,9.800781,-2.107422,0.636719,-1.568359,0.914978,0.20459,0.138977,0.318787,down
29994,-1.582031,3.394531,9.875,-2.107422,0.636719,-1.568359,0.923828,0.177673,0.140869,0.308411,down
29999,-1.699219,4.195312,9.761719,-1.201172,0.576172,-1.492188,0.923828,0.177673,0.140869,0.308411,down
30004,-1.582031,4.582031,9.71875,-1.201172,0.576172,-1.492188,0.925415,0.173401,0.141846,0.305725,down
30009,-1.546875,5.15625,9.609375,-0.615234,0.535156,-1.519531,0.925415,0.173401,0.141846,0.305725,down
30014,-1.507813,5.347656,9.492188,-0.615234,0.535156,-1.519531,0.92926,0.164856,0.145874,0.29657,down
30019,-1.46875,5.308594,9.457031,-0.615234,0.535156,-1.519531,0.93042,0.16272,0.1474,0.293518,down
30024,-1.277344,5.460937,9.1875,-0.615234,0.535156,-1.519531,0.93042,0.16272,0.1474,0.293518,down
30029,-1.199219,5.578125,9.109375,-0.982422,0.625,-1.716797,0.93042,0.16272,0.1474,0.293518,down
30034,-1.085938,5.804687,8.953125,-0.982422,0.625,-1.716797,0.934387,0.15332,0.151794,0.283447,down
30039,-0.96875,5.769531,8.769531,-0.982422,0.625,-1.716797,0.936096,0.148071,0.152771,0.28009,down
30044,-0.894531,4.808594,8.308594,-0.982422,0.625,-1.716797,0.936096,0.148071,0.152771,0.28009,down
30049,-0.816406,4.3125,8.152344,-2.679688,0.6875,-1.941406,0.940186,0.132935,0.153748,0.273438,down
30054,-0.742187,3.46875,8.464844,-2.679688,0.6875,-1.941406,0.940186,0.132935,0.153748,0.273438,down
30059,-0.742187,3.46875,8.464844,-3.517578,0.796875,-2.083984,0.942322,0.123779,0.153931,0.270203,down
30064,-0.742187,3.355469,8.652344,-3.517578,0.796875,-2.083984,0.944458,0.113953,0.154114,0.266846,down
30069,-1.277344,3.546875,9.070313,-3.820313,0.953125,-2.230469,0.944458,0.113953,0.154114,0.266846,down
30074,-1.277344,3.546875,9.070313,-3.886719,0.964844,-2.269531,0.944458,0.113953,0.154114,0.266846,down
30080,-1.660156,3.621094,9.691406,-3.886719,0.964844,-2.269531,0.952515,0.071289,0.15509,0.252197,down
30085,-1.773438,3.355469,9.691406,-3.886719,0.964844,-2.269531,0.954224,0.061035,0.155212,0.248291,down
30091,-2.121094,2.703125,10.21875,-3.886719,0.964844,-2.269531,0.955811,0.051147,0.155334,0.244263,down
30097,-2.15625,2.511719,10.5625,-3.255859,0.722656,-2.326172,0.957336,0.041443,0.155396,0.23999,down
30102,-2.273438,2.28125,10.839844,-3.082031,0.664062,-2.294922,0.957336,0.041443,0.155396,0.23999,down
30108,-2.464844,2.167969,11.140625,-2.943359,0.626953,-2.255859,0.957336,0.041443,0.155396,0.23999,down
30114,-2.539063,2.015625,11.261719,-2.777344,0.599609,-2.203125,0.957336,0.041443,0.155396,0.23999,down
30119,-2.578125,1.976563,11.292969,-2.375,0.585937,-2.154297,0.957336,0.041443,0.155396,0.23999,down
30125,-2.695313,2.050781,11.21875,-2.375,0.585937,-2.154297,0.964233,-0.005554,0.155457,0.2146,down
30131,-2.886719,2.089844,11.105469,-2.375,0.585937,-2.154297,0.965149,-0.01239,0.155823,0.209778,down
30136,-2.886719,2.089844,11.105469,-1.775391,0.701172,-2.132813,0.965881,-0.0177,0.156372,0.20575,down
30141,-2.886719,2.089844,11.105469,-1.542969,0.751953,-2.117188,0.966553,-0.022888,0.157166,0.201294,down
30146,-3.078125,1.9375,11.027344,-1.542969,0.751953,-2.117188,0.966553,-0.022888,0.157166,0.201294,down
30151,-3.269531,2.359375,10.605469,-1.302734,0.816406,-2.113281,0.966553,-0.022888,0.157166,0.201294,down
30156,-3.269531,2.359375,10.605469,-0.957031,0.871094,-2.150391,0.968384,-0.035461,0.16095,0.187134,down
30162,-3.765625,3.007813,10.644531,-0.957031,0.871094,-2.150391,0.968994,-0.039001,0.162354,0.182251,down
30168,-3.804688,3.007813,10.757813,-0.986328,0.800781,-2.189453,0.968994,-0.039001,0.162354,0.182251,down
30173,-3.84375,2.816406,10.875,-1.072266,0.726562,-2.216797,0.968994,-0.039001,0.162354,0.182251,down
30179,-3.765625,2.511719,10.839844,-1.382813,0.582031,-2.236328,0.968994,-0.039001,0.162354,0.182251,down
30184,-3.921875,2.050781,10.453125,-1.558594,0.486328,-2.234375,0.971069,-0.05481,0.166504,0.162231,down
30189,-3.957031,1.59375,10.601563,-1.558594,0.486328,-2.234375,0.971558,-0.059875,0.16687,0.157043,down
30194,-3.996094,1.132813,10.757813,-1.822266,0.208984,-2.1875,0.971985,-0.065063,0.166931,0.1521,down
30200,-4.074219,0.597656,10.800781,-1.822266,0.208984,-2.1875,0.972778,-0.075439,0.165833,0.143311,down
30205,-4.148437,0.175781,10.984375,-1.876953,-0.066406,-2.177734,0.973206,-0.081482,0.164673,0.138367,down
30210,-4.226562,-0.09375,11.101563,-1.787109,-0.222656,-2.210938,0.973633,-0.086914,0.163208,0.133667,down
30215,-4.304687,-0.398438,10.988281,-1.787109,-0.222656,-2.210938,0.973633,-0.086914,0.163208,0.133667,down
30220,-4.304687,-0.398438,10.988281,-1.666016,-0.337891,-2.234375,0.973999,-0.09137,0.161682,0.129578,down
30225,-4.265625,-0.589844,10.90625,-1.666016,-0.337891,-2.234375,0.974548,-0.095947,0.159668,0.124878,down
30230,-4.265625,-0.589844,10.90625,-1.203125,-0.621094,-2.287109,0.97583,-0.10321,0.154724,0.114929,down
30235,-4.265625,-0.589844,10.90625,-1.203125,-0.621094,-2.287109,0.97583,-0.10321,0.154724,0.114929,down
30240,-3.996094,-1.703125,10.378906,-1.203125,-0.621094,-2.287109,0.977478,-0.106934,0.149048,0.104431,down
30246,-3.996094,-2.046875,9.875,-1.203125,-0.621094,-2.287109,0.978516,-0.107361,0.145752,0.098572,down
30251,-3.996094,-2.238281,9.761719,-1.203125,-0.621094,-2.287109,0.979492,-0.106873,0.142883,0.093567,down
30257,-3.921875,-2.160156,9.492188,-1.203125,-0.621094,-2.287109,0.98053,-0.10553,0.139954,0.088684,down
30263,-3.804688,-1.894531,9.492188,1.248047,-1.162109,-1.904297,0.98053,-0.10553,0.139954,0.088684,down
30269,-3.34375,-1.164063,9.6875,1.521484,-1.21875,-1.730469,0.98053,-0.10553,0.139954,0.088684,down
30274,-3.152344,-1.011719,9.609375,2.005859,-1.216797,-1.392578,0.983887,-0.096741,0.130554,0.074951,down
30279,-2.847656,-0.78125,9.335938,2.005859,-1.216797,-1.392578,0.984985,-0.092346,0.12738,0.070923,down
30285,-2.425781,-0.4375,9.03125,2.242188,-1.160156,-1.224609,0.984985,-0.092346,0.12738,0.070923,down
30290,-2.347656,-0.246094,9.070313,2.242188,-1.160156,-1.224609,0.988159,-0.075317,0.11908,0.060852,down
30295,-2.234375,-0.09375,9.191406,2.242188,-1.160156,-1.224609,0.988159,-0.075317,0.11908,0.060852,down
30300,-2.234375,-0.09375,9.191406,2.830078,-0.988281,-0.529297,0.989807,-0.062744,0.114807,0.056458,down
30305,-2.195313,0.136719,9.300781,2.830078,-0.988281,-0.529297,0.989807,-0.062744,0.114807,0.056458,down
30310,-1.964844,0.367188,9.535156,2.830078,-0.988281,-0.529297,0.989807,-0.062744,0.114807,0.056458,down
30315,-1.964844,0.367188,9.535156,2.861328,-0.839844,-0.173828,0.991211,-0.048645,0.11084,0.053223,down
30320,-1.890625,0.441406,9.070313,2.861328,-0.839844,-0.173828,0.992371,-0.033875,0.107117,0.050903,down
30325,-1.890625,0.480469,8.996094,2.861328,-0.839844,-0.173828,0.992798,-0.027405,0.105591,0.05011,down
30330,-1.8125,0.519531,8.917969,2.529297,-0.705078,0.027344,0.993164,-0.020386,0.103943,0.0495,down
30335,-1.851563,0.597656,8.847656,2.408203,-0.640625,0.066406,0.993164,-0.020386,0.103943,0.0495,down
30340,-1.964844,0.710937,8.996094,2.408203,-0.640625,0.066406,0.993652,-0.008423,0.101318,0.048645,down
30345,-1.851563,0.863281,9.035156,2.408203,-0.640625,0.066406,0.993774,-0.003235,0.10022,0.04834,down
30350,-1.8125,0.863281,8.957031,2.125,-0.539062,0.070312,0.993774,-0.003235,0.10022,0.04834,down
30355,-1.851563,0.863281,8.84375,2.125,-0.539062,0.070312,0.994019,0.007507,0.098022,0.047668,down
30360,-1.851563,0.902344,8.808594,2.125,-0.539062,0.070312,0.99408,0.012573,0.096985,0.047241,down
30365,-1.851563,0.902344,8.882813,1.863281,-0.451172,-0.007813,0.99408,0.012573,0.096985,0.047241,down
30370,-1.738281,0.980469,8.886719,1.863281,-0.451172,-0.007813,0.994141,0.017761,0.096008,0.046753,down
30375,-1.660156,1.019531,8.882813,1.728516,-0.376953,-0.039063,0.994141,0.017761,0.096008,0.046753,down
30380,-1.507813,0.941406,8.804688,1.728516,-0.376953,-0.039063,0.994141,0.026489,0.09436,0.045776,down
30385,-1.507813,0.941406,8.804688,1.632813,-0.324219,-0.041016,0.99408,0.030457,0.09375,0.045288,down
30390,-1.46875,0.980469,8.804688,1.632813,-0.324219,-0.041016,0.994019,0.034485,0.09314,0.044861,down
30395,-1.316406,0.980469,9.339844,1.388672,-0.201172,-0.003906,0.993958,0.038086,0.092773,0.044495,down
30400,-1.316406,0.980469,9.339844,1.298828,-0.150391,0.021484,0.993896,0.041382,0.092468,0.044189,down
30406,-1.316406,0.902344,9.492188,1.222656,-0.097656,0.066406,0.993896,0.041382,0.092468,0.044189,down
30411,-1.316406,0.902344,9.492188,1.080078,-0.041016,0.146484,0.993896,0.041382,0.092468,0.044189,down
30416,-1.351563,0.902344,9.457031,1.080078,-0.041016,0.146484,0.993347,0.05304,0.092163,0.044189,down
30422,-1.429688,0.941406,9.535156,1.080078,-0.041016,0.146484,0.993164,0.055542,0.092285,0.044434,down
30427,-1.507813,0.902344,9.496094,1.003906,0.056641,0.238281,0.993164,0.055542,0.092285,0.044434,down
30432,-1.546875,0.980469,9.535156,1.003906,0.056641,0.238281,0.992798,0.060791,0.092712,0.045227,down
30437,-1.621094,1.09375,9.613281,1.003906,0.056641,0.238281,0.992798,0.060791,0.092712,0.045227,down
30443,-1.621094,1.171875,9.648438,1.074219,0.103516,0.253906,0.992798,0.060791,0.092712,0.045227,down
30449,-1.660156,1.285156,9.761719,1.074219,0.103516,0.253906,0.992126,0.068909,0.093628,0.046509,down
30455,-1.660156,1.324219,9.691406,1.068359,0.144531,0.207031,0.992126,0.068909,0.093628,0.046509,down
30460,-1.699219,1.324219,9.652344,1.083984,0.158203,0.185547,0.991638,0.074158,0.094421,0.04718,down
30465,-1.699219,1.476563,9.648438,1.083984,0.158203,0.185547,0.991394,0.076782,0.09491,0.047424,down
30471,-1.699219,1.667969,9.71875,1.083984,0.158203,0.185547,0.990845,0.082092,0.095886,0.047913,down
30476,-1.699219,1.667969,9.71875,0.984375,0.169922,0.142578,0.99054,0.084656,0.096436,0.048096,down
30481,-1.699219,1.746094,9.648438,0.919922,0.167969,0.142578,0.990295,0.087341,0.096985,0.048279,down
30487,-1.621094,1.976563,9.722656,0.919922,0.167969,0.142578,0.990051,0.089233,0.097412,0.048401,down
30492,-1.546875,2.015625,9.761719,0.783203,0.164062,0.144531,0.990051,0.089233,0.097412,0.048401,down
30497,-1.507813,1.976563,9.796875,0.703125,0.179687,0.154297,0.990051,0.089233,0.097412,0.048401,down
30502,-1.582031,1.9375,9.796875,0.648437,0.197266,0.171875,0.990051,0.089233,0.097412,0.048401,down
30508,-1.582031,1.898438,9.875,0.648437,0.197266,0.171875,0.989136,0.096436,0.099365,0.049561,down
30513,-1.582031,1.898438,9.914063,0.625,0.208984,0.25,0.989136,0.096436,0.099365,0.049561,down
30518,-1.582031,1.898438,9.914063,0.640625,0.208984,0.28125,0.989136,0.096436,0.099365,0.049561,down
30523,-1.546875,1.9375,9.992188,0.640625,0.208984,0.28125,0.988403,0.101318,0.101013,0.05127,down
30528,-1.507813,1.976563,9.917969,0.640625,0.208984,0.28125,0.988403,0.101318,0.101013,0.05127,down
30534,-1.507813,2.015625,9.914063,0.640625,0.208984,0.28125,0.987854,0.104492,0.101929,0.052734,down
30539,-1.507813,2.089844,9.839844,0.642578,0.203125,0.402344,0.987854,0.104492,0.101929,0.052734,down
30545,-1.546875,2.128906,9.835938,0.666016,0.205078,0.408203,0.987,0.109619,0.103394,0.055481,down
30550,-1.621094,2.207031,9.839844,0.666016,0.205078,0.408203,0.987,0.109619,0.103394,0.055481,down
30555,-1.621094,2.28125,9.875,0.755859,0.181641,0.402344,0.987,0.109619,0.103394,0.055481,down
30560,-1.582031,2.398438,9.757813,0.755859,0.181641,0.402344,0.986084,0.115295,0.104797,0.058044,down
30565,-1.582031,2.472656,9.839844,0.755859,0.181641,0.402344,0.986084,0.115295,0.104797,0.058044,down
30570,-1.546875,2.511719,9.835938,0.652344,0.171875,0.384766,0.986084,0.115295,0.104797,0.058044,down
30575,-1.507813,2.550781,9.800781,0.652344,0.171875,0.384766,0.985168,0.120544,0.106018,0.060608,down
30580,-1.507813,2.625,9.757813,0.652344,0.171875,0.384766,0.985168,0.120544,0.106018,0.060608,down
