timestamp,ax,ay,az,gx,gy,gz,qw,qx,qy,qz,label
379277,7.386719,5.113281,4.597656,-0.089844,0.046875,-0.082031,0.357849,0.518555,0.06488,0.773865,down
379283,7.382812,5.074219,4.5625,-0.089844,0.046875,-0.082031,0.359558,0.517456,0.06488,0.773743,down
379288,7.425781,5.074219,4.597656,-0.089844,0.046875,-0.082031,0.359558,0.517456,0.06488,0.773743,down
379294,7.425781,5.039062,4.675781,-0.101563,0.011719,-0.050781,0.359558,0.517456,0.06488,0.773743,down
379299,7.503906,5.0,4.636719,-0.101563,0.011719,-0.050781,0.360046,0.517212,0.064697,0.773743,down
379304,7.503906,4.960937,4.636719,-0.101563,0.005859,-0.037109,0.360535,0.516968,0.064392,0.773682,down
379309,7.5,4.960937,4.675781,-0.130859,0.035156,-0.029297,0.360535,0.516968,0.064392,0.773682,down
379314,7.582031,4.960937,4.714844,-0.130859,0.035156,-0.029297,0.360779,0.516785,0.064209,0.773743,down
379319,7.582031,5.0,4.714844,-0.130859,0.035156,-0.029297,0.361206,0.516357,0.063904,0.773804,down
379324,7.582031,4.960937,4.753906,-0.130859,0.035156,-0.029297,0.36145,0.516113,0.063721,0.773865,down
379329,7.542969,4.921875,4.789062,-0.130859,0.035156,-0.029297,0.36145,0.516113,0.063721,0.773865,down
379334,7.5,4.960937,4.867187,-0.117188,0.095703,-0.035156,0.36145,0.516113,0.063721,0.773865,down
379339,7.539062,4.882812,4.90625,-0.117188,0.095703,-0.035156,0.362122,0.515259,0.063477,0.77417,down
379344,7.539062,4.960937,4.90625,-0.117188,0.095703,-0.035156,0.362122,0.515259,0.063477,0.77417,down
379349,7.5,4.921875,4.945312,-0.109375,0.091797,-0.03125,0.362549,0.514648,0.063293,0.774414,down
379355,7.5,4.847656,4.980469,-0.109375,0.091797,-0.03125,0.362732,0.514343,0.063232,0.774475,down
379360,7.5,4.847656,4.980469,-0.113281,0.089844,-0.029297,0.362976,0.514038,0.06311,0.774597,down
379365,7.421875,4.808594,4.980469,-0.107422,0.083984,-0.025391,0.363159,0.513794,0.062988,0.774719,down
379370,7.464844,4.769531,4.980469,-0.107422,0.083984,-0.025391,0.363342,0.513489,0.062927,0.77478,down
379376,7.382812,4.808594,5.019531,-0.107422,0.083984,-0.025391,0.363525,0.513306,0.062805,0.774841,down
379381,7.382812,4.808594,5.019531,-0.080078,0.050781,-0.005859,0.363647,0.513123,0.062683,0.774963,down
379387,7.355469,4.808594,5.019531,-0.080078,0.050781,-0.005859,0.363647,0.513123,0.062683,0.774963,down
379392,7.273437,4.808594,4.90625,-0.080078,0.050781,-0.005859,0.363892,0.512817,0.0625,0.775085,down
379397,7.273437,4.847656,4.945312,-0.074219,0.019531,-0.019531,0.363892,0.512817,0.0625,0.775085,down
379403,7.3125,4.847656,4.90625,-0.060547,-0.005859,-0.023437,0.363892,0.512817,0.0625,0.775085,down
379408,7.355469,4.882812,4.90625,-0.056641,-0.029297,-0.033203,0.363892,0.512817,0.0625,0.775085,down
379414,7.3125,4.921875,4.867187,-0.050781,-0.046875,-0.03125,0.363892,0.512817,0.0625,0.775085,down
379419,7.355469,4.882812,4.828125,-0.052734,-0.058594,-0.041016,0.363892,0.512817,0.0625,0.775085,down
379424,7.386719,4.921875,4.828125,-0.052734,-0.058594,-0.041016,0.364807,0.512695,0.06189,0.774719,down
379429,7.386719,4.921875,4.828125,-0.052734,-0.058594,-0.041016,0.365112,0.512756,0.061646,0.774536,down
379434,7.425781,4.921875,4.753906,-0.052734,-0.058594,-0.041016,0.365112,0.512756,0.061646,0.774536,down
379439,7.386719,4.882812,4.753906,-0.103516,-0.015625,-0.029297,0.365112,0.512756,0.061646,0.774536,down
379444,7.355469,4.882812,4.675781,-0.103516,-0.015625,-0.029297,0.365723,0.512634,0.061157,0.774414,down
379449,7.277344,4.882812,4.714844,-0.125,0.009766,-0.027344,0.365723,0.512634,0.061157,0.774414,down
379454,7.316406,4.847656,4.714844,-0.125,0.009766,-0.027344,0.365967,0.512512,0.060913,0.774414,down
379459,7.273437,4.847656,4.753906,-0.119141,0.037109,-0.033203,0.365967,0.512512,0.060913,0.774414,down
379465,7.273437,4.882812,4.675781,-0.119141,0.037109,-0.033203,0.366638,0.512024,0.060425,0.774475,down
379470,7.195312,4.921875,4.675781,-0.074219,0.035156,-0.021484,0.36676,0.511841,0.060364,0.774475,down
379475,7.199219,4.921875,4.753906,-0.046875,0.035156,-0.011719,0.366882,0.511719,0.060303,0.774536,down
379480,7.160156,5.0,4.714844,-0.046875,0.035156,-0.011719,0.367004,0.511597,0.060242,0.774536,down
379485,7.121094,5.0,4.714844,-0.046875,0.035156,-0.011719,0.367065,0.511536,0.060303,0.774597,down
379490,7.039062,5.039062,4.675781,0.0,0.023437,-0.009766,0.367065,0.511475,0.060303,0.774597,down
379495,7.082031,5.039062,4.714844,0.0,0.023437,-0.009766,0.367126,0.511414,0.060303,0.774597,down
379500,7.042969,5.074219,4.675781,0.0,0.023437,-0.009766,0.367126,0.511414,0.060303,0.774597,down
379505,7.039062,5.074219,4.714844,-0.033203,-0.003906,0.001953,0.367188,0.511353,0.060242,0.774597,down
379510,7.117187,5.074219,4.714844,-0.078125,-0.005859,0.007813,0.367249,0.511353,0.06012,0.774597,down
379515,7.160156,5.039062,4.714844,-0.078125,-0.005859,0.007813,0.367371,0.511292,0.059998,0.774658,down
379520,7.234375,4.960937,4.675781,-0.140625,0.007813,0.007813,0.367554,0.511108,0.059692,0.774658,down
379526,7.355469,4.847656,4.753906,-0.140625,0.007813,0.007813,0.367737,0.510986,0.059448,0.774719,down
379531,7.355469,4.847656,4.753906,-0.167969,0.037109,0.003906,0.36792,0.510803,0.059143,0.774719,down
379536,7.386719,4.769531,4.714844,-0.167969,0.037109,0.003906,0.368164,0.510559,0.058899,0.774841,down
379542,7.386719,4.769531,4.753906,-0.171875,0.056641,-0.011719,0.368164,0.510559,0.058899,0.774841,down
379547,7.425781,4.730469,4.753906,-0.160156,0.0625,-0.015625,0.368652,0.51001,0.05835,0.774963,down
379552,7.351562,4.691406,4.828125,-0.140625,0.080078,-0.033203,0.368652,0.51001,0.05835,0.774963,down
379557,7.3125,4.730469,4.867187,-0.109375,0.087891,-0.029297,0.368652,0.51001,0.05835,0.774963,down
379562,7.351562,4.691406,4.867187,-0.082031,0.09375,-0.044922,0.368652,0.51001,0.05835,0.774963,down
379568,7.273437,4.691406,4.945312,-0.044922,0.097656,-0.039063,0.368652,0.51001,0.05835,0.774963,down
379574,7.238281,4.769531,4.980469,-0.044922,0.097656,-0.039063,0.368652,0.51001,0.05835,0.774963,down
379579,7.234375,4.769531,5.019531,-0.017578,0.09375,-0.050781,0.368652,0.51001,0.05835,0.774963,down
379584,7.234375,4.769531,5.019531,-0.042969,0.09375,-0.048828,0.368652,0.51001,0.05835,0.774963,down
379589,7.199219,4.769531,5.058594,-0.042969,0.09375,-0.048828,0.369934,0.508057,0.05835,0.775635,down
379594,7.195312,4.808594,5.097656,-0.042969,0.09375,-0.048828,0.370056,0.507812,0.058411,0.775696,down
379599,7.195312,4.808594,5.097656,-0.041016,0.082031,-0.039063,0.370056,0.507812,0.058411,0.775696,down
379605,7.234375,4.847656,5.136719,-0.048828,0.066406,-0.03125,0.370056,0.507812,0.058411,0.775696,down
379611,7.277344,4.808594,5.136719,-0.048828,0.066406,-0.03125,0.370605,0.50708,0.058411,0.77594,down
379616,7.3125,4.769531,5.136719,-0.103516,0.025391,-0.023437,0.370605,0.50708,0.058411,0.77594,down
379621,7.3125,4.769531,5.136719,-0.109375,0.017578,-0.017578,0.370972,0.506775,0.058105,0.776001,down
379627,7.316406,4.730469,5.097656,-0.109375,0.017578,-0.017578,0.371155,0.506653,0.057983,0.776001,down
379632,7.355469,4.730469,5.097656,-0.111328,0.005859,-0.025391,0.371155,0.506653,0.057983,0.776001,down
379637,7.386719,4.730469,5.058594,-0.099609,-0.011719,-0.027344,0.371155,0.506653,0.057983,0.776001,down
379643,7.386719,4.730469,5.058594,-0.097656,-0.021484,-0.03125,0.371155,0.506653,0.057983,0.776001,down
379649,7.460937,4.691406,5.136719,-0.089844,-0.039063,-0.039063,0.371155,0.506653,0.057983,0.776001,down
379654,7.460937,4.691406,5.097656,-0.089844,-0.039063,-0.039063,0.372131,0.506348,0.057129,0.775818,down
379659,7.460937,4.691406,5.097656,-0.087891,-0.033203,-0.039063,0.372131,0.506348,0.057129,0.775818,down
379665,7.46875,4.695312,5.175781,-0.082031,-0.035156,-0.048828,0.372742,0.506226,0.056702,0.775574,down
379670,7.433594,4.695312,5.175781,-0.082031,-0.035156,-0.048828,0.372742,0.506226,0.056702,0.775574,down
379675,7.46875,4.695312,5.175781,-0.070312,-0.021484,-0.044922,0.372742,0.506226,0.056702,0.775574,down
379680,7.5,4.695312,5.136719,-0.070312,-0.021484,-0.044922,0.373291,0.506165,0.056458,0.775391,down
379686,7.472656,4.808594,5.058594,-0.070312,-0.021484,-0.044922,0.373474,0.506104,0.056335,0.775391,down
379691,7.5,4.808594,5.023437,-0.080078,-0.003906,-0.044922,0.373474,0.506104,0.056335,0.775391,down
379696,7.503906,4.847656,5.023437,-0.087891,0.005859,-0.042969,0.373474,0.506104,0.056335,0.775391,down
379702,7.472656,4.847656,4.945312,-0.087891,0.005859,-0.042969,0.374084,0.505798,0.05603,0.775269,down
379707,7.472656,4.847656,4.945312,-0.080078,-0.005859,-0.03125,0.374268,0.505737,0.055969,0.775269,down
379713,7.46875,4.886719,4.984375,-0.060547,-0.021484,-0.03125,0.374268,0.505737,0.055969,0.775269,down
379718,7.503906,4.886719,5.058594,-0.060547,-0.021484,-0.03125,0.374268,0.505737,0.055969,0.775269,down
379724,7.503906,4.921875,5.058594,-0.041016,-0.037109,-0.001953,0.374634,0.505676,0.055664,0.775146,down
379730,7.46875,4.921875,5.023437,-0.029297,-0.041016,0.005859,0.374634,0.505676,0.055664,0.775146,down
379735,7.5,4.921875,4.945312,-0.007813,-0.050781,0.005859,0.374695,0.505737,0.055542,0.775085,down
379740,7.472656,4.960937,4.90625,-0.007813,-0.050781,0.005859,0.374756,0.505859,0.055359,0.774963,down
379745,7.5,4.960937,4.984375,-0.007813,-0.050781,0.005859,0.374756,0.505981,0.055298,0.774902,down
379750,7.542969,4.921875,4.984375,-0.007813,-0.050781,0.005859,0.374756,0.505981,0.055298,0.774902,down
379755,7.542969,4.921875,4.867187,-0.001953,-0.072266,0.027344,0.374756,0.505981,0.055298,0.774902,down
379760,7.542969,4.921875,4.867187,0.0,-0.066406,0.039063,0.374756,0.505981,0.055298,0.774902,down
379765,7.617187,4.921875,4.832031,0.0,-0.066406,0.039063,0.374634,0.506348,0.055054,0.774719,down
379770,7.621094,4.960937,4.832031,0.0,-0.066406,0.039063,0.374512,0.506653,0.054871,0.774658,down
379775,7.617187,4.960937,4.867187,0.0,-0.066406,0.039063,0.374512,0.506653,0.054871,0.774658,down
379780,7.617187,4.960937,4.867187,-0.001953,-0.046875,0.044922,0.374512,0.506653,0.054871,0.774658,down
379785,7.578125,4.960937,4.867187,0.007813,-0.033203,0.046875,0.374512,0.506653,0.054871,0.774658,down
379790,7.5,4.960937,4.867187,0.007813,-0.033203,0.046875,0.374146,0.506897,0.054565,0.774658,down
379795,7.503906,4.960937,4.832031,0.007813,-0.033203,0.046875,0.374146,0.506897,0.054565,0.774658,down
379800,7.578125,4.960937,4.90625,0.001953,-0.011719,0.041016,0.374146,0.506897,0.054565,0.774658,down
379805,7.5,4.960937,4.867187,0.009766,-0.017578,0.054687,0.374146,0.506897,0.054565,0.774658,down
379810,7.5,4.960937,4.867187,0.009766,-0.007813,0.054687,0.37384,0.507019,0.054443,0.774719,down
379815,7.5,4.960937,4.867187,0.009766,-0.007813,0.054687,0.373779,0.507019,0.054382,0.77478,down
379820,7.5,5.0,4.867187,0.005859,-0.011719,0.0625,0.373779,0.507019,0.054382,0.77478,down
379825,7.46875,5.0,4.792969,0.005859,-0.011719,0.0625,0.373352,0.507141,0.054199,0.774902,down
379830,7.46875,4.960937,4.792969,0.005859,-0.011719,0.0625,0.373352,0.507141,0.054199,0.774902,down
379835,7.46875,4.960937,4.792969,0.017578,-0.011719,0.089844,0.373352,0.507141,0.054199,0.774902,down
379840,7.46875,4.960937,4.832031,0.019531,-0.021484,0.091797,0.373352,0.507141,0.054199,0.774902,down
379845,7.503906,4.921875,4.867187,0.019531,-0.013672,0.095703,0.372559,0.507324,0.053894,0.775208,down
379850,7.46875,4.886719,4.867187,0.019531,-0.013672,0.095703,0.372559,0.507324,0.053894,0.775208,down
379855,7.46875,4.886719,4.867187,0.033203,0.003906,0.097656,0.372559,0.507324,0.053894,0.775208,down
379860,7.46875,4.886719,4.867187,0.033203,0.003906,0.097656,0.371826,0.507446,0.053711,0.775452,down
379865,7.46875,4.847656,4.867187,0.033203,0.003906,0.097656,0.371643,0.507446,0.05365,0.775574,down
379870,7.472656,4.808594,4.867187,0.033203,0.003906,0.097656,0.371643,0.507446,0.05365,0.775574,down
379875,7.472656,4.808594,4.90625,0.0,0.035156,0.09375,0.371643,0.507446,0.05365,0.775574,down
379880,7.429687,4.769531,4.90625,-0.005859,0.037109,0.083984,0.371216,0.507385,0.053528,0.775818,down
379885,7.46875,4.730469,4.867187,-0.005859,0.037109,0.083984,0.371033,0.507324,0.053467,0.77594,down
379890,7.433594,4.730469,4.90625,-0.017578,0.048828,0.091797,0.371033,0.507324,0.053467,0.77594,down
379895,7.433594,4.730469,4.867187,-0.017578,0.048828,0.091797,0.370728,0.507141,0.053284,0.776245,down
379901,7.433594,4.695312,4.90625,-0.017578,0.048828,0.091797,0.370605,0.507019,0.053223,0.776367,down
379906,7.351562,4.617187,4.832031,-0.042969,0.070312,0.085937,0.370605,0.507019,0.053223,0.776367,down
379911,7.390625,4.617187,4.867187,-0.042969,0.070312,0.085937,0.370239,0.506531,0.052856,0.776917,down
379916,7.390625,4.578125,4.867187,-0.042969,0.070312,0.085937,0.370117,0.506348,0.052734,0.777039,down
379921,7.390625,4.578125,4.867187,-0.042969,0.087891,0.082031,0.370117,0.506348,0.052734,0.777039,down
379926,7.390625,4.578125,4.867187,-0.042969,0.087891,0.082031,0.369934,0.505981,0.052551,0.777466,down
379931,7.355469,4.578125,4.867187,-0.042969,0.087891,0.082031,0.369812,0.505676,0.05249,0.777649,down
379936,7.3125,4.617187,4.832031,-0.042969,0.087891,0.082031,0.36969,0.505432,0.05249,0.777893,down
379941,7.3125,4.539062,4.832031,-0.017578,0.130859,0.041016,0.36969,0.505432,0.05249,0.777893,down
379946,7.273437,4.578125,4.867187,-0.017578,0.130859,0.041016,0.369568,0.504883,0.052551,0.778259,down
379952,7.199219,4.578125,4.90625,-0.017578,0.130859,0.041016,0.369507,0.504639,0.052612,0.778442,down
379957,7.121094,4.578125,4.832031,-0.013672,0.134766,0.009766,0.369507,0.504395,0.052734,0.778625,down
379962,7.085937,4.578125,4.832031,-0.013672,0.126953,0.021484,0.369446,0.504089,0.052795,0.77887,down
379969,7.117187,4.617187,4.867187,-0.023437,0.123047,0.013672,0.369446,0.504089,0.052795,0.77887,down
379974,7.121094,4.617187,4.945312,-0.023437,0.123047,0.013672,0.369446,0.504089,0.052795,0.77887,down
379980,7.089844,4.65625,4.90625,-0.056641,0.113281,0.001953,0.369446,0.504089,0.052795,0.77887,down
379985,7.117187,4.65625,4.90625,-0.070312,0.119141,0.003906,0.369507,0.503052,0.052917,0.77948,down
379991,7.15625,4.695312,4.945312,-0.078125,0.119141,-0.001953,0.369507,0.503052,0.052917,0.77948,down
379996,7.199219,4.695312,4.945312,-0.072266,0.126953,-0.029297,0.369507,0.503052,0.052917,0.77948,down
380001,7.15625,4.730469,4.945312,-0.072266,0.126953,-0.029297,0.369995,0.501709,0.052917,0.78009,down
380006,7.160156,4.769531,4.945312,-0.072266,0.126953,-0.029297,0.370117,0.501465,0.052979,0.780212,down
380011,7.195312,4.730469,4.984375,-0.089844,0.132812,-0.044922,0.370117,0.501465,0.052979,0.780212,down
380016,7.238281,4.695312,5.058594,-0.105469,0.160156,-0.054687,0.370361,0.501038,0.052979,0.780396,down
380021,7.238281,4.695312,5.058594,-0.113281,0.183594,-0.056641,0.370728,0.500244,0.05304,0.780701,down
380027,7.277344,4.578125,5.136719,-0.113281,0.183594,-0.056641,0.370972,0.499756,0.05304,0.780884,down
380032,7.277344,4.539062,5.214844,-0.128906,0.244141,-0.066406,0.371277,0.499146,0.053101,0.781128,down
380038,7.277344,4.539062,5.214844,-0.160156,0.271484,-0.076172,0.371277,0.499146,0.053101,0.781128,down
380043,7.234375,4.464844,5.136719,-0.160156,0.271484,-0.076172,0.371887,0.497803,0.053223,0.781738,down
380048,7.117187,4.464844,5.136719,-0.191406,0.337891,-0.087891,0.371887,0.497803,0.053223,0.781738,down
380053,7.089844,4.464844,5.136719,-0.199219,0.357422,-0.095703,0.371887,0.497803,0.053223,0.781738,down
380059,7.011719,4.464844,5.097656,-0.199219,0.353516,-0.099609,0.371887,0.497803,0.053223,0.781738,down
380064,7.007812,4.425781,5.136719,-0.201172,0.347656,-0.113281,0.371887,0.497803,0.053223,0.781738,down
380070,7.011719,4.464844,5.097656,-0.197266,0.337891,-0.113281,0.371887,0.497803,0.053223,0.781738,down
380075,6.96875,4.425781,5.136719,-0.177734,0.357422,-0.125,0.371887,0.497803,0.053223,0.781738,down
380080,6.855469,4.386719,5.214844,-0.177734,0.357422,-0.125,0.374695,0.491638,0.053894,0.78418,down
380085,6.851562,4.464844,5.25,-0.177734,0.357422,-0.125,0.375061,0.490784,0.054138,0.784546,down
380091,6.890625,4.5,5.328125,-0.09375,0.380859,-0.150391,0.375854,0.489014,0.054871,0.785278,down
380096,6.890625,4.5,5.367187,-0.09375,0.380859,-0.150391,0.376221,0.488098,0.055359,0.785583,down
380102,6.890625,4.539062,5.289062,-0.115234,0.484375,-0.197266,0.376648,0.487061,0.055847,0.786011,down
380107,6.851562,4.539062,5.214844,-0.154297,0.5,-0.207031,0.377197,0.48584,0.056335,0.786499,down
380112,6.734375,4.578125,5.058594,-0.154297,0.5,-0.207031,0.377747,0.484558,0.056763,0.786926,down
380118,6.625,4.464844,4.984375,-0.154297,0.5,-0.207031,0.378296,0.483521,0.057007,0.787292,down
380123,6.625,4.464844,4.984375,-0.285156,0.470703,-0.228516,0.378967,0.4823,0.057251,0.78772,down
380128,6.625,4.464844,4.984375,-0.306641,0.443359,-0.226562,0.379761,0.481079,0.057373,0.788086,down
380133,6.667969,4.425781,5.058594,-0.306641,0.443359,-0.226562,0.379761,0.481079,0.057373,0.788086,down
380138,6.664062,4.273437,5.136719,-0.333984,0.425781,-0.240234,0.379761,0.481079,0.057373,0.788086,down
380143,6.664062,4.273437,5.136719,-0.341797,0.414062,-0.259766,0.381348,0.478699,0.057495,0.788757,down
380149,6.511719,4.234375,5.25,-0.341797,0.414062,-0.259766,0.382263,0.477478,0.057495,0.789062,down
380154,6.351562,4.195312,5.328125,-0.306641,0.482422,-0.287109,0.382263,0.477478,0.057495,0.789062,down
380159,6.285156,4.234375,5.519531,-0.273438,0.470703,-0.28125,0.382263,0.477478,0.057495,0.789062,down
380164,6.3125,4.308594,5.597656,-0.201172,0.425781,-0.291016,0.382263,0.477478,0.057495,0.789062,down
380169,6.3125,4.386719,5.863281,-0.201172,0.425781,-0.291016,0.382263,0.477478,0.057495,0.789062,down
380174,6.3125,4.464844,5.863281,-0.201172,0.425781,-0.291016,0.387085,0.47052,0.059204,0.79071,down
380179,6.316406,4.539062,5.902344,-0.082031,0.380859,-0.341797,0.387085,0.47052,0.059204,0.79071,down
380184,6.316406,4.5,5.863281,-0.0625,0.326172,-0.349609,0.387085,0.47052,0.059204,0.79071,down
380189,6.394531,4.539062,5.941406,-0.0625,0.326172,-0.349609,0.387085,0.47052,0.059204,0.79071,down
380195,6.472656,4.5,5.902344,-0.0625,0.326172,-0.349609,0.390015,0.467529,0.061584,0.790894,down
380201,6.429687,4.5,5.902344,-0.021484,0.070312,-0.386719,0.390015,0.467529,0.061584,0.790894,down
380206,6.585937,4.425781,5.941406,-0.021484,0.070312,-0.386719,0.392334,0.466614,0.063049,0.790161,down
380211,6.625,4.386719,5.902344,-0.021484,0.070312,-0.386719,0.392334,0.466614,0.063049,0.790161,down
380216,6.667969,4.386719,5.941406,-0.048828,-0.044922,-0.40625,0.392334,0.466614,0.063049,0.790161,down
380221,6.667969,4.347656,5.980469,-0.048828,-0.044922,-0.40625,0.394897,0.466431,0.064209,0.788879,down
380226,6.625,4.308594,5.941406,-0.048828,-0.044922,-0.40625,0.395813,0.46637,0.064575,0.788452,down
380231,6.628906,4.234375,5.828125,-0.048828,-0.044922,-0.40625,0.395813,0.46637,0.064575,0.788452,down
380236,6.589844,4.273437,5.828125,-0.099609,0.007813,-0.445312,0.395813,0.46637,0.064575,0.788452,down
380241,6.699219,4.273437,5.789062,-0.099609,0.007813,-0.445312,0.398743,0.465881,0.065613,0.78717,down
380246,6.734375,4.308594,5.828125,-0.099609,0.007813,-0.445312,0.39978,0.465576,0.06604,0.786804,down
380251,6.933594,4.347656,5.828125,-0.099609,0.007813,-0.445312,0.39978,0.465576,0.06604,0.786804,down
380256,6.890625,4.539062,5.789062,-0.089844,0.123047,-0.501953,0.39978,0.465576,0.06604,0.786804,down
380261,6.855469,4.539062,5.789062,-0.089844,0.123047,-0.501953,0.403015,0.464233,0.067871,0.785767,down
380266,6.773437,4.617187,5.789062,-0.089844,0.123047,-0.501953,0.403015,0.464233,0.067871,0.785767,down
380271,6.699219,4.617187,5.789062,-0.015625,0.300781,-0.574219,0.403015,0.464233,0.067871,0.785767,down
380277,6.585937,4.5,5.980469,-0.015625,0.300781,-0.574219,0.406311,0.462219,0.070557,0.785034,down
380282,6.472656,4.539062,5.902344,-0.041016,0.380859,-0.572266,0.40741,0.461365,0.071533,0.784851,down
380287,6.285156,4.578125,5.863281,-0.068359,0.457031,-0.568359,0.408691,0.460266,0.072632,0.78479,down
380292,5.96875,4.617187,5.671875,-0.068359,0.457031,-0.568359,0.40979,0.459167,0.073608,0.784729,down
380297,5.902344,4.539062,5.632812,-0.068359,0.457031,-0.568359,0.410828,0.458069,0.074463,0.784729,down
380302,5.785156,4.539062,5.632812,-0.166016,0.513672,-0.576172,0.410828,0.458069,0.074463,0.784729,down
380307,5.785156,4.539062,5.632812,-0.169922,0.505859,-0.583984,0.413269,0.455505,0.076233,0.78479,down
380313,5.933594,4.695312,5.710937,-0.169922,0.505859,-0.583984,0.414551,0.454285,0.077087,0.78479,down
380319,5.96875,4.730469,5.75,-0.154297,0.447266,-0.634766,0.414551,0.454285,0.077087,0.78479,down
380325,6.046875,4.808594,5.75,-0.121094,0.410156,-0.669922,0.414551,0.454285,0.077087,0.78479,down
380331,6.164062,4.921875,5.75,-0.076172,0.398438,-0.720703,0.419983,0.449951,0.081055,0.783936,down
380336,6.167969,5.0,5.710937,-0.076172,0.398438,-0.720703,0.419983,0.449951,0.081055,0.783936,down
380341,6.203125,5.039062,5.671875,0.052734,0.367188,-0.792969,0.419983,0.449951,0.081055,0.783936,down
380346,6.246094,5.152344,5.632812,0.107422,0.318359,-0.853516,0.419983,0.449951,0.081055,0.783936,down
380351,6.355469,5.34375,5.789062,0.107422,0.318359,-0.853516,0.426025,0.446777,0.086975,0.78186,down
380356,6.316406,5.421875,5.941406,0.107422,0.318359,-0.853516,0.426025,0.446777,0.086975,0.78186,down
380361,6.394531,5.460937,5.980469,0.0,0.228516,-0.869141,0.426025,0.446777,0.086975,0.78186,down
380367,6.3125,5.574219,6.019531,0.0,0.228516,-0.869141,0.430725,0.444885,0.090698,0.779968,down
380372,6.316406,5.613281,6.019531,-0.089844,0.175781,-0.822266,0.432495,0.444214,0.091797,0.779236,down
380377,6.285156,5.574219,6.054687,-0.121094,0.123047,-0.792969,0.434204,0.443604,0.092651,0.778503,down
380383,6.46875,5.574219,6.132812,-0.121094,0.123047,-0.792969,0.43573,0.443115,0.093323,0.777893,down
380388,6.625,5.613281,6.054687,-0.121094,0.123047,-0.792969,0.437317,0.442566,0.093811,0.777222,down
380393,6.664062,5.6875,6.054687,-0.21875,0.056641,-0.681641,0.437317,0.442566,0.093811,0.777222,down
380400,6.699219,5.726562,6.019531,-0.228516,0.041016,-0.658203,0.437317,0.442566,0.093811,0.777222,down
380405,6.773437,5.84375,6.09375,-0.222656,0.023437,-0.626953,0.437317,0.442566,0.093811,0.777222,down
380411,6.8125,5.882812,6.171875,-0.177734,-0.023437,-0.621094,0.437317,0.442566,0.093811,0.777222,down
380416,6.929687,5.917969,6.246094,-0.177734,-0.023437,-0.621094,0.444763,0.440308,0.095581,0.774048,down
380421,6.890625,6.035156,6.210937,-0.130859,-0.023437,-0.640625,0.444763,0.440308,0.095581,0.774048,down
380426,6.890625,6.035156,6.210937,-0.130859,-0.023437,-0.640625,0.444763,0.440308,0.095581,0.774048,down
380431,6.894531,6.148437,6.285156,-0.068359,-0.035156,-0.658203,0.444763,0.440308,0.095581,0.774048,down
380436,6.894531,6.148437,6.285156,0.033203,-0.056641,-0.697266,0.450256,0.439636,0.097839,0.770996,down
380441,6.851562,6.300781,6.210937,0.072266,-0.078125,-0.714844,0.450256,0.439636,0.097839,0.770996,down
380446,6.851562,6.300781,6.210937,0.068359,-0.087891,-0.726562,0.452942,0.439697,0.099487,0.769165,down
380451,6.851562,6.609375,6.210937,0.068359,-0.087891,-0.726562,0.455688,0.439758,0.101074,0.767334,down
380456,6.777344,6.683594,6.132812,0.068359,-0.087891,-0.726562,0.455688,0.439758,0.101074,0.767334,down
380461,6.816406,6.683594,6.054687,0.068359,-0.087891,-0.726562,0.458618,0.439392,0.102356,0.765625,down
380466,6.816406,6.761719,6.09375,0.068359,-0.087891,-0.726562,0.458618,0.439392,0.102356,0.765625,down
380472,6.738281,6.796875,6.171875,-0.195312,0.023437,-0.701172,0.458618,0.439392,0.102356,0.765625,down
380478,6.546875,6.914062,6.324219,-0.195312,0.023437,-0.701172,0.463379,0.437805,0.103394,0.763489,down
380483,6.507812,6.875,6.4375,-0.439453,0.087891,-0.652344,0.465027,0.437012,0.103455,0.762939,down
380488,6.394531,6.722656,6.515625,-0.46875,0.095703,-0.621094,0.466797,0.436096,0.103394,0.76239,down
380494,6.242187,6.609375,6.59375,-0.46875,0.095703,-0.621094,0.468384,0.435242,0.103271,0.761902,down
380499,6.164062,6.53125,6.59375,-0.460937,0.087891,-0.546875,0.468384,0.435242,0.103271,0.761902,down
380505,6.203125,6.457031,6.664062,-0.449219,0.068359,-0.505859,0.468384,0.435242,0.103271,0.761902,down
380510,6.125,6.378906,6.742187,-0.4375,0.048828,-0.453125,0.468384,0.435242,0.103271,0.761902,down
380515,6.125,6.300781,6.746094,-0.4375,0.048828,-0.453125,0.468384,0.435242,0.103271,0.761902,down
380520,6.089844,6.226562,6.746094,-0.4375,0.048828,-0.453125,0.475342,0.431396,0.102112,0.759949,down
380525,6.011719,6.1875,6.667969,-0.316406,0.001953,-0.378906,0.475342,0.431396,0.102112,0.759949,down
380531,6.011719,6.265625,6.597656,-0.253906,-0.015625,-0.363281,0.475342,0.431396,0.102112,0.759949,down
380536,5.933594,6.300781,6.4375,-0.253906,-0.015625,-0.363281,0.478394,0.430115,0.101746,0.758789,down
380541,5.898437,6.339844,6.398437,-0.138672,-0.027344,-0.353516,0.478394,0.430115,0.101746,0.758789,down
380547,5.820312,6.457031,6.210937,-0.111328,-0.035156,-0.359375,0.478394,0.430115,0.101746,0.758789,down
380552,5.820312,6.496094,6.132812,-0.128906,-0.046875,-0.371094,0.480957,0.429504,0.102051,0.757507,down
380558,5.742187,6.609375,5.863281,-0.128906,-0.046875,-0.371094,0.482605,0.429199,0.102295,0.756592,down
380563,5.742187,6.648437,5.789062,-0.201172,-0.054687,-0.388672,0.483582,0.428955,0.102295,0.756104,down
380569,5.703125,6.722656,5.671875,-0.201172,-0.054687,-0.388672,0.484558,0.428711,0.102234,0.755615,down
380575,5.703125,6.761719,5.597656,-0.265625,-0.074219,-0.398438,0.484558,0.428711,0.102234,0.755615,down
380580,5.667969,6.796875,5.519531,-0.304688,-0.082031,-0.392578,0.484558,0.428711,0.102234,0.755615,down
380585,5.628906,6.835937,5.480469,-0.357422,-0.083984,-0.392578,0.484558,0.428711,0.102234,0.755615,down
380591,5.589844,6.757812,5.480469,-0.357422,-0.083984,-0.392578,0.484558,0.428711,0.102234,0.755615,down
380596,5.511719,6.71875,5.441406,-0.439453,-0.080078,-0.376953,0.484558,0.428711,0.102234,0.755615,down
380601,5.476562,6.683594,5.480469,-0.439453,-0.080078,-0.376953,0.491455,0.426392,0.100281,0.752747,down
380607,5.398437,6.53125,5.40625,-0.439453,-0.080078,-0.376953,0.493896,0.425476,0.099182,0.751831,down
380612,5.320312,6.457031,5.40625,-0.404297,-0.121094,-0.367188,0.493896,0.425476,0.099182,0.751831,down
380617,5.320312,6.378906,5.289062,-0.404297,-0.121094,-0.367188,0.495056,0.425049,0.098694,0.751343,down
380622,5.320312,6.296875,5.289062,-0.404297,-0.121094,-0.367188,0.497253,0.4245,0.097656,0.750366,down
380627,5.320312,6.226562,5.289062,-0.404297,-0.121094,-0.367188,0.498291,0.424316,0.097107,0.749817,down
380632,5.285156,6.1875,5.25,-0.404297,-0.121094,-0.367188,0.498291,0.424316,0.097107,0.749817,down
380637,5.320312,6.074219,5.136719,-0.289063,-0.21875,-0.318359,0.498291,0.424316,0.097107,0.749817,down
380642,5.320312,6.074219,5.136719,-0.289063,-0.21875,-0.318359,0.501099,0.424377,0.095825,0.748108,down
380647,5.285156,6.074219,5.097656,-0.289063,-0.21875,-0.318359,0.501831,0.424561,0.095459,0.747498,down
380652,5.285156,5.992187,5.136719,-0.289063,-0.21875,-0.318359,0.501831,0.424561,0.095459,0.747498,down
380657,5.359375,5.914062,5.25,-0.080078,-0.265625,-0.230469,0.502991,0.425232,0.095032,0.746399,down
380662,5.398437,5.886719,5.289062,-0.080078,-0.265625,-0.230469,0.503418,0.425598,0.09491,0.745972,down
380667,5.398437,5.847656,5.289062,-0.080078,-0.265625,-0.230469,0.503418,0.425598,0.09491,0.745972,down
380672,5.398437,5.847656,5.328125,0.025391,-0.179687,-0.128906,0.503418,0.425598,0.09491,0.745972,down
380677,5.285156,5.804687,5.441406,0.068359,-0.111328,-0.076172,0.503967,0.42627,0.094849,0.745178,down
380682,5.285156,5.730469,5.480469,0.068359,-0.111328,-0.076172,0.50415,0.426819,0.094971,0.744751,down
380687,5.285156,5.652344,5.558594,0.089844,-0.039063,-0.052734,0.50415,0.426819,0.094971,0.744751,down
380692,5.167969,5.613281,5.675781,0.089844,-0.039063,-0.052734,0.504211,0.427185,0.095337,0.744446,down
380697,5.128906,5.652344,5.710937,0.109375,0.007813,-0.025391,0.504211,0.427185,0.095337,0.744446,down
380702,5.09375,5.652344,5.75,0.111328,0.001953,-0.019531,0.50415,0.427307,0.095581,0.744385,down
380708,5.09375,5.652344,5.75,0.105469,0.0,-0.011719,0.503967,0.427551,0.096008,0.744324,down
380713,5.09375,5.652344,5.863281,0.105469,0.0,-0.011719,0.503906,0.427673,0.096191,0.744263,down
380718,5.015625,5.652344,5.898437,0.115234,-0.029297,-0.003906,0.503906,0.427673,0.096191,0.744263,down
380723,5.015625,5.652344,5.898437,0.134766,-0.046875,0.005859,0.503662,0.42804,0.096619,0.744141,down
380728,5.015625,5.652344,6.015625,0.134766,-0.046875,0.005859,0.50354,0.428345,0.096802,0.74408,down
380733,5.09375,5.613281,6.09375,0.134766,-0.046875,0.005859,0.503357,0.428711,0.096985,0.743958,down
380738,5.09375,5.652344,6.175781,0.169922,-0.087891,0.041016,0.503357,0.428711,0.096985,0.743958,down
380743,5.09375,5.652344,6.175781,0.169922,-0.105469,0.064453,0.502869,0.429443,0.09729,0.743774,down
380748,5.09375,5.652344,6.210937,0.169922,-0.105469,0.064453,0.502563,0.429871,0.097412,0.743713,down
380753,5.128906,5.652344,6.246094,0.140625,-0.115234,0.080078,0.502258,0.430359,0.097473,0.743652,down
380759,5.167969,5.613281,6.320312,0.140625,-0.115234,0.080078,0.502014,0.430725,0.097473,0.743591,down
380764,5.207031,5.613281,6.320312,0.113281,-0.126953,0.097656,0.50177,0.431152,0.097412,0.74353,down
380770,5.246094,5.574219,6.359375,0.113281,-0.126953,0.097656,0.50177,0.431152,0.097412,0.74353,down
380776,5.285156,5.535156,6.363281,0.072266,-0.105469,0.091797,0.50177,0.431152,0.097412,0.74353,down
380781,5.246094,5.535156,6.402344,0.058594,-0.09375,0.091797,0.50177,0.431152,0.097412,0.74353,down
380786,5.285156,5.496094,6.4375,0.058594,-0.09375,0.091797,0.50177,0.431152,0.097412,0.74353,down
380792,5.285156,5.535156,6.4375,0.027344,-0.050781,0.076172,0.50177,0.431152,0.097412,0.74353,down
380797,5.246094,5.535156,6.519531,0.027344,-0.050781,0.076172,0.500549,0.432739,0.096863,0.74353,down
380803,5.207031,5.574219,6.515625,0.027344,-0.050781,0.076172,0.500244,0.432983,0.096741,0.743591,down
380808,5.207031,5.535156,6.519531,0.013672,-0.013672,0.050781,0.500122,0.433044,0.09668,0.743652,down
380814,5.167969,5.496094,6.519531,0.013672,-0.013672,0.050781,0.500061,0.433044,0.096619,0.743652,down
380819,5.128906,5.535156,6.558594,0.013672,-0.013672,0.050781,0.499939,0.433105,0.09668,0.743713,down
380824,5.167969,5.535156,6.707031,0.013672,-0.013672,0.050781,0.499878,0.433228,0.09668,0.743713,down
380829,5.246094,5.496094,6.707031,0.046875,-0.029297,0.025391,0.499878,0.433228,0.09668,0.743713,down
380834,5.207031,5.535156,6.707031,0.052734,-0.029297,0.019531,0.499878,0.433228,0.09668,0.743713,down
380839,5.246094,5.574219,6.625,0.052734,-0.029297,0.019531,0.499634,0.433594,0.096802,0.743652,down
380845,5.246094,5.613281,6.59375,0.054687,-0.046875,0.003906,0.499634,0.433594,0.096802,0.743652,down
380850,5.207031,5.613281,6.558594,0.072266,-0.072266,0.0,0.499634,0.433594,0.096802,0.743652,down
380855,5.246094,5.574219,6.597656,0.080078,-0.091797,0.001953,0.499451,0.434143,0.096924,0.743408,down
380861,5.285156,5.613281,6.628906,0.085937,-0.119141,0.001953,0.499451,0.434143,0.096924,0.743408,down
380866,5.285156,5.652344,6.667969,0.087891,-0.134766,-0.003906,0.499451,0.434143,0.096924,0.743408,down
380871,5.285156,5.652344,6.707031,0.09375,-0.144531,0.001953,0.499451,0.434143,0.096924,0.743408,down
380876,5.285156,5.6875,6.667969,0.09375,-0.144531,0.001953,0.499451,0.434143,0.096924,0.743408,down
380882,5.320312,5.726562,6.667969,0.121094,-0.128906,-0.003906,0.499451,0.434143,0.096924,0.743408,down
380887,5.320312,5.726562,6.707031,0.140625,-0.134766,-0.019531,0.499451,0.434143,0.096924,0.743408,down
380893,5.320312,5.726562,6.785156,0.140625,-0.134766,-0.019531,0.49884,0.437134,0.097412,0.742004,down
380898,5.359375,5.765625,6.746094,0.132812,-0.117188,-0.033203,0.498779,0.437561,0.097595,0.74176,down
380903,5.359375,5.765625,6.707031,0.132812,-0.117188,-0.033203,0.498779,0.437866,0.097717,0.741577,down
380908,5.4375,5.804687,6.597656,0.132812,-0.117188,-0.033203,0.498779,0.438171,0.097778,0.741333,down
380914,5.550781,5.84375,6.597656,0.132812,-0.117188,-0.033203,0.498901,0.438477,0.097778,0.74115,down
380919,5.550781,5.84375,6.515625,0.003906,-0.126953,-0.052734,0.498901,0.438477,0.097778,0.74115,down
380924,5.589844,5.804687,6.441406,-0.005859,-0.125,-0.052734,0.498901,0.438477,0.097778,0.74115,down
380930,5.667969,5.804687,6.398437,-0.005859,-0.125,-0.052734,0.499268,0.439148,0.097534,0.74054,down
380935,5.703125,5.84375,6.324219,-0.025391,-0.142578,-0.058594,0.499268,0.439148,0.097534,0.74054,down
380941,5.742187,5.84375,6.242187,-0.023437,-0.148437,-0.058594,0.499268,0.439148,0.097534,0.74054,down
380946,5.820312,5.765625,6.214844,-0.033203,-0.146484,-0.052734,0.499268,0.439148,0.097534,0.74054,down
380951,5.898437,5.6875,6.214844,-0.037109,-0.148437,-0.056641,0.499268,0.439148,0.097534,0.74054,down
380956,5.898437,5.6875,6.214844,-0.025391,-0.142578,-0.064453,0.499268,0.439148,0.097534,0.74054,down
380961,6.011719,5.6875,6.285156,-0.009766,-0.134766,-0.070312,0.499268,0.439148,0.097534,0.74054,down
380966,6.011719,5.6875,6.210937,0.013672,-0.119141,-0.080078,0.499268,0.439148,0.097534,0.74054,down
380971,6.089844,5.726562,6.175781,0.013672,-0.119141,-0.080078,0.500671,0.440857,0.096497,0.738708,down
380976,6.089844,5.765625,6.136719,0.033203,-0.105469,-0.089844,0.500671,0.440857,0.096497,0.738708,down
380981,6.164062,5.765625,6.09375,0.027344,-0.109375,-0.091797,0.500671,0.440857,0.096497,0.738708,down
380987,6.246094,5.882812,6.019531,0.027344,-0.109375,-0.091797,0.501343,0.441711,0.096619,0.737732,down
380992,6.246094,5.917969,5.902344,0.027344,-0.109375,-0.091797,0.501343,0.441711,0.096619,0.737732,down
380997,6.285156,5.917969,5.863281,0.011719,-0.095703,-0.085937,0.501343,0.441711,0.096619,0.737732,down
381003,6.351562,6.035156,5.671875,0.003906,-0.085937,-0.076172,0.501709,0.442078,0.096619,0.737244,down
381008,6.351562,6.035156,5.671875,-0.001953,-0.070312,-0.074219,0.502014,0.442383,0.096619,0.736877,down
381013,6.351562,6.074219,5.558594,-0.011719,-0.066406,-0.068359,0.502197,0.442444,0.096619,0.736694,down
381018,6.3125,6.074219,5.519531,-0.011719,-0.066406,-0.068359,0.502319,0.442505,0.096558,0.736572,down
381023,6.394531,6.109375,5.519531,-0.009766,-0.037109,-0.056641,0.502502,0.442566,0.096558,0.73645,down
381029,6.351562,6.148437,5.558594,-0.009766,-0.037109,-0.056641,0.502625,0.442566,0.096619,0.736328,down
381034,6.394531,6.1875,5.597656,0.0,0.029297,-0.044922,0.502747,0.442505,0.09668,0.736267,down
381039,6.390625,6.226562,5.632812,0.0,0.029297,-0.044922,0.502808,0.442383,0.096802,0.736267,down
381045,6.355469,6.1875,5.710937,0.011719,0.072266,-0.046875,0.502869,0.442261,0.096924,0.736267,down
381052,6.355469,6.339844,5.789062,0.013672,0.105469,-0.046875,0.502869,0.442261,0.096924,0.736267,down
381058,6.390625,6.339844,5.789062,0.023437,0.126953,-0.044922,0.502991,0.44165,0.097656,0.73645,down
381063,6.355469,6.378906,5.75,0.023437,0.126953,-0.044922,0.502991,0.44165,0.097656,0.73645,down
381068,6.429687,6.417969,5.789062,-0.011719,0.166016,-0.041016,0.502991,0.44165,0.097656,0.73645,down
381073,6.433594,6.453125,5.863281,-0.011719,0.166016,-0.041016,0.503113,0.440735,0.098389,0.736816,down
381078,6.433594,6.453125,5.828125,-0.072266,0.191406,-0.019531,0.503113,0.440735,0.098389,0.736816,down
381083,6.433594,6.453125,5.789062,-0.072266,0.191406,-0.019531,0.503296,0.439819,0.098633,0.737244,down
381088,6.433594,6.53125,5.75,-0.15625,0.232422,-0.005859,0.503296,0.439819,0.098633,0.737244,down
381094,6.433594,6.574219,5.789062,-0.15625,0.232422,-0.005859,0.50354,0.438599,0.098694,0.737793,down
381099,6.433594,6.574219,5.789062,-0.205078,0.261719,0.019531,0.503662,0.437927,0.098633,0.738159,down
381104,6.433594,6.574219,5.789062,-0.212891,0.275391,0.025391,0.503784,0.437134,0.098572,0.738525,down
381110,6.355469,6.535156,5.863281,-0.212891,0.275391,0.025391,0.503906,0.43634,0.098511,0.738892,down
381115,6.355469,6.535156,5.902344,-0.224609,0.310547,0.048828,0.503906,0.43634,0.098511,0.738892,down
381120,6.355469,6.535156,5.902344,-0.224609,0.322266,0.052734,0.504089,0.434631,0.098389,0.739807,down
381125,6.316406,6.496094,6.09375,-0.220703,0.349609,0.072266,0.504089,0.434631,0.098389,0.739807,down
381130,6.316406,6.496094,6.132812,-0.212891,0.378906,0.068359,0.504089,0.434631,0.098389,0.739807,down
381135,6.316406,6.496094,6.246094,-0.226562,0.423828,0.085937,0.504089,0.434631,0.098389,0.739807,down
381141,6.316406,6.496094,6.246094,-0.238281,0.470703,0.091797,0.50415,0.430603,0.098389,0.742126,down
381146,6.203125,6.375,6.363281,-0.253906,0.505859,0.101563,0.50415,0.430603,0.098389,0.742126,down
381152,6.164062,6.339844,6.480469,-0.253906,0.505859,0.101563,0.50415,0.430603,0.098389,0.742126,down
381157,6.089844,6.300781,6.441406,-0.253906,0.505859,0.101563,0.504028,0.426697,0.098572,0.744446,down
381163,6.011719,6.265625,6.480469,-0.318359,0.599609,0.125,0.504028,0.426697,0.098572,0.744446,down
381168,6.011719,6.339844,6.476562,-0.318359,0.599609,0.125,0.503967,0.424011,0.098694,0.745972,down
381173,5.933594,6.339844,6.515625,-0.332031,0.611328,0.130859,0.503967,0.424011,0.098694,0.745972,down
381179,5.933594,6.417969,6.515625,-0.332031,0.611328,0.130859,0.503845,0.419312,0.098755,0.748718,down
381185,5.859375,6.453125,6.4375,-0.332031,0.611328,0.130859,0.503784,0.417847,0.098877,0.749512,down
381190,5.820312,6.496094,6.402344,-0.300781,0.675781,0.103516,0.503723,0.416199,0.09906,0.750488,down
381195,5.820312,6.496094,6.4375,-0.300781,0.683594,0.091797,0.503723,0.416199,0.09906,0.750488,down
381201,5.78125,6.574219,6.402344,-0.300781,0.683594,0.091797,0.503723,0.412903,0.099426,0.752258,down
381206,5.78125,6.609375,6.402344,-0.376953,0.720703,0.085937,0.503723,0.412903,0.099426,0.752258,down
381212,5.742187,6.609375,6.4375,-0.439453,0.783203,0.080078,0.503723,0.412903,0.099426,0.752258,down
381217,5.703125,6.492187,6.519531,-0.501953,0.853516,0.080078,0.503723,0.412903,0.099426,0.752258,down
381222,5.703125,6.457031,6.480469,-0.501953,0.853516,0.080078,0.504089,0.404724,0.099731,0.756409,down
381227,5.667969,6.378906,6.476562,-0.630859,1.017578,0.068359,0.504089,0.404724,0.099731,0.756409,down
381233,5.550781,6.378906,6.554687,-0.6875,1.107422,0.060547,0.504089,0.404724,0.099731,0.756409,down
381238,5.511719,6.417969,6.628906,-0.6875,1.107422,0.060547,0.50531,0.392822,0.099854,0.761841,down
381243,5.4375,6.457031,6.820312,-0.753906,1.203125,0.068359,0.50531,0.392822,0.099854,0.761841,down
381248,5.398437,6.417969,7.015625,-0.753906,1.203125,0.068359,0.505615,0.389832,0.099915,0.763184,down
381253,5.398437,6.300781,7.363281,-0.744141,1.210938,0.072266,0.505615,0.389832,0.099915,0.763184,down
381258,5.359375,6.300781,7.429687,-0.707031,1.267578,0.099609,0.506165,0.383362,0.099976,0.766052,down
381263,5.207031,6.300781,7.433594,-0.707031,1.267578,0.099609,0.506348,0.379761,0.100159,0.7677,down
381268,5.207031,6.300781,7.433594,-0.697266,1.285156,0.109375,0.50647,0.376709,0.100281,0.769104,down
381273,5.167969,6.226562,7.320312,-0.712891,1.285156,0.132812,0.50647,0.376709,0.100281,0.769104,down
381278,5.167969,6.226562,7.320312,-0.732422,1.265625,0.150391,0.506714,0.369995,0.100525,0.772156,down
381283,5.09375,6.1875,7.320312,-0.732422,1.265625,0.150391,0.506775,0.366699,0.100586,0.773682,down
381288,5.09375,6.1875,7.320312,-0.773437,1.226563,0.183594,0.506775,0.363403,0.100525,0.775208,down
381293,4.9375,6.074219,7.46875,-0.773437,1.226563,0.183594,0.506897,0.35675,0.100159,0.77832,down
381298,4.9375,6.035156,7.511719,-0.773437,1.226563,0.183594,0.506897,0.35675,0.100159,0.77832,down
381303,4.9375,5.957031,7.546875,-0.78125,1.228516,0.185547,0.506897,0.35675,0.100159,0.77832,down
381309,4.863281,5.804687,7.625,-0.78125,1.228516,0.185547,0.506958,0.34668,0.099731,0.782837,down
381314,4.824219,5.6875,7.664062,-0.791016,1.310547,0.146484,0.507019,0.342834,0.09967,0.784485,down
381319,4.824219,5.652344,7.703125,-0.808594,1.363281,0.132812,0.507141,0.338989,0.09967,0.786133,down
381325,4.746094,5.535156,7.785156,-0.808594,1.363281,0.132812,0.507202,0.335876,0.099731,0.787415,down
381330,4.59375,5.269531,7.816406,-0.808594,1.363281,0.132812,0.507385,0.331909,0.099854,0.78894,down
381335,4.59375,5.191406,7.8125,-0.896484,1.523438,0.054687,0.507385,0.331909,0.099854,0.78894,down
381342,4.515625,5.113281,7.8125,-0.957031,1.587891,0.025391,0.507385,0.331909,0.099854,0.78894,down
381348,4.324219,5.0,7.664062,-0.957031,1.587891,0.025391,0.50824,0.319153,0.100159,0.793579,down
381354,4.132812,5.0,7.628906,-1.113281,1.783203,-0.076172,0.50824,0.319153,0.100159,0.793579,down
381359,3.90625,5.0,7.546875,-1.113281,1.783203,-0.076172,0.509888,0.304077,0.100586,0.798401,down
381364,3.75,5.039062,7.546875,-1.113281,1.783203,-0.076172,0.510498,0.299316,0.100708,0.799805,down
381369,3.597656,5.0,7.742187,-1.171875,1.873047,-0.167969,0.51123,0.293579,0.100891,0.801392,down
381374,3.445313,4.921875,7.890625,-1.167969,1.902344,-0.201172,0.512024,0.287903,0.101074,0.802917,down
381379,3.328125,4.886719,7.96875,-1.167969,1.902344,-0.201172,0.512695,0.283203,0.101379,0.804138,down
381384,3.101563,4.847656,8.085938,-1.107422,1.947266,-0.259766,0.51355,0.277466,0.101807,0.805542,down
381389,3.023438,4.847656,8.089844,-1.107422,1.947266,-0.259766,0.51355,0.277466,0.101807,0.805542,down
381394,3.023438,4.847656,8.089844,-1.091797,1.994141,-0.28125,0.515137,0.266846,0.102844,0.807983,down
381399,2.792969,4.921875,8.164063,-1.091797,1.994141,-0.28125,0.515137,0.266846,0.102844,0.807983,down
381404,2.792969,4.921875,8.164063,-1.091797,1.994141,-0.28125,0.515137,0.266846,0.102844,0.807983,down
381409,2.753906,5.078125,8.355469,-1.080078,1.964844,-0.3125,0.516724,0.255981,0.104004,0.810364,down
381414,2.601563,4.921875,8.433594,-1.080078,1.964844,-0.3125,0.518494,0.244324,0.105042,0.812683,down
381419,2.488281,4.847656,8.507813,-1.080078,1.964844,-0.3125,0.519226,0.239258,0.105347,0.81366,down
381424,2.410156,4.65625,8.617188,-1.251953,1.902344,-0.275391,0.520081,0.233337,0.10553,0.814819,down
381429,2.410156,4.65625,8.617188,-1.289063,1.861328,-0.253906,0.520813,0.228027,0.10553,0.815857,down
381434,2.105469,4.578125,9.082031,-1.289063,1.861328,-0.253906,0.521606,0.222168,0.105408,0.816956,down
381439,1.988281,4.5,9.15625,-1.289063,1.861328,-0.253906,0.522278,0.217102,0.105164,0.817932,down
381444,1.835938,4.425781,9.078125,-1.289063,1.861328,-0.253906,0.522278,0.217102,0.105164,0.817932,down
381449,1.722656,4.347656,9.15625,-1.419922,1.773438,-0.1875,0.522278,0.217102,0.105164,0.817932,down
381455,1.722656,4.117187,9.464844,-1.419922,1.773438,-0.1875,0.524231,0.200867,0.103455,0.821045,down
381460,1.605469,4.003906,9.460938,-1.441406,1.470703,-0.078125,0.52478,0.195679,0.102478,0.822083,down
381465,1.566406,3.925781,9.351563,-1.404297,1.388672,-0.035156,0.525208,0.190918,0.101501,0.823059,down
381470,1.453125,3.851563,9.351563,-1.404297,1.388672,-0.035156,0.525635,0.185913,0.100281,0.824097,down
381476,1.375,3.734375,9.460938,-1.404297,1.388672,-0.035156,0.525635,0.185913,0.100281,0.824097,down
381481,1.339844,3.699219,9.503906,-1.201172,1.013672,0.042969,0.525635,0.185913,0.100281,0.824097,down
381486,1.339844,3.699219,9.503906,-1.105469,0.908203,0.072266,0.526306,0.174805,0.096985,0.826477,down
381491,1.222656,3.621094,9.390625,-1.105469,0.908203,0.072266,0.526306,0.174805,0.096985,0.826477,down
381497,1.222656,3.660156,9.390625,-1.019531,0.796875,0.087891,0.526428,0.168823,0.094788,0.827881,down
381502,1.222656,3.660156,9.390625,-1.019531,0.796875,0.087891,0.526428,0.168823,0.094788,0.827881,down
381508,1.070313,3.8125,9.390625,-0.796875,0.451172,0.125,0.526428,0.168823,0.094788,0.827881,down
381513,0.953125,3.925781,9.390625,-0.796875,0.451172,0.125,0.526367,0.162476,0.091492,0.82959,down
381519,0.992187,4.042969,9.464844,-0.662109,0.103516,0.171875,0.526367,0.162476,0.091492,0.82959,down
381524,0.992187,4.117187,9.460938,-0.662109,0.103516,0.171875,0.526062,0.158813,0.087646,0.830872,down
381530,0.839844,4.234375,9.542969,-0.662109,0.103516,0.171875,0.52594,0.158142,0.086121,0.831238,down
381535,0.878906,4.234375,9.582031,-0.699219,-0.255859,0.269531,0.52594,0.158142,0.086121,0.831238,down
381540,0.839844,4.195312,9.617188,-0.736328,-0.367188,0.310547,0.525513,0.15741,0.082275,0.832031,down
381546,0.878906,3.964844,9.578125,-0.736328,-0.367188,0.310547,0.525208,0.15741,0.080078,0.832458,down
381551,0.917969,3.890625,9.582031,-0.800781,-0.611328,0.423828,0.525208,0.15741,0.080078,0.832458,down
381557,0.953125,3.773438,9.65625,-0.822266,-0.742187,0.470703,0.525208,0.15741,0.080078,0.832458,down
381563,0.953125,3.507813,9.660156,-0.822266,-0.742187,0.470703,0.523804,0.158691,0.071899,0.833862,down
381568,0.992187,3.351563,9.621094,-0.822266,-0.742187,0.470703,0.523132,0.159607,0.068665,0.834351,down
381574,1.070313,3.3125,9.617188,-0.746094,-1.099609,0.574219,0.521729,0.162476,0.062134,0.835205,down
381579,1.183594,3.238281,9.464844,-0.746094,-1.099609,0.574219,0.520996,0.164307,0.059204,0.83551,down
381584,1.300781,3.199219,9.355469,-0.746094,-1.099609,0.574219,0.520142,0.166504,0.056274,0.835815,down
381589,1.375,3.238281,9.238281,-0.746094,-1.099609,0.574219,0.520142,0.166504,0.056274,0.835815,down
381594,1.492188,3.351563,9.160156,-0.253906,-1.410156,0.619141,0.520142,0.166504,0.056274,0.835815,down
381599,1.492188,3.3125,9.160156,-0.253906,-1.410156,0.619141,0.516846,0.175415,0.04834,0.836548,down
381604,1.53125,3.199219,9.15625,-0.253906,-1.410156,0.619141,0.516846,0.175415,0.04834,0.836548,down
381609,1.683594,3.121094,9.003906,0.113281,-1.548828,0.712891,0.51416,0.182129,0.044312,0.836975,down
381614,1.757813,3.046875,8.855469,0.113281,-1.548828,0.712891,0.512695,0.185791,0.042358,0.837158,down
381619,1.796875,3.046875,8.777344,0.238281,-1.642578,0.832031,0.512695,0.185791,0.042358,0.837158,down
381624,1.796875,3.007813,8.773438,0.248047,-1.669922,0.876953,0.510864,0.189941,0.040161,0.837463,down
381630,1.835938,3.007813,8.660156,0.248047,-1.669922,0.876953,0.507385,0.19751,0.036255,0.838013,down
381636,2.105469,3.085938,8.773438,0.248047,-1.669922,0.876953,0.505615,0.201294,0.034302,0.838257,down
381642,2.21875,2.855469,8.855469,0.279297,-1.894531,1.041016,0.505615,0.201294,0.034302,0.838257,down
381647,2.257813,2.472656,8.699219,0.292969,-1.958984,1.109375,0.505615,0.201294,0.034302,0.838257,down
381652,2.21875,2.089844,8.167969,0.332031,-1.962891,1.166016,0.505615,0.201294,0.034302,0.838257,down
381657,2.257813,1.859375,8.085938,0.398438,-1.990234,1.214844,0.505615,0.201294,0.034302,0.838257,down
381662,2.371094,1.820313,8.011719,0.501953,-2.048828,1.275391,0.505615,0.201294,0.034302,0.838257,down
381667,2.371094,1.820313,8.011719,0.615234,-2.091797,1.300781,0.490601,0.229431,0.020508,0.840393,down
381672,2.488281,1.742188,8.164063,0.615234,-2.091797,1.300781,0.490601,0.229431,0.020508,0.840393,down
381677,2.488281,1.742188,8.164063,0.771484,-2.138672,1.314453,0.484314,0.24054,0.017029,0.841003,down
381683,2.5625,1.515625,8.351563,0.771484,-2.138672,1.314453,0.48114,0.246399,0.015747,0.841187,down
381688,2.5625,1.515625,8.351563,1.263672,-2.238281,1.228516,0.477905,0.252441,0.014771,0.841248,down
381693,2.910156,1.589844,8.355469,1.263672,-2.238281,1.228516,0.477905,0.252441,0.014771,0.841248,down
381699,3.023438,1.898438,8.390625,1.689453,-2.529297,1.138672,0.477905,0.252441,0.014771,0.841248,down
381704,3.101563,2.089844,8.429688,1.689453,-2.529297,1.138672,0.467834,0.272583,0.013428,0.840637,down
381709,3.175781,2.011719,8.507813,1.808594,-2.703125,1.142578,0.467834,0.272583,0.013428,0.840637,down
381714,3.328125,1.820313,8.433594,2.017578,-2.917969,1.210938,0.467834,0.272583,0.013428,0.840637,down
381719,3.40625,1.628906,8.238281,2.017578,-2.917969,1.210938,0.456543,0.297241,0.013062,0.838501,down
381724,3.636719,1.667969,7.585937,2.017578,-2.917969,1.210938,0.452393,0.305908,0.013184,0.837585,down
381730,3.90625,1.820313,7.363281,2.189453,-2.943359,1.353516,0.443787,0.322632,0.01355,0.835937,down
381735,4.058594,1.898438,7.242187,2.138672,-2.871094,1.470703,0.438843,0.331665,0.013672,0.835022,down
381740,4.480469,2.242188,6.902344,2.138672,-2.871094,1.470703,0.434143,0.339844,0.013794,0.834167,down
381746,4.671875,2.472656,6.78125,2.138672,-2.871094,1.470703,0.429565,0.347412,0.013977,0.833435,down
381751,4.671875,2.472656,6.78125,2.035156,-2.521484,1.466797,0.424805,0.35498,0.01416,0.832642,down
381756,4.863281,2.625,6.597656,2.035156,-2.521484,1.466797,0.424805,0.35498,0.01416,0.832642,down
381761,5.4375,3.351563,6.359375,1.974609,-2.380859,1.427734,0.420166,0.362183,0.014465,0.831909,down
381766,5.4375,3.351563,6.359375,1.800781,-2.289063,1.359375,0.420166,0.362183,0.014465,0.831909,down
381771,5.820312,3.046875,6.9375,1.800781,-2.289063,1.359375,0.406555,0.38269,0.014954,0.829529,down
381776,5.78125,2.929688,7.050781,1.800781,-2.289063,1.359375,0.401855,0.389648,0.014954,0.828552,down
381781,5.859375,2.585938,7.046875,1.800781,-2.289063,1.359375,0.401855,0.389648,0.014954,0.828552,down
381786,5.859375,2.585938,7.046875,1.546875,-2.082031,1.353516,0.393738,0.401123,0.014771,0.826965,down
381794,5.898437,2.472656,7.085937,1.546875,-2.082031,1.353516,0.393738,0.401123,0.014771,0.826965,down
381800,5.933594,2.433594,7.046875,1.488281,-2.134766,1.509766,0.393738,0.401123,0.014771,0.826965,down
381805,6.089844,2.355469,7.019531,1.533203,-2.132813,1.53125,0.380066,0.419189,0.013489,0.824402,down
381811,6.472656,2.511719,6.9375,1.533203,-2.132813,1.53125,0.371338,0.430176,0.012634,0.822754,down
381816,6.625,2.585938,6.785156,1.533203,-2.132813,1.53125,0.366333,0.436157,0.01239,0.821838,down
381822,7.121094,2.625,6.4375,1.533203,-2.132813,1.53125,0.36145,0.441956,0.012329,0.820923,down
381827,7.121094,2.625,6.4375,1.839844,-2.027344,1.484375,0.356323,0.447998,0.012573,0.819885,down
381832,7.542969,2.472656,5.980469,1.908203,-1.962891,1.435547,0.351318,0.453674,0.013,0.818848,down
381837,7.542969,2.472656,5.980469,1.935547,-1.896484,1.394531,0.351318,0.453674,0.013,0.818848,down
381843,7.542969,2.472656,5.980469,1.935547,-1.896484,1.394531,0.341309,0.464905,0.014404,0.816772,down
381848,7.542969,2.472656,5.980469,1.865234,-1.693359,1.283203,0.336548,0.470093,0.015259,0.815796,down
381853,7.960937,2.511719,5.023437,1.865234,-1.693359,1.283203,0.33197,0.474976,0.016052,0.814819,down
381859,7.855469,2.625,4.945312,1.458984,-1.445313,1.138672,0.33197,0.474976,0.016052,0.814819,down
381864,7.621094,2.703125,4.90625,1.458984,-1.445313,1.138672,0.323425,0.484009,0.017212,0.812927,down
381869,7.316406,2.316406,5.25,1.275391,-1.462891,1.107422,0.31958,0.488037,0.017517,0.812012,down
381874,7.394531,2.316406,5.480469,1.275391,-1.462891,1.107422,0.315674,0.492126,0.017639,0.811035,down
381880,7.390625,2.203125,5.597656,1.289063,-1.525391,1.125,0.315674,0.492126,0.017639,0.811035,down
381885,7.390625,2.011719,5.75,1.289063,-1.525391,1.125,0.304077,0.5047,0.017761,0.8078,down
381891,7.46875,1.933594,5.40625,1.289063,-1.525391,1.125,0.300232,0.508728,0.017822,0.806702,down
381896,7.5,1.859375,5.214844,1.457031,-1.580078,1.287109,0.300232,0.508728,0.017822,0.806702,down
381901,7.539062,1.972656,4.984375,1.527344,-1.603516,1.333984,0.300232,0.508728,0.017822,0.806702,down
381907,7.816406,2.164063,4.253906,1.527344,-1.603516,1.333984,0.286804,0.521729,0.01825,0.803223,down
381912,7.816406,2.242188,3.988281,1.654297,-1.542969,1.373047,0.286804,0.521729,0.01825,0.803223,down
381918,7.882812,2.28125,3.644531,1.683594,-1.496094,1.341797,0.277283,0.530273,0.019104,0.800964,down
381923,8.039063,2.355469,3.183594,1.683594,-1.496094,1.341797,0.272217,0.534729,0.019714,0.799744,down
381928,8.039063,2.355469,3.183594,1.666016,-1.421875,1.199219,0.267822,0.538574,0.020386,0.798584,down
381933,8.039063,2.355469,3.183594,1.630859,-1.404297,1.111328,0.263245,0.542664,0.02124,0.797363,down
381938,7.855469,2.433594,3.335938,1.630859,-1.404297,1.111328,0.259094,0.54657,0.022034,0.796021,down
381943,7.855469,1.933594,3.71875,1.630859,-1.404297,1.111328,0.259094,0.54657,0.022034,0.796021,down
381949,7.65625,1.898438,3.757813,1.46875,-1.402344,0.869141,0.251282,0.55426,0.023621,0.793152,down
381955,7.699219,1.859375,3.757813,1.439453,-1.433594,0.824219,0.244263,0.56189,0.025208,0.789917,down
381960,8.042969,1.898438,3.414063,1.439453,-1.433594,0.824219,0.240967,0.565552,0.025879,0.788269,down
381966,8.238281,2.089844,3.222656,1.203125,-1.460938,0.753906,0.237854,0.569214,0.026367,0.786621,down
381971,8.304688,2.203125,3.144531,1.117188,-1.496094,0.748047,0.234558,0.573181,0.026733,0.784668,down
381976,8.34375,2.316406,3.144531,1.117188,-1.496094,0.748047,0.231628,0.576965,0.026855,0.782776,down
381982,8.386719,2.050781,3.144531,1.117188,-1.496094,0.748047,0.229187,0.580139,0.026917,0.781128,down
381987,8.386719,2.050781,3.144531,1.044922,-1.541016,0.679687,0.226318,0.583984,0.027039,0.779114,down
381992,8.382813,1.898438,2.839844,1.0625,-1.5,0.644531,0.226318,0.583984,0.027039,0.779114,down
381998,8.386719,1.78125,2.683594,1.0625,-1.5,0.644531,0.221069,0.590942,0.027588,0.77533,down
382003,8.539063,1.628906,2.53125,1.089844,-1.498047,0.613281,0.221069,0.590942,0.027588,0.77533,down
382008,8.691406,1.476563,2.378906,1.048828,-1.466797,0.599609,0.221069,0.590942,0.027588,0.77533,down
382013,8.730469,1.707031,2.457031,1.017578,-1.423828,0.59375,0.221069,0.590942,0.027588,0.77533,down
382019,8.847656,1.859375,2.53125,1.052734,-1.412109,0.585937,0.221069,0.590942,0.027588,0.77533,down
382025,8.960938,1.933594,2.570313,1.115234,-1.400391,0.560547,0.221069,0.590942,0.027588,0.77533,down
382030,9.003906,2.125,2.492188,1.115234,-1.400391,0.560547,0.2052,0.61145,0.029907,0.763611,down
382036,9.003906,2.125,2.492188,1.203125,-1.376953,0.525391,0.19989,0.61792,0.03125,0.759766,down
382041,9.152344,2.394531,2.378906,1.208984,-1.380859,0.507812,0.196899,0.62146,0.032104,0.757568,down
382046,9.1875,2.585938,2.339844,1.208984,-1.380859,0.507812,0.194458,0.624451,0.032837,0.755737,down
382051,9.226563,2.703125,2.1875,1.208984,-1.380859,0.507812,0.194458,0.624451,0.032837,0.755737,down
382057,9.226563,2.703125,2.1875,1.150391,-1.398438,0.488281,0.18927,0.63092,0.034302,0.751648,down
382062,9.230469,2.738281,2.109375,1.150391,-1.398438,0.488281,0.18927,0.63092,0.034302,0.751648,down
382067,9.304688,2.625,1.765625,0.908203,-1.314453,0.449219,0.184692,0.636963,0.035278,0.74762,down
382072,9.230469,2.585938,1.574219,0.908203,-1.314453,0.449219,0.184692,0.636963,0.035278,0.74762,down
382079,9.148438,2.472656,1.460938,0.667969,-1.242188,0.408203,0.184692,0.636963,0.035278,0.74762,down
382084,9.070313,2.355469,1.421875,0.519531,-1.21875,0.392578,0.184692,0.636963,0.035278,0.74762,down
382090,9.148438,2.164063,1.421875,0.398438,-1.199219,0.363281,0.176697,0.650024,0.034851,0.73822,down
382095,9.265625,2.089844,1.382813,0.398438,-1.199219,0.363281,0.176697,0.650024,0.034851,0.73822,down
382100,9.347656,2.089844,1.34375,0.242187,-1.095703,0.291016,0.176697,0.650024,0.034851,0.73822,down
382105,9.386719,1.898438,1.191406,0.242187,-1.095703,0.291016,0.174866,0.654602,0.033752,0.73468,down
382111,9.347656,1.820313,1.152344,0.236328,-1.037109,0.222656,0.174866,0.654602,0.033752,0.73468,down
382116,9.230469,1.707031,1.152344,0.236328,-1.037109,0.222656,0.172546,0.661011,0.032471,0.729553,down
382122,8.847656,1.589844,1.113281,0.236328,-1.037109,0.222656,0.171875,0.662842,0.032288,0.728088,down
382127,8.84375,1.859375,1.078125,0.484375,-1.070313,0.185547,0.170959,0.664917,0.032288,0.726379,down
382133,9.0,2.125,0.960937,0.632812,-1.115234,0.179687,0.170959,0.664917,0.032288,0.726379,down
382139,9.304688,2.738281,0.691406,0.771484,-1.166016,0.144531,0.170959,0.664917,0.032288,0.726379,down
382145,9.492188,3.046875,0.617187,0.851562,-1.171875,0.111328,0.170959,0.664917,0.032288,0.726379,down
382150,9.730469,3.277344,0.464844,0.894531,-1.171875,0.074219,0.170959,0.664917,0.032288,0.726379,down
382155,9.875,3.429688,0.273438,0.894531,-1.119141,0.035156,0.162537,0.67926,0.036865,0.714722,down
382160,9.914063,3.734375,-0.035156,0.894531,-1.119141,0.035156,0.162537,0.67926,0.036865,0.714722,down
382165,9.875,3.8125,-0.109375,0.894531,-1.119141,0.035156,0.161072,0.681641,0.038147,0.712708,down
382171,9.730469,3.851563,-0.109375,0.708984,-0.837891,-0.068359,0.15918,0.685181,0.0401,0.709656,down
382176,9.53125,3.851563,0.042969,0.708984,-0.837891,-0.068359,0.15863,0.686523,0.04071,0.708435,down
382182,9.226563,3.660156,0.308594,0.708984,-0.837891,-0.068359,0.158386,0.687561,0.040833,0.707458,down
382187,9.226563,3.660156,0.308594,-0.201172,-0.507812,0.109375,0.158447,0.688538,0.040344,0.706543,down
382192,9.226563,3.660156,0.308594,-0.429687,-0.464844,0.183594,0.158752,0.68927,0.039368,0.705811,down
382197,9.496094,2.929688,0.921875,-0.429687,-0.464844,0.183594,0.158752,0.68927,0.039368,0.705811,down
382202,9.492188,2.855469,0.960937,-0.576172,-0.384766,0.242187,0.159302,0.689819,0.037903,0.7052,down
382207,9.492188,2.855469,0.960937,-0.576172,-0.384766,0.242187,0.159973,0.690247,0.036255,0.704773,down
382212,9.691406,2.511719,1.0,-0.642578,-0.267578,0.300781,0.161255,0.690735,0.032654,0.704102,down
382217,9.957031,2.050781,1.34375,-0.642578,-0.267578,0.300781,0.161255,0.690735,0.032654,0.704102,down
382223,10.074219,1.742188,1.421875,-0.435547,-0.283203,0.199219,0.161255,0.690735,0.032654,0.704102,down
382229,10.152344,1.515625,1.460938,-0.277344,-0.273438,0.089844,0.161255,0.690735,0.032654,0.704102,down
382235,10.257813,1.324219,1.304688,-0.277344,-0.273438,0.089844,0.161255,0.690735,0.032654,0.704102,down
382240,10.257813,1.359375,1.230469,0.037109,-0.232422,-0.144531,0.161255,0.690735,0.032654,0.704102,down
382245,10.226563,1.4375,1.191406,0.197266,-0.207031,-0.378906,0.161255,0.690735,0.032654,0.704102,down
382251,10.109375,1.898438,0.921875,0.197266,-0.207031,-0.378906,0.164246,0.693726,0.030273,0.700623,down
382256,9.992188,2.125,0.847656,0.263672,-0.15625,-0.541016,0.164734,0.694092,0.031555,0.700073,down
382261,9.914063,2.355469,0.882812,0.253906,-0.146484,-0.611328,0.165344,0.694397,0.032959,0.699524,down
382266,9.570313,2.929688,0.464844,0.253906,-0.146484,-0.611328,0.166016,0.694641,0.034302,0.699097,down
382271,9.425781,3.238281,0.234375,0.253906,-0.146484,-0.611328,0.16687,0.694763,0.035767,0.69873,down
382276,9.265625,3.542969,0.195312,0.105469,-0.066406,-0.703125,0.16687,0.694763,0.035767,0.69873,down
382281,9.226563,3.699219,0.195312,0.105469,-0.066406,-0.703125,0.169128,0.694946,0.038635,0.697815,down
382286,9.496094,3.851563,0.273438,0.105469,-0.066406,-0.703125,0.170288,0.695007,0.039551,0.697449,down
382291,9.464844,4.003906,0.195312,0.105469,-0.066406,-0.703125,0.171753,0.694946,0.040283,0.697083,down
382296,9.308594,3.964844,0.273438,-0.373047,-0.060547,-0.542969,0.173462,0.694763,0.040771,0.696777,down
382301,9.34375,3.699219,0.691406,-0.373047,-0.060547,-0.542969,0.17511,0.694702,0.040833,0.696472,down
382306,9.382813,3.507813,0.808594,-0.373047,-0.060547,-0.542969,0.176697,0.69458,0.040649,0.696167,down
382311,9.492188,3.3125,0.921875,-0.664062,-0.087891,-0.318359,0.176697,0.69458,0.040649,0.696167,down
382316,9.574219,3.199219,0.882812,-0.664062,-0.087891,-0.318359,0.180298,0.694275,0.039307,0.695679,down
382322,9.6875,2.929688,0.921875,-0.664062,-0.087891,-0.318359,0.181885,0.694031,0.038513,0.695496,down
382327,9.726563,2.816406,0.847656,-0.746094,-0.044922,-0.263672,0.183716,0.693787,0.037598,0.695374,down
382332,9.804688,2.816406,0.808594,-0.71875,-0.029297,-0.28125,0.183716,0.693787,0.037598,0.695374,down
382337,9.808594,2.855469,0.730469,-0.660156,-0.001953,-0.337891,0.183716,0.693787,0.037598,0.695374,down
382342,9.53125,3.199219,0.5,-0.660156,-0.001953,-0.337891,0.183716,0.693787,0.037598,0.695374,down
382347,9.53125,3.199219,0.5,-0.576172,0.078125,-0.480469,0.183716,0.693787,0.037598,0.695374,down
382353,9.265625,3.351563,0.386719,-0.576172,0.078125,-0.480469,0.192749,0.691895,0.035278,0.694885,down
382358,9.1875,3.582031,0.308594,-0.576172,0.078125,-0.480469,0.194946,0.691528,0.035278,0.694641,down
382364,9.152344,3.542969,0.234375,-0.810547,-0.154297,-0.816406,0.194946,0.691528,0.035278,0.694641,down
382369,8.84375,3.542969,0.273438,-0.974609,-0.269531,-0.929687,0.194946,0.691528,0.035278,0.694641,down
382375,8.808594,3.007813,0.15625,-1.144531,-0.365234,-1.009766,0.194946,0.691528,0.035278,0.694641,down
382380,9.042969,3.160156,0.082031,-1.144531,-0.365234,-1.009766,0.208008,0.691101,0.034241,0.691345,down
382386,9.226563,3.46875,0.117188,-1.244141,-0.574219,-0.939453,0.208008,0.691101,0.034241,0.691345,down
382392,9.535156,3.851563,0.117188,-1.208984,-0.699219,-0.816406,0.219177,0.692139,0.031311,0.687012,down
382398,10.035156,4.617187,-0.074219,-1.208984,-0.699219,-0.816406,0.222656,0.692688,0.029724,0.685364,down
382404,10.070313,4.386719,-0.035156,-1.349609,-0.607422,-0.431641,0.222656,0.692688,0.029724,0.685364,down
382409,10.148438,4.347656,-0.109375,-1.408203,-0.515625,-0.396484,0.222656,0.692688,0.029724,0.685364,down
382415,10.109375,4.425781,0.15625,-1.408203,-0.515625,-0.396484,0.222656,0.692688,0.029724,0.685364,down
382420,10.230469,4.273437,0.234375,-1.390625,-0.417969,-0.466797,0.222656,0.692688,0.029724,0.685364,down
382425,10.378906,4.042969,0.234375,-1.398438,-0.242187,-0.673828,0.222656,0.692688,0.029724,0.685364,down
382430,10.800781,3.773438,0.273438,-1.398438,-0.242187,-0.673828,0.241821,0.692505,0.019104,0.679382,down
382435,10.71875,3.699219,0.425781,-1.398438,-0.242187,-0.673828,0.245483,0.691956,0.017822,0.678711,down
382441,10.609375,3.542969,0.691406,-1.636719,0.029297,-0.888672,0.245483,0.691956,0.017822,0.678711,down
382446,10.339844,3.238281,1.039063,-1.636719,0.029297,-0.888672,0.258301,0.688843,0.014099,0.677185,down
382451,9.496094,3.160156,1.496094,-1.636719,0.029297,-0.888672,0.258301,0.688843,0.014099,0.677185,down
382456,9.496094,3.160156,1.496094,-1.628906,0.185547,-0.845703,0.262573,0.6875,0.012878,0.676941,down
382461,8.960938,3.351563,1.6875,-1.628906,0.185547,-0.845703,0.266602,0.686157,0.01178,0.676758,down
382466,8.421875,4.117187,1.613281,-1.330078,0.121094,-0.757812,0.270264,0.684937,0.010864,0.676514,down
382471,8.421875,4.117187,1.613281,-1.275391,0.066406,-0.703125,0.273865,0.683838,0.009949,0.676208,down
382476,8.421875,4.117187,1.613281,-1.142578,-0.082031,-0.615234,0.2771,0.682922,0.009033,0.675842,down
382481,8.730469,4.234375,1.6875,-1.142578,-0.082031,-0.615234,0.2771,0.682922,0.009033,0.675842,down
382486,8.847656,4.308594,1.460938,-0.771484,-0.117188,-0.585937,0.283325,0.681519,0.007141,0.674683,down
382492,8.964844,4.5,1.113281,-0.771484,-0.117188,-0.585937,0.287781,0.680786,0.006348,0.673523,down
382497,9.074219,4.617187,1.039063,-0.544922,-0.152344,-0.587891,0.289734,0.680603,0.006287,0.672913,down
382502,9.152344,4.65625,0.921875,-0.544922,-0.152344,-0.587891,0.291748,0.68042,0.006226,0.672241,down
382507,9.109375,4.695312,0.921875,-0.544922,-0.152344,-0.587891,0.293823,0.680115,0.006042,0.671631,down
382512,9.003906,4.730469,0.847656,-0.847656,-0.015625,-0.558594,0.296387,0.679504,0.005615,0.671082,down
382518,8.726563,4.65625,0.921875,-0.847656,-0.015625,-0.558594,0.298584,0.678894,0.005066,0.670776,down
382523,8.304688,4.578125,1.113281,-0.847656,-0.015625,-0.558594,0.30127,0.67804,0.004272,0.67041,down
382528,8.160156,4.539062,1.113281,-1.162109,0.042969,-0.507812,0.304138,0.677124,0.003296,0.670105,down
382534,8.078125,4.464844,1.152344,-1.224609,0.023437,-0.462891,0.304138,0.677124,0.003296,0.670105,down
382539,7.960937,4.234375,1.269531,-1.224609,0.023437,-0.462891,0.309753,0.675171,0.000793,0.669495,down
382544,8.082031,4.195312,1.304688,-1.255859,-0.039063,-0.371094,0.309753,0.675171,0.000793,0.669495,down
382549,8.304688,4.117187,1.34375,-1.222656,-0.076172,-0.351563,0.309753,0.675171,0.000793,0.669495,down
382554,8.539063,4.003906,1.34375,-1.158203,-0.128906,-0.341797,0.309753,0.675171,0.000793,0.669495,down
382559,8.847656,3.925781,1.382813,-1.158203,-0.128906,-0.341797,0.309753,0.675171,0.000793,0.669495,down
382564,8.964844,3.925781,1.34375,-1.158203,-0.128906,-0.341797,0.322815,0.671326,-0.00647,0.667175,down
382569,9.042969,3.925781,1.34375,-0.990234,-0.154297,-0.398438,0.322815,0.671326,-0.00647,0.667175,down
382574,9.148438,4.042969,1.421875,-0.953125,-0.152344,-0.419922,0.322815,0.671326,-0.00647,0.667175,down
382579,9.191406,4.234375,1.269531,-0.953125,-0.152344,-0.419922,0.322815,0.671326,-0.00647,0.667175,down
382585,9.191406,4.464844,1.191406,-0.953125,-0.152344,-0.419922,0.332031,0.669006,-0.010437,0.664856,down
382591,9.042969,4.730469,1.191406,-0.900391,-0.021484,-0.474609,0.332031,0.669006,-0.010437,0.664856,down
382596,8.925781,4.847656,1.113281,-0.900391,-0.021484,-0.474609,0.339417,0.666626,-0.012756,0.663574,down
382601,8.6875,4.730469,1.078125,-0.900391,-0.021484,-0.474609,0.339417,0.666626,-0.012756,0.663574,down
382606,8.542969,4.539062,1.113281,-1.148438,0.107422,-0.537109,0.339417,0.666626,-0.012756,0.663574,down
382611,8.277344,4.117187,1.496094,-1.148438,0.107422,-0.537109,0.344482,0.66449,-0.014404,0.662964,down
382616,8.277344,4.117187,1.496094,-1.175781,0.091797,-0.550781,0.34729,0.663391,-0.01532,0.662598,down
382621,8.195313,3.925781,1.652344,-1.138672,0.0625,-0.564453,0.34729,0.663391,-0.01532,0.662598,down
382627,8.382813,3.8125,1.613281,-1.138672,0.0625,-0.564453,0.35022,0.662231,-0.016296,0.662231,down
382632,8.382813,3.8125,1.613281,-1.015625,-0.009766,-0.591797,0.355774,0.660278,-0.017883,0.661194,down
382637,8.84375,4.273437,1.574219,-1.015625,-0.009766,-0.591797,0.36084,0.658813,-0.019043,0.659851,down
382642,8.964844,4.308594,1.613281,-0.75,-0.044922,-0.669922,0.363525,0.658142,-0.019348,0.658997,down
382648,9.042969,4.617187,1.726563,-0.75,-0.044922,-0.669922,0.36554,0.657654,-0.019348,0.658386,down
382653,8.964844,5.0,1.652344,-0.75,-0.044922,-0.669922,0.367554,0.657166,-0.018982,0.657776,down
382658,8.925781,5.191406,1.613281,-0.294922,0.113281,-0.767578,0.367554,0.657166,-0.018982,0.657776,down
382663,8.886719,5.269531,1.535156,-0.257813,0.175781,-0.785156,0.367554,0.657166,-0.018982,0.657776,down
382668,8.730469,5.460937,1.535156,-0.257813,0.175781,-0.785156,0.372925,0.655701,-0.016296,0.65625,down
382675,8.460938,5.652344,1.574219,-0.257813,0.175781,-0.785156,0.372925,0.655701,-0.016296,0.65625,down
382681,8.160156,5.652344,1.613281,-0.494141,0.257813,-0.753906,0.372925,0.655701,-0.016296,0.65625,down
382686,8.082031,5.496094,1.6875,-0.494141,0.257813,-0.753906,0.378967,0.65332,-0.014038,0.655273,down
382691,8.078125,5.421875,1.726563,-0.908203,0.28125,-0.677734,0.381287,0.652222,-0.013733,0.655029,down
382696,8.0,5.191406,1.878906,-0.908203,0.28125,-0.677734,0.384033,0.650879,-0.013733,0.654724,down
382702,8.160156,4.769531,1.996094,-0.908203,0.28125,-0.677734,0.389221,0.648254,-0.014343,0.654236,down
382707,8.195313,4.65625,2.070313,-0.908203,0.28125,-0.677734,0.389221,0.648254,-0.014343,0.654236,down
382713,8.238281,4.5,2.1875,-1.078125,0.126953,-0.617187,0.395081,0.645447,-0.015564,0.653503,down
382718,8.503906,4.578125,2.226563,-1.078125,0.126953,-0.617187,0.397583,0.644348,-0.016113,0.653015,down
382724,8.804688,4.808594,2.070313,-1.078125,0.126953,-0.617187,0.400208,0.643311,-0.016724,0.652466,down
382730,9.003906,4.960937,1.917969,-0.867187,-0.003906,-0.632812,0.400208,0.643311,-0.016724,0.652466,down
382735,9.074219,5.152344,1.84375,-0.779297,-0.009766,-0.65625,0.400208,0.643311,-0.016724,0.652466,down
382740,9.230469,5.34375,1.613281,-0.779297,-0.009766,-0.65625,0.400208,0.643311,-0.016724,0.652466,down
382746,9.109375,5.382812,1.496094,-0.779297,-0.009766,-0.65625,0.40979,0.640137,-0.0177,0.649597,down
382752,9.003906,5.496094,1.652344,-0.535156,0.033203,-0.689453,0.40979,0.640137,-0.0177,0.649597,down
382758,8.691406,5.652344,1.496094,-0.535156,0.033203,-0.689453,0.415466,0.638489,-0.016846,0.647644,down
382763,8.464844,5.726562,1.613281,-0.439453,0.076172,-0.703125,0.415466,0.638489,-0.016846,0.647644,down
382768,8.277344,5.6875,1.6875,-0.474609,0.054687,-0.703125,0.419189,0.63739,-0.01593,0.646362,down
382773,8.160156,5.726562,1.726563,-0.474609,0.054687,-0.703125,0.421265,0.63678,-0.015564,0.645569,down
382778,8.234375,5.765625,1.6875,-0.474609,0.054687,-0.703125,0.421265,0.63678,-0.015564,0.645569,down
382784,8.273438,5.957031,1.574219,-0.603516,-0.048828,-0.673828,0.421265,0.63678,-0.015564,0.645569,down
382789,8.273438,6.074219,1.535156,-0.619141,-0.078125,-0.648437,0.421265,0.63678,-0.015564,0.645569,down
382794,8.464844,6.035156,1.957031,-0.619141,-0.078125,-0.648437,0.421265,0.63678,-0.015564,0.645569,down
382800,8.5,5.957031,2.109375,-0.605469,-0.123047,-0.587891,0.421265,0.63678,-0.015564,0.645569,down
382805,8.578125,5.84375,2.300781,-0.535156,-0.099609,-0.564453,0.421265,0.63678,-0.015564,0.645569,down
382811,8.539063,5.765625,2.378906,-0.462891,-0.074219,-0.542969,0.421265,0.63678,-0.015564,0.645569,down
382816,8.617188,5.613281,2.609375,-0.384766,-0.050781,-0.527344,0.436218,0.633057,-0.015564,0.639282,down
382821,8.617188,5.613281,2.609375,-0.337891,-0.027344,-0.527344,0.436218,0.633057,-0.015564,0.639282,down
382827,8.617188,5.652344,2.683594,-0.337891,-0.027344,-0.527344,0.437683,0.632751,-0.01532,0.638611,down
382832,8.617188,5.652344,2.683594,-0.279297,0.042969,-0.535156,0.440369,0.63208,-0.014587,0.637451,down
382837,8.464844,5.6875,2.722656,-0.279297,0.042969,-0.535156,0.443115,0.631226,-0.01355,0.636353,down
382842,8.425781,5.765625,2.722656,-0.279297,0.042969,-0.535156,0.444275,0.630859,-0.013062,0.635986,down
382847,8.308594,5.804687,2.761719,-0.306641,0.119141,-0.5625,0.445679,0.63031,-0.012512,0.635498,down
382853,8.082031,5.726562,2.722656,-0.306641,0.119141,-0.5625,0.447021,0.629822,-0.012024,0.635071,down
382858,7.960937,5.726562,2.722656,-0.34375,0.068359,-0.539062,0.447021,0.629822,-0.012024,0.635071,down
382863,8.003906,5.765625,2.683594,-0.373047,0.013672,-0.529297,0.447021,0.629822,-0.012024,0.635071,down
382869,8.042969,5.917969,2.722656,-0.373047,0.013672,-0.529297,0.451294,0.628479,-0.011108,0.633423,down
382876,8.082031,5.957031,2.761719,-0.435547,-0.115234,-0.480469,0.451294,0.628479,-0.011108,0.633423,down
382881,8.082031,6.035156,2.761719,-0.474609,-0.138672,-0.445312,0.451294,0.628479,-0.011108,0.633423,down
382886,8.078125,6.074219,2.761719,-0.474609,-0.138672,-0.445312,0.455627,0.627502,-0.011475,0.631287,down
382891,8.042969,6.035156,2.761719,-0.511719,-0.171875,-0.371094,0.455627,0.627502,-0.011475,0.631287,down
382897,8.042969,6.035156,2.761719,-0.566406,-0.197266,-0.326172,0.455627,0.627502,-0.011475,0.631287,down
382902,8.082031,5.882812,2.761719,-0.566406,-0.197266,-0.326172,0.461243,0.62616,-0.013489,0.628418,down
382907,8.121094,5.804687,2.800781,-0.619141,-0.171875,-0.322266,0.461243,0.62616,-0.013489,0.628418,down
382912,8.160156,5.726562,2.839844,-0.619141,-0.171875,-0.322266,0.462708,0.625793,-0.01416,0.627808,down
382917,8.082031,5.574219,2.800781,-0.623047,-0.132812,-0.330078,0.462708,0.625793,-0.01416,0.627808,down
382923,8.042969,5.460937,2.839844,-0.623047,-0.132812,-0.330078,0.467163,0.624207,-0.01593,0.626038,down
382928,8.042969,5.460937,2.839844,-0.570312,-0.046875,-0.375,0.468689,0.623596,-0.016357,0.625488,down
382933,8.078125,5.496094,2.800781,-0.570312,-0.046875,-0.375,0.470398,0.622864,-0.016663,0.624878,down
382940,7.851562,5.613281,2.800781,-0.570312,-0.046875,-0.375,0.471619,0.622375,-0.016846,0.624451,down
382945,7.8125,5.652344,2.800781,-0.474609,-0.015625,-0.429687,0.471619,0.622375,-0.016846,0.624451,down
382950,7.773437,5.726562,2.722656,-0.455078,0.001953,-0.453125,0.471619,0.622375,-0.016846,0.624451,down
382955,7.65625,5.804687,2.648438,-0.455078,0.001953,-0.453125,0.476013,0.620728,-0.017029,0.622742,down
382960,7.617187,5.957031,2.570313,-0.455078,0.001953,-0.453125,0.476013,0.620728,-0.017029,0.622742,down
382966,7.617187,5.996094,2.570313,-0.455078,0.001953,-0.453125,0.478638,0.619873,-0.017029,0.621582,down
382972,7.472656,5.804687,2.53125,-0.472656,-0.060547,-0.443359,0.478638,0.619873,-0.017029,0.621582,down
382977,7.351562,5.726562,2.53125,-0.537109,-0.064453,-0.417969,0.481506,0.618958,-0.017273,0.6203,down
382982,7.316406,5.6875,2.570313,-0.537109,-0.064453,-0.417969,0.484558,0.617859,-0.017822,0.619019,down
382987,7.3125,5.613281,2.683594,-0.537109,-0.064453,-0.417969,0.484558,0.617859,-0.017822,0.619019,down
382992,7.355469,5.421875,2.609375,-0.601562,-0.0625,-0.404297,0.484558,0.617859,-0.017822,0.619019,down
382997,7.433594,5.382812,2.683594,-0.642578,-0.039063,-0.419922,0.487671,0.616577,-0.018555,0.617798,down
383002,7.5,5.269531,2.722656,-0.642578,-0.039063,-0.419922,0.489441,0.615845,-0.018982,0.617126,down
383007,7.542969,5.191406,2.722656,-0.589844,0.005859,-0.476562,0.491028,0.615112,-0.019348,0.616516,down
383013,7.65625,5.191406,2.683594,-0.589844,0.005859,-0.476562,0.494141,0.61377,-0.019653,0.615417,down
383018,7.734375,5.230469,2.683594,-0.474609,0.037109,-0.5625,0.495911,0.613037,-0.019531,0.614685,down
383024,7.886719,5.460937,2.492188,-0.474609,0.037109,-0.5625,0.497314,0.612488,-0.019348,0.614075,down
383029,7.816406,5.652344,2.339844,-0.474609,0.037109,-0.5625,0.498901,0.611877,-0.018921,0.613464,down
383035,7.8125,5.882812,2.300781,-0.369141,0.087891,-0.634766,0.498901,0.611877,-0.018921,0.613464,down
383040,7.734375,5.996094,2.339844,-0.355469,0.066406,-0.642578,0.498901,0.611877,-0.018921,0.613464,down
383045,7.65625,6.300781,2.300781,-0.349609,0.042969,-0.634766,0.498901,0.611877,-0.018921,0.613464,down
383051,7.617187,6.457031,2.339844,-0.380859,0.027344,-0.607422,0.498901,0.611877,-0.018921,0.613464,down
383056,7.5,6.570312,2.417969,-0.419922,0.011719,-0.574219,0.498901,0.611877,-0.018921,0.613464,down
383061,7.394531,6.683594,2.570313,-0.439453,-0.013672,-0.539062,0.498901,0.611877,-0.018921,0.613464,down
383067,7.355469,6.683594,2.648438,-0.498047,-0.044922,-0.466797,0.498901,0.611877,-0.018921,0.613464,down
383072,7.316406,6.683594,2.683594,-0.498047,-0.044922,-0.466797,0.511047,0.607666,-0.016418,0.607727,down
383077,7.277344,6.648437,2.761719,-0.556641,-0.083984,-0.408203,0.511047,0.607666,-0.016418,0.607727,down
383082,7.277344,6.648437,2.761719,-0.587891,-0.080078,-0.396484,0.514099,0.606445,-0.016846,0.606323,down
383087,7.390625,6.339844,2.761719,-0.587891,-0.080078,-0.396484,0.515442,0.605896,-0.017212,0.605713,down
383092,7.503906,6.265625,2.761719,-0.640625,-0.054687,-0.375,0.517029,0.605225,-0.017639,0.605042,down
383097,7.734375,6.226562,2.722656,-0.640625,-0.054687,-0.375,0.518677,0.604492,-0.018127,0.60437,down
383102,7.777344,6.1875,2.683594,-0.640625,-0.054687,-0.375,0.520203,0.603699,-0.018616,0.603821,down
383107,7.777344,6.226562,2.683594,-0.666016,-0.035156,-0.392578,0.520203,0.603699,-0.018616,0.603821,down
383112,7.777344,6.226562,2.683594,-0.673828,-0.03125,-0.412109,0.523315,0.602173,-0.01947,0.602661,down
383117,7.777344,6.226562,2.683594,-0.664062,-0.001953,-0.433594,0.524902,0.601379,-0.019897,0.602051,down
383122,7.582031,6.109375,2.722656,-0.664062,-0.001953,-0.433594,0.524902,0.601379,-0.019897,0.602051,down
383127,7.503906,6.074219,2.761719,-0.623047,0.0,-0.455078,0.524902,0.601379,-0.019897,0.602051,down
383132,7.503906,6.074219,2.761719,-0.449219,-0.003906,-0.521484,0.529663,0.59906,-0.020386,0.600159,down
383138,6.972656,6.109375,2.914063,-0.449219,-0.003906,-0.521484,0.532654,0.5979,-0.020203,0.598694,down
383143,6.851562,6.109375,3.066406,-0.351563,-0.052734,-0.546875,0.534119,0.597473,-0.019958,0.597839,down
383149,6.929687,6.265625,2.953125,-0.351563,-0.052734,-0.546875,0.535339,0.597107,-0.019714,0.597046,down
383154,7.011719,6.339844,2.839844,-0.296875,-0.0625,-0.544922,0.536621,0.596802,-0.01947,0.596191,down
383159,7.050781,6.457031,2.875,-0.296875,-0.0625,-0.544922,0.537842,0.596558,-0.019165,0.595398,down
383165,7.195312,6.417969,2.875,-0.337891,-0.095703,-0.519531,0.537842,0.596558,-0.019165,0.595398,down
383170,7.238281,6.417969,2.800781,-0.378906,-0.076172,-0.503906,0.537842,0.596558,-0.019165,0.595398,down
383175,7.160156,6.457031,2.800781,-0.378906,-0.076172,-0.503906,0.541748,0.59552,-0.01886,0.592896,down
383181,7.195312,6.417969,2.800781,-0.484375,-0.052734,-0.474609,0.541748,0.59552,-0.01886,0.592896,down
383186,7.160156,6.378906,2.800781,-0.546875,-0.037109,-0.460937,0.541748,0.59552,-0.01886,0.592896,down
383191,7.085937,6.226562,2.914063,-0.605469,-0.019531,-0.457031,0.541748,0.59552,-0.01886,0.592896,down
383196,7.046875,6.074219,3.03125,-0.646484,-0.009766,-0.462891,0.541748,0.59552,-0.01886,0.592896,down
383202,6.96875,6.035156,3.144531,-0.667969,0.007813,-0.464844,0.541748,0.59552,-0.01886,0.592896,down
383207,6.894531,5.917969,3.453125,-0.642578,0.007813,-0.464844,0.541748,0.59552,-0.01886,0.592896,down
383213,6.851562,5.882812,3.488281,-0.585937,-0.009766,-0.464844,0.55426,0.589478,-0.020386,0.587341,down
383218,6.851562,5.882812,3.488281,-0.449219,-0.042969,-0.488281,0.55426,0.589478,-0.020386,0.587341,down
383223,6.96875,5.957031,3.414063,-0.449219,-0.042969,-0.488281,0.557129,0.588318,-0.020386,0.585754,down
383229,7.046875,6.109375,3.453125,-0.449219,-0.042969,-0.488281,0.558289,0.588013,-0.020264,0.584961,down
383234,7.238281,6.378906,3.453125,-0.269531,-0.117188,-0.533203,0.559631,0.587769,-0.02002,0.583923,down
383239,7.195312,6.457031,3.414063,-0.259766,-0.134766,-0.537109,0.560791,0.587585,-0.019836,0.582947,down
383244,7.195312,6.457031,3.414063,-0.259766,-0.134766,-0.537109,0.561768,0.587463,-0.019592,0.582153,down
383250,7.199219,6.53125,3.414063,-0.259766,-0.134766,-0.537109,0.562988,0.587341,-0.019348,0.581116,down
383255,7.117187,6.53125,3.414063,-0.259766,-0.134766,-0.537109,0.564148,0.587158,-0.019104,0.5802,down
383260,7.085937,6.570312,3.414063,-0.328125,-0.101563,-0.517578,0.564148,0.587158,-0.019104,0.5802,down
383265,7.011719,6.609375,3.414063,-0.328125,-0.101563,-0.517578,0.56665,0.586548,-0.01886,0.578369,down
383272,6.929687,6.53125,3.488281,-0.328125,-0.101563,-0.517578,0.56665,0.586548,-0.01886,0.578369,down
383278,6.855469,6.417969,3.566406,-0.509766,-0.027344,-0.525391,0.56665,0.586548,-0.01886,0.578369,down
383283,6.816406,6.339844,3.796875,-0.509766,-0.027344,-0.525391,0.572632,0.584045,-0.01886,0.574951,down
383288,6.777344,6.339844,3.71875,-0.509766,-0.027344,-0.525391,0.572632,0.584045,-0.01886,0.574951,down
383293,6.777344,6.300781,3.605469,-0.398438,-0.050781,-0.568359,0.572632,0.584045,-0.01886,0.574951,down
383298,6.734375,6.339844,3.796875,-0.398438,-0.050781,-0.568359,0.576843,0.58252,-0.018372,0.572327,down
383303,6.777344,6.417969,3.757813,-0.398438,-0.050781,-0.568359,0.578125,0.582214,-0.018188,0.571411,down
383308,6.777344,6.457031,3.644531,-0.306641,-0.103516,-0.580078,0.579407,0.581909,-0.017944,0.570374,down
383313,6.777344,6.492187,3.566406,-0.306641,-0.103516,-0.580078,0.580627,0.581665,-0.0177,0.569397,down
383318,6.894531,6.761719,3.453125,-0.306641,-0.103516,-0.580078,0.581909,0.581482,-0.017456,0.568298,down
383323,6.894531,6.761719,3.375,-0.277344,-0.152344,-0.611328,0.583252,0.581299,-0.017151,0.567078,down
383328,6.894531,6.800781,3.296875,-0.277344,-0.152344,-0.611328,0.584473,0.581116,-0.016907,0.566101,down
383333,6.894531,6.875,3.296875,-0.333984,-0.142578,-0.613281,0.584473,0.581116,-0.016907,0.566101,down
383339,6.738281,6.953125,3.222656,-0.333984,-0.142578,-0.613281,0.587158,0.580566,-0.016479,0.563843,down
383344,6.664062,6.957031,3.257813,-0.388672,-0.087891,-0.595703,0.587158,0.580566,-0.016479,0.563843,down
383349,6.585937,6.957031,3.335938,-0.419922,-0.072266,-0.595703,0.587158,0.580566,-0.016479,0.563843,down
383356,6.316406,6.800781,3.453125,-0.419922,-0.072266,-0.595703,0.591431,0.579163,-0.01593,0.560852,down
383361,6.28125,6.761719,3.527344,-0.498047,-0.03125,-0.574219,0.591431,0.579163,-0.01593,0.560852,down
383366,6.355469,6.648437,3.527344,-0.517578,-0.035156,-0.566406,0.591431,0.579163,-0.01593,0.560852,down
383371,6.394531,6.535156,3.527344,-0.523437,-0.048828,-0.552734,0.591431,0.579163,-0.01593,0.560852,down
383376,6.394531,6.613281,3.757813,-0.523437,-0.048828,-0.552734,0.591431,0.579163,-0.01593,0.560852,down
383382,6.433594,6.652344,3.757813,-0.523437,-0.048828,-0.552734,0.598938,0.575928,-0.015747,0.556213,down
383388,6.433594,6.683594,3.796875,-0.40625,-0.123047,-0.550781,0.598938,0.575928,-0.015747,0.556213,down
383393,6.507812,6.757812,3.796875,-0.40625,-0.123047,-0.550781,0.601685,0.574951,-0.015747,0.554199,down
383398,6.507812,6.757812,3.796875,-0.363281,-0.142578,-0.568359,0.603027,0.574585,-0.015686,0.553162,down
383403,6.507812,6.835937,3.796875,-0.363281,-0.142578,-0.568359,0.604309,0.57428,-0.015564,0.552063,down
383408,6.472656,6.875,3.757813,-0.294922,-0.171875,-0.621094,0.604309,0.57428,-0.015564,0.552063,down
383413,6.472656,6.875,3.757813,-0.275391,-0.195312,-0.644531,0.606873,0.573853,-0.015137,0.549683,down
383418,6.625,7.179687,3.644531,-0.275391,-0.195312,-0.644531,0.609558,0.573547,-0.014648,0.547058,down
383423,6.625,7.378906,3.644531,-0.275391,-0.195312,-0.644531,0.609558,0.573547,-0.014648,0.547058,down
383428,6.585937,7.488281,3.605469,-0.275391,-0.195312,-0.644531,0.611023,0.573303,-0.014465,0.545715,down
383433,6.507812,7.5625,3.605469,-0.439453,-0.181641,-0.654297,0.611023,0.573303,-0.014465,0.545715,down
383438,6.546875,7.566406,3.679688,-0.439453,-0.181641,-0.654297,0.614075,0.572571,-0.014221,0.54303,down
383444,6.355469,7.488281,3.871094,-0.439453,-0.181641,-0.654297,0.617004,0.571716,-0.014221,0.540588,down
383449,6.28125,7.527344,3.796875,-0.439453,-0.181641,-0.654297,0.618408,0.571289,-0.014282,0.539429,down
383454,6.28125,7.566406,3.835938,-0.455078,-0.201172,-0.601562,0.618408,0.571289,-0.014282,0.539429,down
383459,6.28125,7.605469,3.871094,-0.425781,-0.210937,-0.595703,0.618408,0.571289,-0.014282,0.539429,down
383465,6.316406,7.527344,3.910156,-0.425781,-0.210937,-0.595703,0.622742,0.570129,-0.014465,0.535706,down
383470,6.316406,7.488281,3.988281,-0.382813,-0.210937,-0.580078,0.624084,0.569763,-0.014465,0.534485,down
383475,6.316406,7.453125,3.988281,-0.355469,-0.207031,-0.595703,0.624084,0.569763,-0.014465,0.534485,down
383481,6.316406,7.414062,4.0625,-0.330078,-0.207031,-0.605469,0.624084,0.569763,-0.014465,0.534485,down
383486,6.316406,7.375,3.871094,-0.330078,-0.207031,-0.605469,0.624084,0.569763,-0.014465,0.534485,down
383491,6.394531,7.414062,3.796875,-0.291016,-0.212891,-0.613281,0.624084,0.569763,-0.014465,0.534485,down
383496,6.394531,7.453125,3.796875,-0.289063,-0.214844,-0.623047,0.624084,0.569763,-0.014465,0.534485,down
383501,6.433594,7.566406,3.488281,-0.289063,-0.214844,-0.623047,0.624084,0.569763,-0.014465,0.534485,down
383507,6.507812,7.640625,3.375,-0.289063,-0.214844,-0.623047,0.632935,0.568298,-0.013672,0.525574,down
383513,6.394531,7.761719,3.257813,-0.365234,-0.191406,-0.603516,0.632935,0.568298,-0.013672,0.525574,down
383518,6.355469,7.867187,3.105469,-0.365234,-0.191406,-0.603516,0.636841,0.567444,-0.013428,0.52179,down
383523,6.316406,7.949219,3.105469,-0.365234,-0.191406,-0.603516,0.636841,0.567444,-0.013428,0.52179,down
383528,6.242187,7.984375,3.03125,-0.378906,-0.189453,-0.556641,0.636841,0.567444,-0.013428,0.52179,down
383533,6.089844,8.140625,2.992188,-0.384766,-0.193359,-0.529297,0.636841,0.567444,-0.013428,0.52179,down
383538,6.050781,8.21875,2.914063,-0.40625,-0.212891,-0.460937,0.640564,0.566345,-0.013489,0.518372,down
383543,6.050781,8.257813,2.875,-0.40625,-0.212891,-0.460937,0.641907,0.565979,-0.013733,0.517151,down
383548,5.972656,8.328125,2.875,-0.40625,-0.212891,-0.460937,0.643066,0.565552,-0.013977,0.516113,down
383553,5.933594,8.445313,2.800781,-0.476562,-0.234375,-0.390625,0.645325,0.564697,-0.014832,0.514282,down
383558,5.933594,8.445313,2.800781,-0.476562,-0.234375,-0.390625,0.645325,0.564697,-0.014832,0.514282,down
383563,5.933594,8.40625,2.839844,-0.578125,-0.255859,-0.34375,0.645325,0.564697,-0.014832,0.514282,down
383568,5.933594,8.140625,2.839844,-0.675781,-0.246094,-0.322266,0.645325,0.564697,-0.014832,0.514282,down
383574,6.125,7.601562,3.105469,-0.675781,-0.246094,-0.322266,0.650513,0.562012,-0.017761,0.510559,down
383579,6.125,7.523437,3.257813,-0.634766,-0.171875,-0.341797,0.651917,0.561157,-0.018433,0.509644,down
383584,6.089844,7.417969,3.296875,-0.576172,-0.144531,-0.355469,0.653259,0.560364,-0.018982,0.50885,down
383590,6.089844,7.300781,3.453125,-0.494141,-0.121094,-0.371094,0.654358,0.559692,-0.019348,0.508118,down
383595,5.898437,7.300781,3.679688,-0.494141,-0.121094,-0.371094,0.655457,0.559143,-0.019592,0.507324,down
383601,5.820312,7.375,3.644531,-0.332031,-0.066406,-0.410156,0.655457,0.559143,-0.019592,0.507324,down
383606,5.742187,7.417969,3.644531,-0.214844,-0.064453,-0.431641,0.655457,0.559143,-0.019592,0.507324,down
383611,5.628906,7.640625,3.605469,-0.214844,-0.064453,-0.431641,0.658203,0.558105,-0.019226,0.504944,down
383617,5.589844,7.71875,3.527344,-0.037109,-0.082031,-0.453125,0.658203,0.558105,-0.019226,0.504944,down
383622,5.511719,7.761719,3.566406,-0.009766,-0.083984,-0.449219,0.658203,0.558105,-0.019226,0.504944,down
383627,5.511719,7.796875,3.566406,-0.03125,-0.099609,-0.439453,0.658203,0.558105,-0.019226,0.504944,down
383632,5.476562,7.800781,3.527344,-0.078125,-0.105469,-0.416016,0.658203,0.558105,-0.019226,0.504944,down
383637,5.398437,7.722656,3.527344,-0.150391,-0.107422,-0.386719,0.658203,0.558105,-0.019226,0.504944,down
383642,5.320312,7.644531,3.527344,-0.150391,-0.107422,-0.386719,0.662109,0.558105,-0.017212,0.499817,down
383647,5.320312,7.640625,3.566406,-0.324219,-0.111328,-0.335938,0.662109,0.558105,-0.017212,0.499817,down
383652,5.320312,7.605469,3.605469,-0.412109,-0.125,-0.304688,0.662109,0.558105,-0.017212,0.499817,down
383657,5.359375,7.5625,3.605469,-0.490234,-0.134766,-0.28125,0.662109,0.558105,-0.017212,0.499817,down
383662,5.320312,7.457031,3.605469,-0.490234,-0.134766,-0.28125,0.665894,0.55603,-0.018372,0.497009,down
383667,5.320312,7.375,3.644531,-0.490234,-0.134766,-0.28125,0.665894,0.55603,-0.018372,0.497009,down
383672,5.320312,7.261719,3.679688,-0.587891,-0.167969,-0.216797,0.665894,0.55603,-0.018372,0.497009,down
383677,5.359375,7.222656,3.644531,-0.576172,-0.171875,-0.205078,0.665894,0.55603,-0.018372,0.497009,down
383682,5.359375,7.222656,3.644531,-0.576172,-0.171875,-0.205078,0.665894,0.55603,-0.018372,0.497009,down
383687,5.398437,7.140625,3.71875,-0.576172,-0.171875,-0.205078,0.671143,0.552307,-0.02179,0.493958,down
383693,5.398437,7.140625,3.71875,-0.589844,-0.183594,-0.169922,0.672119,0.551636,-0.022522,0.493408,down
383698,5.398437,7.140625,3.71875,-0.611328,-0.171875,-0.171875,0.673157,0.550842,-0.023315,0.492859,down
383703,5.4375,6.957031,3.796875,-0.648437,-0.160156,-0.177734,0.674194,0.549988,-0.02417,0.49231,down
383709,5.359375,6.914062,3.796875,-0.648437,-0.160156,-0.177734,0.675354,0.549072,-0.024963,0.49176,down
383714,5.359375,6.914062,3.796875,-0.707031,-0.144531,-0.201172,0.677795,0.547058,-0.026672,0.49054,down
383720,5.285156,6.648437,4.0625,-0.707031,-0.144531,-0.201172,0.679077,0.545959,-0.027527,0.489929,down
383725,5.359375,6.53125,4.140625,-0.769531,-0.144531,-0.251953,0.679077,0.545959,-0.027527,0.489929,down
383731,5.320312,6.414062,4.101562,-0.748047,-0.134766,-0.271484,0.679077,0.545959,-0.027527,0.489929,down
383736,5.359375,6.652344,4.027344,-0.748047,-0.134766,-0.271484,0.683105,0.542664,-0.029907,0.487854,down
383742,5.398437,6.652344,4.101562,-0.623047,-0.150391,-0.304688,0.683105,0.542664,-0.029907,0.487854,down
383747,5.398437,6.648437,4.140625,-0.587891,-0.154297,-0.318359,0.683105,0.542664,-0.029907,0.487854,down
383752,5.4375,6.71875,4.21875,-0.558594,-0.148437,-0.335938,0.683105,0.542664,-0.029907,0.487854,down
383757,5.4375,6.683594,4.253906,-0.53125,-0.152344,-0.351563,0.683105,0.542664,-0.029907,0.487854,down
383762,5.4375,6.757812,4.292969,-0.464844,-0.144531,-0.365234,0.683105,0.542664,-0.029907,0.487854,down
383767,5.4375,6.800781,4.292969,-0.423828,-0.138672,-0.375,0.683105,0.542664,-0.029907,0.487854,down
383772,5.320312,6.914062,4.292969,-0.423828,-0.138672,-0.375,0.683105,0.542664,-0.029907,0.487854,down
383777,5.285156,6.992187,4.371094,-0.423828,-0.138672,-0.375,0.692017,0.537048,-0.033142,0.481201,down
383782,5.207031,7.03125,4.410156,-0.435547,-0.130859,-0.398438,0.692017,0.537048,-0.033142,0.481201,down
383787,5.207031,7.074219,4.445312,-0.478516,-0.136719,-0.396484,0.692017,0.537048,-0.033142,0.481201,down
383792,5.246094,7.101562,4.445312,-0.478516,-0.136719,-0.396484,0.692017,0.537048,-0.033142,0.481201,down
383798,5.207031,7.144531,4.445312,-0.478516,-0.136719,-0.396484,0.696472,0.534546,-0.034302,0.477539,down
383804,5.167969,7.179687,4.484375,-0.582031,-0.15625,-0.398438,0.698914,0.532959,-0.035156,0.475647,down
383809,5.246094,7.179687,4.523437,-0.582031,-0.15625,-0.398438,0.698914,0.532959,-0.035156,0.475647,down
383814,5.285156,7.144531,4.5625,-0.648437,-0.166016,-0.380859,0.698914,0.532959,-0.035156,0.475647,down
383819,5.207031,7.140625,4.523437,-0.648437,-0.166016,-0.380859,0.70166,0.531067,-0.036316,0.473633,down
383824,5.285156,7.101562,4.601562,-0.648437,-0.166016,-0.380859,0.704163,0.529358,-0.037415,0.471741,down
383829,5.320312,7.070312,4.640625,-0.648437,-0.166016,-0.380859,0.705383,0.528503,-0.037903,0.470825,down
383834,5.285156,7.074219,4.601562,-0.648437,-0.166016,-0.380859,0.705383,0.528503,-0.037903,0.470825,down
383839,5.285156,7.074219,4.601562,-0.576172,-0.167969,-0.410156,0.705383,0.528503,-0.037903,0.470825,down
383844,5.246094,6.992187,4.753906,-0.576172,-0.167969,-0.410156,0.709045,0.526123,-0.039246,0.467896,down
383849,5.207031,6.914062,4.792969,-0.576172,-0.167969,-0.410156,0.709045,0.526123,-0.039246,0.467896,down
383854,5.167969,6.917969,4.867187,-0.386719,-0.193359,-0.453125,0.709045,0.526123,-0.039246,0.467896,down
383859,5.167969,6.953125,4.832031,-0.339844,-0.205078,-0.476562,0.711304,0.524963,-0.039795,0.465698,down
383865,5.207031,7.03125,4.753906,-0.339844,-0.205078,-0.476562,0.713196,0.524292,-0.0401,0.463501,down
383870,5.207031,7.03125,4.753906,-0.271484,-0.214844,-0.503906,0.714172,0.524048,-0.040161,0.46228,down
383876,5.285156,7.140625,4.640625,-0.271484,-0.214844,-0.503906,0.715088,0.523926,-0.040161,0.46106,down
383881,5.246094,7.183594,4.5625,-0.271484,-0.214844,-0.503906,0.715088,0.523926,-0.040161,0.46106,down
383888,5.246094,7.257812,4.5625,-0.271484,-0.210937,-0.517578,0.715088,0.523926,-0.040161,0.46106,down
383893,5.285156,7.222656,4.484375,-0.296875,-0.203125,-0.511719,0.715088,0.523926,-0.040161,0.46106,down
383899,5.207031,7.222656,4.523437,-0.296875,-0.203125,-0.511719,0.71991,0.522644,-0.040405,0.454956,down
383904,5.207031,7.179687,4.523437,-0.296875,-0.203125,-0.511719,0.71991,0.522644,-0.040405,0.454956,down
383909,5.167969,7.140625,4.523437,-0.470703,-0.193359,-0.480469,0.71991,0.522644,-0.040405,0.454956,down
383914,5.054687,7.03125,4.523437,-0.529297,-0.189453,-0.480469,0.71991,0.522644,-0.040405,0.454956,down
383919,5.054687,6.953125,4.640625,-0.578125,-0.205078,-0.486328,0.723389,0.520752,-0.041199,0.451416,down
383924,5.015625,6.875,4.675781,-0.578125,-0.205078,-0.486328,0.724792,0.519897,-0.041626,0.450134,down
383929,5.054687,6.875,4.675781,-0.578125,-0.205078,-0.486328,0.726135,0.519104,-0.041992,0.448914,down
383934,5.054687,6.839844,4.714844,-0.53125,-0.222656,-0.490234,0.726135,0.519104,-0.041992,0.448914,down
383939,5.09375,6.914062,4.714844,-0.447266,-0.25,-0.521484,0.728394,0.517822,-0.042725,0.446594,down
383944,5.09375,6.953125,4.714844,-0.447266,-0.25,-0.521484,0.729675,0.517273,-0.04303,0.44519,down
383949,5.09375,6.953125,4.714844,-0.382813,-0.261719,-0.554687,0.730835,0.516785,-0.043274,0.443787,down
383955,5.054687,6.996094,4.714844,-0.382813,-0.261719,-0.554687,0.73291,0.516113,-0.04364,0.441101,down
383960,5.167969,6.957031,4.523437,-0.363281,-0.224609,-0.576172,0.734009,0.515747,-0.043701,0.439636,down
383965,5.167969,7.183594,4.445312,-0.349609,-0.257813,-0.568359,0.735168,0.515381,-0.043823,0.438171,down
383971,5.054687,7.105469,4.945312,-0.361328,-0.298828,-0.550781,0.736084,0.515137,-0.044006,0.436951,down
383977,5.054687,7.339844,4.601562,-0.361328,-0.298828,-0.550781,0.736084,0.515137,-0.044006,0.436951,down
383982,4.976562,7.375,4.5625,-0.451172,-0.205078,-0.550781,0.736084,0.515137,-0.044006,0.436951,down
383987,5.015625,7.414062,4.640625,-0.451172,-0.205078,-0.550781,0.739685,0.51355,-0.044556,0.432678,down
383992,5.015625,7.414062,4.640625,-0.451172,-0.205078,-0.550781,0.739685,0.51355,-0.044556,0.432678,down
383998,4.976562,7.378906,4.675781,-0.5625,-0.208984,-0.527344,0.742004,0.512146,-0.045105,0.430237,down
384003,4.976562,7.335937,4.714844,-0.621094,-0.228516,-0.507812,0.743286,0.511292,-0.045532,0.428894,down
384008,4.976562,7.335937,4.714844,-0.621094,-0.228516,-0.507812,0.743286,0.511292,-0.045532,0.428894,down
384013,4.9375,7.261719,4.90625,-0.630859,-0.251953,-0.501953,0.745972,0.509583,-0.04657,0.42627,down
384018,4.976562,7.257812,4.945312,-0.630859,-0.251953,-0.501953,0.747253,0.508789,-0.047119,0.424927,down
384023,4.976562,7.21875,5.097656,-0.638672,-0.320313,-0.5,0.747253,0.508789,-0.047119,0.424927,down
384028,4.976562,7.183594,5.136719,-0.638672,-0.320313,-0.5,0.747253,0.508789,-0.047119,0.424927,down
384033,5.015625,7.179687,5.136719,-0.638672,-0.320313,-0.5,0.751099,0.50647,-0.04895,0.420593,down
384038,5.054687,7.179687,5.136719,-0.517578,-0.347656,-0.564453,0.751099,0.50647,-0.04895,0.420593,down
384043,5.128906,7.261719,5.175781,-0.517578,-0.347656,-0.564453,0.753601,0.505371,-0.049927,0.417358,down
384049,5.167969,7.414062,5.097656,-0.517578,-0.347656,-0.564453,0.753601,0.505371,-0.049927,0.417358,down
384055,5.207031,7.453125,5.097656,-0.298828,-0.308594,-0.621094,0.753601,0.505371,-0.049927,0.417358,down
384060,5.207031,7.566406,4.984375,-0.298828,-0.308594,-0.621094,0.757751,0.504333,-0.050781,0.410889,down
384065,5.167969,7.640625,4.984375,-0.298828,-0.308594,-0.621094,0.758667,0.504272,-0.050781,0.409424,down
384070,5.128906,7.679687,5.058594,-0.230469,-0.232422,-0.625,0.759583,0.50415,-0.050659,0.407837,down
384076,4.976562,7.679687,5.023437,-0.230469,-0.232422,-0.625,0.760437,0.503967,-0.050537,0.406433,down
384082,4.902344,7.640625,5.023437,-0.230469,-0.232422,-0.625,0.761353,0.503784,-0.050354,0.404968,down
384087,4.785156,7.605469,4.984375,-0.285156,-0.181641,-0.615234,0.761353,0.503784,-0.050354,0.404968,down
384093,4.824219,7.5625,5.023437,-0.304688,-0.195312,-0.601562,0.761353,0.503784,-0.050354,0.404968,down
384098,4.785156,7.484375,4.984375,-0.304688,-0.195312,-0.601562,0.761353,0.503784,-0.050354,0.404968,down
384104,4.746094,7.457031,4.984375,-0.304688,-0.195312,-0.601562,0.76532,0.502502,-0.050049,0.399109,down
384110,4.785156,7.453125,4.945312,-0.330078,-0.279297,-0.589844,0.76532,0.502502,-0.050049,0.399109,down
384115,4.902344,7.457031,4.90625,-0.318359,-0.306641,-0.591797,0.767273,0.501831,-0.050171,0.396118,down
384120,4.902344,7.417969,4.90625,-0.318359,-0.306641,-0.591797,0.769226,0.501343,-0.050476,0.392883,down
384125,4.902344,7.414062,4.945312,-0.318359,-0.306641,-0.591797,0.77002,0.501221,-0.05072,0.391479,down
384130,4.902344,7.414062,4.945312,-0.285156,-0.355469,-0.599609,0.771057,0.501099,-0.050903,0.389648,down
384135,4.902344,7.417969,4.867187,-0.285156,-0.355469,-0.599609,0.771851,0.500977,-0.051147,0.388184,down
384140,4.902344,7.457031,4.867187,-0.248047,-0.355469,-0.59375,0.772766,0.500854,-0.051331,0.386414,down
384145,4.902344,7.527344,4.792969,-0.242187,-0.337891,-0.587891,0.772766,0.500854,-0.051331,0.386414,down
384150,4.824219,7.601562,4.867187,-0.242187,-0.337891,-0.587891,0.774353,0.500732,-0.051636,0.383362,down
384156,4.746094,7.800781,4.753906,-0.242187,-0.337891,-0.587891,0.775208,0.50061,-0.051697,0.381775,down
384161,4.746094,7.800781,4.753906,-0.238281,-0.287109,-0.599609,0.775208,0.50061,-0.051697,0.381775,down
384166,4.671875,7.761719,4.792969,-0.236328,-0.277344,-0.597656,0.775208,0.50061,-0.051697,0.381775,down
384172,4.554687,7.867187,4.714844,-0.236328,-0.277344,-0.597656,0.77771,0.500244,-0.051758,0.377136,down
384177,4.554687,7.839844,4.714844,-0.222656,-0.253906,-0.59375,0.77771,0.500244,-0.051758,0.377136,down
384182,4.515625,7.839844,4.753906,-0.207031,-0.25,-0.578125,0.779297,0.5,-0.051697,0.374146,down
384188,4.402344,7.835937,4.753906,-0.207031,-0.25,-0.578125,0.780151,0.499939,-0.051636,0.372498,down
384193,4.402344,7.835937,4.753906,-0.197266,-0.253906,-0.554687,0.780151,0.499939,-0.051636,0.372498,down
384199,4.441406,7.796875,4.753906,-0.197266,-0.277344,-0.529297,0.780151,0.499939,-0.051636,0.372498,down
384204,4.441406,7.839844,4.753906,-0.197266,-0.277344,-0.529297,0.782227,0.499695,-0.051636,0.368469,down
384209,4.441406,7.796875,4.714844,-0.197266,-0.277344,-0.529297,0.782959,0.499573,-0.051758,0.367004,down
384215,4.480469,7.800781,4.675781,-0.265625,-0.306641,-0.509766,0.782959,0.499573,-0.051758,0.367004,down
384221,4.554687,7.71875,4.675781,-0.265625,-0.306641,-0.509766,0.785278,0.499084,-0.052307,0.362671,down
384226,4.59375,7.679687,4.675781,-0.265625,-0.306641,-0.509766,0.78595,0.498901,-0.05249,0.36145,down
384231,4.59375,7.679687,4.675781,-0.306641,-0.291016,-0.476562,0.786804,0.498596,-0.052795,0.359985,down
384237,4.59375,7.679687,4.675781,-0.306641,-0.291016,-0.476562,0.787537,0.498291,-0.05304,0.358704,down
384242,4.554687,7.679687,4.714844,-0.306641,-0.291016,-0.476562,0.787537,0.498291,-0.05304,0.358704,down
384249,4.515625,7.640625,4.792969,-0.357422,-0.240234,-0.455078,0.787537,0.498291,-0.05304,0.358704,down
384254,4.515625,7.640625,4.792969,-0.349609,-0.216797,-0.472656,0.789978,0.497131,-0.053711,0.354919,down
384259,4.515625,7.640625,4.792969,-0.322266,-0.185547,-0.490234,0.790771,0.496704,-0.053772,0.353699,down
384264,4.480469,7.5625,4.90625,-0.322266,-0.185547,-0.490234,0.790771,0.496704,-0.053772,0.353699,down
384269,4.363281,7.566406,4.867187,-0.267578,-0.160156,-0.503906,0.790771,0.496704,-0.053772,0.353699,down
384275,4.363281,7.566406,4.867187,-0.037109,-0.134766,-0.589844,0.792908,0.495972,-0.053345,0.349976,down
384280,4.132812,7.757812,4.753906,0.052734,-0.154297,-0.611328,0.793518,0.496033,-0.052979,0.348633,down
384285,4.171875,7.835937,4.675781,0.052734,-0.154297,-0.611328,0.794067,0.496277,-0.052429,0.347046,down
384290,4.210937,7.90625,4.675781,0.052734,-0.154297,-0.611328,0.794434,0.496643,-0.051941,0.345642,down
384295,4.25,8.023438,4.601562,0.277344,-0.171875,-0.654297,0.794434,0.496643,-0.051941,0.345642,down
384300,4.25,8.261719,4.445312,0.277344,-0.171875,-0.654297,0.795166,0.498779,-0.049927,0.341309,down
384305,4.289062,8.367188,4.445312,0.302734,-0.169922,-0.650391,0.795166,0.498779,-0.049927,0.341309,down
384310,4.289062,8.484375,4.332031,0.302734,-0.169922,-0.650391,0.795471,0.500305,-0.048523,0.338501,down
384315,4.289062,8.605469,4.371094,0.224609,-0.144531,-0.613281,0.795471,0.500305,-0.048523,0.338501,down
384320,4.171875,8.753906,4.371094,0.224609,-0.144531,-0.613281,0.795898,0.501587,-0.047119,0.335693,down
384325,4.171875,8.792969,4.371094,0.097656,-0.109375,-0.539062,0.795898,0.501587,-0.047119,0.335693,down
384330,4.058594,8.867188,4.371094,0.097656,-0.109375,-0.539062,0.79657,0.502258,-0.046082,0.333313,down
384335,3.941406,8.988281,4.371094,0.097656,-0.109375,-0.539062,0.796936,0.50238,-0.045715,0.332336,down
384340,3.828125,9.09375,4.410156,0.097656,-0.109375,-0.539062,0.796936,0.50238,-0.045715,0.332336,down
384345,3.789063,9.09375,4.445312,-0.160156,-0.115234,-0.412109,0.798035,0.502014,-0.045349,0.330261,down
384350,3.75,9.027344,4.484375,-0.296875,-0.142578,-0.328125,0.798035,0.502014,-0.045349,0.330261,down
384355,3.789063,8.828125,4.5625,-0.296875,-0.142578,-0.328125,0.798584,0.501648,-0.045349,0.329407,down
384360,3.828125,8.75,4.601562,-0.357422,-0.162109,-0.251953,0.798584,0.501648,-0.045349,0.329407,down
384365,3.867188,8.644531,4.675781,-0.357422,-0.162109,-0.251953,0.799927,0.50061,-0.045776,0.327759,down
384370,3.90625,8.566406,4.714844,-0.357422,-0.162109,-0.251953,0.800537,0.500061,-0.046143,0.327026,down
384375,3.90625,8.449219,4.714844,-0.421875,-0.185547,-0.154297,0.800537,0.500061,-0.046143,0.327026,down
384380,3.941406,8.371094,4.714844,-0.421875,-0.185547,-0.154297,0.801819,0.498718,-0.047119,0.325806,down
384386,4.019531,8.222656,4.714844,-0.425781,-0.195312,-0.115234,0.80249,0.497986,-0.047668,0.325195,down
384391,4.058594,8.140625,4.714844,-0.425781,-0.195312,-0.115234,0.803589,0.496704,-0.048706,0.324219,down
384396,4.058594,8.0625,4.675781,-0.400391,-0.169922,-0.103516,0.80426,0.495972,-0.049316,0.32373,down
384402,4.097656,8.027344,4.792969,-0.400391,-0.169922,-0.103516,0.804749,0.495422,-0.049805,0.323303,down
384407,3.828125,7.871094,4.714844,-0.400391,-0.169922,-0.103516,0.804749,0.495422,-0.049805,0.323303,down
384413,4.019531,7.683594,4.753906,-0.392578,-0.148437,-0.083984,0.804749,0.495422,-0.049805,0.323303,down
384419,4.058594,7.601562,4.714844,-0.380859,-0.138672,-0.085937,0.804749,0.495422,-0.049805,0.323303,down
384425,4.019531,7.640625,4.640625,-0.363281,-0.130859,-0.087891,0.807373,0.492126,-0.052185,0.321289,down
384430,4.019531,7.601562,4.792969,-0.363281,-0.130859,-0.087891,0.807373,0.492126,-0.052185,0.321289,down
384435,4.019531,7.605469,4.867187,-0.408203,-0.169922,-0.09375,0.807373,0.492126,-0.052185,0.321289,down
384441,3.980469,7.417969,4.945312,-0.408203,-0.169922,-0.09375,0.809021,0.490112,-0.053833,0.320007,down
384446,4.019531,7.414062,4.945312,-0.419922,-0.175781,-0.099609,0.809631,0.489319,-0.054443,0.319458,down
384452,3.980469,7.378906,4.945312,-0.419922,-0.175781,-0.099609,0.81012,0.488708,-0.054932,0.319031,down
384457,4.058594,7.378906,4.984375,-0.416016,-0.195312,-0.105469,0.810669,0.488098,-0.055542,0.318542,down
384462,4.097656,7.375,5.023437,-0.416016,-0.195312,-0.105469,0.811279,0.487366,-0.056152,0.318054,down
384468,4.171875,7.339844,4.945312,-0.486328,-0.185547,-0.09375,0.811279,0.487366,-0.056152,0.318054,down
384474,4.210937,7.378906,5.023437,-0.515625,-0.177734,-0.083984,0.8125,0.485718,-0.057434,0.317139,down
384479,4.097656,7.375,5.058594,-0.515625,-0.177734,-0.083984,0.8125,0.485718,-0.057434,0.317139,down
384484,4.132812,7.339844,5.058594,-0.550781,-0.136719,-0.091797,0.8125,0.485718,-0.057434,0.317139,down
384489,4.132812,7.375,5.097656,-0.556641,-0.134766,-0.089844,0.8125,0.485718,-0.057434,0.317139,down
384494,4.058594,7.339844,5.175781,-0.583984,-0.128906,-0.101563,0.8125,0.485718,-0.057434,0.317139,down
384499,3.980469,7.488281,5.175781,-0.583984,-0.128906,-0.101563,0.8125,0.485718,-0.057434,0.317139,down
384504,3.980469,7.527344,5.175781,-0.583984,-0.128906,-0.101563,0.816956,0.479431,-0.061218,0.314514,down
384509,4.019531,7.566406,5.25,-0.65625,-0.142578,-0.072266,0.816956,0.479431,-0.061218,0.314514,down
384515,3.980469,7.5625,5.289062,-0.660156,-0.152344,-0.056641,0.819336,0.475891,-0.063354,0.313354,down
384520,3.980469,7.527344,5.367187,-0.660156,-0.152344,-0.056641,0.819336,0.475891,-0.063354,0.313354,down
384525,3.980469,7.523437,5.441406,-0.666016,-0.162109,-0.027344,0.819336,0.475891,-0.063354,0.313354,down
384530,3.980469,7.523437,5.480469,-0.671875,-0.166016,-0.007813,0.820984,0.473389,-0.064941,0.312561,down
384536,4.019531,7.457031,5.558594,-0.671875,-0.166016,-0.007813,0.821777,0.472107,-0.065796,0.312256,down
384541,4.019531,7.417969,5.632812,-0.644531,-0.169922,-0.009766,0.821777,0.472107,-0.065796,0.312256,down
384546,4.058594,7.339844,5.632812,-0.644531,-0.169922,-0.009766,0.824036,0.468384,-0.068359,0.311279,down
384552,4.132812,7.339844,5.710937,-0.558594,-0.154297,-0.029297,0.824646,0.467407,-0.069031,0.310974,down
384557,4.171875,7.257812,5.710937,-0.558594,-0.154297,-0.029297,0.825317,0.466431,-0.069702,0.310608,down
384562,4.171875,7.257812,5.710937,-0.449219,-0.111328,-0.056641,0.825317,0.466431,-0.069702,0.310608,down
384567,4.25,7.296875,5.710937,-0.449219,-0.111328,-0.056641,0.826355,0.464783,-0.07074,0.309998,down
384572,4.25,7.378906,5.632812,-0.449219,-0.111328,-0.056641,0.826843,0.46405,-0.071045,0.309753,down
384577,4.171875,7.378906,5.597656,-0.259766,-0.027344,-0.089844,0.826843,0.46405,-0.071045,0.309753,down
384582,4.132812,7.375,5.597656,-0.222656,0.007813,-0.097656,0.826843,0.46405,-0.071045,0.309753,down
384587,4.019531,7.457031,5.632812,-0.222656,0.007813,-0.097656,0.826843,0.46405,-0.071045,0.309753,down
384592,3.941406,7.488281,5.632812,-0.1875,0.029297,-0.117188,0.826843,0.46405,-0.071045,0.309753,down
384598,3.941406,7.527344,5.558594,-0.201172,0.021484,-0.128906,0.826843,0.46405,-0.071045,0.309753,down
384603,3.90625,7.605469,5.632812,-0.216797,-0.001953,-0.138672,0.826843,0.46405,-0.071045,0.309753,down
384609,3.90625,7.605469,5.632812,-0.251953,-0.027344,-0.144531,0.826843,0.46405,-0.071045,0.309753,down
384614,3.980469,7.644531,5.558594,-0.294922,-0.048828,-0.150391,0.826843,0.46405,-0.071045,0.309753,down
384619,3.941406,7.644531,5.519531,-0.332031,-0.068359,-0.15625,0.826843,0.46405,-0.071045,0.309753,down
384625,3.980469,7.679687,5.597656,-0.332031,-0.068359,-0.15625,0.831177,0.458435,-0.072144,0.306152,down
384630,3.980469,7.644531,5.632812,-0.332031,-0.068359,-0.15625,0.831177,0.458435,-0.072144,0.306152,down
384635,4.019531,7.644531,5.597656,-0.458984,-0.091797,-0.097656,0.831177,0.458435,-0.072144,0.306152,down
384640,4.019531,7.601562,5.671875,-0.503906,-0.078125,-0.074219,0.831177,0.458435,-0.072144,0.306152,down
384645,4.019531,7.523437,5.710937,-0.503906,-0.078125,-0.074219,0.833008,0.455688,-0.073486,0.305054,down
384650,4.019531,7.523437,5.710937,-0.558594,-0.054687,-0.033203,0.833008,0.455688,-0.073486,0.305054,down
384655,4.019531,7.523437,5.710937,-0.570312,-0.033203,-0.027344,0.83429,0.453491,-0.074402,0.304626,down
384660,3.980469,7.414062,5.75,-0.560547,-0.029297,-0.025391,0.83429,0.453491,-0.074402,0.304626,down
384665,3.980469,7.414062,5.75,-0.533203,-0.011719,-0.041016,0.835571,0.451172,-0.075317,0.304199,down
384670,3.980469,7.257812,5.863281,-0.533203,-0.011719,-0.041016,0.836182,0.450134,-0.075684,0.304016,down
384675,3.980469,7.257812,5.863281,-0.46875,0.007813,-0.058594,0.836792,0.449097,-0.075989,0.303833,down
384680,4.019531,7.105469,5.902344,-0.359375,-0.001953,-0.078125,0.837341,0.448181,-0.076233,0.30365,down
384685,3.980469,7.101562,5.863281,-0.359375,-0.001953,-0.078125,0.83783,0.447388,-0.076416,0.303406,down
384691,3.980469,7.144531,5.863281,-0.267578,-0.017578,-0.091797,0.83783,0.447388,-0.076416,0.303406,down
384696,3.980469,7.183594,5.828125,-0.267578,-0.017578,-0.091797,0.838989,0.445557,-0.076904,0.302673,down
384701,3.941406,7.300781,5.828125,-0.25,-0.048828,-0.09375,0.838989,0.445557,-0.076904,0.302673,down
384706,3.980469,7.375,5.828125,-0.25,-0.048828,-0.09375,0.839722,0.44458,-0.077271,0.302124,down
384711,3.90625,7.605469,5.789062,-0.25,-0.048828,-0.09375,0.839722,0.44458,-0.077271,0.302124,down
384716,3.867188,7.640625,5.789062,-0.375,-0.09375,-0.044922,0.840027,0.444031,-0.077515,0.30188,down
384721,3.867188,7.640625,5.863281,-0.375,-0.09375,-0.044922,0.840942,0.442566,-0.078369,0.301331,down
384726,3.941406,7.523437,5.941406,-0.375,-0.09375,-0.044922,0.840942,0.442566,-0.078369,0.301331,down
384731,3.941406,7.523437,5.941406,-0.533203,-0.089844,0.025391,0.841919,0.440735,-0.079468,0.300964,down
384736,4.019531,7.375,5.980469,-0.533203,-0.089844,0.025391,0.842468,0.439636,-0.080078,0.300842,down
384741,4.097656,7.105469,6.171875,-0.533203,-0.089844,0.025391,0.842468,0.439636,-0.080078,0.300842,down
384746,4.132812,6.839844,6.246094,-0.503906,-0.013672,-0.015625,0.842468,0.439636,-0.080078,0.300842,down
384751,4.289062,6.457031,6.402344,-0.503906,-0.013672,-0.015625,0.844177,0.436462,-0.081421,0.300476,down
384756,4.289062,6.300781,6.480469,-0.503906,-0.013672,-0.015625,0.844177,0.436462,-0.081421,0.300476,down
384761,4.210937,6.265625,6.515625,-0.289063,0.046875,-0.128906,0.844971,0.435242,-0.08136,0.299927,down
384766,4.132812,6.339844,6.285156,-0.289063,0.046875,-0.128906,0.845215,0.435181,-0.080994,0.299438,down
384771,4.058594,6.417969,6.246094,-0.289063,0.046875,-0.128906,0.845276,0.435547,-0.080444,0.298889,down
384776,4.132812,6.453125,6.171875,-0.289063,0.046875,-0.128906,0.845276,0.435547,-0.080444,0.298889,down
384781,4.132812,6.535156,6.132812,0.580078,-0.005859,-0.460937,0.845276,0.435547,-0.080444,0.298889,down
384786,4.097656,6.957031,6.054687,0.580078,-0.005859,-0.460937,0.844666,0.438843,-0.077881,0.296448,down
384791,4.097656,7.179687,5.980469,0.748047,0.009766,-0.509766,0.844666,0.438843,-0.077881,0.296448,down
384796,4.019531,7.339844,5.902344,0.748047,0.009766,-0.509766,0.844238,0.44043,-0.076782,0.295593,down
384801,3.867188,7.640625,5.828125,0.742187,0.019531,-0.505859,0.844238,0.44043,-0.076782,0.295593,down
384806,3.867188,7.640625,5.828125,0.742187,0.019531,-0.505859,0.843018,0.445129,-0.073425,0.292908,down
384811,3.675781,7.90625,5.828125,0.742187,0.019531,-0.505859,0.843018,0.445129,-0.073425,0.292908,down
384816,3.636719,8.023438,5.789062,0.408203,0.019531,-0.425781,0.843018,0.445129,-0.073425,0.292908,down
384822,3.445313,8.261719,5.828125,0.408203,0.019531,-0.425781,0.842468,0.448242,-0.07074,0.290466,down
384827,3.40625,8.371094,5.75,0.185547,-0.021484,-0.324219,0.842407,0.448914,-0.070129,0.289673,down
384833,3.328125,8.527344,5.789062,0.185547,-0.021484,-0.324219,0.842468,0.449219,-0.069824,0.289063,down
384839,3.40625,8.488281,5.710937,0.185547,-0.021484,-0.324219,0.84259,0.449402,-0.069641,0.288513,down
384844,3.445313,8.367188,5.789062,-0.105469,-0.105469,-0.158203,0.84259,0.449402,-0.069641,0.288513,down
384850,3.445313,8.328125,5.863281,-0.173828,-0.121094,-0.113281,0.84259,0.449402,-0.069641,0.288513,down
384856,3.523438,8.101563,5.863281,-0.232422,-0.128906,-0.0625,0.84259,0.449402,-0.069641,0.288513,down
384861,3.523438,7.988281,5.941406,-0.357422,-0.144531,-0.003906,0.843567,0.448425,-0.070557,0.286987,down
384867,3.597656,7.839844,5.980469,-0.357422,-0.144531,-0.003906,0.844299,0.447083,-0.071716,0.286499,down
384872,3.636719,7.761719,5.941406,-0.408203,-0.140625,0.025391,0.844299,0.447083,-0.071716,0.286499,down
384877,3.636719,7.761719,5.941406,-0.402344,-0.144531,0.017578,0.845093,0.445679,-0.072876,0.286133,down
384883,3.867188,7.296875,6.019531,-0.402344,-0.144531,0.017578,0.84552,0.444885,-0.073486,0.28595,down
384888,3.867188,7.222656,6.019531,-0.294922,-0.123047,-0.017578,0.84552,0.444885,-0.073486,0.28595,down
384893,3.90625,7.140625,6.019531,-0.210937,-0.111328,-0.025391,0.84552,0.444885,-0.073486,0.28595,down
384898,3.941406,7.101562,5.902344,-0.210937,-0.111328,-0.025391,0.84552,0.444885,-0.073486,0.28595,down
384903,3.941406,7.101562,5.902344,-0.021484,-0.078125,-0.066406,0.84552,0.444885,-0.073486,0.28595,down
384908,3.980469,7.21875,5.828125,-0.021484,-0.078125,-0.066406,0.84552,0.444885,-0.073486,0.28595,down
384913,3.980469,7.257812,5.75,-0.021484,-0.078125,-0.066406,0.84552,0.444885,-0.073486,0.28595,down
384920,3.941406,7.335937,5.710937,0.166016,-0.035156,-0.111328,0.84552,0.444885,-0.073486,0.28595,down
384925,3.867188,7.417969,5.632812,0.1875,-0.021484,-0.132812,0.84552,0.444885,-0.073486,0.28595,down
384931,3.789063,7.566406,5.558594,0.183594,0.0,-0.136719,0.84552,0.444885,-0.073486,0.28595,down
384937,3.789063,7.644531,5.597656,0.166016,0.0,-0.134766,0.845825,0.445862,-0.073669,0.283447,down
384942,3.75,7.683594,5.597656,0.082031,0.0,-0.101563,0.845764,0.446167,-0.073425,0.283203,down
384947,3.714844,7.761719,5.597656,0.082031,0.0,-0.101563,0.845764,0.446289,-0.073303,0.283081,down
384952,3.75,7.679687,5.632812,0.082031,0.0,-0.101563,0.845825,0.446289,-0.073181,0.282959,down
384957,3.75,7.644531,5.671875,-0.066406,0.005859,-0.029297,0.845886,0.446228,-0.073181,0.282837,down
384962,3.714844,7.523437,5.671875,-0.066406,0.005859,-0.029297,0.846008,0.446045,-0.073181,0.282837,down
384967,3.714844,7.453125,5.710937,-0.066406,0.005859,-0.029297,0.846069,0.445862,-0.073242,0.282837,down
384972,3.75,7.378906,5.789062,-0.117188,-0.001953,0.009766,0.846069,0.445862,-0.073242,0.282837,down
384977,3.714844,7.375,5.789062,-0.117188,-0.001953,0.009766,0.846313,0.445435,-0.073364,0.282837,down
384982,3.714844,7.21875,5.828125,-0.117188,-0.001953,0.009766,0.846436,0.44519,-0.073486,0.282776,down
384987,3.75,7.179687,5.828125,-0.117188,-0.001953,0.009766,0.846497,0.445068,-0.073608,0.282715,down
384992,3.75,7.179687,5.789062,-0.044922,-0.041016,-0.023437,0.846558,0.444946,-0.073669,0.282654,down
384998,3.867188,7.144531,5.671875,-0.044922,-0.041016,-0.023437,0.846619,0.444946,-0.07373,0.282532,down
385003,3.90625,7.183594,5.671875,-0.044922,-0.041016,-0.023437,0.846619,0.445007,-0.07373,0.28241,down
385009,3.941406,7.300781,5.519531,-0.044922,-0.041016,-0.023437,0.846619,0.445007,-0.07373,0.28241,down
385014,3.941406,7.300781,5.519531,0.082031,0.027344,-0.064453,0.846558,0.445312,-0.073486,0.282288,down
385020,3.90625,7.417969,5.558594,0.09375,0.044922,-0.058594,0.846558,0.445312,-0.073486,0.282288,down
385026,3.867188,7.453125,5.480469,0.082031,0.097656,-0.050781,0.846558,0.445312,-0.073486,0.282288,down
385031,3.789063,7.453125,5.441406,0.082031,0.097656,-0.050781,0.846375,0.445801,-0.072693,0.282166,down
385037,3.789063,7.457031,5.519531,0.058594,0.095703,-0.039063,0.846375,0.445801,-0.072693,0.282166,down
385043,3.789063,7.457031,5.519531,0.058594,0.095703,-0.039063,0.846313,0.445923,-0.071838,0.282349,down
385048,3.789063,7.457031,5.519531,-0.007813,0.091797,-0.015625,0.846375,0.445862,-0.071594,0.28241,down
385053,3.828125,7.453125,5.597656,-0.011719,0.089844,-0.007813,0.846375,0.445801,-0.07135,0.282532,down
385059,3.789063,7.414062,5.671875,-0.011719,0.089844,-0.007813,0.846436,0.44574,-0.071167,0.282593,down
385064,3.789063,7.417969,5.710937,0.015625,0.103516,-0.011719,0.846436,0.44574,-0.071167,0.282593,down
385069,3.75,7.417969,5.710937,0.039063,0.115234,-0.013672,0.846436,0.44574,-0.071167,0.282593,down
385075,3.714844,7.527344,5.710937,0.068359,0.115234,-0.015625,0.846436,0.44574,-0.071167,0.282593,down
385080,3.75,7.605469,5.75,0.09375,0.121094,-0.021484,0.846436,0.44574,-0.071167,0.282593,down
385085,3.75,7.640625,5.789062,0.105469,0.134766,-0.03125,0.846436,0.44574,-0.071167,0.282593,down
385090,3.714844,7.683594,5.75,0.119141,0.146484,-0.03125,0.846436,0.44574,-0.071167,0.282593,down
385096,3.636719,7.757812,5.828125,0.119141,0.146484,-0.03125,0.846008,0.44635,-0.068237,0.283569,down
385101,3.597656,7.71875,5.828125,0.119141,0.146484,-0.03125,0.846008,0.44635,-0.068237,0.283569,down
385106,3.558594,7.796875,5.710937,0.138672,0.160156,-0.025391,0.846008,0.44635,-0.068237,0.283569,down
385111,3.558594,7.839844,5.75,0.138672,0.160156,-0.025391,0.845764,0.446716,-0.0672,0.283875,down
385117,3.714844,7.871094,5.789062,0.138672,0.160156,-0.025391,0.845581,0.447021,-0.066345,0.28418,down
385122,3.714844,7.910156,5.710937,0.037109,0.144531,-0.013672,0.845581,0.447021,-0.066345,0.28418,down
385127,3.714844,7.796875,5.671875,0.009766,0.130859,-0.011719,0.845581,0.447021,-0.065979,0.284302,down
385133,3.714844,7.796875,5.671875,0.017578,0.125,-0.011719,0.845581,0.44696,-0.065369,0.284607,down
385138,3.75,7.722656,5.789062,0.015625,0.128906,-0.005859,0.845581,0.446899,-0.065002,0.284729,down
385144,3.714844,7.601562,5.828125,0.015625,0.128906,-0.005859,0.845581,0.446838,-0.064697,0.284851,down
385149,3.714844,7.488281,5.828125,0.015625,0.128906,-0.005859,0.845581,0.446716,-0.064392,0.285034,down
385154,3.714844,7.414062,5.863281,0.017578,0.166016,0.007813,0.845581,0.446716,-0.064392,0.285034,down
385159,3.75,7.457031,5.863281,0.037109,0.181641,0.017578,0.845581,0.446716,-0.064392,0.285034,down
385164,3.714844,7.488281,5.789062,0.070312,0.210937,0.027344,0.84552,0.446533,-0.063171,0.285767,down
385169,3.597656,7.527344,5.863281,0.070312,0.210937,0.027344,0.845459,0.446594,-0.062683,0.286072,down
385174,3.558594,7.484375,5.828125,0.152344,0.25,0.015625,0.845337,0.446655,-0.062073,0.286438,down
385180,3.484375,7.605469,5.828125,0.195312,0.265625,0.007813,0.845337,0.446655,-0.062073,0.286438,down
385186,3.367188,7.605469,5.828125,0.195312,0.265625,0.007813,0.845337,0.446655,-0.062073,0.286438,down
385191,3.40625,7.640625,5.828125,0.283203,0.222656,0.001953,0.845337,0.446655,-0.062073,0.286438,down
385197,3.484375,7.523437,5.828125,0.306641,0.199219,0.015625,0.845337,0.446655,-0.062073,0.286438,down
385202,3.445313,7.71875,5.75,0.306641,0.199219,0.015625,0.84375,0.448975,-0.058105,0.28833,down
385207,3.40625,7.679687,5.75,0.330078,0.15625,0.044922,0.84375,0.448975,-0.058105,0.28833,down
385212,3.445313,7.71875,5.710937,0.324219,0.132812,0.064453,0.843323,0.449646,-0.057434,0.288696,down
385217,3.484375,7.722656,5.558594,0.324219,0.132812,0.064453,0.842957,0.450134,-0.057007,0.289001,down
385222,3.484375,7.722656,5.558594,0.253906,0.091797,0.099609,0.842529,0.450745,-0.056519,0.289429,down
385227,3.558594,7.722656,5.519531,0.253906,0.091797,0.099609,0.842224,0.451172,-0.056213,0.289734,down
385232,3.597656,7.722656,5.597656,0.201172,0.044922,0.121094,0.842224,0.451172,-0.056213,0.289734,down
385237,3.636719,7.71875,5.632812,0.164062,0.044922,0.123047,0.841553,0.452026,-0.055847,0.290405,down
385242,3.597656,7.683594,5.710937,0.164062,0.044922,0.123047,0.840942,0.452698,-0.055664,0.291138,down
385247,3.597656,7.644531,5.710937,0.164062,0.044922,0.123047,0.840942,0.452698,-0.055664,0.291138,down
385252,3.597656,7.5625,5.710937,0.076172,0.060547,0.111328,0.840942,0.452698,-0.055664,0.291138,down
385257,3.558594,7.484375,5.75,0.076172,0.060547,0.111328,0.840393,0.453125,-0.055481,0.292114,down
385262,3.523438,7.417969,5.789062,0.076172,0.060547,0.111328,0.840393,0.453125,-0.055481,0.292114,down
385267,3.523438,7.417969,5.75,0.009766,0.054687,0.105469,0.840393,0.453125,-0.055481,0.292114,down
385273,3.523438,7.414062,5.671875,0.009766,0.054687,0.105469,0.840088,0.453125,-0.05542,0.29303,down
385279,3.523438,7.414062,5.671875,0.009766,0.054687,0.105469,0.840027,0.453064,-0.05542,0.293274,down
385284,3.523438,7.378906,5.75,-0.007813,0.021484,0.066406,0.840027,0.453003,-0.055481,0.293457,down
385289,3.558594,7.378906,5.710937,0.009766,0.013672,0.044922,0.840027,0.453003,-0.055481,0.293457,down
385294,3.597656,7.261719,5.671875,0.009766,0.013672,0.044922,0.839905,0.453003,-0.055481,0.293701,down
385299,3.636719,7.257812,5.75,0.072266,-0.011719,0.021484,0.839905,0.453003,-0.055481,0.293701,down
385304,3.636719,7.300781,5.710937,0.099609,0.0,0.005859,0.839905,0.453003,-0.055481,0.293701,down
385310,3.636719,7.335937,5.75,0.099609,0.0,0.005859,0.839539,0.453613,-0.055359,0.293823,down
385315,3.597656,7.375,5.828125,0.099609,0.0,0.005859,0.839539,0.453613,-0.055359,0.293823,down
385320,3.636719,7.417969,5.941406,0.183594,0.029297,-0.011719,0.839539,0.453613,-0.055359,0.293823,down
385326,3.597656,7.414062,5.863281,0.183594,0.029297,-0.011719,0.838989,0.45459,-0.054749,0.293945,down
385332,3.597656,7.453125,5.828125,0.183594,0.029297,-0.011719,0.838989,0.45459,-0.054749,0.293945,down
385337,3.636719,7.453125,5.863281,0.216797,0.082031,-0.041016,0.838989,0.45459,-0.054749,0.293945,down
385342,3.597656,7.453125,5.828125,0.222656,0.103516,-0.0625,0.838989,0.45459,-0.054749,0.293945,down
385348,3.558594,7.523437,5.789062,0.222656,0.103516,-0.0625,0.837952,0.456604,-0.052734,0.294189,down
385353,3.597656,7.566406,5.671875,0.21875,0.101563,-0.085937,0.837769,0.457031,-0.052246,0.294189,down
385358,3.636719,7.5625,5.632812,0.230469,0.095703,-0.091797,0.837585,0.45752,-0.051697,0.294128,down
385363,3.636719,7.605469,5.671875,0.230469,0.095703,-0.091797,0.837341,0.457947,-0.051208,0.294067,down
385368,3.675781,7.679687,5.75,0.230469,0.095703,-0.091797,0.837219,0.458313,-0.050781,0.294006,down
385373,3.636719,7.71875,5.75,0.261719,0.103516,-0.103516,0.837219,0.458313,-0.050781,0.294006,down
385378,3.636719,7.71875,5.75,0.277344,0.115234,-0.099609,0.836792,0.45929,-0.049683,0.293945,down
385384,3.523438,7.796875,5.632812,0.277344,0.115234,-0.099609,0.836548,0.459778,-0.049133,0.293884,down
385389,3.40625,7.835937,5.671875,0.287109,0.123047,-0.099609,0.836304,0.460327,-0.048523,0.293884,down
385394,3.367188,7.839844,5.632812,0.269531,0.117188,-0.085937,0.83606,0.460815,-0.047913,0.293884,down
385400,3.367188,7.835937,5.597656,0.234375,0.109375,-0.082031,0.83606,0.460815,-0.047913,0.293884,down
385407,3.367188,7.800781,5.597656,0.203125,0.099609,-0.078125,0.83606,0.460815,-0.047913,0.293884,down
