timestamp,ax,ay,az,gx,gy,gz,qw,qx,qy,qz,label
69937,7.992187,3.316406,4.324219,-0.058594,-0.154297,-0.111328,0.194702,0.502319,0.088135,0.837891,down
69942,7.992187,3.355469,4.398437,-0.058594,-0.154297,-0.111328,0.195068,0.502563,0.088013,0.837646,down
69948,7.992187,3.355469,4.324219,-0.080078,-0.15625,-0.107422,0.195435,0.502747,0.087952,0.837463,down
69953,8.035156,3.316406,4.359375,-0.078125,-0.160156,-0.101563,0.195435,0.502747,0.087952,0.837463,down
69958,8.035156,3.355469,4.398437,-0.078125,-0.152344,-0.125,0.195435,0.502747,0.087952,0.837463,down
69963,8.070313,3.394531,4.476562,-0.058594,-0.152344,-0.142578,0.195435,0.502747,0.087952,0.837463,down
69969,8.183594,3.394531,4.398437,-0.042969,-0.146484,-0.150391,0.195435,0.502747,0.087952,0.837463,down
69974,8.257813,3.394531,4.398437,-0.023437,-0.140625,-0.173828,0.195435,0.502747,0.087952,0.837463,down
69979,8.257813,3.277344,4.398437,-0.023437,-0.140625,-0.173828,0.197876,0.503967,0.088013,0.836121,down
69984,8.300781,3.238281,4.398437,-0.046875,-0.107422,-0.195312,0.197876,0.503967,0.088013,0.836121,down
69989,8.300781,3.277344,4.359375,-0.064453,-0.09375,-0.201172,0.197876,0.503967,0.088013,0.836121,down
69994,8.296875,3.238281,4.285156,-0.064453,-0.09375,-0.201172,0.197876,0.503967,0.088013,0.836121,down
70000,8.300781,3.238281,4.324219,-0.064453,-0.09375,-0.201172,0.200012,0.504211,0.088257,0.835449,down
70006,8.300781,3.238281,4.398437,-0.140625,-0.042969,-0.195312,0.200012,0.504211,0.088257,0.835449,down
70011,8.21875,3.238281,4.359375,-0.146484,-0.023437,-0.191406,0.201843,0.503906,0.088196,0.835205,down
70016,8.148438,3.277344,4.359375,-0.146484,-0.023437,-0.191406,0.201843,0.503906,0.088196,0.835205,down
70021,8.109375,3.277344,4.359375,-0.087891,0.023437,-0.210937,0.201843,0.503906,0.088196,0.835205,down
70026,8.035156,3.316406,4.398437,-0.087891,0.023437,-0.210937,0.203552,0.503296,0.08844,0.835144,down
70032,7.996094,3.507813,4.515625,-0.087891,0.023437,-0.210937,0.204102,0.503052,0.088684,0.835083,down
70037,7.996094,3.507813,4.550781,-0.017578,0.066406,-0.242187,0.20459,0.502808,0.088928,0.835083,down
70042,7.996094,3.546875,4.589844,-0.017578,0.087891,-0.244141,0.20459,0.502808,0.088928,0.835083,down
70047,7.992187,3.621094,4.628906,-0.017578,0.087891,-0.244141,0.205688,0.502197,0.089661,0.835144,down
70052,7.953125,3.621094,4.707031,-0.041016,0.09375,-0.271484,0.206299,0.501892,0.090027,0.835144,down
70058,7.917969,3.699219,4.667969,-0.041016,0.09375,-0.271484,0.206909,0.501587,0.090271,0.835144,down
70063,7.800781,3.738281,4.707031,-0.041016,0.09375,-0.271484,0.207581,0.501221,0.090454,0.835144,down
70068,7.730469,3.738281,4.707031,-0.185547,0.085937,-0.277344,0.208374,0.500854,0.090515,0.835205,down
70074,7.691406,3.777344,4.707031,-0.21875,0.076172,-0.265625,0.208374,0.500854,0.090515,0.835205,down
70080,7.609375,3.738281,4.667969,-0.246094,0.056641,-0.265625,0.208374,0.500854,0.090515,0.835205,down
70086,7.613281,3.738281,4.742187,-0.253906,0.046875,-0.257813,0.208374,0.500854,0.090515,0.835205,down
70091,7.53125,3.699219,4.78125,-0.242187,0.021484,-0.242187,0.208374,0.500854,0.090515,0.835205,down
70096,7.535156,3.699219,4.707031,-0.242187,0.021484,-0.242187,0.212585,0.499084,0.089905,0.835266,down
70102,7.496094,3.738281,4.742187,-0.242187,0.021484,-0.242187,0.21405,0.498596,0.089722,0.835205,down
70107,7.496094,3.738281,4.742187,-0.132812,0.025391,-0.228516,0.214722,0.498352,0.089722,0.835144,down
70112,7.496094,3.777344,4.78125,-0.089844,0.042969,-0.234375,0.215393,0.498108,0.089783,0.835144,down
70118,7.535156,3.777344,4.898437,-0.089844,0.042969,-0.234375,0.215942,0.497864,0.089966,0.835083,down
70123,7.570312,3.777344,4.898437,-0.021484,0.082031,-0.251953,0.215942,0.497864,0.089966,0.835083,down
70128,7.570312,3.777344,4.933594,0.017578,0.087891,-0.257813,0.21698,0.497314,0.090637,0.835083,down
70134,7.570312,3.777344,4.933594,0.042969,0.095703,-0.261719,0.21698,0.497314,0.090637,0.835083,down
70140,7.570312,3.8125,4.933594,0.052734,0.095703,-0.253906,0.21698,0.497314,0.090637,0.835083,down
70145,7.570312,3.851563,4.898437,0.044922,0.095703,-0.261719,0.21698,0.497314,0.090637,0.835083,down
70150,7.613281,3.851563,4.898437,0.03125,0.083984,-0.255859,0.21698,0.497314,0.090637,0.835083,down
70155,7.570312,3.851563,4.859375,-0.001953,0.080078,-0.248047,0.21698,0.497314,0.090637,0.835083,down
70160,7.535156,3.851563,4.78125,-0.019531,0.085937,-0.248047,0.21698,0.497314,0.090637,0.835083,down
70165,7.535156,3.8125,4.78125,-0.03125,0.078125,-0.25,0.21698,0.497314,0.090637,0.835083,down
70170,7.535156,3.890625,4.820312,-0.027344,0.076172,-0.259766,0.21698,0.497314,0.090637,0.835083,down
70175,7.453125,3.851563,4.820312,-0.027344,0.076172,-0.259766,0.21698,0.497314,0.090637,0.835083,down
70180,7.492187,3.890625,4.78125,-0.027344,0.076172,-0.259766,0.222168,0.494507,0.094666,0.834961,down
70185,7.417969,3.890625,4.820312,-0.017578,0.099609,-0.259766,0.222168,0.494507,0.094666,0.834961,down
70191,7.492187,3.851563,4.820312,-0.021484,0.103516,-0.267578,0.223816,0.493469,0.095764,0.834961,down
70196,7.457031,3.8125,4.859375,-0.021484,0.103516,-0.267578,0.223816,0.493469,0.095764,0.834961,down
70201,7.535156,3.777344,4.859375,-0.048828,0.123047,-0.265625,0.223816,0.493469,0.095764,0.834961,down
70206,7.652344,3.777344,4.898437,-0.048828,0.123047,-0.265625,0.225586,0.49231,0.096741,0.835083,down
70211,7.6875,3.777344,4.898437,-0.048828,0.123047,-0.265625,0.226196,0.491882,0.097046,0.835144,down
70216,7.691406,3.699219,4.859375,-0.048828,0.123047,-0.265625,0.226196,0.491882,0.097046,0.835144,down
70221,7.726562,3.660156,4.859375,-0.078125,0.162109,-0.306641,0.226196,0.491882,0.097046,0.835144,down
70226,7.613281,3.621094,4.78125,-0.078125,0.162109,-0.306641,0.227539,0.490906,0.097656,0.835266,down
70232,7.609375,3.660156,4.820312,-0.070312,0.167969,-0.3125,0.228943,0.489868,0.098389,0.835449,down
70237,7.574219,3.699219,4.859375,-0.033203,0.175781,-0.310547,0.229614,0.489319,0.098816,0.83551,down
70242,7.535156,3.777344,4.933594,-0.033203,0.175781,-0.310547,0.230286,0.48877,0.099304,0.835571,down
70247,7.496094,3.738281,4.898437,-0.033203,0.175781,-0.310547,0.230835,0.488281,0.099792,0.835632,down
70252,7.457031,3.851563,4.898437,0.076172,0.208984,-0.314453,0.231384,0.487732,0.100525,0.835754,down
70258,7.375,3.96875,4.972656,0.076172,0.208984,-0.314453,0.231812,0.487305,0.101135,0.835815,down
70263,7.265625,4.082031,5.011719,0.076172,0.208984,-0.314453,0.2323,0.486755,0.10199,0.835876,down
70269,7.152344,4.273437,4.972656,0.076172,0.208984,-0.314453,0.232727,0.486206,0.102783,0.835999,down
70274,7.109375,4.3125,5.011719,0.101563,0.222656,-0.326172,0.232727,0.486206,0.102783,0.835999,down
70280,7.109375,4.3125,5.128906,0.070312,0.197266,-0.306641,0.232727,0.486206,0.102783,0.835999,down
70285,7.1875,4.3125,5.164062,0.070312,0.197266,-0.306641,0.234314,0.48468,0.104858,0.836182,down
70290,7.265625,4.273437,5.164062,-0.064453,0.146484,-0.292969,0.234314,0.48468,0.104858,0.836182,down
70295,7.347656,4.234375,5.164062,-0.136719,0.128906,-0.289063,0.234314,0.48468,0.104858,0.836182,down
70300,7.378906,4.195312,5.242187,-0.136719,0.128906,-0.289063,0.234314,0.48468,0.104858,0.836182,down
70305,7.417969,4.160156,5.164062,-0.136719,0.128906,-0.289063,0.237244,0.482727,0.105652,0.836365,down
70310,7.417969,4.160156,5.164062,-0.285156,0.097656,-0.304688,0.237244,0.482727,0.105652,0.836365,down
70315,7.414062,4.121094,5.089844,-0.320313,0.095703,-0.304688,0.237244,0.482727,0.105652,0.836365,down
70320,7.34375,4.121094,5.164062,-0.320313,0.095703,-0.304688,0.237244,0.482727,0.105652,0.836365,down
70325,7.308594,4.042969,5.203125,-0.320313,0.095703,-0.304688,0.241211,0.480713,0.104797,0.836487,down
70330,7.269531,4.003906,5.203125,-0.353516,0.101563,-0.330078,0.241211,0.480713,0.104797,0.836487,down
70336,7.269531,4.003906,5.203125,-0.316406,0.101563,-0.318359,0.241211,0.480713,0.104797,0.836487,down
70341,7.226562,4.042969,5.242187,-0.316406,0.101563,-0.318359,0.244385,0.479126,0.104187,0.836609,down
70347,7.1875,4.042969,5.28125,-0.173828,0.130859,-0.349609,0.244385,0.479126,0.104187,0.836609,down
70352,7.152344,4.082031,5.242187,-0.173828,0.130859,-0.349609,0.247131,0.4776,0.104431,0.836609,down
70357,7.1875,4.082031,5.203125,-0.089844,0.140625,-0.375,0.248108,0.477051,0.104797,0.836609,down
70362,7.226562,4.042969,5.242187,-0.050781,0.140625,-0.376953,0.248962,0.476562,0.105225,0.836548,down
70367,7.226562,4.121094,5.164062,-0.050781,0.140625,-0.376953,0.249695,0.476135,0.105652,0.836548,down
70372,7.230469,4.160156,5.128906,-0.025391,0.138672,-0.40625,0.250549,0.475647,0.10614,0.836487,down
70377,7.226562,4.234375,5.128906,-0.03125,0.121094,-0.414062,0.250549,0.475647,0.10614,0.836487,down
70382,7.265625,4.195312,5.128906,-0.03125,0.121094,-0.414062,0.252319,0.474792,0.107239,0.836304,down
70387,7.191406,4.351562,5.011719,-0.03125,0.121094,-0.414062,0.253113,0.474365,0.107727,0.836243,down
70392,7.113281,4.425781,5.011719,-0.03125,0.121094,-0.414062,0.254028,0.473999,0.108154,0.836121,down
70397,7.03125,4.464844,4.972656,-0.064453,0.060547,-0.386719,0.254028,0.473999,0.108154,0.836121,down
70402,6.996094,4.425781,5.011719,-0.064453,0.060547,-0.386719,0.255005,0.473633,0.108582,0.835999,down
70407,6.992187,4.464844,4.972656,-0.087891,0.009766,-0.347656,0.255005,0.473633,0.108582,0.835999,down
70412,7.070312,4.464844,4.933594,-0.087891,0.009766,-0.347656,0.256653,0.473083,0.109192,0.835693,down
70417,7.070312,4.464844,4.898437,-0.115234,-0.013672,-0.292969,0.256653,0.473083,0.109192,0.835693,down
70422,7.148437,4.425781,4.859375,-0.115234,-0.013672,-0.292969,0.259033,0.472534,0.10968,0.835205,down
70427,7.226562,4.464844,4.78125,-0.115234,-0.013672,-0.292969,0.259705,0.472412,0.109741,0.835083,down
70432,7.191406,4.425781,4.78125,-0.132812,-0.023437,-0.28125,0.259705,0.472412,0.109741,0.835083,down
70437,7.1875,4.425781,4.820312,-0.119141,-0.019531,-0.28125,0.260559,0.472229,0.109802,0.8349,down
70442,7.191406,4.390625,4.78125,-0.119141,-0.019531,-0.28125,0.262024,0.471924,0.109985,0.834595,down
70447,7.1875,4.390625,4.820312,-0.119141,-0.019531,-0.28125,0.262634,0.471802,0.110107,0.834412,down
70452,7.191406,4.425781,4.78125,-0.119141,-0.019531,-0.28125,0.262634,0.471802,0.110107,0.834412,down
70457,7.1875,4.464844,4.78125,-0.103516,-0.03125,-0.263672,0.262634,0.471802,0.110107,0.834412,down
70462,7.191406,4.503906,4.820312,-0.103516,-0.03125,-0.263672,0.264709,0.471436,0.110413,0.833984,down
70467,7.226562,4.542969,4.859375,-0.103516,-0.03125,-0.263672,0.265259,0.471375,0.110596,0.833801,down
70472,7.152344,4.542969,4.859375,-0.041016,-0.03125,-0.244141,0.265259,0.471375,0.110596,0.833801,down
70477,7.148437,4.617187,4.898437,-0.041016,-0.03125,-0.244141,0.26593,0.471252,0.110779,0.833618,down
70483,7.152344,4.582031,4.859375,-0.041016,-0.03125,-0.244141,0.266907,0.47113,0.111267,0.833313,down
70488,7.152344,4.582031,4.859375,-0.011719,-0.021484,-0.232422,0.267395,0.471069,0.111572,0.83313,down
70493,7.152344,4.582031,4.859375,-0.015625,-0.015625,-0.21875,0.267944,0.471008,0.111816,0.832947,down
70499,7.113281,4.582031,4.859375,-0.015625,-0.015625,-0.21875,0.268372,0.470947,0.112,0.832825,down
70505,7.074219,4.542969,4.820312,-0.033203,-0.021484,-0.212891,0.268372,0.470947,0.112,0.832825,down
70510,7.070312,4.582031,4.859375,-0.03125,-0.019531,-0.208984,0.268372,0.470947,0.112,0.832825,down
70515,7.074219,4.617187,4.859375,-0.029297,-0.019531,-0.193359,0.268372,0.470947,0.112,0.832825,down
70521,7.035156,4.695312,4.898437,-0.029297,-0.019531,-0.193359,0.268372,0.470947,0.112,0.832825,down
70526,7.109375,4.65625,4.898437,-0.039063,-0.021484,-0.181641,0.268372,0.470947,0.112,0.832825,down
70532,7.152344,4.695312,4.898437,-0.041016,-0.027344,-0.179687,0.268372,0.470947,0.112,0.832825,down
70537,7.148437,4.65625,4.933594,-0.042969,-0.013672,-0.175781,0.271484,0.470459,0.11322,0.83197,down
70542,7.148437,4.617187,4.933594,-0.042969,-0.013672,-0.175781,0.272339,0.470276,0.113464,0.831726,down
70547,7.191406,4.617187,4.933594,-0.042969,-0.013672,-0.175781,0.272339,0.470276,0.113464,0.831726,down
70552,7.070312,4.65625,4.972656,-0.046875,-0.001953,-0.171875,0.272766,0.470154,0.113647,0.831665,down
70557,7.074219,4.617187,4.933594,-0.044922,0.001953,-0.173828,0.273071,0.470032,0.11377,0.831604,down
70562,7.074219,4.617187,4.933594,-0.048828,0.011719,-0.173828,0.273499,0.46991,0.113892,0.831482,down
70567,7.074219,4.617187,4.933594,-0.048828,0.011719,-0.173828,0.274353,0.469666,0.114075,0.83136,down
70572,6.964844,4.617187,5.050781,-0.048828,0.011719,-0.173828,0.274353,0.469666,0.114075,0.83136,down
70577,6.964844,4.582031,5.089844,-0.054687,0.019531,-0.150391,0.275085,0.469421,0.114258,0.831238,down
70582,6.925781,4.542969,5.050781,-0.060547,0.015625,-0.132812,0.275085,0.469421,0.114258,0.831238,down
70587,6.992187,4.464844,5.089844,-0.060547,0.015625,-0.132812,0.275452,0.469238,0.11438,0.831177,down
70592,6.992187,4.464844,5.089844,-0.060547,0.015625,-0.132812,0.276062,0.468994,0.114502,0.831116,down
70597,6.992187,4.464844,5.128906,-0.060547,0.015625,-0.132812,0.276062,0.468994,0.114502,0.831116,down
70602,6.960937,4.425781,5.128906,-0.025391,0.025391,-0.126953,0.276062,0.468994,0.114502,0.831116,down
70607,6.921875,4.464844,5.128906,-0.025391,0.025391,-0.126953,0.276611,0.468689,0.114746,0.831055,down
70613,6.921875,4.542969,5.089844,-0.011719,0.037109,-0.123047,0.277161,0.468384,0.115051,0.830994,down
70618,6.882812,4.582031,5.164062,0.007813,0.023437,-0.140625,0.277405,0.468201,0.115295,0.830994,down
70623,6.84375,4.542969,5.242187,0.007813,0.023437,-0.140625,0.27771,0.468079,0.11554,0.830933,down
70628,6.84375,4.542969,5.242187,0.007813,0.023437,-0.140625,0.277893,0.468018,0.115723,0.830872,down
70633,6.84375,4.542969,5.203125,0.0,-0.005859,-0.136719,0.278259,0.467957,0.115967,0.83075,down
70639,6.882812,4.542969,5.242187,0.0,-0.005859,-0.136719,0.278503,0.467896,0.116089,0.830688,down
70644,6.925781,4.503906,5.28125,0.0,-0.005859,-0.136719,0.278809,0.467773,0.116272,0.830627,down
70650,7.035156,4.425781,5.320312,0.0,-0.005859,-0.136719,0.279114,0.467712,0.116333,0.830566,down
70655,7.03125,4.425781,5.203125,-0.066406,-0.023437,-0.134766,0.279114,0.467712,0.116333,0.830566,down
70660,7.070312,4.351562,5.203125,-0.105469,-0.011719,-0.140625,0.279114,0.467712,0.116333,0.830566,down
70666,7.074219,4.273437,5.242187,-0.105469,-0.011719,-0.140625,0.279114,0.467712,0.116333,0.830566,down
70671,7.03125,4.273437,5.242187,-0.125,-0.013672,-0.152344,0.279114,0.467712,0.116333,0.830566,down
70676,6.992187,4.273437,5.203125,-0.119141,-0.013672,-0.148437,0.279114,0.467712,0.116333,0.830566,down
70681,6.925781,4.3125,5.242187,-0.119141,-0.013672,-0.148437,0.279114,0.467712,0.116333,0.830566,down
70686,6.925781,4.3125,5.203125,-0.119141,-0.013672,-0.148437,0.282043,0.466858,0.116211,0.830078,down
70692,6.84375,4.351562,5.28125,0.013672,-0.015625,-0.164062,0.282043,0.466858,0.116211,0.830078,down
70698,6.847656,4.390625,5.242187,0.013672,-0.015625,-0.164062,0.28302,0.466675,0.11676,0.829712,down
70703,6.804687,4.425781,5.242187,0.078125,-0.009766,-0.167969,0.283325,0.466675,0.117126,0.82959,down
70709,6.808594,4.464844,5.203125,0.078125,-0.009766,-0.167969,0.283508,0.466736,0.117493,0.829468,down
70716,6.84375,4.542969,5.203125,0.078125,-0.009766,-0.167969,0.283752,0.466736,0.11792,0.829285,down
70722,6.84375,4.582031,5.203125,0.097656,-0.029297,-0.15625,0.283752,0.466736,0.11792,0.829285,down
70727,6.84375,4.582031,5.203125,0.083984,-0.037109,-0.148437,0.283752,0.466736,0.11792,0.829285,down
70732,6.847656,4.65625,5.203125,0.058594,-0.046875,-0.144531,0.283752,0.466736,0.11792,0.829285,down
70737,6.84375,4.695312,5.164062,0.058594,-0.046875,-0.144531,0.284607,0.46698,0.119263,0.828674,down
70743,6.847656,4.695312,5.128906,-0.037109,-0.078125,-0.125,0.284607,0.46698,0.119263,0.828674,down
70748,6.804687,4.695312,5.128906,-0.037109,-0.078125,-0.125,0.285522,0.467163,0.119568,0.828247,down
70754,6.808594,4.695312,5.164062,-0.037109,-0.078125,-0.125,0.285828,0.467224,0.119507,0.828064,down
70760,6.765625,4.734375,5.203125,-0.058594,-0.105469,-0.125,0.285828,0.467224,0.119507,0.828064,down
70765,6.769531,4.734375,5.128906,-0.066406,-0.107422,-0.115234,0.28656,0.467468,0.119446,0.827698,down
70770,6.769531,4.734375,5.128906,-0.066406,-0.107422,-0.115234,0.286865,0.467529,0.119446,0.827576,down
70776,6.730469,4.734375,5.164062,-0.078125,-0.097656,-0.123047,0.286865,0.467529,0.119446,0.827576,down
70781,6.730469,4.734375,5.203125,-0.072266,-0.091797,-0.126953,0.286865,0.467529,0.119446,0.827576,down
70786,6.726562,4.695312,5.203125,-0.072266,-0.091797,-0.126953,0.286865,0.467529,0.119446,0.827576,down
70792,6.691406,4.617187,5.164062,-0.056641,-0.085937,-0.140625,0.286865,0.467529,0.119446,0.827576,down
70797,6.652344,4.695312,5.164062,-0.056641,-0.085937,-0.140625,0.288696,0.467896,0.119263,0.826782,down
70803,6.648437,4.734375,5.242187,-0.054687,-0.082031,-0.132812,0.288696,0.467896,0.119263,0.826782,down
70808,6.6875,4.695312,5.28125,-0.054687,-0.082031,-0.132812,0.289734,0.468079,0.119324,0.826294,down
70813,6.730469,4.734375,5.242187,-0.015625,-0.080078,-0.136719,0.289734,0.468079,0.119324,0.826294,down
70818,6.691406,4.808594,5.203125,-0.015625,-0.080078,-0.136719,0.290344,0.468201,0.119507,0.825928,down
70824,6.574219,4.808594,5.242187,-0.015625,-0.080078,-0.136719,0.290649,0.468323,0.11969,0.825745,down
70829,6.574219,4.808594,5.242187,0.03125,-0.091797,-0.128906,0.290894,0.468445,0.119873,0.825562,down
70835,6.574219,4.808594,5.242187,0.03125,-0.091797,-0.128906,0.291138,0.468628,0.120056,0.825378,down
70841,6.609375,4.734375,5.203125,0.03125,-0.091797,-0.128906,0.291382,0.468811,0.120239,0.825134,down
70847,6.574219,4.773437,5.203125,0.03125,-0.117188,-0.115234,0.291382,0.468811,0.120239,0.825134,down
70853,6.570312,4.695312,5.242187,0.019531,-0.142578,-0.109375,0.291382,0.468811,0.120239,0.825134,down
70858,6.570312,4.695312,5.164062,0.019531,-0.142578,-0.109375,0.292236,0.469727,0.120667,0.82428,down
70863,6.570312,4.695312,5.164062,0.019531,-0.142578,-0.109375,0.29248,0.469971,0.120728,0.824036,down
70868,6.609375,4.65625,5.164062,0.013672,-0.169922,-0.119141,0.292725,0.470276,0.120789,0.82373,down
70873,6.648437,4.695312,5.128906,0.013672,-0.169922,-0.119141,0.29303,0.470581,0.12085,0.823486,down
70878,6.652344,4.734375,5.089844,0.013672,-0.169922,-0.119141,0.293274,0.470886,0.120911,0.823181,down
70883,6.613281,4.734375,5.089844,0.027344,-0.189453,-0.119141,0.293518,0.471252,0.121033,0.822876,down
70888,6.648437,4.734375,5.050781,0.027344,-0.189453,-0.119141,0.293762,0.471558,0.121094,0.822571,down
70893,6.613281,4.734375,5.011719,0.03125,-0.189453,-0.132812,0.293762,0.471558,0.121094,0.822571,down
70899,6.609375,4.695312,5.011719,0.03125,-0.189453,-0.132812,0.294312,0.47229,0.121338,0.82196,down
70904,6.652344,4.617187,4.972656,0.03125,-0.189453,-0.132812,0.294556,0.472656,0.12146,0.821655,down
70909,6.691406,4.617187,4.933594,0.027344,-0.197266,-0.126953,0.294861,0.472961,0.121521,0.82135,down
70915,6.6875,4.582031,4.933594,0.027344,-0.197266,-0.126953,0.295105,0.473328,0.121582,0.820984,down
70921,6.652344,4.542969,4.933594,0.013672,-0.201172,-0.125,0.295105,0.473328,0.121582,0.820984,down
70926,6.613281,4.582031,4.898437,0.007813,-0.208984,-0.119141,0.295105,0.473328,0.121582,0.820984,down
70931,6.542969,4.503906,4.820312,0.017578,-0.220703,-0.119141,0.295105,0.473328,0.121582,0.820984,down
70936,6.542969,4.542969,4.820312,0.005859,-0.226562,-0.117188,0.295105,0.473328,0.121582,0.820984,down
70941,6.539062,4.542969,4.859375,0.029297,-0.240234,-0.125,0.295105,0.473328,0.121582,0.820984,down
70947,6.539062,4.503906,4.78125,0.052734,-0.259766,-0.125,0.295105,0.473328,0.121582,0.820984,down
70953,6.460937,4.582031,4.742187,0.066406,-0.263672,-0.130859,0.297302,0.476868,0.12207,0.818115,down
70958,6.425781,4.582031,4.742187,0.066406,-0.263672,-0.130859,0.297302,0.476868,0.12207,0.818115,down
70963,6.460937,4.582031,4.742187,0.099609,-0.287109,-0.162109,0.297302,0.476868,0.12207,0.818115,down
70968,6.464844,4.582031,4.707031,0.099609,-0.287109,-0.162109,0.297852,0.478027,0.122437,0.8172,down
70973,6.464844,4.542969,4.628906,0.107422,-0.291016,-0.169922,0.298462,0.479187,0.122925,0.816223,down
70978,6.503906,4.582031,4.628906,0.105469,-0.291016,-0.1875,0.298462,0.479187,0.122925,0.816223,down
70983,6.503906,4.582031,4.589844,0.105469,-0.291016,-0.1875,0.298828,0.479858,0.12323,0.815613,down
70988,6.5,4.617187,4.589844,0.105469,-0.291016,-0.1875,0.2995,0.480957,0.123718,0.814636,down
70993,6.460937,4.617187,4.589844,0.105469,-0.291016,-0.1875,0.299866,0.481506,0.123962,0.814148,down
70998,6.460937,4.65625,4.589844,0.105469,-0.291016,-0.1875,0.299866,0.481506,0.123962,0.814148,down
71003,6.382812,4.695312,4.550781,0.078125,-0.300781,-0.212891,0.299866,0.481506,0.123962,0.814148,down
71008,6.382812,4.695312,4.550781,0.078125,-0.300781,-0.212891,0.30072,0.482727,0.12439,0.813049,down
71013,6.347656,4.695312,4.589844,0.085937,-0.326172,-0.216797,0.30072,0.482727,0.12439,0.813049,down
71018,6.304687,4.734375,4.550781,0.085937,-0.326172,-0.216797,0.302002,0.484619,0.125061,0.81134,down
71023,6.304687,4.734375,4.550781,0.085937,-0.326172,-0.216797,0.302368,0.485229,0.125305,0.810791,down
71028,6.304687,4.773437,4.515625,0.109375,-0.365234,-0.208984,0.302368,0.485229,0.125305,0.810791,down
71033,6.308594,4.773437,4.589844,0.109375,-0.365234,-0.208984,0.303162,0.486755,0.125732,0.80957,down
71038,6.160156,4.808594,4.515625,0.130859,-0.367188,-0.222656,0.303162,0.486755,0.125732,0.80957,down
71043,6.160156,4.808594,4.515625,0.130859,-0.367188,-0.222656,0.303955,0.48822,0.126282,0.808289,down
71048,6.15625,4.886719,4.550781,0.130859,-0.367188,-0.222656,0.303955,0.48822,0.126282,0.808289,down
71053,6.15625,4.964844,4.515625,0.140625,-0.40625,-0.244141,0.303955,0.48822,0.126282,0.808289,down
71059,6.15625,5.0,4.476562,0.140625,-0.40625,-0.244141,0.305237,0.490662,0.127197,0.806152,down
71064,6.191406,5.039062,4.515625,0.111328,-0.417969,-0.263672,0.305786,0.491516,0.127441,0.805359,down
71069,6.269531,5.078125,4.476562,0.111328,-0.417969,-0.263672,0.306274,0.49231,0.127686,0.804687,down
71074,6.226562,5.078125,4.476562,0.111328,-0.417969,-0.263672,0.306946,0.493103,0.12793,0.803894,down
71079,6.230469,5.039062,4.515625,0.111328,-0.417969,-0.263672,0.307617,0.493896,0.128052,0.803101,down
71084,6.1875,5.078125,4.476562,0.003906,-0.46875,-0.34375,0.308472,0.494812,0.128174,0.802246,down
71090,6.269531,5.15625,4.4375,0.003906,-0.46875,-0.34375,0.309204,0.495544,0.128296,0.801514,down
71095,6.226562,5.15625,4.4375,0.003906,-0.46875,-0.34375,0.310181,0.496338,0.128357,0.800598,down
71101,6.191406,5.308594,4.550781,0.003906,-0.46875,-0.34375,0.310181,0.496338,0.128357,0.800598,down
71106,6.15625,5.386719,4.515625,-0.052734,-0.513672,-0.408203,0.310181,0.496338,0.128357,0.800598,down
71111,6.121094,5.539062,4.398437,-0.052734,-0.519531,-0.433594,0.310181,0.496338,0.128357,0.800598,down
71117,6.121094,5.5,4.359375,-0.046875,-0.535156,-0.445312,0.310181,0.496338,0.128357,0.800598,down
71123,6.121094,5.5,4.398437,-0.046875,-0.546875,-0.464844,0.310181,0.496338,0.128357,0.800598,down
71128,6.191406,5.5,4.324219,-0.052734,-0.572266,-0.478516,0.310181,0.496338,0.128357,0.800598,down
71134,6.226562,5.421875,4.398437,-0.068359,-0.595703,-0.482422,0.31897,0.503357,0.128784,0.792664,down
71139,6.269531,5.386719,4.359375,-0.083984,-0.644531,-0.5,0.320435,0.504517,0.128723,0.791382,down
71144,6.382812,5.308594,4.246094,-0.083984,-0.644531,-0.5,0.321777,0.505615,0.128723,0.7901,down
71149,6.460937,5.308594,4.132812,-0.083984,-0.644531,-0.5,0.322937,0.50647,0.128662,0.789062,down
71154,6.5,5.347656,4.054687,-0.09375,-0.679687,-0.53125,0.322937,0.50647,0.128662,0.789062,down
71159,6.570312,5.421875,4.054687,-0.09375,-0.679687,-0.53125,0.325745,0.508728,0.128601,0.786438,down
71164,6.648437,5.539062,3.941406,-0.09375,-0.679687,-0.53125,0.327209,0.509888,0.12854,0.785095,down
71169,6.652344,5.578125,3.902344,-0.09375,-0.679687,-0.53125,0.328552,0.510925,0.128601,0.783875,down
71174,6.726562,5.613281,3.863281,-0.041016,-0.728516,-0.626953,0.3302,0.512207,0.128662,0.782349,down
71180,6.652344,5.804687,3.824219,-0.041016,-0.728516,-0.626953,0.331543,0.513245,0.128845,0.781067,down
71185,6.691406,5.804687,3.746094,-0.041016,-0.728516,-0.626953,0.333008,0.514526,0.12915,0.779541,down
71190,6.765625,5.804687,3.785156,-0.041016,-0.728516,-0.626953,0.333008,0.514526,0.12915,0.779541,down
71195,6.765625,5.804687,3.785156,0.130859,-0.748047,-0.677734,0.335754,0.51709,0.130066,0.776489,down
71200,6.765625,5.804687,3.785156,0.148437,-0.744141,-0.671875,0.337158,0.518494,0.130615,0.774902,down
71205,7.113281,5.84375,3.902344,0.148437,-0.744141,-0.671875,0.337158,0.518494,0.130615,0.774902,down
71210,7.113281,5.84375,3.902344,0.132812,-0.728516,-0.666016,0.339905,0.521057,0.131653,0.77179,down
71216,7.417969,5.84375,3.710938,0.132812,-0.728516,-0.666016,0.341187,0.522278,0.132019,0.770325,down
71221,7.535156,5.804687,3.671875,0.029297,-0.716797,-0.615234,0.341187,0.522278,0.132019,0.770325,down
71227,7.609375,5.804687,3.746094,-0.019531,-0.712891,-0.595703,0.341187,0.522278,0.132019,0.770325,down
71232,7.609375,5.804687,3.710938,-0.052734,-0.708984,-0.583984,0.341187,0.522278,0.132019,0.770325,down
71238,7.648437,5.804687,3.59375,-0.066406,-0.707031,-0.568359,0.341187,0.522278,0.132019,0.770325,down
71243,7.648437,5.804687,3.632813,-0.066406,-0.707031,-0.568359,0.348145,0.527954,0.132812,0.763184,down
71248,7.691406,5.84375,3.554688,-0.050781,-0.695312,-0.550781,0.348145,0.527954,0.132812,0.763184,down
71253,7.726562,5.882812,3.519531,0.025391,-0.673828,-0.539062,0.348145,0.527954,0.132812,0.763184,down
71258,7.765625,5.960937,3.480469,0.025391,-0.673828,-0.539062,0.352051,0.531189,0.133057,0.759033,down
71264,7.800781,5.996094,3.480469,0.136719,-0.625,-0.539062,0.352051,0.531189,0.133057,0.759033,down
71269,7.796875,6.074219,3.441406,0.136719,-0.625,-0.539062,0.355347,0.534607,0.134216,0.754944,down
71274,7.839844,6.152344,3.402344,0.136719,-0.625,-0.539062,0.356262,0.535645,0.134827,0.753662,down
71279,7.835937,6.1875,3.480469,0.136719,-0.625,-0.539062,0.357178,0.536865,0.135498,0.752197,down
71284,7.839844,6.226562,3.519531,0.267578,-0.568359,-0.546875,0.358093,0.538025,0.13623,0.750793,down
71290,7.796875,6.265625,3.441406,0.267578,-0.568359,-0.546875,0.358887,0.539001,0.136963,0.749634,down
71296,7.726562,6.378906,3.519531,0.253906,-0.544922,-0.550781,0.359741,0.540039,0.137695,0.748352,down
71302,7.726562,6.457031,3.59375,0.224609,-0.527344,-0.544922,0.359741,0.540039,0.137695,0.748352,down
71307,7.652344,6.457031,3.632813,0.171875,-0.523437,-0.539062,0.359741,0.540039,0.137695,0.748352,down
71312,7.609375,6.496094,3.671875,0.119141,-0.517578,-0.525391,0.359741,0.540039,0.137695,0.748352,down
71317,7.570312,6.496094,3.710938,0.056641,-0.511719,-0.505859,0.359741,0.540039,0.137695,0.748352,down
71322,7.570312,6.535156,3.710938,0.011719,-0.509766,-0.492187,0.359741,0.540039,0.137695,0.748352,down
71327,7.570312,6.496094,3.746094,-0.046875,-0.503906,-0.466797,0.359741,0.540039,0.137695,0.748352,down
71332,7.535156,6.378906,3.632813,-0.085937,-0.5,-0.451172,0.359741,0.540039,0.137695,0.748352,down
71338,7.53125,6.34375,3.671875,-0.085937,-0.5,-0.451172,0.367859,0.546692,0.140747,0.738892,down
71344,7.53125,6.304687,3.746094,-0.160156,-0.474609,-0.40625,0.367859,0.546692,0.140747,0.738892,down
71349,7.535156,6.304687,3.671875,-0.160156,-0.474609,-0.40625,0.371155,0.548401,0.140442,0.736084,down
71354,7.453125,6.304687,3.59375,-0.160156,-0.474609,-0.40625,0.371155,0.548401,0.140442,0.736084,down
71359,7.453125,6.304687,3.59375,-0.078125,-0.423828,-0.439453,0.371155,0.548401,0.140442,0.736084,down
71364,7.417969,6.34375,3.519531,-0.078125,-0.423828,-0.439453,0.37439,0.550049,0.140564,0.733154,down
71369,7.378906,6.378906,3.519531,-0.078125,-0.423828,-0.439453,0.375305,0.550537,0.140808,0.732239,down
71374,7.378906,6.417969,3.519531,0.052734,-0.390625,-0.480469,0.375305,0.550537,0.140808,0.732239,down
71379,7.457031,6.417969,3.519531,0.105469,-0.371094,-0.480469,0.376343,0.551208,0.141174,0.731201,down
71384,7.492187,6.457031,3.480469,0.105469,-0.371094,-0.480469,0.377991,0.552368,0.142212,0.729248,down
71389,7.414062,6.496094,3.441406,0.160156,-0.351563,-0.480469,0.377991,0.552368,0.142212,0.729248,down
71394,7.457031,6.535156,3.363281,0.160156,-0.351563,-0.480469,0.378784,0.552979,0.142883,0.72821,down
71399,7.378906,6.535156,3.363281,0.158203,-0.339844,-0.470703,0.378784,0.552979,0.142883,0.72821,down
71405,7.304687,6.574219,3.328125,0.158203,-0.339844,-0.470703,0.38092,0.554687,0.144653,0.725403,down
71410,7.304687,6.574219,3.328125,0.082031,-0.347656,-0.394531,0.381653,0.555237,0.145081,0.724548,down
71416,7.230469,6.574219,3.25,0.082031,-0.347656,-0.394531,0.382385,0.555847,0.145447,0.723633,down
71422,7.265625,6.574219,3.25,0.082031,-0.347656,-0.394531,0.383118,0.556335,0.145752,0.722778,down
71427,7.230469,6.609375,3.210938,-0.001953,-0.339844,-0.353516,0.383118,0.556335,0.145752,0.722778,down
71432,7.226562,6.609375,3.097656,-0.017578,-0.316406,-0.349609,0.383118,0.556335,0.145752,0.722778,down
71437,7.265625,6.574219,3.058594,-0.015625,-0.292969,-0.349609,0.383118,0.556335,0.145752,0.722778,down
71442,7.304687,6.574219,3.058594,-0.015625,-0.292969,-0.349609,0.383118,0.556335,0.145752,0.722778,down
71447,7.265625,6.574219,3.058594,-0.015625,-0.292969,-0.349609,0.386719,0.55835,0.146912,0.719116,down
71453,7.265625,6.574219,3.058594,0.035156,-0.214844,-0.330078,0.38739,0.558594,0.147217,0.718506,down
71458,7.1875,6.648437,2.980469,0.035156,-0.214844,-0.330078,0.38739,0.558594,0.147217,0.718506,down
71463,7.230469,6.6875,3.097656,0.041016,-0.181641,-0.326172,0.38855,0.559143,0.147949,0.717285,down
71468,7.230469,6.6875,3.097656,0.041016,-0.181641,-0.326172,0.38855,0.559143,0.147949,0.717285,down
71473,7.308594,6.6875,3.058594,0.046875,-0.123047,-0.294922,0.38855,0.559143,0.147949,0.717285,down
71479,7.378906,6.726562,3.058594,0.039063,-0.105469,-0.292969,0.390564,0.559692,0.149536,0.715393,down
71484,7.417969,6.6875,3.058594,0.039063,-0.105469,-0.292969,0.390564,0.559692,0.149536,0.715393,down
71489,7.457031,6.6875,3.019531,-0.033203,-0.0625,-0.28125,0.390564,0.559692,0.149536,0.715393,down
71494,7.417969,6.648437,2.945313,-0.033203,-0.0625,-0.28125,0.392273,0.559631,0.150574,0.714355,down
71499,7.496094,6.574219,2.945313,-0.033203,-0.0625,-0.28125,0.392273,0.559631,0.150574,0.714355,down
71504,7.453125,6.609375,2.90625,-0.134766,-0.048828,-0.275391,0.392273,0.559631,0.150574,0.714355,down
71509,7.347656,6.765625,2.789063,-0.134766,-0.048828,-0.275391,0.394287,0.559143,0.15094,0.713501,down
71514,7.34375,6.765625,2.714844,-0.134766,-0.048828,-0.275391,0.395081,0.55896,0.15094,0.713257,down
71519,7.347656,6.609375,2.828125,-0.134766,-0.048828,-0.275391,0.395081,0.55896,0.15094,0.713257,down
71524,7.265625,6.609375,2.675781,-0.244141,0.005859,-0.234375,0.395081,0.55896,0.15094,0.713257,down
71529,7.230469,6.6875,2.597656,-0.244141,0.005859,-0.234375,0.396667,0.55835,0.150757,0.712891,down
71535,7.265625,6.6875,2.597656,-0.205078,0.013672,-0.232422,0.39801,0.557678,0.150818,0.712646,down
71540,7.191406,6.726562,2.597656,-0.076172,0.070312,-0.210937,0.398499,0.557373,0.151001,0.712585,down
71545,7.109375,6.917969,2.597656,-0.076172,0.070312,-0.210937,0.398926,0.557007,0.151367,0.712524,down
71550,7.109375,6.957031,2.597656,-0.076172,0.070312,-0.210937,0.39917,0.556702,0.151794,0.712524,down
71555,7.070312,6.957031,2.675781,-0.011719,0.185547,-0.193359,0.399536,0.556274,0.152283,0.712585,down
71561,6.960937,7.109375,2.597656,-0.011719,0.185547,-0.193359,0.39978,0.555847,0.15271,0.712646,down
71567,6.84375,7.109375,2.636719,-0.011719,0.185547,-0.193359,0.400024,0.555359,0.153076,0.71283,down
71573,6.730469,7.179687,2.597656,-0.101563,0.238281,-0.158203,0.400024,0.555359,0.153076,0.71283,down
71578,6.730469,7.179687,2.636719,-0.119141,0.253906,-0.138672,0.400024,0.555359,0.153076,0.71283,down
71583,6.539062,7.21875,2.636719,-0.1875,0.234375,-0.091797,0.400024,0.555359,0.153076,0.71283,down
71588,6.5,7.152344,2.675781,-0.1875,0.234375,-0.091797,0.401245,0.552795,0.154053,0.713867,down
71594,6.460937,7.070312,2.675781,-0.236328,0.224609,-0.070312,0.401245,0.552795,0.154053,0.713867,down
71599,6.347656,6.914062,2.675781,-0.265625,0.216797,-0.056641,0.401245,0.552795,0.154053,0.713867,down
71604,6.308594,6.839844,2.675781,-0.244141,0.210937,-0.013672,0.402283,0.550781,0.153809,0.714966,down
71610,6.308594,6.765625,2.714844,-0.212891,0.205078,0.013672,0.402588,0.550049,0.153625,0.715332,down
71615,6.230469,6.652344,2.753906,-0.212891,0.205078,0.013672,0.402954,0.548889,0.153259,0.716125,down
71621,6.15625,6.417969,2.828125,-0.212891,0.205078,0.013672,0.403015,0.54834,0.153137,0.716492,down
71626,6.15625,6.34375,2.828125,-0.171875,0.216797,0.052734,0.403076,0.547791,0.153015,0.716919,down
71631,6.078125,6.226562,2.90625,-0.148437,0.216797,0.066406,0.403076,0.547241,0.152893,0.717346,down
71636,6.121094,6.113281,2.980469,-0.148437,0.216797,0.066406,0.403076,0.546753,0.152832,0.717834,down
71641,6.078125,6.074219,3.097656,-0.148437,0.216797,0.066406,0.403076,0.546753,0.152832,0.717834,down
71647,6.042969,6.035156,3.136719,0.001953,0.232422,0.101563,0.403076,0.546753,0.152832,0.717834,down
71653,6.078125,6.035156,3.058594,0.0625,0.232422,0.113281,0.403076,0.546753,0.152832,0.717834,down
71658,6.078125,5.996094,3.058594,0.0625,0.232422,0.113281,0.403076,0.546753,0.152832,0.717834,down
71664,6.042969,6.035156,3.097656,0.0625,0.232422,0.113281,0.401306,0.544983,0.153625,0.719971,down
71670,6.042969,6.035156,3.097656,0.228516,0.191406,0.171875,0.401306,0.544983,0.153625,0.719971,down
71675,6.042969,6.035156,3.171875,0.228516,0.191406,0.171875,0.399292,0.544739,0.154785,0.721008,down
71680,6.078125,6.035156,3.25,0.298828,0.193359,0.173828,0.399292,0.544739,0.154785,0.721008,down
71685,6.078125,6.035156,3.328125,0.298828,0.193359,0.173828,0.397583,0.544739,0.155884,0.721741,down
71690,6.117187,6.035156,3.289063,0.298828,0.193359,0.173828,0.396851,0.544739,0.156372,0.722046,down
71695,6.15625,5.960937,3.25,0.298828,0.193359,0.173828,0.395996,0.5448,0.156982,0.722351,down
71700,6.265625,5.921875,3.289063,0.296875,0.191406,0.162109,0.395081,0.5448,0.157593,0.722717,down
71705,6.308594,5.882812,3.289063,0.296875,0.191406,0.162109,0.395081,0.5448,0.157593,0.722717,down
71710,6.308594,5.882812,3.289063,0.208984,0.166016,0.160156,0.393616,0.544739,0.158447,0.723328,down
71716,6.425781,5.882812,3.328125,0.208984,0.166016,0.160156,0.393005,0.544739,0.158752,0.723633,down
71721,6.542969,5.804687,3.328125,0.134766,0.117188,0.167969,0.393005,0.544739,0.158752,0.723633,down
71726,6.539062,5.84375,3.328125,0.101563,0.082031,0.162109,0.393005,0.544739,0.158752,0.723633,down
71732,6.730469,5.921875,3.289063,0.101563,0.082031,0.162109,0.391479,0.544739,0.159119,0.724365,down
71739,6.808594,5.960937,3.210938,0.074219,0.027344,0.148437,0.391479,0.544739,0.159119,0.724365,down
71744,6.921875,5.960937,3.171875,0.066406,0.011719,0.140625,0.391479,0.544739,0.159119,0.724365,down
71749,6.992187,5.960937,3.136719,0.066406,0.011719,0.140625,0.390259,0.544983,0.159058,0.724854,down
71754,7.03125,5.996094,3.097656,0.103516,-0.027344,0.121094,0.390259,0.544983,0.159058,0.724854,down
71759,7.03125,6.074219,3.058594,0.136719,-0.033203,0.126953,0.388977,0.545593,0.159241,0.724976,down
71764,7.113281,6.226562,3.058594,0.136719,-0.033203,0.126953,0.388977,0.545593,0.159241,0.724976,down
71769,7.109375,6.265625,3.058594,0.136719,-0.033203,0.126953,0.388489,0.545837,0.159424,0.725037,down
71775,7.070312,6.34375,3.019531,0.216797,0.009766,0.132812,0.388489,0.545837,0.159424,0.725037,down
71780,7.074219,6.496094,2.945313,0.216797,0.009766,0.132812,0.38678,0.546631,0.160095,0.72522,down
71785,7.035156,6.609375,2.945313,0.216797,0.009766,0.132812,0.386292,0.546814,0.160339,0.725342,down
71790,6.996094,6.6875,2.90625,0.228516,0.039063,0.130859,0.386292,0.546814,0.160339,0.725342,down
71795,6.960937,6.800781,2.945313,0.228516,0.039063,0.130859,0.38562,0.546997,0.160645,0.725403,down
71800,6.882812,6.917969,2.90625,0.226562,0.046875,0.134766,0.38562,0.546997,0.160645,0.725403,down
71805,6.882812,6.996094,2.90625,0.203125,0.060547,0.117188,0.38446,0.547363,0.161316,0.725647,down
71810,6.804687,7.03125,2.90625,0.203125,0.060547,0.117188,0.383423,0.547607,0.161865,0.725891,down
71815,6.652344,7.113281,2.90625,0.203125,0.060547,0.117188,0.383423,0.547607,0.161865,0.725891,down
71820,6.652344,7.148437,2.945313,0.119141,0.083984,0.078125,0.382935,0.547668,0.16217,0.726013,down
71825,6.613281,7.183594,2.980469,0.119141,0.083984,0.078125,0.382141,0.547668,0.162598,0.726379,down
71830,6.613281,7.179687,3.058594,0.119141,0.083984,0.078125,0.382141,0.547668,0.162598,0.726379,down
71835,6.5,7.148437,3.097656,0.054687,0.117188,0.068359,0.382141,0.547668,0.162598,0.726379,down
71840,6.5,7.148437,3.097656,0.054687,0.117188,0.068359,0.381409,0.547241,0.163025,0.72699,down
71845,6.460937,7.152344,3.210938,0.054687,0.117188,0.068359,0.381409,0.547241,0.163025,0.72699,down
71850,6.460937,7.070312,3.210938,-0.064453,0.169922,0.050781,0.381409,0.547241,0.163025,0.72699,down
71855,6.421875,6.992187,3.289063,-0.064453,0.169922,0.050781,0.381042,0.546265,0.163086,0.727905,down
71860,6.347656,6.914062,3.328125,-0.105469,0.197266,0.025391,0.381042,0.546265,0.163086,0.727905,down
71865,6.308594,6.878906,3.363281,-0.105469,0.197266,0.025391,0.380981,0.545776,0.163086,0.728271,down
71870,6.308594,6.839844,3.402344,-0.066406,0.224609,0.015625,0.380981,0.545776,0.163086,0.728271,down
71875,6.230469,6.769531,3.441406,-0.066406,0.224609,0.015625,0.380859,0.544495,0.163269,0.729248,down
71880,6.230469,6.769531,3.441406,-0.066406,0.224609,0.015625,0.380859,0.544495,0.163269,0.729248,down
71885,6.15625,6.730469,3.480469,0.019531,0.25,-0.013672,0.380859,0.544495,0.163269,0.729248,down
71890,6.15625,6.730469,3.480469,0.019531,0.25,-0.013672,0.380493,0.543152,0.164124,0.730286,down
71895,6.117187,6.769531,3.519531,0.019531,0.25,-0.013672,0.38031,0.542664,0.16449,0.730591,down
71900,6.039062,6.726562,3.59375,0.019531,0.25,-0.013672,0.38031,0.542664,0.16449,0.730591,down
71905,6.039062,6.769531,3.632813,0.048828,0.283203,-0.0625,0.38031,0.542664,0.16449,0.730591,down
71910,6.0,6.726562,3.746094,0.048828,0.283203,-0.0625,0.380066,0.541748,0.165405,0.731201,down
71915,5.964844,6.765625,3.746094,0.046875,0.28125,-0.066406,0.379883,0.54071,0.166382,0.731873,down
71920,6.0,6.726562,3.785156,-0.005859,0.300781,-0.109375,0.379883,0.54071,0.166382,0.731873,down
71925,6.0,6.769531,3.863281,-0.005859,0.300781,-0.109375,0.379883,0.5401,0.166931,0.732178,down
71930,6.0,6.726562,3.863281,-0.111328,0.302734,-0.134766,0.380005,0.53949,0.167297,0.732483,down
71936,6.0,6.726562,3.902344,-0.111328,0.302734,-0.134766,0.380493,0.538086,0.167908,0.733154,down
71941,5.964844,6.726562,4.015625,-0.111328,0.302734,-0.134766,0.380859,0.537292,0.16803,0.733459,down
71948,5.925781,6.691406,4.015625,-0.111328,0.302734,-0.134766,0.381287,0.53656,0.168152,0.733765,down
71953,5.925781,6.6875,3.976563,-0.294922,0.287109,-0.167969,0.381836,0.535706,0.168152,0.734131,down
71958,5.964844,6.613281,4.054687,-0.330078,0.263672,-0.166016,0.381836,0.535706,0.168152,0.734131,down
71963,5.925781,6.648437,4.054687,-0.359375,0.251953,-0.169922,0.381836,0.535706,0.168152,0.734131,down
71968,6.0,6.648437,4.015625,-0.378906,0.230469,-0.162109,0.381836,0.535706,0.168152,0.734131,down
71973,6.039062,6.609375,4.015625,-0.402344,0.207031,-0.162109,0.381836,0.535706,0.168152,0.734131,down
71979,6.039062,6.648437,4.015625,-0.404297,0.175781,-0.158203,0.381836,0.535706,0.168152,0.734131,down
71984,6.117187,6.609375,4.054687,-0.404297,0.175781,-0.158203,0.381836,0.535706,0.168152,0.734131,down
71989,6.117187,6.609375,4.015625,-0.404297,0.175781,-0.158203,0.386597,0.529968,0.166504,0.736206,down
71995,6.15625,6.570312,3.976563,-0.367188,0.087891,-0.140625,0.386597,0.529968,0.166504,0.736206,down
72000,6.230469,6.613281,3.941406,-0.353516,0.0625,-0.136719,0.386597,0.529968,0.166504,0.736206,down
72005,6.269531,6.609375,3.941406,-0.353516,0.0625,-0.136719,0.38855,0.52832,0.165405,0.736572,down
72010,6.308594,6.574219,3.941406,-0.277344,0.001953,-0.101563,0.38855,0.52832,0.165405,0.736572,down
72015,6.347656,6.570312,3.824219,-0.277344,0.001953,-0.101563,0.389709,0.527588,0.164673,0.736694,down
72020,6.347656,6.570312,3.824219,-0.222656,-0.03125,-0.082031,0.390259,0.527283,0.164307,0.736694,down
72025,6.382812,6.535156,3.746094,-0.222656,-0.03125,-0.082031,0.390686,0.527039,0.164062,0.736694,down
72030,6.382812,6.535156,3.746094,-0.191406,-0.078125,-0.058594,0.390686,0.527039,0.164062,0.736694,down
72036,6.460937,6.496094,3.632813,-0.191406,-0.078125,-0.058594,0.391846,0.526733,0.163147,0.736511,down
72041,6.5,6.496094,3.632813,-0.175781,-0.115234,-0.039063,0.392151,0.526733,0.16272,0.736389,down
72046,6.503906,6.457031,3.671875,-0.146484,-0.134766,-0.029297,0.392456,0.526794,0.162415,0.736267,down
72052,6.464844,6.417969,3.441406,-0.146484,-0.134766,-0.029297,0.3927,0.526917,0.162109,0.736145,down
72057,6.503906,6.34375,3.441406,-0.146484,-0.134766,-0.029297,0.392944,0.5271,0.161804,0.735901,down
72062,6.5,6.34375,3.402344,-0.103516,-0.181641,-0.027344,0.392944,0.5271,0.161804,0.735901,down
72068,6.421875,6.304687,3.363281,-0.087891,-0.197266,-0.027344,0.392944,0.5271,0.161804,0.735901,down
72073,6.34375,6.226562,3.25,-0.087891,-0.197266,-0.027344,0.393677,0.527771,0.16095,0.735229,down
72078,6.34375,6.1875,3.363281,-0.078125,-0.220703,-0.033203,0.393677,0.527771,0.16095,0.735229,down
72083,6.269531,6.226562,3.328125,-0.078125,-0.240234,-0.042969,0.393677,0.527771,0.16095,0.735229,down
72088,6.226562,6.1875,3.328125,-0.089844,-0.255859,-0.046875,0.393677,0.527771,0.16095,0.735229,down
72094,6.15625,6.152344,3.363281,-0.089844,-0.255859,-0.046875,0.394653,0.529175,0.159729,0.733948,down
72099,6.078125,6.113281,3.363281,-0.082031,-0.275391,-0.078125,0.394653,0.529175,0.159729,0.733948,down
72104,6.078125,6.113281,3.402344,-0.076172,-0.292969,-0.087891,0.394653,0.529175,0.159729,0.733948,down
72110,6.039062,6.113281,3.402344,-0.054687,-0.300781,-0.123047,0.394653,0.529175,0.159729,0.733948,down
72115,6.0,6.070312,3.363281,-0.054687,-0.300781,-0.123047,0.396057,0.530884,0.158691,0.732239,down
72120,5.925781,6.035156,3.363281,-0.048828,-0.304688,-0.169922,0.396057,0.530884,0.158691,0.732239,down
72125,5.847656,5.996094,3.480469,-0.048828,-0.304688,-0.169922,0.396912,0.531799,0.158325,0.73114,down
72130,5.734375,6.453125,3.171875,-0.048828,-0.304688,-0.169922,0.3974,0.532166,0.158264,0.730652,down
72136,5.542969,6.652344,3.097656,-0.115234,-0.371094,-0.306641,0.3974,0.532166,0.158264,0.730652,down
72141,5.921875,5.921875,3.863281,-0.115234,-0.371094,-0.306641,0.399475,0.533508,0.15802,0.728577,down
72146,5.617187,5.996094,3.519531,-0.115234,-0.371094,-0.306641,0.400269,0.533691,0.157715,0.728088,down
72151,5.464844,6.03125,3.25,-0.21875,-0.292969,-0.275391,0.400269,0.533691,0.157715,0.728088,down
72156,5.542969,6.03125,3.363281,-0.21875,-0.292969,-0.275391,0.4021,0.534119,0.157104,0.726929,down
72161,5.582031,6.109375,3.785156,-0.21875,-0.292969,-0.275391,0.403076,0.534424,0.15686,0.726135,down
72166,5.542969,6.074219,3.710938,-0.085937,-0.287109,-0.363281,0.403076,0.534424,0.15686,0.726135,down
72171,5.542969,6.074219,3.59375,-0.009766,-0.283203,-0.384766,0.403992,0.53479,0.156799,0.725403,down
72176,5.503906,6.148437,3.746094,-0.009766,-0.283203,-0.384766,0.405579,0.535461,0.157227,0.723938,down
72182,5.425781,6.1875,3.863281,-0.009766,-0.283203,-0.384766,0.406372,0.535828,0.157532,0.723145,down
72187,5.386719,6.1875,3.824219,-0.011719,-0.277344,-0.423828,0.406372,0.535828,0.157532,0.723145,down
72193,5.386719,6.191406,3.785156,-0.021484,-0.298828,-0.433594,0.408081,0.536499,0.158142,0.721558,down
72198,5.386719,6.230469,3.902344,-0.021484,-0.298828,-0.433594,0.408081,0.536499,0.158142,0.721558,down
72203,5.351562,6.265625,3.902344,0.005859,-0.339844,-0.447266,0.408081,0.536499,0.158142,0.721558,down
72208,5.351562,6.265625,3.902344,0.023437,-0.333984,-0.457031,0.408081,0.536499,0.158142,0.721558,down
72213,5.351562,6.230469,3.863281,0.03125,-0.339844,-0.464844,0.408081,0.536499,0.158142,0.721558,down
72218,5.351562,6.265625,3.902344,0.03125,-0.339844,-0.464844,0.408081,0.536499,0.158142,0.721558,down
72224,5.351562,6.304687,3.863281,0.060547,-0.361328,-0.484375,0.408081,0.536499,0.158142,0.721558,down
72229,5.386719,6.375,3.863281,0.068359,-0.359375,-0.501953,0.408081,0.536499,0.158142,0.721558,down
72236,5.386719,6.414062,3.863281,0.078125,-0.359375,-0.527344,0.416321,0.54071,0.16156,0.712891,down
72241,5.425781,6.457031,3.902344,0.078125,-0.359375,-0.527344,0.416321,0.54071,0.16156,0.712891,down
72246,5.464844,6.492187,3.902344,0.074219,-0.380859,-0.568359,0.416321,0.54071,0.16156,0.712891,down
72251,5.464844,6.53125,3.902344,0.074219,-0.380859,-0.568359,0.419495,0.542297,0.163208,0.709473,down
72256,5.425781,6.570312,3.902344,0.074219,-0.380859,-0.568359,0.420532,0.542725,0.163635,0.708374,down
72261,5.464844,6.730469,3.902344,-0.027344,-0.421875,-0.603516,0.420532,0.542725,0.163635,0.708374,down
72266,5.464844,6.726562,3.941406,-0.027344,-0.421875,-0.603516,0.421875,0.543274,0.164062,0.707092,down
72271,5.542969,6.726562,3.941406,-0.089844,-0.474609,-0.591797,0.421875,0.543274,0.164062,0.707092,down
72276,5.542969,6.691406,3.863281,-0.099609,-0.496094,-0.587891,0.424316,0.544189,0.164612,0.704773,down
72281,5.582031,6.691406,3.863281,-0.099609,-0.496094,-0.587891,0.425842,0.5448,0.164795,0.703369,down
72286,5.65625,6.691406,3.824219,-0.115234,-0.546875,-0.580078,0.427185,0.545349,0.164856,0.702087,down
72291,5.734375,6.6875,3.785156,-0.115234,-0.546875,-0.580078,0.428528,0.545898,0.164917,0.700867,down
72296,5.773437,6.652344,3.710938,-0.107422,-0.560547,-0.603516,0.431213,0.547119,0.1651,0.698242,down
72301,5.808594,6.6875,3.632813,0.0,-0.570312,-0.625,0.431213,0.547119,0.1651,0.698242,down
72306,5.886719,6.800781,3.632813,0.042969,-0.578125,-0.638672,0.432617,0.547852,0.165283,0.696716,down
72311,5.925781,6.875,3.554688,0.042969,-0.578125,-0.638672,0.43512,0.549316,0.165955,0.693787,down
72316,5.886719,6.957031,3.480469,0.042969,-0.578125,-0.638672,0.43512,0.549316,0.165955,0.693787,down
72321,5.886719,6.996094,3.480469,0.033203,-0.583984,-0.650391,0.437744,0.550964,0.166687,0.690674,down
72326,5.808594,7.152344,3.363281,0.033203,-0.583984,-0.650391,0.439087,0.551697,0.166931,0.689209,down
72331,5.808594,7.222656,3.25,-0.039063,-0.626953,-0.646484,0.439087,0.551697,0.166931,0.689209,down
72336,5.925781,7.109375,3.136719,-0.039063,-0.626953,-0.646484,0.44043,0.55249,0.167114,0.687622,down
72341,5.886719,7.375,3.058594,-0.072266,-0.652344,-0.634766,0.44043,0.55249,0.167114,0.687622,down
72346,5.886719,7.414062,2.90625,-0.09375,-0.685547,-0.632812,0.44342,0.554077,0.167297,0.684387,down
72351,5.925781,7.335937,2.980469,-0.09375,-0.685547,-0.632812,0.444946,0.554871,0.167297,0.682739,down
72356,5.886719,7.457031,2.945313,-0.046875,-0.671875,-0.615234,0.446228,0.555603,0.167297,0.681335,down
72362,5.808594,7.457031,2.675781,-0.046875,-0.671875,-0.615234,0.449036,0.557312,0.167358,0.67804,down
72368,5.808594,7.640625,2.675781,-0.046875,-0.671875,-0.615234,0.450317,0.558167,0.167419,0.676453,down
72373,5.773437,7.71875,2.597656,-0.048828,-0.707031,-0.615234,0.451782,0.559082,0.167419,0.674744,down
72378,5.847656,7.601562,2.558594,-0.080078,-0.703125,-0.615234,0.451782,0.559082,0.167419,0.674744,down
72383,5.847656,7.601562,2.558594,-0.080078,-0.703125,-0.615234,0.454529,0.56073,0.167358,0.671509,down
72389,5.886719,7.800781,2.484375,-0.080078,-0.703125,-0.615234,0.454529,0.56073,0.167358,0.671509,down
72394,5.886719,7.800781,2.484375,-0.134766,-0.695312,-0.595703,0.457397,0.562317,0.167175,0.668335,down
72399,6.0,7.796875,2.484375,-0.134766,-0.695312,-0.595703,0.457397,0.562317,0.167175,0.668335,down
72404,6.0,7.875,2.445313,-0.158203,-0.705078,-0.585937,0.460388,0.563843,0.166748,0.6651,down
72409,6.0,7.875,2.445313,-0.158203,-0.705078,-0.585937,0.460388,0.563843,0.166748,0.6651,down
72414,6.039062,8.023438,2.332031,-0.136719,-0.652344,-0.560547,0.463196,0.565247,0.166382,0.661987,down
72419,5.964844,8.101563,2.292969,-0.152344,-0.619141,-0.548828,0.463196,0.565247,0.166382,0.661987,down
72424,5.964844,8.183594,2.292969,-0.175781,-0.599609,-0.529297,0.463196,0.565247,0.166382,0.661987,down
72429,5.964844,8.21875,2.253906,-0.197266,-0.568359,-0.519531,0.463196,0.565247,0.166382,0.661987,down
72434,5.925781,8.261719,2.214844,-0.197266,-0.548828,-0.511719,0.463196,0.565247,0.166382,0.661987,down
72440,5.847656,8.335938,2.253906,-0.197266,-0.548828,-0.511719,0.46991,0.567932,0.165405,0.655151,down
72445,5.886719,8.335938,2.292969,-0.177734,-0.488281,-0.484375,0.46991,0.567932,0.165405,0.655151,down
72450,5.964844,8.300781,2.292969,-0.154297,-0.460937,-0.472656,0.46991,0.567932,0.165405,0.655151,down
72456,5.886719,8.410156,2.332031,-0.150391,-0.431641,-0.462891,0.474609,0.569397,0.164978,0.650635,down
72461,5.925781,8.335938,2.367188,-0.150391,-0.431641,-0.462891,0.474609,0.569397,0.164978,0.650635,down
72466,6.039062,8.261719,2.445313,-0.195312,-0.332031,-0.439453,0.474609,0.569397,0.164978,0.650635,down
72471,6.0,8.257813,2.484375,-0.195312,-0.332031,-0.439453,0.476807,0.569824,0.164917,0.648682,down
72477,5.925781,8.257813,2.484375,-0.208984,-0.308594,-0.429687,0.479065,0.569946,0.164795,0.646912,down
72482,5.964844,8.296875,2.484375,-0.251953,-0.275391,-0.416016,0.480286,0.569946,0.164673,0.646057,down
72488,5.847656,8.222656,2.523438,-0.251953,-0.275391,-0.416016,0.481262,0.569885,0.164551,0.645386,down
72493,5.773437,8.21875,2.558594,-0.324219,-0.222656,-0.400391,0.482483,0.569702,0.164368,0.644714,down
72499,5.734375,8.222656,2.636719,-0.335938,-0.207031,-0.375,0.482483,0.569702,0.164368,0.644714,down
72504,5.695312,8.21875,2.714844,-0.339844,-0.1875,-0.359375,0.482483,0.569702,0.164368,0.644714,down
72510,5.695312,8.179688,2.828125,-0.339844,-0.1875,-0.359375,0.485901,0.56897,0.163696,0.642944,down
72516,5.65625,8.183594,2.828125,-0.326172,-0.167969,-0.316406,0.485901,0.56897,0.163696,0.642944,down
72522,5.542969,8.144531,2.945313,-0.318359,-0.15625,-0.302734,0.485901,0.56897,0.163696,0.642944,down
72528,5.542969,8.023438,3.058594,-0.318359,-0.15625,-0.302734,0.489807,0.567993,0.162781,0.641113,down
72533,5.542969,8.023438,3.058594,-0.267578,-0.15625,-0.267578,0.490662,0.567749,0.162598,0.640625,down
72538,5.503906,7.984375,3.136719,-0.267578,-0.15625,-0.267578,0.491516,0.567566,0.162415,0.640198,down
72544,5.503906,7.917969,3.136719,-0.267578,-0.15625,-0.267578,0.49231,0.567444,0.16217,0.639832,down
72549,5.503906,7.839844,3.136719,-0.296875,-0.183594,-0.224609,0.49231,0.567444,0.16217,0.639832,down
72554,5.503906,7.761719,3.136719,-0.318359,-0.197266,-0.216797,0.49231,0.567444,0.16217,0.639832,down
72559,5.503906,7.679687,3.171875,-0.322266,-0.220703,-0.195312,0.49231,0.567444,0.16217,0.639832,down
72564,5.503906,7.679687,3.136719,-0.316406,-0.234375,-0.175781,0.49231,0.567444,0.16217,0.639832,down
72569,5.542969,7.605469,3.097656,-0.294922,-0.259766,-0.158203,0.49231,0.567444,0.16217,0.639832,down
72575,5.503906,7.640625,3.097656,-0.285156,-0.269531,-0.154297,0.49231,0.567444,0.16217,0.639832,down
72581,5.082031,7.457031,2.945313,-0.285156,-0.269531,-0.154297,0.497925,0.566833,0.158936,0.63678,down
72587,5.160156,7.339844,2.753906,-0.242187,-0.289063,-0.119141,0.497925,0.566833,0.158936,0.63678,down
72592,5.582031,7.335937,2.867188,-0.220703,-0.341797,-0.101563,0.499756,0.567322,0.157288,0.635315,down
72597,5.695312,7.414062,2.789063,-0.220703,-0.341797,-0.101563,0.500244,0.567627,0.156738,0.634766,down
72602,5.886719,7.335937,2.789063,-0.117188,-0.283203,-0.082031,0.500244,0.567627,0.156738,0.634766,down
72607,5.847656,7.796875,2.714844,-0.117188,-0.283203,-0.082031,0.501038,0.568176,0.156006,0.63385,down
72612,5.847656,7.800781,2.558594,-0.189453,-0.316406,-0.097656,0.501038,0.568176,0.156006,0.63385,down
72617,6.0,7.300781,2.980469,-0.189453,-0.316406,-0.097656,0.502014,0.568604,0.15509,0.632935,down
72622,5.847656,7.21875,2.675781,-0.095703,-0.203125,-0.041016,0.50238,0.568787,0.154602,0.632568,down
72627,5.773437,7.296875,2.523438,-0.025391,-0.236328,-0.046875,0.50238,0.568787,0.154602,0.632568,down
72632,5.808594,7.417969,2.523438,-0.025391,-0.236328,-0.046875,0.502808,0.569397,0.154114,0.631836,down
72638,5.925781,7.417969,2.558594,-0.025391,-0.236328,-0.046875,0.503052,0.569763,0.15387,0.631348,down
72643,5.925781,7.417969,2.484375,-0.033203,-0.273438,-0.107422,0.503357,0.570129,0.153625,0.630859,down
72648,5.964844,7.414062,2.523438,-0.033203,-0.273438,-0.107422,0.503723,0.570496,0.153381,0.63031,down
72654,5.964844,7.5625,2.484375,-0.033203,-0.273438,-0.107422,0.504028,0.570801,0.153015,0.629822,down
72659,5.925781,7.601562,2.445313,-0.234375,-0.3125,-0.050781,0.504028,0.570801,0.153015,0.629822,down
72664,5.925781,7.605469,2.40625,-0.304688,-0.306641,-0.050781,0.504028,0.570801,0.153015,0.629822,down
72669,5.925781,7.683594,2.292969,-0.285156,-0.294922,-0.050781,0.504028,0.570801,0.153015,0.629822,down
72674,5.886719,7.722656,2.292969,-0.226562,-0.277344,-0.064453,0.506226,0.57135,0.15033,0.628235,down
72680,5.886719,7.761719,2.292969,-0.158203,-0.265625,-0.0625,0.506226,0.57135,0.15033,0.628235,down
72685,5.847656,7.800781,2.367188,-0.134766,-0.240234,-0.0625,0.506226,0.57135,0.15033,0.628235,down
72690,5.886719,7.761719,2.253906,-0.134766,-0.240234,-0.0625,0.507446,0.571899,0.149048,0.627136,down
72696,5.847656,7.761719,2.292969,-0.158203,-0.205078,-0.039063,0.507446,0.571899,0.149048,0.627136,down
72702,5.886719,7.71875,2.367188,-0.167969,-0.197266,-0.03125,0.507446,0.571899,0.149048,0.627136,down
72708,5.964844,7.640625,2.332031,-0.167969,-0.197266,-0.03125,0.508728,0.572266,0.147339,0.626099,down
72713,5.964844,7.640625,2.332031,-0.140625,-0.158203,0.003906,0.508972,0.572327,0.146912,0.625916,down
72718,5.925781,7.71875,2.332031,-0.136719,-0.150391,0.023437,0.509216,0.572388,0.146484,0.625732,down
72724,5.964844,7.722656,2.332031,-0.136719,-0.150391,0.023437,0.509399,0.572449,0.146118,0.625671,down
72730,5.925781,7.722656,2.367188,-0.142578,-0.123047,0.041016,0.509399,0.572449,0.146118,0.625671,down
72735,5.886719,7.722656,2.332031,-0.132812,-0.107422,0.048828,0.509399,0.572449,0.146118,0.625671,down
72740,5.847656,7.71875,2.40625,-0.095703,-0.089844,0.042969,0.509399,0.572449,0.146118,0.625671,down
72745,5.847656,7.71875,2.367188,-0.042969,-0.068359,0.042969,0.509399,0.572449,0.146118,0.625671,down
72751,5.847656,7.71875,2.40625,-0.005859,-0.041016,0.048828,0.509399,0.572449,0.146118,0.625671,down
72757,5.808594,7.71875,2.445313,0.017578,-0.019531,0.050781,0.509399,0.572449,0.146118,0.625671,down
72762,5.808594,7.71875,2.445313,0.017578,-0.019531,0.050781,0.50946,0.572876,0.144531,0.62561,down
72767,5.734375,7.679687,2.484375,0.017578,-0.019531,0.050781,0.50946,0.572876,0.144531,0.62561,down
72772,5.773437,7.679687,2.523438,-0.009766,0.011719,0.060547,0.50946,0.572876,0.144531,0.62561,down
72777,5.695312,7.683594,2.523438,-0.009766,0.011719,0.060547,0.509155,0.572876,0.144348,0.625854,down
72782,5.734375,7.640625,2.558594,-0.03125,-0.005859,0.068359,0.509155,0.572876,0.144348,0.625854,down
72787,5.734375,7.644531,2.597656,-0.03125,-0.005859,0.068359,0.509094,0.572876,0.144226,0.625977,down
72792,5.734375,7.5625,2.597656,-0.087891,-0.011719,0.089844,0.509094,0.572876,0.144226,0.625977,down
72797,5.695312,7.5625,2.558594,-0.087891,-0.011719,0.089844,0.508972,0.572754,0.143616,0.626343,down
72802,5.695312,7.492187,2.675781,-0.095703,-0.005859,0.083984,0.508972,0.572754,0.143616,0.626343,down
72807,5.734375,7.453125,2.714844,-0.095703,-0.005859,0.083984,0.508972,0.572693,0.143311,0.626465,down
72812,5.65625,7.414062,2.714844,-0.046875,0.005859,0.087891,0.508972,0.572693,0.143311,0.626465,down
72817,5.582031,7.375,2.675781,-0.046875,0.005859,0.087891,0.50885,0.572571,0.142944,0.62677,down
72822,5.582031,7.378906,2.753906,-0.023437,0.019531,0.068359,0.50885,0.572571,0.142944,0.62677,down
72828,5.582031,7.378906,2.753906,-0.023437,0.019531,0.068359,0.508545,0.572449,0.142578,0.627197,down
72833,5.582031,7.335937,2.789063,-0.023437,0.019531,0.068359,0.508423,0.572449,0.142517,0.627319,down
72839,5.542969,7.300781,2.867188,-0.023437,0.019531,0.068359,0.508301,0.572388,0.142517,0.627441,down
72846,5.617187,7.296875,2.867188,0.005859,0.046875,0.046875,0.508301,0.572388,0.142517,0.627441,down
72851,5.617187,7.222656,2.90625,-0.003906,0.042969,0.050781,0.508301,0.572388,0.142517,0.627441,down
72856,5.582031,7.179687,2.945313,-0.003906,0.042969,0.050781,0.508057,0.572266,0.142456,0.627808,down
72861,5.617187,7.183594,2.945313,-0.052734,0.037109,0.042969,0.508057,0.572266,0.142456,0.627808,down
72866,5.617187,7.109375,2.980469,-0.052734,0.037109,0.042969,0.507996,0.572021,0.142334,0.628052,down
72871,5.617187,7.109375,2.980469,-0.060547,0.039063,0.037109,0.507996,0.572021,0.142334,0.628052,down
72876,5.617187,7.152344,3.019531,-0.044922,0.023437,0.033203,0.507996,0.572021,0.142334,0.628052,down
72881,5.617187,7.148437,2.980469,-0.025391,0.015625,0.021484,0.507996,0.572021,0.142334,0.628052,down
72886,5.582031,7.222656,2.980469,-0.025391,0.015625,0.021484,0.507935,0.571716,0.142151,0.628418,down
72891,5.542969,7.261719,2.980469,-0.005859,-0.003906,0.017578,0.507935,0.571716,0.142151,0.628418,down
72897,5.542969,7.261719,2.980469,0.007813,-0.039063,0.0,0.507935,0.571716,0.142151,0.628418,down
72902,5.582031,7.300781,3.019531,0.007813,-0.039063,0.0,0.507874,0.571777,0.142151,0.628418,down
72908,5.582031,7.300781,3.019531,0.015625,-0.029297,-0.015625,0.507874,0.57196,0.142151,0.628296,down
72913,5.582031,7.300781,2.90625,0.015625,-0.042969,-0.017578,0.507874,0.572021,0.142212,0.628235,down
72919,5.617187,7.300781,2.980469,0.015625,-0.042969,-0.017578,0.507874,0.572083,0.142212,0.628113,down
72924,5.582031,7.300781,2.867188,0.015625,-0.042969,-0.017578,0.507935,0.572144,0.142151,0.628052,down
72929,5.617187,7.339844,2.867188,-0.054687,-0.056641,-0.025391,0.507935,0.572144,0.142151,0.628052,down
72935,5.617187,7.296875,2.867188,-0.074219,-0.056641,-0.03125,0.507935,0.572144,0.142151,0.628052,down
72940,5.582031,7.414062,2.828125,-0.083984,-0.056641,-0.029297,0.507935,0.572144,0.142151,0.628052,down
72945,5.582031,7.375,2.828125,-0.09375,-0.066406,-0.027344,0.507935,0.572144,0.142151,0.628052,down
72950,5.582031,7.375,2.828125,-0.09375,-0.058594,-0.029297,0.507935,0.572144,0.142151,0.628052,down
72956,5.617187,7.457031,2.789063,-0.078125,-0.068359,-0.033203,0.507935,0.572144,0.142151,0.628052,down
72961,5.582031,7.417969,2.714844,-0.078125,-0.068359,-0.033203,0.507935,0.572144,0.142151,0.628052,down
72966,5.617187,7.453125,2.714844,-0.078125,-0.068359,-0.033203,0.509277,0.572083,0.141113,0.627258,down
72971,5.582031,7.457031,2.753906,-0.050781,-0.056641,-0.046875,0.509277,0.572083,0.141113,0.627258,down
72977,5.582031,7.457031,2.753906,-0.052734,-0.056641,-0.035156,0.509277,0.572083,0.141113,0.627258,down
72982,5.617187,7.457031,2.789063,-0.052734,-0.056641,-0.035156,0.509705,0.572083,0.14093,0.626892,down
72987,5.582031,7.453125,2.789063,-0.080078,-0.054687,-0.033203,0.509705,0.572083,0.14093,0.626892,down
72992,5.617187,7.496094,2.828125,-0.080078,-0.054687,-0.033203,0.510071,0.572083,0.140686,0.626709,down
72998,5.617187,7.5625,2.753906,-0.080078,-0.054687,-0.033203,0.510376,0.572021,0.140442,0.626526,down
73003,5.65625,7.605469,2.789063,-0.109375,-0.068359,-0.027344,0.51062,0.572021,0.140259,0.626404,down
73008,5.695312,7.601562,2.789063,-0.113281,-0.072266,-0.017578,0.510864,0.57196,0.140015,0.626343,down
73013,5.695312,7.5625,2.828125,-0.117188,-0.070312,-0.025391,0.510864,0.57196,0.140015,0.626343,down
73018,5.773437,7.5625,2.753906,-0.117188,-0.070312,-0.025391,0.51123,0.571899,0.139648,0.62616,down
73023,5.773437,7.535156,2.789063,-0.080078,-0.058594,-0.025391,0.511414,0.571899,0.139465,0.626038,down
73028,5.773437,7.53125,2.753906,-0.080078,-0.058594,-0.025391,0.511536,0.571899,0.139343,0.625977,down
73033,5.773437,7.53125,2.714844,-0.080078,-0.058594,-0.025391,0.511597,0.57196,0.139282,0.625916,down
73038,5.773437,7.5625,2.714844,-0.019531,-0.044922,-0.011719,0.511597,0.57196,0.139282,0.625916,down
73043,5.734375,7.535156,2.675781,-0.019531,-0.044922,-0.011719,0.511719,0.572021,0.139221,0.625732,down
73048,5.695312,7.605469,2.636719,-0.019531,-0.044922,-0.011719,0.511719,0.572144,0.13916,0.625671,down
73053,5.695312,7.640625,2.597656,-0.019531,-0.044922,-0.011719,0.511719,0.572205,0.13916,0.62561,down
73058,5.65625,7.640625,2.558594,0.019531,-0.042969,-0.001953,0.511719,0.572205,0.13916,0.62561,down
73063,5.695312,7.683594,2.558594,0.019531,-0.042969,-0.001953,0.511719,0.572388,0.13916,0.625427,down
73069,5.617187,7.722656,2.558594,0.019531,-0.042969,-0.001953,0.511658,0.57251,0.13916,0.625366,down
73074,5.617187,7.71875,2.597656,0.023437,-0.042969,0.007813,0.511658,0.572571,0.13916,0.625305,down
73079,5.65625,7.679687,2.558594,0.003906,-0.042969,0.013672,0.511658,0.572571,0.13916,0.625305,down
73084,5.582031,7.683594,2.558594,-0.011719,-0.046875,0.009766,0.511658,0.572571,0.13916,0.625305,down
73090,5.617187,7.601562,2.597656,-0.011719,-0.046875,0.009766,0.511597,0.572815,0.138977,0.625183,down
73095,5.617187,7.566406,2.558594,-0.064453,-0.054687,0.013672,0.511658,0.572876,0.138855,0.625122,down
73100,5.617187,7.535156,2.558594,-0.066406,-0.048828,0.019531,0.511658,0.572876,0.138855,0.625122,down
73105,5.65625,7.453125,2.597656,-0.066406,-0.048828,0.019531,0.511658,0.572876,0.138855,0.625122,down
73110,5.65625,7.417969,2.558594,-0.072266,-0.037109,0.007813,0.511658,0.572876,0.138855,0.625122,down
73116,5.617187,7.378906,2.558594,-0.060547,-0.017578,0.007813,0.511658,0.572876,0.138855,0.625122,down
73121,5.617187,7.414062,2.597656,-0.048828,-0.013672,0.005859,0.511658,0.572876,0.138855,0.625122,down
73126,5.617187,7.375,2.597656,-0.048828,-0.013672,0.005859,0.511658,0.572876,0.138855,0.625122,down
73131,5.617187,7.335937,2.597656,-0.048828,-0.013672,0.005859,0.512085,0.572693,0.138,0.625061,down
73136,5.542969,7.378906,2.597656,-0.003906,0.019531,-0.009766,0.512085,0.572693,0.138,0.625061,down
73142,5.542969,7.417969,2.636719,-0.003906,0.019531,-0.009766,0.512085,0.572693,0.138,0.625061,down
73147,5.582031,7.375,2.675781,-0.003906,0.019531,-0.009766,0.512085,0.572632,0.138245,0.625061,down
73153,5.542969,7.414062,2.675781,0.005859,0.03125,-0.03125,0.512085,0.572632,0.138245,0.625061,down
73158,5.503906,7.417969,2.714844,0.005859,0.03125,-0.03125,0.512085,0.572571,0.13855,0.625061,down
73163,5.542969,7.457031,2.714844,0.0,0.015625,-0.03125,0.512085,0.572571,0.13855,0.625061,down
73168,5.464844,7.457031,2.753906,0.0,0.015625,-0.03125,0.512146,0.57251,0.138672,0.625061,down
73173,5.503906,7.457031,2.753906,-0.041016,0.009766,-0.042969,0.512146,0.57251,0.138672,0.625061,down
73178,5.503906,7.414062,2.828125,-0.041016,0.009766,-0.042969,0.51239,0.572327,0.138794,0.625,down
73183,5.464844,7.414062,2.828125,-0.060547,0.005859,-0.041016,0.51239,0.572327,0.138794,0.625,down
73188,5.542969,7.375,2.828125,-0.060547,0.005859,-0.041016,0.512512,0.572266,0.138855,0.624939,down
73193,5.503906,7.375,2.828125,-0.058594,0.001953,-0.035156,0.512512,0.572266,0.138855,0.624939,down
73198,5.542969,7.375,2.828125,-0.058594,0.001953,-0.035156,0.512939,0.572021,0.138794,0.624878,down
73203,5.542969,7.375,2.90625,-0.058594,-0.003906,-0.042969,0.512939,0.572021,0.138794,0.624878,down
73208,5.542969,7.335937,2.90625,-0.058594,-0.003906,-0.042969,0.513062,0.57196,0.138794,0.624817,down
73213,5.582031,7.375,2.867188,-0.050781,-0.003906,-0.044922,0.513062,0.57196,0.138794,0.624817,down
73218,5.503906,7.375,2.90625,-0.041016,0.0,-0.048828,0.513428,0.571716,0.138855,0.624695,down
73223,5.542969,7.375,2.90625,-0.013672,0.005859,-0.054687,0.513428,0.571716,0.138855,0.624695,down
73228,5.503906,7.453125,2.90625,-0.013672,0.005859,-0.054687,0.51355,0.571716,0.138916,0.624634,down
73233,5.425781,7.496094,2.828125,-0.013672,0.005859,-0.054687,0.513733,0.571594,0.13916,0.624451,down
73238,5.425781,7.496094,2.90625,-0.013672,0.005859,-0.054687,0.513733,0.571594,0.13916,0.624451,down
73243,5.464844,7.492187,3.019531,-0.023437,0.003906,-0.080078,0.513977,0.571533,0.139404,0.624329,down
73248,5.386719,7.53125,2.90625,-0.023437,0.003906,-0.080078,0.51416,0.571411,0.139465,0.624207,down
73253,5.351562,7.53125,2.90625,-0.066406,-0.009766,-0.085937,0.51416,0.571411,0.139465,0.624207,down
73258,5.425781,7.492187,2.980469,-0.066406,-0.009766,-0.085937,0.514343,0.571289,0.139526,0.624146,down
73263,5.386719,7.53125,3.019531,-0.087891,-0.017578,-0.072266,0.514832,0.571106,0.139465,0.623962,down
73269,5.425781,7.453125,2.980469,-0.087891,-0.017578,-0.072266,0.515076,0.571045,0.139404,0.62384,down
73274,5.425781,7.453125,2.980469,-0.136719,-0.052734,-0.0625,0.515381,0.570923,0.139221,0.623779,down
73279,5.425781,7.496094,3.019531,-0.136719,-0.058594,-0.054687,0.515686,0.570801,0.139038,0.623657,down
73285,5.464844,7.417969,2.945313,-0.136719,-0.058594,-0.054687,0.51593,0.57074,0.138855,0.623535,down
73290,5.464844,7.378906,2.945313,-0.099609,-0.080078,-0.054687,0.51593,0.57074,0.138855,0.623535,down
73295,5.464844,7.414062,2.90625,-0.068359,-0.074219,-0.056641,0.51593,0.57074,0.138855,0.623535,down
73301,5.503906,7.453125,2.828125,-0.042969,-0.076172,-0.058594,0.51593,0.57074,0.138855,0.623535,down
73307,5.503906,7.492187,2.90625,-0.042969,-0.076172,-0.058594,0.51593,0.57074,0.138855,0.623535,down
73313,5.542969,7.492187,2.828125,0.011719,-0.072266,-0.058594,0.51593,0.57074,0.138855,0.623535,down
73318,5.542969,7.492187,2.828125,0.03125,-0.074219,-0.0625,0.516907,0.571045,0.138489,0.622498,down
75668,4.585937,2.433594,8.109375,-0.339844,-0.007813,0.099609,0.285217,0.283813,0.063721,0.913269,down
75673,4.546875,2.359375,8.039063,-0.351563,0.050781,0.041016,0.285217,0.283813,0.063721,0.913269,down
75678,4.546875,2.320313,8.082031,-0.351563,0.050781,0.041016,0.285522,0.283142,0.062073,0.913513,down
75683,4.546875,2.320313,8.082031,-0.345703,0.068359,0.037109,0.285522,0.283142,0.062073,0.913513,down
75688,4.429687,2.28125,8.078125,-0.345703,0.068359,0.037109,0.285645,0.282715,0.061279,0.913635,down
75693,4.429687,2.207031,8.265625,-0.330078,0.097656,0.015625,0.286011,0.28186,0.059814,0.913879,down
75698,4.429687,2.207031,8.265625,-0.330078,0.097656,0.015625,0.286011,0.28186,0.059814,0.913879,down
75703,4.46875,2.242188,8.265625,-0.328125,0.095703,0.007813,0.286438,0.280884,0.058472,0.914124,down
75709,4.46875,2.242188,8.265625,-0.294922,0.15625,-0.03125,0.286682,0.280396,0.057861,0.914246,down
75714,4.46875,2.242188,8.265625,-0.292969,0.171875,-0.035156,0.28717,0.279236,0.056763,0.91449,down
75719,4.46875,2.167969,8.34375,-0.296875,0.197266,-0.035156,0.28717,0.279236,0.056763,0.91449,down
75724,4.46875,2.089844,8.382813,-0.296875,0.197266,-0.035156,0.287781,0.277893,0.055725,0.914795,down
75729,4.507812,2.050781,8.464844,-0.296875,0.197266,-0.035156,0.288086,0.2771,0.055176,0.914978,down
75734,4.546875,2.015625,8.425781,-0.296875,0.197266,-0.035156,0.288452,0.276367,0.054626,0.9151,down
75739,4.507812,1.976563,8.425781,-0.367188,0.257813,-0.076172,0.288879,0.275452,0.054016,0.915283,down
75745,4.46875,1.9375,8.308594,-0.367188,0.257813,-0.076172,0.289246,0.274597,0.053406,0.915466,down
75750,4.429687,2.015625,8.308594,-0.367188,0.257813,-0.076172,0.289673,0.273682,0.052795,0.915649,down
75756,4.394531,2.089844,8.34375,-0.367188,0.257813,-0.076172,0.289673,0.273682,0.052795,0.915649,down
75762,4.277344,2.089844,8.34375,-0.445312,0.335938,-0.068359,0.290527,0.271545,0.051453,0.916077,down
75767,4.316406,2.207031,8.574219,-0.445312,0.335938,-0.068359,0.290527,0.271545,0.051453,0.916077,down
75772,4.316406,2.28125,8.570313,-0.417969,0.355469,-0.056641,0.290527,0.271545,0.051453,0.916077,down
75778,4.316406,2.242188,8.5,-0.398438,0.382813,-0.056641,0.290527,0.271545,0.051453,0.916077,down
75783,4.355469,2.207031,8.53125,-0.410156,0.384766,-0.074219,0.290527,0.271545,0.051453,0.916077,down
75788,4.394531,2.207031,8.570313,-0.410156,0.384766,-0.074219,0.292603,0.265686,0.048157,0.917297,down
75793,4.316406,2.207031,8.574219,-0.484375,0.404297,-0.121094,0.293152,0.264343,0.047424,0.917542,down
75798,4.316406,2.242188,8.5,-0.484375,0.404297,-0.121094,0.29364,0.263123,0.046692,0.917786,down
75804,4.199219,2.089844,8.421875,-0.484375,0.404297,-0.121094,0.294922,0.260498,0.045166,0.918213,down
75809,4.085937,2.050781,8.386719,-0.576172,0.472656,-0.152344,0.295654,0.258911,0.04425,0.918457,down
75815,4.007812,2.089844,8.226563,-0.648437,0.523437,-0.138672,0.296326,0.257263,0.043335,0.918762,down
75820,3.894531,2.128906,8.113281,-0.648437,0.523437,-0.138672,0.296936,0.255615,0.042358,0.919067,down
75826,3.855469,2.167969,8.304688,-0.648437,0.523437,-0.138672,0.297607,0.25354,0.041199,0.919495,down
75832,3.855469,2.242188,8.425781,-0.816406,0.746094,-0.101563,0.297607,0.25354,0.041199,0.919495,down
75837,3.894531,2.359375,8.386719,-0.847656,0.814453,-0.111328,0.297607,0.25354,0.041199,0.919495,down
75842,3.816406,2.398438,8.460938,-0.857422,0.851562,-0.113281,0.297607,0.25354,0.041199,0.919495,down
75847,3.816406,2.433594,8.6875,-0.857422,0.851562,-0.113281,0.297607,0.25354,0.041199,0.919495,down
75852,3.703125,2.433594,8.691406,-0.886719,0.900391,-0.121094,0.297607,0.25354,0.041199,0.919495,down
75857,3.511719,2.664063,8.726563,-0.884766,0.894531,-0.117188,0.297607,0.25354,0.041199,0.919495,down
75862,3.433594,2.589844,8.84375,-0.882812,0.853516,-0.085937,0.297607,0.25354,0.041199,0.919495,down
75868,3.320313,2.472656,8.953125,-0.931641,0.810547,-0.041016,0.297607,0.25354,0.041199,0.919495,down
75873,3.050781,2.128906,8.726563,-0.945312,0.806641,0.03125,0.297607,0.25354,0.041199,0.919495,down
75878,3.050781,2.128906,8.726563,-1.101563,0.837891,0.169922,0.304199,0.227539,0.027649,0.924622,down
75883,2.9375,1.859375,8.570313,-1.101563,0.837891,0.169922,0.304382,0.224854,0.025757,0.925232,down
75889,2.898438,1.554688,8.847656,-1.228516,0.826172,0.251953,0.304382,0.224854,0.025757,0.925232,down
75894,2.9375,1.210938,9.03125,-1.228516,0.826172,0.251953,0.304688,0.216248,0.018982,0.927368,down
75899,3.050781,1.132813,9.113281,-1.228516,0.826172,0.251953,0.304688,0.213501,0.016724,0.92804,down
75904,3.167969,1.054688,9.1875,-1.228516,0.826172,0.251953,0.304688,0.213501,0.016724,0.92804,down
75909,3.011719,1.054688,8.882813,-1.0625,0.810547,0.292969,0.304688,0.213501,0.016724,0.92804,down
75914,2.976563,1.054688,8.808594,-1.0625,0.810547,0.292969,0.304138,0.205017,0.010925,0.930237,down
75919,2.820313,1.09375,8.914063,-1.0625,0.810547,0.292969,0.304138,0.205017,0.010925,0.930237,down
75924,2.820313,1.09375,8.914063,-0.691406,0.890625,0.341797,0.303284,0.200195,0.008911,0.93158,down
75929,2.707031,1.09375,9.074219,-0.691406,0.890625,0.341797,0.303284,0.200195,0.008911,0.93158,down
75934,2.554688,0.902344,9.269531,-0.691406,0.890625,0.341797,0.303284,0.200195,0.008911,0.93158,down
75939,2.515625,0.519531,10.035156,-0.080078,0.527344,0.285156,0.302063,0.195984,0.008179,0.932861,down
75945,2.515625,0.519531,10.035156,0.025391,0.363281,0.285156,0.300842,0.193359,0.008362,0.933838,down
75950,1.941406,0.558594,10.339844,0.025391,0.363281,0.285156,0.300171,0.192749,0.008545,0.934143,down
75955,1.863281,0.441406,10.339844,0.193359,-0.070312,0.308594,0.300171,0.192749,0.008545,0.934143,down
75961,1.863281,0.367188,10.21875,0.285156,-0.269531,0.328125,0.298584,0.193298,0.009094,0.93457,down
75967,1.789063,0.367188,10.101563,0.285156,-0.269531,0.328125,0.297607,0.194458,0.00946,0.934631,down
75972,1.824219,0.441406,9.953125,0.462891,-0.628906,0.337891,0.297607,0.194458,0.00946,0.934631,down
75977,1.789063,0.519531,9.914063,0.558594,-0.777344,0.351563,0.297607,0.194458,0.00946,0.934631,down
75982,1.863281,0.558594,9.800781,0.609375,-0.910156,0.357422,0.297607,0.194458,0.00946,0.934631,down
75989,1.863281,0.710937,9.574219,0.609375,-0.910156,0.357422,0.292358,0.206055,0.012146,0.933777,down
75994,1.824219,0.75,9.496094,0.609375,-0.910156,0.357422,0.292358,0.206055,0.012146,0.933777,down
75999,1.863281,0.671875,9.226563,0.84375,-1.375,0.376953,0.292358,0.206055,0.012146,0.933777,down
76004,1.902344,0.328125,8.992188,0.84375,-1.375,0.376953,0.288635,0.21698,0.014343,0.932434,down
76009,1.941406,0.136719,8.992188,0.84375,-1.375,0.376953,0.288635,0.21698,0.014343,0.932434,down
76014,1.980469,0.058594,8.882813,1.080078,-1.769531,0.337891,0.288635,0.21698,0.014343,0.932434,down
76019,2.054688,0.136719,8.730469,1.080078,-1.769531,0.337891,0.28479,0.23114,0.017334,0.930176,down
76024,2.09375,0.25,8.691406,1.080078,-1.769531,0.337891,0.283447,0.236511,0.018616,0.929199,down
76029,2.285156,0.25,8.574219,1.080078,-1.769531,0.337891,0.283447,0.236511,0.018616,0.929199,down
76034,2.324219,0.25,8.535156,1.443359,-2.335938,0.296875,0.283447,0.236511,0.018616,0.929199,down
76039,2.285156,0.175781,7.960937,1.443359,-2.335938,0.296875,0.28064,0.24884,0.021484,0.926758,down
76045,2.285156,-0.015625,7.695312,1.527344,-2.460938,0.279297,0.277771,0.262146,0.024719,0.923828,down
76050,2.285156,-0.054687,7.503906,1.667969,-2.691406,0.208984,0.276184,0.270325,0.026733,0.921936,down
76055,2.324219,0.097656,7.234375,1.667969,-2.691406,0.208984,0.27478,0.27771,0.028687,0.920044,down
76061,2.515625,0.058594,7.121094,1.667969,-2.691406,0.208984,0.27356,0.284485,0.030579,0.918335,down
76066,2.628906,-0.054687,6.964844,1.982422,-2.894531,0.121094,0.27356,0.284485,0.030579,0.918335,down
76071,2.707031,-0.09375,6.890625,2.0625,-2.902344,0.111328,0.27063,0.300476,0.035583,0.913879,down
76077,3.011719,0.023437,6.578125,2.0625,-2.902344,0.111328,0.268921,0.309265,0.038574,0.911316,down
76082,3.011719,0.023437,6.578125,2.0625,-2.902344,0.111328,0.268921,0.309265,0.038574,0.911316,down
76087,3.242188,-0.015625,6.699219,2.224609,-2.875,0.076172,0.265869,0.324585,0.044495,0.906616,down
76092,3.242188,-0.015625,6.699219,2.449219,-2.867188,0.019531,0.264221,0.33252,0.047913,0.904053,down
76097,4.125,0.097656,7.0,2.449219,-2.867188,0.019531,0.264221,0.33252,0.047913,0.904053,down
76103,4.125,-0.015625,6.855469,2.703125,-2.755859,-0.150391,0.264221,0.33252,0.047913,0.904053,down
76108,4.316406,0.75,7.199219,2.863281,-2.730469,-0.25,0.264221,0.33252,0.047913,0.904053,down
76114,4.277344,0.710937,6.964844,3.164063,-2.753906,-0.494141,0.264221,0.33252,0.047913,0.904053,down
76119,4.046875,0.328125,6.355469,3.164063,-2.753906,-0.494141,0.256409,0.372498,0.070862,0.889099,down
76124,3.78125,0.175781,5.894531,3.433594,-2.681641,-0.832031,0.256409,0.372498,0.070862,0.889099,down
76130,3.28125,1.324219,6.089844,3.433594,-2.681641,-0.832031,0.253357,0.396484,0.090393,0.877747,down
76135,2.976563,2.050781,6.160156,3.742188,-2.570313,-1.142578,0.252625,0.404968,0.098572,0.87323,down
76140,2.707031,2.625,6.507812,3.751953,-2.552734,-1.287109,0.252197,0.411621,0.105408,0.869385,down
76145,2.707031,2.625,6.507812,3.751953,-2.552734,-1.287109,0.252197,0.411621,0.105408,0.869385,down
76150,2.4375,3.8125,7.238281,3.654297,-2.564453,-1.367188,0.252197,0.411621,0.105408,0.869385,down
76155,2.4375,3.8125,7.238281,3.421875,-2.568359,-1.382813,0.252014,0.426514,0.120728,0.860229,down
76160,2.324219,4.425781,6.964844,3.421875,-2.568359,-1.382813,0.252319,0.433899,0.127747,0.855408,down
76165,2.363281,5.0,6.773437,2.697266,-2.703125,-1.417969,0.253052,0.440857,0.133667,0.850769,down
76170,2.246094,5.078125,6.429687,2.351563,-2.6875,-1.486328,0.256042,0.454163,0.143494,0.841187,down
76175,2.402344,5.0,6.273437,1.546875,-2.630859,-1.572266,0.258606,0.46106,0.147705,0.835876,down
76181,2.820313,4.425781,6.273437,1.546875,-2.630859,-1.572266,0.260925,0.46582,0.150208,0.832092,down
76186,3.359375,4.3125,5.734375,1.546875,-2.630859,-1.572266,0.264282,0.471313,0.152466,0.827515,down
76193,3.398438,4.273437,5.625,0.472656,-2.533203,-1.697266,0.264282,0.471313,0.152466,0.827515,down
76198,3.28125,4.234375,5.46875,0.267578,-2.5,-1.728516,0.264282,0.471313,0.152466,0.827515,down
76203,3.28125,4.234375,5.46875,0.220703,-2.425781,-1.794922,0.276428,0.485535,0.156128,0.814575,down
76208,3.320313,4.3125,5.085937,0.220703,-2.425781,-1.794922,0.276428,0.485535,0.156128,0.814575,down
76213,3.398438,4.464844,4.863281,0.207031,-2.363281,-1.855469,0.2854,0.493958,0.158142,0.805969,down
76218,3.398438,4.464844,4.863281,0.207031,-2.363281,-1.855469,0.2854,0.493958,0.158142,0.805969,down
76224,3.398438,4.738281,4.476562,0.189453,-2.248047,-2.009766,0.294739,0.501404,0.160645,0.797424,down
76229,3.359375,4.84375,4.324219,0.257813,-2.035156,-2.271484,0.294739,0.501404,0.160645,0.797424,down
76234,3.128906,4.882812,4.167969,0.257813,-2.035156,-2.271484,0.304688,0.508301,0.16394,0.788635,down
76239,2.820313,5.1875,4.246094,0.257813,-2.035156,-2.271484,0.310181,0.511719,0.165955,0.783813,down
76245,2.515625,5.304687,4.167969,0.111328,-1.966797,-2.542969,0.310181,0.511719,0.165955,0.783813,down
76250,2.4375,5.308594,4.207031,0.111328,-1.966797,-2.542969,0.326843,0.520264,0.171692,0.770081,down
76255,1.863281,5.34375,4.167969,0.111328,-1.966797,-2.542969,0.333374,0.52301,0.173584,0.764954,down
76260,1.863281,5.308594,4.246094,0.111328,-1.966797,-2.542969,0.339111,0.525208,0.175049,0.76062,down
76265,2.019531,5.265625,4.015625,-0.285156,-2.09375,-3.085938,0.346741,0.527832,0.176941,0.754883,down
76270,2.707031,5.265625,3.824219,-0.285156,-2.09375,-3.085938,0.346741,0.527832,0.176941,0.754883,down
76275,2.859375,5.386719,3.710938,-0.285156,-2.09375,-3.085938,0.361328,0.531799,0.180359,0.744324,down
76280,2.746094,5.609375,3.441406,-0.470703,-2.041016,-3.765625,0.370544,0.533691,0.182678,0.737915,down
76285,2.667969,5.964844,3.171875,-0.470703,-2.041016,-3.765625,0.370544,0.533691,0.182678,0.737915,down
76290,2.554688,6.1875,3.097656,-0.515625,-1.992188,-3.976563,0.37854,0.534973,0.184814,0.732361,down
76296,2.132813,6.691406,2.636719,-0.515625,-1.992188,-3.976563,0.387695,0.536072,0.187256,0.726135,down
76301,2.132813,6.691406,2.636719,-0.515625,-1.992188,-3.976563,0.387695,0.536072,0.187256,0.726135,down
76307,1.789063,8.339844,2.597656,-1.044922,-1.839844,-4.613281,0.418457,0.536682,0.194641,0.706421,down
76312,1.558594,8.367188,2.636719,-1.044922,-1.839844,-4.613281,0.429687,0.535889,0.196594,0.699707,down
76317,1.367188,8.449219,2.636719,-1.943359,-1.728516,-4.931641,0.429687,0.535889,0.196594,0.699707,down
76322,1.214844,8.296875,2.867188,-2.226563,-1.705078,-4.966797,0.429687,0.535889,0.196594,0.699707,down
76328,1.097656,7.917969,3.097656,-2.492188,-1.691406,-4.988281,0.429687,0.535889,0.196594,0.699707,down
76333,1.023438,7.222656,3.402344,-2.492188,-1.691406,-4.988281,0.429687,0.535889,0.196594,0.699707,down
76339,1.097656,6.835937,3.632813,-2.853516,-1.662109,-5.052734,0.429687,0.535889,0.196594,0.699707,down
76344,1.097656,6.835937,3.632813,-2.923828,-1.623047,-5.140625,0.505798,0.520569,0.199585,0.658325,down
76349,1.214844,6.148437,4.132812,-2.923828,-1.623047,-5.140625,0.505798,0.520569,0.199585,0.658325,down
76354,0.984375,5.960937,4.132812,-2.890625,-1.548828,-5.261719,0.505798,0.520569,0.199585,0.658325,down
76359,0.984375,5.960937,4.132812,-2.591797,-1.296875,-5.572266,0.505798,0.520569,0.199585,0.658325,down
76365,0.253906,6.035156,4.550781,-2.591797,-1.296875,-5.572266,0.544861,0.508484,0.200684,0.635864,down
76370,0.179687,6.265625,4.515625,-1.765625,-0.796875,-6.175781,0.569702,0.499756,0.204712,0.619446,down
76375,0.101563,6.6875,4.550781,-1.765625,-0.796875,-6.175781,0.595337,0.48999,0.212585,0.60022,down
76380,0.140625,7.300781,4.515625,-1.765625,-0.796875,-6.175781,0.606018,0.485535,0.217163,0.591431,down
76385,0.027344,7.953125,4.476562,-1.765625,-0.796875,-6.175781,0.606018,0.485535,0.217163,0.591431,down
76390,-0.164062,8.75,4.4375,-1.765625,-0.796875,-6.175781,0.606018,0.485535,0.217163,0.591431,down
76395,-0.472656,9.558594,4.359375,-1.144531,-0.208984,-6.720703,0.606018,0.485535,0.217163,0.591431,down
76401,-0.472656,9.558594,4.359375,-1.310547,-0.056641,-6.8125,0.640015,0.468933,0.235168,0.561401,down
76406,-2.003906,12.390625,4.4375,-1.310547,-0.056641,-6.8125,0.662476,0.456299,0.245239,0.541077,down
76411,-2.503906,11.863281,4.246094,-1.310547,-0.056641,-6.8125,0.674622,0.449097,0.248474,0.530518,down
76417,-2.65625,11.515625,4.589844,-1.310547,-0.056641,-6.8125,0.686768,0.441772,0.250061,0.520264,down
76422,-2.578125,11.132813,4.742187,-1.310547,-0.056641,-6.8125,0.686768,0.441772,0.250061,0.520264,down
76427,-2.578125,11.132813,4.742187,-3.558594,-1.964844,-6.232422,0.71228,0.426208,0.24939,0.498901,down
76432,-2.578125,11.132813,4.742187,-3.5625,-2.226563,-6.28125,0.724915,0.418579,0.247864,0.487732,down
76437,-2.886719,9.40625,5.511719,-3.5625,-2.226563,-6.28125,0.737854,0.41095,0.246033,0.475525,down
76442,-2.734375,9.828125,5.625,-3.5625,-2.226563,-6.28125,0.737854,0.41095,0.246033,0.475525,down
76448,-2.847656,9.488281,5.242187,-3.167969,-2.572266,-6.494141,0.762024,0.3974,0.242615,0.450073,down
76453,-2.925781,10.253906,5.089844,-1.919922,-2.402344,-6.792969,0.762024,0.3974,0.242615,0.450073,down
76459,-3.117188,11.550781,4.628906,-1.919922,-2.402344,-6.792969,0.762024,0.3974,0.242615,0.450073,down
76464,-3.117188,11.550781,4.628906,-0.876953,-2.054688,-6.966797,0.793579,0.38208,0.243164,0.406372,down
76469,-3.308594,12.203125,4.246094,-0.470703,-1.847656,-7.013672,0.793579,0.38208,0.243164,0.406372,down
76474,-3.308594,12.203125,4.246094,-0.244141,-1.613281,-7.003906,0.81073,0.374756,0.247864,0.375244,down
76479,-4.148437,13.15625,3.519531,-0.244141,-1.613281,-7.003906,0.81073,0.374756,0.247864,0.375244,down
76484,-4.148437,13.15625,3.519531,-0.050781,-1.111328,-6.882812,0.825378,0.367798,0.254944,0.344238,down
76490,-5.183594,14.082031,2.945313,-0.050781,-1.111328,-6.882812,0.838623,0.359375,0.26355,0.313232,down
76495,-5.605469,14.617188,3.097656,-0.050781,-1.111328,-6.882812,0.844116,0.354858,0.267334,0.300171,down
76500,-5.757812,14.617188,3.25,-0.949219,-0.441406,-6.466797,0.844116,0.354858,0.267334,0.300171,down
76505,-5.757812,14.617188,3.25,-0.949219,-0.441406,-6.466797,0.850281,0.348816,0.271667,0.285522,down
76510,-6.332031,15.34375,3.863281,-1.314453,-0.28125,-6.302734,0.855774,0.342468,0.27533,0.27301,down
76515,-6.332031,15.34375,3.863281,-1.644531,-0.238281,-6.085937,0.861389,0.335144,0.27887,0.26062,down
76521,-6.179687,15.957031,4.398437,-1.644531,-0.238281,-6.085937,0.866821,0.327209,0.282104,0.248962,down
76527,-6.5625,16.152344,5.089844,-2.095703,-0.214844,-5.5625,0.877136,0.310425,0.287476,0.227234,down
76532,-6.832031,14.730469,6.542969,-2.095703,-0.214844,-5.5625,0.881958,0.302063,0.289185,0.21759,down
76537,-6.792969,14.082031,7.042969,-2.300781,-0.625,-4.505859,0.881958,0.302063,0.289185,0.21759,down
76543,-6.792969,13.351563,7.347656,-2.208984,-0.783203,-4.164062,0.881958,0.302063,0.289185,0.21759,down
76549,-6.753906,12.46875,7.695312,-2.208984,-0.783203,-4.164062,0.881958,0.302063,0.289185,0.21759,down
76554,-6.792969,11.972656,7.769531,-1.634766,-1.037109,-3.533203,0.881958,0.302063,0.289185,0.21759,down
76560,-6.792969,11.546875,7.960937,-0.820312,-1.201172,-3.033203,0.881958,0.302063,0.289185,0.21759,down
76565,-6.714844,11.246094,7.960937,-0.820312,-1.201172,-3.033203,0.905212,0.262573,0.287903,0.169556,down
76570,-6.488281,11.28125,7.695312,-0.34375,-1.255859,-2.802734,0.907715,0.259583,0.286682,0.162659,down
76575,-6.488281,11.28125,7.695312,-0.34375,-1.255859,-2.802734,0.907715,0.259583,0.286682,0.162659,down
76580,-6.488281,11.363281,7.539062,0.333984,-1.291016,-2.316406,0.907715,0.259583,0.286682,0.162659,down
76585,-6.296875,11.441406,7.273437,0.574219,-1.283203,-2.066406,0.913147,0.256775,0.282654,0.142883,down
76591,-6.027344,11.546875,6.699219,0.574219,-1.283203,-2.066406,0.915344,0.258362,0.279541,0.131531,down
76596,-5.910156,11.515625,6.507812,0.912109,-1.125,-1.322266,0.916077,0.259644,0.277954,0.12677,down
76601,-5.683594,10.597656,6.507812,0.9375,-1.033203,-1.105469,0.916077,0.259644,0.277954,0.12677,down
76607,-5.414062,10.328125,6.316406,0.9375,-1.033203,-1.105469,0.916992,0.262695,0.275391,0.119507,down
76613,-5.261719,10.171875,6.390625,0.998047,-0.833984,-0.791016,0.916992,0.262695,0.275391,0.119507,down
76618,-5.03125,9.867188,6.429687,1.019531,-0.738281,-0.689453,0.916992,0.262695,0.275391,0.119507,down
76625,-4.953125,9.753906,6.351562,1.039063,-0.642578,-0.607422,0.916992,0.262695,0.275391,0.119507,down
76630,-4.800781,9.59375,6.316406,1.105469,-0.513672,-0.496094,0.916992,0.262695,0.275391,0.119507,down
76635,-4.6875,9.410156,6.316406,1.105469,-0.513672,-0.496094,0.917053,0.272949,0.270752,0.105896,down
76640,-4.570312,9.289063,6.277344,1.105469,-0.513672,-0.496094,0.916748,0.27533,0.270203,0.103638,down
76645,-4.457031,9.175781,6.277344,1.048828,-0.378906,-0.361328,0.916443,0.277466,0.269775,0.101685,down
76650,-4.378906,9.023438,6.277344,1.048828,-0.378906,-0.361328,0.916077,0.279907,0.269348,0.09967,down
76656,-4.113281,8.90625,6.277344,1.048828,-0.378906,-0.361328,0.915344,0.283997,0.268616,0.096436,down
76661,-3.996094,8.722656,6.238281,0.832031,-0.355469,-0.236328,0.915039,0.285889,0.268188,0.095032,down
76666,-4.035156,8.601563,6.316406,0.728516,-0.351563,-0.177734,0.914795,0.28772,0.267639,0.093689,down
76671,-3.882813,8.371094,6.199219,0.728516,-0.351563,-0.177734,0.914551,0.289246,0.26709,0.09259,down
76676,-3.84375,8.257813,6.199219,0.728516,-0.351563,-0.177734,0.914429,0.290405,0.266541,0.091797,down
76681,-3.765625,8.066406,6.199219,0.429687,-0.365234,-0.041016,0.914368,0.291565,0.265808,0.091064,down
76686,-3.765625,8.066406,6.199219,0.349609,-0.369141,-0.007813,0.914368,0.292419,0.265076,0.090515,down
76691,-3.613281,7.535156,6.199219,0.349609,-0.369141,-0.007813,0.914368,0.292419,0.265076,0.090515,down
76696,-3.613281,7.535156,6.199219,0.349609,-0.369141,-0.007813,0.914368,0.292419,0.265076,0.090515,down
76701,-3.613281,7.535156,6.199219,0.302734,-0.384766,0.029297,0.91449,0.294678,0.262451,0.089417,down
76706,-3.613281,7.535156,6.199219,0.302734,-0.384766,0.029297,0.91449,0.294678,0.262451,0.089417,down
76711,-3.535156,6.917969,6.316406,0.275391,-0.404297,0.111328,0.914612,0.296204,0.260498,0.088928,down
76716,-3.5,6.769531,6.390625,0.330078,-0.40625,0.134766,0.914612,0.29718,0.259399,0.088684,down
76722,-3.535156,6.609375,6.46875,0.330078,-0.40625,0.134766,0.914612,0.297974,0.258545,0.088501,down
76727,-3.460938,6.457031,6.390625,0.330078,-0.40625,0.134766,0.914551,0.299011,0.257568,0.088318,down
76733,-3.460938,6.492187,6.46875,0.410156,-0.400391,0.160156,0.914551,0.299011,0.257568,0.088318,down
76738,-3.421875,6.457031,6.46875,0.431641,-0.400391,0.171875,0.914551,0.299011,0.257568,0.088318,down
76743,-3.421875,6.417969,6.433594,0.427734,-0.380859,0.179687,0.914551,0.299011,0.257568,0.088318,down
76748,-3.382813,6.304687,6.433594,0.427734,-0.380859,0.179687,0.914246,0.303467,0.253784,0.087646,down
76754,-3.308594,6.304687,6.394531,0.361328,-0.333984,0.193359,0.914246,0.303467,0.253784,0.087646,down
76759,-3.34375,6.265625,6.3125,0.324219,-0.302734,0.195312,0.914246,0.303467,0.253784,0.087646,down
76765,-3.230469,6.265625,6.316406,0.302734,-0.259766,0.195312,0.913818,0.30719,0.250671,0.087708,down
76770,-3.230469,6.265625,6.273437,0.302734,-0.259766,0.195312,0.913818,0.30719,0.250671,0.087708,down
76776,-3.230469,6.304687,6.316406,0.244141,-0.134766,0.228516,0.913818,0.30719,0.250671,0.087708,down
76781,-3.230469,6.304687,6.316406,0.220703,-0.095703,0.25,0.913452,0.309326,0.249146,0.088379,down
76786,-3.191406,6.226562,6.3125,0.220703,-0.095703,0.25,0.913269,0.309998,0.24884,0.088806,down
76791,-3.269531,6.152344,6.355469,0.1875,-0.023437,0.3125,0.913269,0.309998,0.24884,0.088806,down
76796,-3.34375,6.035156,6.429687,0.185547,0.011719,0.330078,0.913086,0.310669,0.248535,0.089355,down
76801,-3.460938,5.921875,6.46875,0.185547,0.011719,0.330078,0.912659,0.311829,0.248108,0.090576,down
76807,-3.5,5.769531,6.511719,0.185547,0.011719,0.330078,0.912415,0.312561,0.247986,0.091309,down
76812,-3.535156,5.730469,6.542969,0.251953,0.056641,0.359375,0.912415,0.312561,0.247986,0.091309,down
76817,-3.535156,5.769531,6.472656,0.289063,0.076172,0.361328,0.911804,0.314087,0.247803,0.092712,down
76823,-3.613281,5.84375,6.472656,0.289063,0.076172,0.361328,0.911377,0.315002,0.247742,0.093445,down
76829,-3.652344,5.882812,6.472656,0.369141,0.087891,0.34375,0.911377,0.315002,0.247742,0.093445,down
76834,-3.652344,5.882812,6.472656,0.396484,0.091797,0.326172,0.911377,0.315002,0.247742,0.093445,down
76840,-3.652344,5.996094,6.472656,0.396484,0.091797,0.326172,0.911377,0.315002,0.247742,0.093445,down
76845,-3.691406,6.035156,6.433594,0.429687,0.080078,0.298828,0.911377,0.315002,0.247742,0.093445,down
76851,-3.691406,6.1875,6.394531,0.416016,0.076172,0.279297,0.911377,0.315002,0.247742,0.093445,down
76856,-3.691406,6.1875,6.46875,0.416016,0.076172,0.279297,0.908325,0.322632,0.247986,0.097046,down
76861,-3.691406,6.1875,6.433594,0.308594,0.054687,0.261719,0.908325,0.322632,0.247986,0.097046,down
76866,-3.726563,6.1875,6.355469,0.251953,0.064453,0.248047,0.907959,0.323425,0.247925,0.097412,down
76872,-3.691406,6.1875,6.394531,0.251953,0.064453,0.248047,0.907349,0.32489,0.247925,0.098389,down
76877,-3.613281,6.152344,6.472656,0.251953,0.064453,0.248047,0.907166,0.325378,0.247925,0.098816,down
76882,-3.613281,6.152344,6.472656,0.099609,0.0625,0.226562,0.906921,0.325745,0.247925,0.099365,down
76888,-3.574219,6.035156,6.394531,0.099609,0.0625,0.226562,0.906799,0.32605,0.247864,0.099792,down
76893,-3.613281,5.996094,6.390625,0.099609,0.0625,0.226562,0.906677,0.326294,0.247864,0.100342,down
76899,-3.535156,5.921875,6.433594,0.025391,0.066406,0.207031,0.906677,0.326294,0.247864,0.100342,down
76904,-3.613281,5.882812,6.429687,0.017578,0.076172,0.201172,0.906677,0.326294,0.247864,0.100342,down
76909,-3.613281,5.769531,6.390625,0.023437,0.074219,0.1875,0.906677,0.326294,0.247864,0.100342,down
76914,-3.726563,5.691406,6.46875,0.056641,0.072266,0.173828,0.906677,0.326294,0.247864,0.100342,down
76919,-3.691406,5.691406,6.472656,0.087891,0.070312,0.162109,0.906677,0.326294,0.247864,0.100342,down
76924,-3.691406,5.769531,6.542969,0.132812,0.0625,0.136719,0.906677,0.326294,0.247864,0.100342,down
76931,-3.691406,5.84375,6.46875,0.132812,0.0625,0.136719,0.905457,0.328552,0.248108,0.103394,down
76936,-3.726563,5.921875,6.507812,0.132812,0.0625,0.136719,0.905457,0.328552,0.248108,0.103394,down
76941,-3.691406,5.960937,6.433594,0.296875,0.029297,0.068359,0.905457,0.328552,0.248108,0.103394,down
76946,-3.726563,5.996094,6.429687,0.296875,0.029297,0.068359,0.904602,0.330566,0.248352,0.103516,down
76951,-3.765625,6.035156,6.433594,0.296875,0.029297,0.068359,0.904297,0.33136,0.248474,0.103455,down
76956,-3.691406,6.113281,6.46875,0.296875,0.029297,0.068359,0.904297,0.33136,0.248474,0.103455,down
76961,-3.765625,6.152344,6.433594,0.287109,0.009766,0.042969,0.904297,0.33136,0.248474,0.103455,down
76966,-3.726563,6.1875,6.355469,0.287109,0.009766,0.042969,0.903564,0.333374,0.248657,0.10321,down
76971,-3.726563,6.226562,6.390625,0.208984,0.007813,0.041016,0.903564,0.333374,0.248657,0.10321,down
76976,-3.765625,6.226562,6.394531,0.208984,0.007813,0.041016,0.90332,0.333984,0.248657,0.103149,down
76981,-3.804688,6.1875,6.351562,0.189453,-0.003906,0.037109,0.90332,0.333984,0.248657,0.103149,down
76986,-3.804688,6.1875,6.3125,0.166016,-0.003906,0.041016,0.902832,0.335205,0.248718,0.103027,down
76991,-3.804688,6.1875,6.351562,0.166016,-0.003906,0.041016,0.902832,0.335205,0.248718,0.103027,down
76996,-3.84375,6.226562,6.316406,0.177734,-0.015625,0.025391,0.902832,0.335205,0.248718,0.103027,down
77001,-3.804688,6.34375,6.277344,0.177734,-0.015625,0.025391,0.902405,0.336487,0.248657,0.102844,down
77006,-3.804688,6.417969,6.238281,0.177734,-0.015625,0.025391,0.902405,0.336487,0.248657,0.102844,down
77011,-3.84375,6.492187,6.238281,0.173828,-0.015625,0.044922,0.902405,0.336487,0.248657,0.102844,down
77017,-3.84375,6.457031,6.199219,0.173828,-0.015625,0.044922,0.901978,0.33783,0.248596,0.102722,down
77023,-3.882813,6.417969,6.199219,0.173828,-0.015625,0.044922,0.901794,0.338257,0.248535,0.102722,down
77028,-3.882813,6.378906,6.199219,0.173828,-0.017578,0.072266,0.901672,0.338684,0.248474,0.102783,down
77033,-3.882813,6.347656,6.277344,0.185547,-0.015625,0.074219,0.901672,0.338684,0.248474,0.102783,down
77038,-3.882813,6.34375,6.316406,0.185547,-0.015625,0.074219,0.901306,0.339661,0.248352,0.102844,down
77044,-3.882813,6.304687,6.351562,0.251953,-0.044922,0.083984,0.901123,0.340271,0.24823,0.102783,down
77050,-3.882813,6.34375,6.355469,0.277344,-0.044922,0.080078,0.901123,0.340271,0.24823,0.102783,down
77056,-3.882813,6.34375,6.316406,0.310547,-0.042969,0.083984,0.90033,0.342529,0.247986,0.102661,down
77061,-3.921875,6.34375,6.277344,0.310547,-0.042969,0.083984,0.90033,0.342529,0.247986,0.102661,down
77066,-3.921875,6.378906,6.238281,0.443359,-0.056641,0.103516,0.90033,0.342529,0.247986,0.102661,down
77072,-3.921875,6.496094,6.238281,0.443359,-0.056641,0.103516,0.899292,0.345642,0.247681,0.102417,down
77077,-3.921875,6.53125,6.199219,0.486328,-0.066406,0.123047,0.898804,0.346985,0.247559,0.102295,down
77083,-3.996094,6.53125,6.121094,0.486328,-0.066406,0.123047,0.898437,0.348083,0.247437,0.102234,down
