timestamp,ax,ay,az,gx,gy,gz,qw,qx,qy,qz,label
171345,7.148437,6.226562,1.488281,-0.005859,-0.109375,-0.193359,0.40979,0.645935,0.083069,0.638672,down
171350,7.109375,6.1875,1.488281,-0.005859,-0.109375,-0.193359,0.4104,0.646118,0.083618,0.638062,down
171356,7.109375,6.1875,1.335938,-0.005859,-0.109375,-0.193359,0.410645,0.646118,0.083862,0.637817,down
171361,7.109375,6.226562,1.410156,-0.025391,-0.140625,-0.148437,0.41095,0.64624,0.084045,0.637573,down
171366,7.230469,6.265625,1.449219,-0.025391,-0.154297,-0.138672,0.41095,0.64624,0.084045,0.637573,down
171371,7.308594,6.265625,1.488281,-0.013672,-0.169922,-0.126953,0.41095,0.64624,0.084045,0.637573,down
171376,7.347656,6.34375,1.488281,-0.013672,-0.169922,-0.126953,0.41095,0.64624,0.084045,0.637573,down
171381,7.304687,6.34375,1.488281,0.025391,-0.169922,-0.121094,0.41095,0.64624,0.084045,0.637573,down
171387,7.269531,6.34375,1.449219,0.039063,-0.158203,-0.128906,0.41095,0.64624,0.084045,0.637573,down
171392,7.191406,6.457031,1.410156,0.039063,-0.158203,-0.128906,0.41217,0.647461,0.084656,0.635376,down
171398,7.191406,6.535156,1.371094,0.091797,-0.150391,-0.113281,0.41217,0.647461,0.084656,0.635376,down
171403,7.226562,6.609375,1.410156,0.117188,-0.130859,-0.117188,0.41217,0.647461,0.084656,0.635376,down
171409,7.230469,6.6875,1.410156,0.109375,-0.111328,-0.121094,0.41217,0.647461,0.084656,0.635376,down
171414,7.230469,6.6875,1.371094,0.109375,-0.111328,-0.121094,0.412354,0.648499,0.085632,0.634094,down
171419,7.1875,6.6875,1.296875,0.048828,-0.078125,-0.115234,0.412354,0.648499,0.085632,0.634094,down
171425,7.191406,6.726562,1.410156,0.005859,-0.054687,-0.105469,0.412354,0.648499,0.085632,0.634094,down
171431,7.230469,6.6875,1.371094,0.005859,-0.054687,-0.105469,0.412964,0.648743,0.086243,0.633362,down
171436,7.230469,6.6875,1.335938,-0.107422,-0.037109,-0.080078,0.413208,0.648682,0.086243,0.63324,down
171441,7.269531,6.648437,1.371094,-0.15625,-0.033203,-0.072266,0.413574,0.64856,0.086182,0.633179,down
171446,7.269531,6.648437,1.371094,-0.15625,-0.033203,-0.072266,0.41394,0.648315,0.08606,0.633179,down
171451,7.304687,6.535156,1.371094,-0.15625,-0.033203,-0.072266,0.41394,0.648315,0.08606,0.633179,down
171456,7.304687,6.535156,1.335938,-0.195312,-0.023437,-0.066406,0.41394,0.648315,0.08606,0.633179,down
171461,7.191406,6.574219,1.296875,-0.197266,-0.011719,-0.070312,0.41394,0.648315,0.08606,0.633179,down
171466,7.347656,6.496094,1.335938,-0.197266,-0.011719,-0.070312,0.415588,0.647339,0.085449,0.633179,down
171472,7.347656,6.535156,1.371094,-0.197266,-0.011719,-0.070312,0.416016,0.647095,0.085327,0.633179,down
171478,7.304687,6.417969,1.335938,-0.148437,0.042969,-0.076172,0.416016,0.647095,0.085327,0.633179,down
171484,7.226562,6.417969,1.449219,-0.091797,0.074219,-0.078125,0.416016,0.647095,0.085327,0.633179,down
171490,7.152344,6.378906,1.449219,-0.068359,0.085937,-0.070312,0.416016,0.647095,0.085327,0.633179,down
171495,7.191406,6.34375,1.488281,-0.068359,0.085937,-0.070312,0.417114,0.645996,0.08551,0.633545,down
171500,7.113281,6.34375,1.449219,-0.013672,0.078125,-0.056641,0.417114,0.645996,0.08551,0.633545,down
171505,7.113281,6.265625,1.527344,0.029297,0.068359,-0.066406,0.417419,0.645508,0.085876,0.633789,down
171510,7.070312,6.265625,1.527344,0.029297,0.068359,-0.066406,0.417542,0.645203,0.086426,0.633972,down
171515,7.070312,6.34375,1.679688,0.029297,0.068359,-0.066406,0.417542,0.645203,0.086426,0.633972,down
171520,7.304687,6.378906,1.71875,0.029297,0.068359,-0.066406,0.41748,0.64502,0.087036,0.634094,down
171525,7.304687,6.457031,1.792969,0.029297,0.068359,-0.066406,0.41748,0.64502,0.087036,0.634094,down
171530,7.265625,6.457031,1.871094,0.154297,0.123047,-0.097656,0.41748,0.64502,0.087036,0.634094,down
171535,7.34375,6.535156,1.949219,0.154297,0.123047,-0.097656,0.417175,0.644714,0.088562,0.634338,down
171540,7.1875,6.496094,2.023438,0.154297,0.123047,-0.097656,0.417053,0.644592,0.089233,0.63446,down
171545,7.148437,6.574219,1.984375,0.154297,0.123047,-0.097656,0.417053,0.644592,0.089233,0.63446,down
171550,7.269531,6.535156,1.949219,0.242187,0.273438,-0.162109,0.417053,0.644592,0.089233,0.63446,down
171555,6.996094,6.417969,1.679688,0.242187,0.273438,-0.162109,0.416443,0.643921,0.092041,0.635193,down
171560,7.226562,6.304687,1.601563,0.167969,0.402344,-0.1875,0.416443,0.643921,0.092041,0.635193,down
171565,6.996094,6.304687,1.527344,0.167969,0.402344,-0.1875,0.416321,0.643433,0.093079,0.63562,down
171570,6.996094,6.226562,1.679688,0.136719,0.402344,-0.195312,0.416321,0.643433,0.093079,0.63562,down
171576,6.808594,6.152344,1.640625,0.136719,0.402344,-0.195312,0.416443,0.641663,0.096008,0.636902,down
171581,6.808594,6.152344,1.640625,0.041016,0.474609,-0.240234,0.416565,0.640869,0.096985,0.637451,down
171586,6.6875,6.035156,1.566406,0.001953,0.480469,-0.248047,0.41687,0.639954,0.098083,0.638062,down
171592,6.421875,6.035156,1.371094,0.001953,0.480469,-0.248047,0.417114,0.63916,0.098877,0.63855,down
171598,6.34375,6.074219,1.257813,-0.068359,0.451172,-0.222656,0.417114,0.63916,0.098877,0.63855,down
171603,6.304687,5.996094,1.144531,-0.099609,0.427734,-0.220703,0.417114,0.63916,0.098877,0.63855,down
171608,6.160156,5.960937,0.988281,-0.150391,0.388672,-0.197266,0.417114,0.63916,0.098877,0.63855,down
171614,6.039062,6.074219,0.988281,-0.208984,0.330078,-0.162109,0.417114,0.63916,0.098877,0.63855,down
171619,5.886719,6.148437,1.105469,-0.226562,0.208984,-0.125,0.417114,0.63916,0.098877,0.63855,down
171625,6.0,6.414062,1.601563,-0.224609,0.070312,-0.107422,0.417114,0.63916,0.098877,0.63855,down
171630,6.039062,6.453125,1.871094,-0.111328,-0.175781,-0.097656,0.420227,0.634216,0.10144,0.640991,down
171635,6.117187,6.457031,1.949219,-0.111328,-0.175781,-0.097656,0.421021,0.634399,0.101135,0.640381,down
171640,6.191406,6.492187,1.949219,-0.111328,-0.175781,-0.097656,0.421021,0.634399,0.101135,0.640381,down
171645,6.34375,6.34375,1.949219,0.011719,-0.359375,-0.095703,0.421448,0.635437,0.100769,0.63916,down
171650,6.421875,6.34375,2.0625,0.011719,-0.359375,-0.095703,0.421448,0.635437,0.100769,0.63916,down
171655,6.539062,6.378906,2.175781,0.154297,-0.630859,-0.068359,0.421448,0.635437,0.100769,0.63916,down
171660,6.691406,6.378906,2.292969,0.154297,-0.630859,-0.068359,0.42157,0.638428,0.100037,0.636108,down
171665,6.847656,6.378906,2.332031,0.205078,-0.677734,-0.074219,0.42157,0.638428,0.100037,0.636108,down
171670,7.226562,6.417969,2.367188,0.205078,-0.677734,-0.074219,0.42157,0.639648,0.099792,0.634949,down
171675,7.304687,6.417969,2.292969,0.083984,-0.617187,-0.091797,0.421509,0.640991,0.099548,0.633667,down
171680,7.347656,6.417969,2.214844,0.083984,-0.617187,-0.091797,0.421631,0.64209,0.099243,0.632568,down
171686,7.34375,6.457031,2.175781,0.083984,-0.617187,-0.091797,0.42218,0.64386,0.098328,0.630493,down
171691,7.34375,6.496094,2.140625,-0.111328,-0.513672,-0.101563,0.422607,0.644592,0.097839,0.629578,down
171696,7.375,6.496094,2.101563,-0.111328,-0.513672,-0.101563,0.423035,0.645081,0.097412,0.628784,down
171701,7.226562,6.535156,2.023438,-0.111328,-0.513672,-0.101563,0.423035,0.645081,0.097412,0.628784,down
171706,7.226562,6.535156,2.023438,-0.113281,-0.449219,-0.134766,0.423523,0.64563,0.096924,0.627991,down
171711,7.113281,6.496094,1.984375,-0.113281,-0.449219,-0.134766,0.424011,0.646179,0.096619,0.627136,down
171717,7.113281,6.496094,1.984375,0.023437,-0.421875,-0.166016,0.424805,0.647339,0.096191,0.625488,down
171722,7.035156,6.609375,1.757813,0.023437,-0.421875,-0.166016,0.425049,0.648071,0.096069,0.624573,down
171728,7.113281,6.609375,1.71875,0.119141,-0.445312,-0.158203,0.425049,0.648071,0.096069,0.624573,down
171733,7.074219,6.6875,1.71875,0.146484,-0.449219,-0.138672,0.425049,0.648071,0.096069,0.624573,down
171738,7.070312,6.800781,1.601563,0.146484,-0.449219,-0.138672,0.425476,0.65033,0.096069,0.621948,down
171744,7.074219,6.800781,1.566406,0.15625,-0.478516,-0.109375,0.425476,0.65033,0.096069,0.621948,down
171750,7.109375,6.800781,1.566406,0.095703,-0.480469,-0.083984,0.425476,0.65033,0.096069,0.621948,down
171755,7.230469,6.6875,1.488281,0.054687,-0.472656,-0.078125,0.425598,0.652832,0.095825,0.619263,down
171760,7.269531,6.648437,1.410156,0.013672,-0.449219,-0.068359,0.42572,0.653625,0.095642,0.618408,down
171765,7.378906,6.609375,1.410156,-0.021484,-0.423828,-0.072266,0.425903,0.654297,0.095337,0.617554,down
171770,7.496094,6.648437,1.335938,-0.021484,-0.423828,-0.072266,0.426147,0.654968,0.095032,0.61676,down
171775,7.53125,6.609375,1.296875,-0.021484,-0.423828,-0.072266,0.426392,0.655518,0.094666,0.616028,down
171780,7.53125,6.726562,1.335938,-0.076172,-0.361328,-0.044922,0.426392,0.655518,0.094666,0.616028,down
171786,7.574219,6.726562,1.410156,-0.044922,-0.294922,-0.0625,0.426392,0.655518,0.094666,0.616028,down
171791,7.574219,6.726562,1.410156,-0.019531,-0.236328,-0.089844,0.42749,0.657166,0.093384,0.61377,down
171796,7.574219,6.800781,1.179688,-0.019531,-0.236328,-0.089844,0.427673,0.65741,0.093323,0.613342,down
171801,7.570312,6.878906,1.179688,0.017578,-0.177734,-0.121094,0.427917,0.657654,0.093323,0.612915,down
171806,7.496094,7.03125,1.257813,0.017578,-0.177734,-0.121094,0.428162,0.657898,0.093506,0.612427,down
171812,7.417969,7.109375,1.335938,0.017578,-0.177734,-0.121094,0.428345,0.658142,0.093689,0.612061,down
171817,7.414062,7.148437,1.296875,0.076172,-0.117188,-0.175781,0.428345,0.658142,0.093689,0.612061,down
171823,7.378906,7.109375,1.335938,0.099609,-0.099609,-0.195312,0.428345,0.658142,0.093689,0.612061,down
171828,7.265625,7.222656,1.257813,0.099609,-0.099609,-0.195312,0.428894,0.658691,0.094666,0.610901,down
171833,7.226562,7.378906,1.179688,0.083984,-0.074219,-0.21875,0.428894,0.658691,0.094666,0.610901,down
171838,7.152344,7.375,1.027344,0.035156,-0.052734,-0.224609,0.428894,0.658691,0.094666,0.610901,down
171843,7.074219,7.261719,0.914062,-0.029297,-0.035156,-0.232422,0.428894,0.658691,0.094666,0.610901,down
171850,6.996094,7.257812,0.875,-0.087891,-0.048828,-0.207031,0.428894,0.658691,0.094666,0.610901,down
171855,6.921875,7.378906,0.875,-0.132812,-0.103516,-0.185547,0.428894,0.658691,0.094666,0.610901,down
171860,6.960937,7.453125,0.914062,-0.154297,-0.240234,-0.171875,0.428894,0.658691,0.094666,0.610901,down
171865,7.074219,7.492187,1.105469,-0.154297,-0.240234,-0.171875,0.431885,0.658875,0.096008,0.608398,down
171870,7.035156,7.492187,1.144531,-0.154297,-0.240234,-0.171875,0.432434,0.659058,0.095825,0.607849,down
171876,7.035156,7.535156,1.066406,-0.091797,-0.308594,-0.169922,0.432434,0.659058,0.095825,0.607849,down
171881,6.996094,7.605469,1.105469,-0.091797,-0.308594,-0.169922,0.43396,0.659912,0.095215,0.605896,down
171887,7.035156,7.601562,1.144531,-0.091797,-0.308594,-0.169922,0.434387,0.660278,0.095093,0.605286,down
171892,6.996094,7.5625,1.21875,-0.001953,-0.291016,-0.177734,0.434387,0.660278,0.095093,0.605286,down
171898,6.996094,7.535156,1.179688,0.007813,-0.255859,-0.173828,0.434387,0.660278,0.095093,0.605286,down
171903,6.804687,7.457031,0.988281,0.007813,-0.255859,-0.173828,0.435425,0.661255,0.095154,0.603394,down
171909,6.769531,7.375,0.875,-0.033203,-0.146484,-0.166016,0.435425,0.661255,0.095154,0.603394,down
171915,6.804687,7.300781,0.761719,-0.080078,-0.142578,-0.162109,0.435425,0.661255,0.095154,0.603394,down
171920,6.84375,7.296875,0.761719,-0.105469,-0.160156,-0.140625,0.435425,0.661255,0.095154,0.603394,down
171925,6.882812,7.261719,0.761719,-0.140625,-0.175781,-0.123047,0.435425,0.661255,0.095154,0.603394,down
171931,6.960937,7.300781,0.835937,-0.171875,-0.173828,-0.09375,0.435425,0.661255,0.095154,0.603394,down
171936,7.035156,7.261719,0.796875,-0.171875,-0.173828,-0.09375,0.438416,0.661865,0.094299,0.600647,down
171941,7.035156,7.222656,0.796875,-0.166016,-0.119141,-0.064453,0.438416,0.661865,0.094299,0.600647,down
171946,6.996094,7.179687,0.761719,-0.166016,-0.119141,-0.064453,0.438904,0.661865,0.093994,0.600403,down
171951,6.921875,7.109375,0.722656,-0.150391,-0.111328,-0.044922,0.438904,0.661865,0.093994,0.600403,down
171957,6.960937,7.03125,0.683594,-0.150391,-0.111328,-0.044922,0.43988,0.661804,0.093262,0.599854,down
171962,6.960937,7.03125,0.683594,-0.072266,-0.107422,-0.001953,0.440125,0.661865,0.093018,0.59967,down
171967,6.960937,6.957031,0.761719,-0.072266,-0.107422,-0.001953,0.440247,0.661926,0.092834,0.599487,down
171974,6.996094,6.917969,0.761719,-0.072266,-0.107422,-0.001953,0.440369,0.662048,0.09259,0.599304,down
171980,7.070312,6.839844,0.761719,-0.066406,-0.130859,0.025391,0.440369,0.662048,0.09259,0.599304,down
171986,7.109375,6.800781,0.796875,-0.105469,-0.091797,0.021484,0.440369,0.662048,0.09259,0.599304,down
171991,7.152344,6.726562,0.722656,-0.105469,-0.091797,0.021484,0.440918,0.662292,0.091431,0.598816,down
171996,7.113281,6.6875,0.761719,-0.105469,-0.091797,0.021484,0.440918,0.662292,0.091431,0.598816,down
172001,7.148437,6.6875,0.683594,-0.201172,-0.082031,0.021484,0.440918,0.662292,0.091431,0.598816,down
172006,7.070312,6.648437,0.644531,-0.201172,-0.082031,0.021484,0.441467,0.66217,0.090759,0.598633,down
172012,7.070312,6.648437,0.644531,-0.255859,-0.091797,0.011719,0.442261,0.661865,0.089844,0.598572,down
172017,7.070312,6.609375,0.644531,-0.271484,-0.107422,0.007813,0.442749,0.661682,0.089294,0.59845,down
172022,7.074219,6.609375,0.796875,-0.271484,-0.107422,0.007813,0.443176,0.66156,0.088867,0.598328,down
172028,7.03125,6.535156,0.835937,-0.271484,-0.107422,0.007813,0.443726,0.661377,0.088318,0.598206,down
172033,6.992187,6.496094,0.835937,-0.251953,-0.119141,-0.033203,0.443726,0.661377,0.088318,0.598206,down
172039,7.035156,6.457031,0.796875,-0.222656,-0.111328,-0.044922,0.443726,0.661377,0.088318,0.598206,down
172044,7.070312,6.378906,0.796875,-0.228516,-0.121094,-0.046875,0.445251,0.661011,0.087097,0.597656,down
172050,7.113281,6.417969,0.796875,-0.228516,-0.121094,-0.046875,0.445251,0.661011,0.087097,0.597656,down
172056,7.152344,6.417969,0.796875,-0.164062,-0.082031,-0.046875,0.445251,0.661011,0.087097,0.597656,down
172061,7.113281,6.378906,0.761719,-0.164062,-0.082031,-0.046875,0.446899,0.660645,0.085999,0.597046,down
172066,7.113281,6.378906,0.796875,-0.164062,-0.082031,-0.046875,0.447205,0.660522,0.085815,0.596985,down
172071,7.109375,6.417969,0.683594,-0.164062,-0.082031,-0.046875,0.447205,0.660522,0.085815,0.596985,down
172076,7.148437,6.457031,0.683594,-0.123047,0.009766,-0.054687,0.447205,0.660522,0.085815,0.596985,down
172081,7.074219,6.496094,0.683594,-0.123047,0.009766,-0.054687,0.44812,0.659973,0.085632,0.596924,down
172086,7.03125,6.535156,0.644531,-0.123047,0.009766,-0.054687,0.44812,0.659973,0.085632,0.596924,down
172091,6.921875,6.574219,0.605469,-0.109375,0.0625,-0.058594,0.448608,0.659485,0.085693,0.597046,down
172096,6.84375,6.609375,0.53125,-0.109375,0.0625,-0.058594,0.448608,0.659485,0.085693,0.597046,down
172101,6.804687,6.648437,0.570312,-0.050781,0.058594,-0.0625,0.448853,0.659302,0.085754,0.597107,down
172106,6.730469,6.6875,0.53125,-0.050781,0.058594,-0.0625,0.449158,0.658936,0.085999,0.597168,down
172111,6.726562,6.726562,0.570312,-0.050781,0.058594,-0.0625,0.449158,0.658936,0.085999,0.597168,down
172116,6.691406,6.878906,0.644531,-0.044922,0.023437,-0.066406,0.449158,0.658936,0.085999,0.597168,down
172121,6.691406,6.917969,0.683594,-0.056641,-0.009766,-0.076172,0.449524,0.658691,0.086182,0.597168,down
172126,6.691406,6.917969,0.683594,-0.056641,-0.009766,-0.076172,0.449951,0.658569,0.086243,0.596985,down
172131,6.574219,7.035156,0.644531,-0.056641,-0.009766,-0.076172,0.449951,0.658569,0.086243,0.596985,down
172136,6.574219,7.074219,0.722656,-0.095703,-0.041016,-0.09375,0.450256,0.658447,0.086304,0.596863,down
172141,6.5,7.148437,0.683594,-0.095703,-0.041016,-0.09375,0.450562,0.658386,0.086304,0.596741,down
172146,6.539062,7.074219,0.683594,-0.113281,-0.037109,-0.113281,0.451233,0.658142,0.086243,0.596436,down
172151,6.539062,7.109375,0.644531,-0.113281,-0.037109,-0.113281,0.451233,0.658142,0.086243,0.596436,down
172156,6.5,7.109375,0.644531,-0.193359,-0.058594,-0.130859,0.451721,0.65802,0.086182,0.596313,down
172161,6.574219,7.152344,0.644531,-0.193359,-0.058594,-0.130859,0.452209,0.657837,0.086121,0.596069,down
172167,6.574219,7.152344,0.644531,-0.207031,-0.0625,-0.126953,0.452209,0.657837,0.086121,0.596069,down
172173,6.613281,7.148437,0.644531,-0.207031,-0.0625,-0.126953,0.453857,0.657288,0.085632,0.59552,down
172178,6.574219,7.152344,0.644531,-0.251953,-0.035156,-0.126953,0.454468,0.657043,0.085388,0.595398,down
172184,6.613281,7.152344,0.605469,-0.238281,-0.027344,-0.121094,0.454468,0.657043,0.085388,0.595398,down
172189,6.691406,7.113281,0.644531,-0.25,-0.005859,-0.132812,0.455688,0.656494,0.085083,0.595093,down
172195,6.652344,7.070312,0.605469,-0.248047,0.013672,-0.132812,0.455688,0.656494,0.085083,0.595093,down
172200,6.652344,7.070312,0.605469,-0.248047,0.039063,-0.134766,0.455688,0.656494,0.085083,0.595093,down
172206,6.652344,7.070312,0.605469,-0.244141,0.060547,-0.138672,0.455688,0.656494,0.085083,0.595093,down
172211,6.652344,7.03125,0.644531,-0.244141,0.060547,-0.138672,0.45813,0.654968,0.084717,0.59491,down
172216,6.691406,7.070312,0.683594,-0.164062,0.074219,-0.130859,0.45813,0.654968,0.084717,0.59491,down
172221,6.730469,7.109375,0.761719,-0.164062,0.074219,-0.130859,0.459167,0.654236,0.084778,0.594971,down
172227,6.769531,7.109375,0.835937,-0.164062,0.074219,-0.130859,0.459961,0.653564,0.085022,0.594971,down
172232,6.691406,7.113281,0.835937,-0.095703,0.09375,-0.115234,0.460327,0.653259,0.085144,0.595032,down
172237,6.730469,7.070312,0.875,-0.078125,0.103516,-0.115234,0.460693,0.653015,0.085327,0.595093,down
172242,6.730469,7.035156,0.914062,-0.056641,0.099609,-0.117188,0.460693,0.653015,0.085327,0.595093,down
172247,6.730469,7.035156,0.875,-0.056641,0.099609,-0.117188,0.461182,0.652527,0.085815,0.595154,down
172252,6.804687,6.996094,0.914062,-0.03125,0.099609,-0.126953,0.461182,0.652527,0.085815,0.595154,down
172257,6.804687,6.957031,0.875,-0.03125,0.099609,-0.126953,0.461609,0.6521,0.086365,0.595215,down
172262,6.882812,6.914062,0.914062,-0.03125,0.099609,-0.126953,0.461853,0.651855,0.086609,0.595215,down
172267,6.921875,6.917969,0.835937,-0.03125,0.099609,-0.126953,0.462097,0.65155,0.086975,0.595276,down
172272,6.964844,6.917969,0.835937,-0.052734,0.169922,-0.167969,0.462402,0.651184,0.087341,0.595398,down
172277,7.074219,6.917969,0.914062,-0.052734,0.169922,-0.167969,0.462708,0.650818,0.087769,0.595459,down
172282,7.109375,6.878906,0.875,-0.052734,0.169922,-0.167969,0.463074,0.650452,0.088196,0.595581,down
172287,7.148437,6.917969,0.835937,-0.052734,0.169922,-0.167969,0.463074,0.650452,0.088196,0.595581,down
172292,7.230469,6.917969,0.875,-0.060547,0.257813,-0.226562,0.463867,0.649414,0.089417,0.595886,down
172297,7.347656,6.957031,0.914062,-0.060547,0.257813,-0.226562,0.464294,0.648926,0.090088,0.596069,down
172302,7.417969,6.992187,0.953125,-0.060547,0.257813,-0.226562,0.464661,0.648315,0.09082,0.596252,down
172307,7.453125,6.957031,0.988281,-0.019531,0.423828,-0.324219,0.464661,0.648315,0.09082,0.596252,down
172312,7.457031,7.03125,0.988281,-0.015625,0.482422,-0.339844,0.465149,0.647583,0.091858,0.596558,down
172318,7.496094,7.109375,0.953125,-0.015625,0.482422,-0.339844,0.466003,0.645996,0.093872,0.597229,down
172323,7.496094,7.109375,0.953125,-0.017578,0.576172,-0.369141,0.466492,0.645081,0.095093,0.597717,down
172328,7.457031,7.148437,1.027344,-0.017578,0.609375,-0.382813,0.467041,0.643921,0.096558,0.598267,down
172333,7.453125,7.183594,1.105469,-0.017578,0.609375,-0.382813,0.467468,0.643005,0.097656,0.598694,down
172338,7.453125,7.183594,1.105469,-0.054687,0.708984,-0.410156,0.467468,0.643005,0.097656,0.598694,down
172343,7.414062,7.148437,1.105469,-0.0625,0.757812,-0.425781,0.468567,0.640564,0.100464,0.600037,down
172349,7.417969,7.070312,1.105469,-0.083984,0.798828,-0.431641,0.468567,0.640564,0.100464,0.600037,down
172354,7.375,7.03125,1.105469,-0.083984,0.798828,-0.431641,0.469788,0.637756,0.103455,0.601562,down
172360,7.308594,7.070312,1.066406,-0.130859,0.851562,-0.441406,0.469788,0.637756,0.103455,0.601562,down
172365,7.269531,7.109375,0.988281,-0.152344,0.873047,-0.4375,0.469788,0.637756,0.103455,0.601562,down
172371,7.1875,7.148437,0.988281,-0.166016,0.869141,-0.416016,0.472534,0.63147,0.109253,0.605042,down
172376,7.265625,7.222656,1.027344,-0.166016,0.869141,-0.416016,0.472534,0.63147,0.109253,0.605042,down
172381,7.226562,7.339844,1.105469,-0.212891,0.802734,-0.369141,0.472534,0.63147,0.109253,0.605042,down
172386,7.226562,7.339844,1.105469,-0.214844,0.78125,-0.349609,0.473877,0.628296,0.111694,0.60675,down
172391,7.265625,7.566406,1.21875,-0.214844,0.78125,-0.349609,0.473877,0.628296,0.111694,0.60675,down
172396,7.378906,7.796875,1.179688,-0.210937,0.773437,-0.339844,0.475159,0.625244,0.113953,0.608521,down
172401,7.457031,7.796875,1.179688,-0.158203,0.785156,-0.330078,0.475769,0.623779,0.115112,0.609375,down
172406,7.609375,7.875,1.105469,-0.158203,0.785156,-0.330078,0.476257,0.622314,0.116394,0.610229,down
172411,7.570312,7.984375,1.179688,-0.158203,0.785156,-0.330078,0.476746,0.620911,0.117615,0.611023,down
172417,7.648437,8.066406,1.179688,0.058594,0.701172,-0.292969,0.476746,0.620911,0.117615,0.611023,down
172422,7.6875,8.144531,1.296875,0.058594,0.701172,-0.292969,0.477478,0.617371,0.121826,0.61322,down
172428,7.957031,8.527344,1.296875,0.058594,0.701172,-0.292969,0.477417,0.616455,0.123291,0.613892,down
172433,7.957031,8.753906,1.179688,0.259766,0.818359,-0.251953,0.477417,0.616455,0.123291,0.613892,down
172438,7.957031,9.027344,1.105469,0.292969,0.853516,-0.226562,0.476929,0.61438,0.12677,0.615662,down
172443,7.957031,9.210938,1.027344,0.314453,0.878906,-0.195312,0.476929,0.61438,0.12677,0.615662,down
172448,8.03125,9.449219,0.875,0.314453,0.878906,-0.195312,0.476929,0.61438,0.12677,0.615662,down
172453,8.03125,9.449219,0.875,0.316406,0.939453,-0.167969,0.476929,0.61438,0.12677,0.615662,down
172459,7.917969,9.636719,0.761719,0.308594,1.0,-0.140625,0.474976,0.609863,0.134338,0.619995,down
172464,7.496094,9.828125,0.492187,0.308594,1.0,-0.140625,0.474487,0.608765,0.135986,0.621155,down
172470,7.535156,9.828125,0.453125,0.234375,1.103516,-0.072266,0.474487,0.608765,0.135986,0.621155,down
172475,7.535156,9.789063,0.453125,0.162109,1.099609,-0.021484,0.474487,0.608765,0.135986,0.621155,down
172481,7.609375,9.941406,0.953125,-0.048828,1.091797,0.119141,0.474487,0.608765,0.135986,0.621155,down
172486,7.609375,9.980469,1.21875,-0.048828,1.091797,0.119141,0.472229,0.602661,0.14209,0.62738,down
172491,7.570312,10.019531,1.601563,-0.048828,1.091797,0.119141,0.471741,0.600769,0.143005,0.629333,down
172497,7.800781,9.941406,2.214844,-0.25,1.265625,0.255859,0.471741,0.600769,0.143005,0.629333,down
172502,7.878906,9.792969,2.367188,-0.308594,1.570313,0.357422,0.470825,0.596436,0.14447,0.633789,down
172507,7.878906,9.714844,2.40625,-0.308594,1.570313,0.357422,0.469482,0.591003,0.146118,0.639465,down
172512,7.992187,9.632813,2.40625,-0.308594,1.570313,0.357422,0.469482,0.591003,0.146118,0.639465,down
172517,8.03125,9.527344,2.484375,-0.308594,1.570313,0.357422,0.46759,0.584595,0.148254,0.646301,down
172522,7.957031,9.445313,2.523438,-0.308594,1.570313,0.357422,0.46759,0.584595,0.148254,0.646301,down
172527,7.878906,9.527344,2.558594,-0.207031,2.001953,0.490234,0.46759,0.584595,0.148254,0.646301,down
172532,7.6875,9.792969,2.789063,-0.207031,2.001953,0.490234,0.465454,0.578369,0.150513,0.652832,down
172537,7.535156,9.871094,2.867188,-0.035156,2.169922,0.482422,0.46405,0.57489,0.151978,0.656555,down
172542,7.417969,9.980469,2.867188,-0.035156,2.169922,0.482422,0.462524,0.571289,0.153687,0.6604,down
172547,7.417969,9.980469,2.867188,0.046875,2.216797,0.474609,0.460999,0.568176,0.155396,0.663696,down
172552,7.226562,10.132813,2.945313,0.121094,2.248047,0.478516,0.460999,0.568176,0.155396,0.663696,down
172557,7.226562,10.132813,2.945313,0.167969,2.259766,0.490234,0.457397,0.56134,0.159546,0.671021,down
172562,6.921875,10.09375,3.710938,0.238281,2.248047,0.552734,0.457397,0.56134,0.159546,0.671021,down
172567,6.84375,10.292969,3.746094,0.238281,2.248047,0.552734,0.453308,0.554749,0.163818,0.678162,down
172573,6.84375,10.292969,3.746094,0.222656,2.25,0.644531,0.44873,0.548096,0.168091,0.685547,down
172578,6.84375,10.25,3.824219,0.121094,2.212891,0.712891,0.446289,0.544556,0.170105,0.689453,down
172583,6.804687,10.171875,3.824219,0.121094,2.212891,0.712891,0.441895,0.537842,0.172607,0.696899,down
172598,6.691406,9.871094,4.015625,-0.435547,2.064453,0.933594,0.437622,0.530334,0.173706,0.705017,down
172604,6.574219,9.710938,3.902344,-0.435547,2.064453,0.933594,0.435974,0.5271,0.173828,0.708435,down
172609,6.421875,9.449219,3.785156,-0.435547,2.064453,0.933594,0.434082,0.523254,0.173767,0.712463,down
172614,6.382812,9.214844,3.785156,-0.599609,1.923828,1.001953,0.434082,0.523254,0.173767,0.712463,down
172619,6.308594,9.027344,3.710938,-0.621094,1.851563,1.025391,0.43042,0.516052,0.173157,0.720032,down
172624,6.269531,8.945313,3.710938,-0.621094,1.851563,1.025391,0.43042,0.516052,0.173157,0.720032,down
172629,6.15625,8.910156,3.632813,-0.613281,1.777344,1.056641,0.426636,0.509277,0.172058,0.727356,down
172634,6.15625,8.910156,3.632813,-0.613281,1.777344,1.056641,0.426636,0.509277,0.172058,0.727356,down
172640,5.886719,8.753906,3.671875,-0.564453,1.652344,1.082031,0.422729,0.502991,0.170715,0.734253,down
172645,5.886719,8.367188,3.785156,-0.537109,1.576172,1.107422,0.420715,0.5,0.169983,0.73761,down
172651,5.734375,8.183594,3.863281,-0.537109,1.576172,1.107422,0.41864,0.496948,0.169312,0.741028,down
172656,5.617187,8.101563,3.785156,-0.496094,1.640625,1.123047,0.41864,0.496948,0.169312,0.741028,down
172662,5.464844,7.722656,3.480469,-0.5625,1.705078,1.132813,0.41864,0.496948,0.169312,0.741028,down
172667,5.425781,7.457031,3.328125,-0.5625,1.705078,1.132813,0.412292,0.48761,0.167358,0.75116,down
172672,5.425781,7.222656,3.328125,-0.648437,1.634766,1.181641,0.410034,0.484131,0.166565,0.754822,down
172677,5.273437,7.035156,3.402344,-0.648437,1.634766,1.181641,0.407959,0.480835,0.165649,0.75824,down
172682,5.234375,6.953125,3.441406,-0.648437,1.634766,1.181641,0.405823,0.477722,0.164612,0.761536,down
172687,5.195312,6.878906,3.480469,-0.580078,1.568359,1.193359,0.403625,0.474609,0.163635,0.764893,down
172692,5.273437,6.652344,3.632813,-0.580078,1.568359,1.193359,0.40155,0.471863,0.162781,0.767883,down
172698,5.3125,6.535156,3.671875,-0.513672,1.589844,1.203125,0.40155,0.471863,0.162781,0.767883,down
172703,5.3125,6.457031,3.671875,-0.509766,1.609375,1.214844,0.396729,0.465515,0.16095,0.774597,down
172709,5.160156,6.375,3.710938,-0.509766,1.609375,1.214844,0.392212,0.459595,0.159363,0.780762,down
172715,5.003906,6.265625,3.746094,-0.509766,1.609375,1.214844,0.389832,0.456421,0.15863,0.783936,down
172720,4.890625,6.191406,3.824219,-0.5,1.673828,1.195313,0.389832,0.456421,0.15863,0.783936,down
172726,4.777344,6.070312,3.824219,-0.519531,1.707031,1.191406,0.389832,0.456421,0.15863,0.783936,down
172731,4.507812,5.886719,3.902344,-0.566406,1.746094,1.177734,0.389832,0.456421,0.15863,0.783936,down
172737,4.355469,5.808594,3.976563,-0.681641,1.779297,1.136719,0.389832,0.456421,0.15863,0.783936,down
172742,4.277344,5.730469,4.09375,-0.681641,1.779297,1.136719,0.377991,0.439209,0.154724,0.800171,down
172747,4.277344,5.730469,4.09375,-0.740234,1.759766,1.121094,0.375793,0.435425,0.153748,0.803467,down
172752,4.238281,5.464844,4.4375,-0.802734,1.738281,1.107422,0.373779,0.431702,0.152649,0.806641,down
172757,4.238281,5.464844,4.4375,-0.873047,1.734375,1.085938,0.371826,0.427917,0.151367,0.809753,down
172763,4.238281,5.347656,4.707031,-0.929687,1.75,1.070313,0.371826,0.427917,0.151367,0.809753,down
172768,4.238281,5.347656,4.707031,-0.980469,1.75,1.058594,0.368164,0.419922,0.14856,0.816101,down
172773,4.164062,5.039062,4.859375,-0.980469,1.75,1.058594,0.364746,0.411804,0.145325,0.822388,down
172778,4.007812,4.960937,4.898437,-0.980469,1.75,1.058594,0.363098,0.407837,0.143555,0.825378,down
172783,3.816406,4.886719,4.96875,-1.072266,1.568359,1.074219,0.361389,0.403931,0.141663,0.828369,down
172788,3.664063,4.886719,5.011719,-1.072266,1.568359,1.074219,0.35968,0.400208,0.139771,0.831238,down
172793,3.550781,4.847656,5.046875,-1.072266,1.568359,1.074219,0.357971,0.396667,0.137756,0.833984,down
172798,3.433594,4.808594,5.125,-1.105469,1.361328,1.119141,0.357971,0.396667,0.137756,0.833984,down
172803,3.398438,4.773437,5.125,-1.105469,1.361328,1.119141,0.354553,0.389709,0.133301,0.839417,down
172809,3.28125,4.65625,5.164062,-1.105469,1.361328,1.119141,0.352905,0.386475,0.130981,0.84198,down
172814,3.320313,4.617187,5.207031,-1.179688,1.169922,1.128906,0.352905,0.386475,0.130981,0.84198,down
172819,3.433594,4.464844,5.355469,-1.179688,1.099609,1.121094,0.34967,0.38031,0.125916,0.846924,down
172825,3.703125,4.195312,5.628906,-1.179688,1.099609,1.121094,0.348083,0.377502,0.123291,0.849182,down
172831,3.703125,4.160156,5.667969,-1.175781,0.996094,1.105469,0.348083,0.377502,0.123291,0.849182,down
172836,3.703125,4.160156,5.589844,-1.181641,0.998047,1.099609,0.348083,0.377502,0.123291,0.849182,down
172842,3.703125,3.96875,5.546875,-1.207031,0.982422,1.083984,0.348083,0.377502,0.123291,0.849182,down
172847,3.703125,3.96875,5.546875,-1.207031,0.982422,1.083984,0.342041,0.366333,0.112427,0.858032,down
172852,3.703125,3.96875,5.546875,-1.380859,0.914062,1.117188,0.340698,0.363525,0.109375,0.860107,down
172857,3.816406,3.738281,5.894531,-1.380859,0.914062,1.117188,0.339355,0.360718,0.106201,0.862244,down
172862,3.742188,3.777344,5.972656,-1.380859,0.914062,1.117188,0.339355,0.360718,0.106201,0.862244,down
172867,3.742188,3.621094,6.089844,-1.458984,0.939453,1.072266,0.336792,0.354797,0.099487,0.866516,down
172873,3.816406,3.546875,6.273437,-1.53125,0.876953,1.068359,0.336792,0.354797,0.099487,0.866516,down
172878,3.816406,3.585938,6.433594,-1.53125,0.876953,1.068359,0.333252,0.34613,0.08905,0.872498,down
172883,3.816406,3.660156,6.542969,-1.53125,0.876953,1.068359,0.333252,0.34613,0.08905,0.872498,down
172888,3.816406,3.738281,6.582031,-1.595703,0.908203,1.029297,0.333252,0.34613,0.08905,0.872498,down
172893,3.78125,3.699219,6.777344,-1.65625,0.962891,1.023438,0.330933,0.339966,0.081665,0.876526,down
172899,3.78125,3.316406,6.777344,-1.65625,0.962891,1.023438,0.328979,0.33374,0.074585,0.880249,down
172904,3.78125,3.316406,6.777344,-1.869141,1.066406,0.978516,0.328064,0.330139,0.070557,0.882263,down
172910,3.703125,3.125,6.816406,-1.869141,1.066406,0.978516,0.328064,0.330139,0.070557,0.882263,down
172916,3.511719,2.78125,6.8125,-1.869141,1.066406,0.978516,0.326782,0.322632,0.062134,0.886108,down
172921,3.398438,2.589844,6.777344,-2.294922,1.099609,0.939453,0.326782,0.322632,0.062134,0.886108,down
172927,3.320313,2.433594,6.894531,-2.445313,1.099609,0.9375,0.326782,0.322632,0.062134,0.886108,down
172932,3.320313,2.242188,7.082031,-2.582031,1.082031,0.949219,0.3255,0.305664,0.041016,0.89386,down
172937,3.28125,1.976563,7.195312,-2.582031,1.082031,0.949219,0.3255,0.305664,0.041016,0.89386,down
172943,3.242188,1.859375,7.234375,-2.712891,1.037109,0.974609,0.3255,0.305664,0.041016,0.89386,down
172948,3.242188,1.859375,7.234375,-2.722656,1.0,0.994141,0.325012,0.296997,0.029358,0.8974,down
172953,3.207031,1.820313,7.617187,-2.722656,1.0,0.994141,0.325012,0.296997,0.029358,0.8974,down
172958,3.207031,1.476563,7.769531,-2.701172,0.945312,1.021484,0.325012,0.296997,0.029358,0.8974,down
172963,3.207031,1.476563,7.769531,-2.701172,0.945312,1.021484,0.325012,0.296997,0.029358,0.8974,down
172968,3.167969,0.902344,7.808594,-2.511719,0.878906,1.115234,0.322205,0.276428,-0.000244,0.905396,down
172973,3.050781,0.828125,7.730469,-2.511719,0.878906,1.115234,0.322205,0.276428,-0.000244,0.905396,down
172978,2.515625,0.558594,7.964844,-2.365234,0.814453,1.224609,0.322205,0.276428,-0.000244,0.905396,down
172983,2.59375,0.367188,7.808594,-2.365234,0.814453,1.224609,0.318909,0.264954,-0.016907,0.909851,down
172988,2.707031,-0.515625,7.238281,-2.365234,0.814453,1.224609,0.318909,0.264954,-0.016907,0.909851,down
172993,2.554688,-0.398438,6.960937,-2.269531,1.097656,1.308594,0.317749,0.260925,-0.022217,0.911316,down
172999,2.363281,-0.015625,6.964844,-2.269531,1.097656,1.308594,0.314758,0.252075,-0.032898,0.91449,down
173004,2.171875,0.097656,7.460937,-2.001953,0.939453,1.416016,0.31311,0.248474,-0.037292,0.915894,down
173010,2.019531,0.25,8.230469,-2.001953,0.939453,1.416016,0.311035,0.24469,-0.04187,0.917419,down
173015,1.75,0.441406,8.1875,-1.613281,0.900391,1.519531,0.311035,0.24469,-0.04187,0.917419,down
173020,1.710938,0.671875,8.039063,-1.533203,0.8125,1.589844,0.311035,0.24469,-0.04187,0.917419,down
173026,1.632813,0.671875,7.921875,-1.533203,0.8125,1.589844,0.303589,0.234802,-0.053589,0.921875,down
173031,1.597656,0.671875,7.699219,-1.451172,0.695312,1.748047,0.300659,0.231873,-0.057373,0.92334,down
173036,1.597656,0.671875,7.699219,-1.474609,0.650391,1.857422,0.297485,0.229065,-0.061157,0.924805,down
173041,1.136719,0.980469,7.273437,-1.474609,0.650391,1.857422,0.297485,0.229065,-0.061157,0.924805,down
173046,1.136719,0.980469,7.273437,-1.583984,0.521484,2.019531,0.2901,0.223572,-0.070068,0.927856,down
173051,0.484375,0.980469,7.082031,-1.943359,0.433594,2.378906,0.2901,0.223572,-0.070068,0.927856,down
173057,0.5625,0.175781,7.503906,-1.943359,0.433594,2.378906,0.281311,0.217957,-0.081299,0.930969,down
173063,0.601562,-0.285156,7.503906,-2.914063,0.082031,2.847656,0.281311,0.217957,-0.081299,0.930969,down
173068,0.601562,-0.746094,7.582031,-2.914063,0.082031,2.847656,0.266479,0.209656,-0.104614,0.934937,down
173073,0.792969,-2.351563,8.304688,-2.914063,0.082031,2.847656,0.266479,0.209656,-0.104614,0.934937,down
173078,1.058594,-3.3125,8.613281,-3.458984,-0.332031,2.976563,0.255371,0.204773,-0.125122,0.936584,down
173083,1.023438,-4.039062,8.765625,-3.458984,-0.332031,2.976563,0.255371,0.204773,-0.125122,0.936584,down
173088,1.023438,-4.039062,8.765625,-3.435547,-0.707031,2.912109,0.250122,0.203064,-0.134949,0.937012,down
173093,1.136719,-5.609375,9.648438,-3.291016,-0.945312,2.847656,0.2453,0.202026,-0.143921,0.937195,down
173098,1.136719,-5.609375,9.648438,-2.916016,-1.177734,2.804688,0.239929,0.20166,-0.153076,0.937195,down
173104,1.25,-5.800781,9.996094,-2.916016,-1.177734,2.804688,0.234131,0.202087,-0.161743,0.937134,down
173109,1.25,-5.800781,9.996094,-1.882813,-1.644531,2.699219,0.222168,0.205261,-0.174927,0.936951,down
173115,1.710938,-6.566406,10.183594,-0.554687,-1.923828,2.365234,0.215942,0.20813,-0.179321,0.936951,down
173120,2.324219,-6.910156,8.992188,-0.554687,-1.923828,2.365234,0.210022,0.21167,-0.182068,0.936951,down
173126,2.324219,-6.566406,8.917969,0.636719,-2.164063,1.970703,0.210022,0.21167,-0.182068,0.936951,down
173131,2.59375,-6.183594,8.652344,0.636719,-2.164063,1.970703,0.19812,0.220703,-0.183411,0.937195,down
173137,2.785156,-6.03125,8.652344,1.541016,-2.291016,1.65625,0.19812,0.220703,-0.183411,0.937195,down
173142,2.976563,-5.761719,8.691406,1.802734,-2.277344,1.488281,0.19812,0.220703,-0.183411,0.937195,down
173147,2.976563,-5.761719,8.691406,1.949219,-2.246094,1.345703,0.181152,0.236938,-0.177856,0.937805,down
173152,3.089844,-4.957031,8.804688,1.949219,-2.246094,1.345703,0.181152,0.236938,-0.177856,0.937805,down
173157,3.089844,-4.957031,8.804688,1.837891,-2.226563,1.152344,0.171021,0.248047,-0.172302,0.937805,down
173162,2.9375,-4.652344,8.886719,1.837891,-2.226563,1.152344,0.171021,0.248047,-0.172302,0.937805,down
173167,2.9375,-4.460937,8.804688,1.669922,-2.255859,1.070313,0.162109,0.259033,-0.167786,0.937256,down
173172,3.011719,-4.5,8.914063,1.294922,-2.40625,0.927734,0.162109,0.259033,-0.167786,0.937256,down
173177,3.207031,-4.535156,8.886719,1.111328,-2.480469,0.832031,0.162109,0.259033,-0.167786,0.937256,down
173182,3.320313,-4.765625,8.808594,0.96875,-2.556641,0.742187,0.162109,0.259033,-0.167786,0.937256,down
173188,3.703125,-4.574219,8.691406,0.96875,-2.556641,0.742187,0.147217,0.282898,-0.163025,0.933655,down
173193,3.894531,-4.421875,8.730469,0.96875,-2.556641,0.742187,0.144287,0.289063,-0.162354,0.932312,down
173199,4.046875,-4.269531,8.648438,0.884766,-2.726563,0.363281,0.138916,0.302612,-0.160583,0.929138,down
173204,4.238281,-4.117187,8.460938,0.988281,-2.769531,0.076172,0.136963,0.308716,-0.159546,0.927612,down
173209,4.277344,-3.960938,8.113281,1.072266,-2.796875,-0.066406,0.134827,0.316406,-0.157898,0.925598,down
173214,4.238281,-3.960938,7.964844,1.175781,-2.833984,-0.183594,0.134827,0.316406,-0.157898,0.925598,down
173219,4.199219,-4.0,7.617187,1.175781,-2.833984,-0.183594,0.131714,0.330261,-0.154114,0.921875,down
173224,4.199219,-3.960938,7.539062,1.175781,-2.833984,-0.183594,0.130493,0.336914,-0.151917,0.919983,down
173229,4.199219,-3.960938,7.539062,1.175781,-2.833984,-0.183594,0.130493,0.336914,-0.151917,0.919983,down
173234,4.277344,-3.960938,7.347656,1.378906,-3.007813,-0.513672,0.130493,0.336914,-0.151917,0.919983,down
173239,4.394531,-4.152344,7.160156,1.330078,-3.078125,-0.609375,0.128296,0.352051,-0.146667,0.915466,down
173244,4.394531,-4.152344,7.160156,1.330078,-3.078125,-0.609375,0.128296,0.352051,-0.146667,0.915466,down
173249,4.546875,-4.0,7.078125,1.191406,-3.273438,-0.8125,0.128296,0.352051,-0.146667,0.915466,down
173255,5.003906,-3.539063,6.621094,1.191406,-3.273438,-0.8125,0.12616,0.384705,-0.136536,0.904114,down
173261,5.121094,-3.195313,6.234375,1.191406,-3.273438,-0.8125,0.126099,0.391968,-0.134338,0.901367,down
173266,5.273437,-2.964844,6.007812,1.193359,-3.423828,-1.035156,0.126099,0.400513,-0.131653,0.897949,down
173271,5.3125,-2.660156,5.707031,1.232422,-3.435547,-1.121094,0.126099,0.400513,-0.131653,0.897949,down
173276,5.503906,-2.582031,5.511719,1.232422,-3.435547,-1.121094,0.126099,0.400513,-0.131653,0.897949,down
173282,5.578125,-2.316406,5.355469,1.232422,-3.435547,-1.121094,0.127197,0.425842,-0.122986,0.887329,down
173288,5.617187,-1.96875,5.164062,1.394531,-3.517578,-1.367188,0.127197,0.425842,-0.122986,0.887329,down
173293,5.882812,-1.816406,5.011719,1.408203,-3.513672,-1.410156,0.127197,0.425842,-0.122986,0.887329,down
173298,6.003906,-1.855469,4.859375,1.408203,-3.513672,-1.410156,0.129028,0.45166,-0.112671,0.87561,down
173304,6.265625,-1.933594,4.707031,1.287109,-3.552734,-1.53125,0.129028,0.45166,-0.112671,0.87561,down
173309,6.265625,-1.933594,4.707031,1.203125,-3.521484,-1.580078,0.130981,0.468689,-0.105896,0.867187,down
173314,6.648437,-1.933594,4.09375,1.126953,-3.429688,-1.638672,0.132202,0.476868,-0.102661,0.862915,down
173319,6.648437,-1.933594,4.09375,1.068359,-3.296875,-1.689453,0.133667,0.485107,-0.099365,0.858459,down
173324,6.691406,-1.742188,3.746094,1.068359,-3.296875,-1.689453,0.135254,0.492676,-0.09613,0.854248,down
173329,6.691406,-1.742188,3.746094,1.039063,-3.056641,-1.763672,0.137024,0.499939,-0.092896,0.850098,down
173334,7.1875,-0.746094,3.210938,1.039063,-3.056641,-1.763672,0.138916,0.507263,-0.089417,0.845825,down
173339,7.308594,-0.398438,3.136719,1.060547,-2.876953,-1.890625,0.138916,0.507263,-0.089417,0.845825,down
173345,7.308594,-0.398438,3.136719,1.078125,-2.759766,-1.947266,0.144958,0.527771,-0.078735,0.833252,down
173350,7.574219,0.214844,2.523438,1.078125,-2.759766,-1.947266,0.147217,0.533997,-0.075012,0.829163,down
173355,7.691406,0.441406,2.523438,1.060547,-2.611328,-2.042969,0.147217,0.533997,-0.075012,0.829163,down
173360,7.800781,0.597656,2.523438,1.033203,-2.537109,-2.09375,0.147217,0.533997,-0.075012,0.829163,down
173365,7.800781,0.597656,2.523438,0.931641,-2.416016,-2.152344,0.147217,0.533997,-0.075012,0.829163,down
173371,7.875,0.863281,2.332031,0.931641,-2.416016,-2.152344,0.158325,0.558167,-0.058838,0.812378,down
173377,7.992187,0.902344,2.445313,0.560547,-2.226563,-2.248047,0.158325,0.558167,-0.058838,0.812378,down
173383,8.109375,0.789062,2.484375,0.308594,-2.162109,-2.292969,0.158325,0.558167,-0.058838,0.812378,down
173388,8.109375,0.789062,2.484375,0.308594,-2.162109,-2.292969,0.158325,0.558167,-0.058838,0.812378,down
173393,8.109375,0.789062,2.484375,0.0625,-2.082031,-2.34375,0.173584,0.576233,-0.047607,0.797241,down
173398,8.109375,0.789062,2.484375,-0.378906,-1.857422,-2.402344,0.178467,0.580139,-0.045593,0.793396,down
173403,7.957031,0.710937,2.523438,-0.378906,-1.857422,-2.402344,0.183838,0.583862,-0.043762,0.789551,down
173408,7.6875,0.828125,2.789063,-0.378906,-1.857422,-2.402344,0.189148,0.587341,-0.042053,0.785767,down
173413,7.691406,0.902344,2.753906,-0.414062,-1.6875,-2.458984,0.189148,0.587341,-0.042053,0.785767,down
173418,7.265625,1.246094,2.714844,-0.414062,-1.6875,-2.458984,0.200134,0.594238,-0.037842,0.778076,down
173423,7.226562,1.667969,2.558594,0.03125,-1.572266,-2.447266,0.200134,0.594238,-0.037842,0.778076,down
173428,7.148437,2.015625,2.523438,0.341797,-1.546875,-2.457031,0.209229,0.600647,-0.032043,0.770996,down
173433,7.148437,2.320313,2.332031,0.341797,-1.546875,-2.457031,0.212769,0.60376,-0.028503,0.7677,down
173439,7.800781,3.316406,1.71875,0.945312,-1.525391,-2.458984,0.212769,0.60376,-0.028503,0.7677,down
173444,7.875,3.660156,1.640625,1.298828,-1.640625,-2.429688,0.21936,0.610901,-0.019104,0.760437,down
173449,8.148438,4.121094,1.527344,1.298828,-1.640625,-2.429688,0.224487,0.618469,-0.008789,0.752991,down
173454,8.378906,4.886719,1.296875,1.298828,-1.640625,-2.429688,0.224487,0.618469,-0.008789,0.752991,down
173459,8.414063,5.0,1.105469,1.298828,-1.640625,-2.429688,0.229736,0.62616,0.002136,0.745056,down
173464,8.601563,5.191406,0.914062,1.298828,-1.640625,-2.429688,0.229736,0.62616,0.002136,0.745056,down
173469,8.601563,5.191406,0.914062,0.931641,-1.414063,-2.40625,0.232666,0.629517,0.00708,0.741272,down
173474,8.683594,5.230469,0.988281,0.654297,-1.349609,-2.417969,0.235657,0.632141,0.011169,0.738037,down
173479,8.683594,5.230469,0.988281,0.277344,-1.275391,-2.464844,0.23938,0.634705,0.015015,0.734619,down
173485,8.679688,5.191406,1.066406,0.277344,-1.275391,-2.464844,0.243835,0.636841,0.018311,0.731201,down
173490,8.679688,5.191406,1.066406,-0.546875,-1.115234,-2.529297,0.254883,0.639954,0.023071,0.724487,down
173496,7.378906,4.3125,1.527344,-0.546875,-1.115234,-2.529297,0.261169,0.640869,0.024536,0.721436,down
173502,7.308594,4.160156,1.71875,-1.298828,-0.964844,-2.482422,0.261169,0.640869,0.024536,0.721436,down
173507,7.378906,4.160156,1.832031,-1.277344,-1.0,-2.416016,0.261169,0.640869,0.024536,0.721436,down
173513,7.378906,4.582031,1.757813,-1.277344,-1.0,-2.416016,0.261169,0.640869,0.024536,0.721436,down
173519,7.34375,4.925781,1.640625,-0.671875,-0.953125,-2.199219,0.261169,0.640869,0.024536,0.721436,down
173524,7.304687,5.269531,1.527344,-0.671875,-0.953125,-2.199219,0.296631,0.645996,0.032104,0.702637,down
173529,7.375,5.613281,1.335938,-0.671875,-0.953125,-2.199219,0.300842,0.647339,0.034302,0.699463,down
173534,7.535156,6.304687,1.144531,-0.671875,-0.953125,-2.199219,0.300842,0.647339,0.034302,0.699463,down
173539,7.570312,6.609375,0.988281,0.441406,-1.037109,-2.101563,0.300842,0.647339,0.034302,0.699463,down
173545,7.535156,6.917969,0.796875,0.441406,-1.037109,-2.101563,0.310791,0.652893,0.043762,0.689392,down
173550,7.453125,7.414062,0.570312,0.441406,-1.037109,-2.101563,0.310791,0.652893,0.043762,0.689392,down
173555,7.453125,7.414062,0.570312,0.626953,-0.949219,-2.142578,0.313416,0.654663,0.047363,0.686279,down
173560,7.34375,7.566406,0.570312,0.626953,-0.949219,-2.142578,0.316345,0.656433,0.051208,0.682922,down
173565,7.113281,7.535156,0.761719,0.207031,-0.828125,-2.179688,0.31958,0.657898,0.054565,0.679749,down
173570,7.113281,7.535156,0.761719,-0.148437,-0.714844,-2.214844,0.323303,0.658875,0.057617,0.676819,down
173576,6.921875,6.726562,0.835937,-0.148437,-0.714844,-2.214844,0.33313,0.65918,0.062134,0.671326,down
173582,7.074219,6.574219,0.761719,-0.148437,-0.714844,-2.214844,0.339844,0.658264,0.06366,0.668701,down
173587,7.308594,6.074219,0.835937,-0.148437,-0.714844,-2.214844,0.339844,0.658264,0.06366,0.668701,down
173593,7.230469,5.996094,1.027344,-0.148437,-0.714844,-2.214844,0.35321,0.655396,0.064819,0.66449,down
173599,6.886719,5.996094,1.488281,-2.242188,-0.294922,-2.416016,0.35321,0.655396,0.064819,0.66449,down
173604,6.765625,5.84375,1.71875,-2.242188,-0.294922,-2.416016,0.368408,0.651489,0.064758,0.660034,down
173609,6.609375,5.769531,1.871094,-2.117188,-0.421875,-2.263672,0.368408,0.651489,0.064758,0.660034,down
173614,6.542969,5.804687,1.984375,-2.117188,-0.421875,-2.263672,0.384155,0.6474,0.06427,0.65509,down
173620,6.382812,6.074219,1.871094,-2.117188,-0.421875,-2.263672,0.396912,0.644531,0.064453,0.650269,down
173625,6.265625,6.226562,1.792969,-1.287109,-0.552734,-2.132813,0.396912,0.644531,0.064453,0.650269,down
173630,6.265625,6.226562,1.792969,-0.964844,-0.607422,-2.115234,0.408264,0.642944,0.06604,0.644653,down
173635,6.191406,6.917969,1.488281,-0.964844,-0.607422,-2.115234,0.413513,0.6427,0.067627,0.641357,down
173640,6.15625,7.148437,1.527344,-0.964844,-0.607422,-2.115234,0.417542,0.642761,0.069275,0.638489,down
173645,6.117187,7.335937,1.527344,-0.964844,-0.607422,-2.115234,0.417542,0.642761,0.069275,0.638489,down
173651,6.0,7.5625,1.410156,-0.310547,-0.617187,-2.119141,0.425476,0.64325,0.07373,0.632263,down
173656,5.65625,7.875,1.21875,-0.310547,-0.617187,-2.119141,0.425476,0.64325,0.07373,0.632263,down
173661,5.65625,7.875,1.21875,-0.310547,-0.617187,-2.119141,0.425476,0.64325,0.07373,0.632263,down
173667,5.542969,8.261719,1.179688,-0.388672,-0.324219,-2.152344,0.437561,0.642456,0.081299,0.62384,down
173672,5.503906,8.371094,1.21875,-0.912109,-0.152344,-2.207031,0.437561,0.642456,0.081299,0.62384,down
173677,5.425781,8.40625,1.21875,-1.246094,-0.070312,-2.246094,0.437561,0.642456,0.081299,0.62384,down
173682,5.351562,8.445313,1.21875,-1.597656,-0.009766,-2.277344,0.437561,0.642456,0.081299,0.62384,down
173687,5.234375,8.449219,1.371094,-1.908203,-0.001953,-2.302734,0.459351,0.635132,0.087585,0.614746,down
173692,5.273437,7.984375,1.984375,-2.197266,-0.076172,-2.318359,0.459351,0.635132,0.087585,0.614746,down
173698,5.425781,7.605469,2.367188,-2.412109,-0.179687,-2.332031,0.459351,0.635132,0.087585,0.614746,down
173703,5.503906,7.257812,2.523438,-2.550781,-0.234375,-2.337891,0.459351,0.635132,0.087585,0.614746,down
173708,5.464844,7.074219,2.558594,-2.597656,-0.246094,-2.328125,0.459351,0.635132,0.087585,0.614746,down
173713,5.351562,6.917969,2.636719,-2.597656,-0.246094,-2.328125,0.459351,0.635132,0.087585,0.614746,down
173719,5.3125,6.996094,2.636719,-2.597656,-0.246094,-2.328125,0.50354,0.615845,0.086121,0.599792,down
173724,5.3125,7.070312,2.714844,-2.173828,-0.455078,-2.236328,0.50354,0.615845,0.086121,0.599792,down
173729,5.3125,7.257812,2.675781,-2.173828,-0.455078,-2.236328,0.517395,0.610107,0.085144,0.594055,down
173734,5.273437,7.601562,2.597656,-1.980469,-0.494141,-2.251953,0.523865,0.607605,0.0849,0.590942,down
173739,5.273437,7.601562,2.597656,-1.980469,-0.494141,-2.251953,0.523865,0.607605,0.0849,0.590942,down
173744,5.273437,7.796875,2.523438,-1.785156,-0.517578,-2.277344,0.523865,0.607605,0.0849,0.590942,down
173749,5.273437,7.796875,2.523438,-1.3125,-0.527344,-2.361328,0.542053,0.601624,0.085999,0.580383,down
173754,5.160156,8.5625,2.253906,-1.3125,-0.527344,-2.361328,0.542053,0.601624,0.085999,0.580383,down
173759,5.082031,8.789063,2.023438,-1.3125,-0.527344,-2.361328,0.553101,0.598755,0.088989,0.572449,down
173764,5.003906,9.027344,1.792969,-1.3125,-0.527344,-2.361328,0.557739,0.597473,0.09082,0.568909,down
173770,4.777344,9.410156,1.371094,-0.878906,-0.257813,-2.519531,0.567139,0.594543,0.094971,0.562012,down
173775,4.777344,9.488281,1.371094,-1.212891,-0.181641,-2.541016,0.567139,0.594543,0.094971,0.562012,down
173780,4.699219,9.449219,1.601563,-1.457031,-0.146484,-2.541016,0.572876,0.592407,0.097107,0.558105,down
173786,4.699219,9.449219,1.601563,-1.738281,-0.121094,-2.533203,0.58374,0.587402,0.100098,0.551514,down
173791,4.085937,8.988281,2.253906,-1.738281,-0.121094,-2.533203,0.589905,0.584167,0.101074,0.548218,down
173796,3.894531,8.722656,2.40625,-2.267578,-0.080078,-2.445313,0.589905,0.584167,0.101074,0.548218,down
173802,3.511719,8.140625,2.597656,-2.267578,-0.080078,-2.445313,0.60321,0.576416,0.101746,0.541809,down
173807,3.359375,7.71875,2.789063,-2.523438,-0.177734,-2.289063,0.609863,0.572266,0.101563,0.538757,down
173812,3.28125,7.492187,3.019531,-2.527344,-0.273438,-2.195313,0.609863,0.572266,0.101563,0.538757,down
173818,3.128906,7.335937,3.441406,-2.460938,-0.347656,-2.105469,0.609863,0.572266,0.101563,0.538757,down
173823,3.128906,7.414062,3.554688,-2.283203,-0.435547,-2.025391,0.62915,0.560303,0.099487,0.52948,down
173828,3.128906,7.414062,3.554688,-2.115234,-0.496094,-1.974609,0.635071,0.556824,0.098633,0.526184,down
173833,3.128906,7.414062,3.554688,-1.894531,-0.527344,-1.955078,0.640442,0.553772,0.098022,0.52301,down
173838,3.511719,7.566406,3.519531,-1.894531,-0.527344,-1.955078,0.640442,0.553772,0.098022,0.52301,down
173843,3.511719,7.566406,3.519531,-1.203125,-0.525391,-2.0,0.650085,0.54895,0.097839,0.516174,down
173848,3.511719,7.566406,3.519531,-1.203125,-0.525391,-2.0,0.650085,0.54895,0.097839,0.516174,down
173853,3.972656,9.027344,3.210938,-0.839844,-0.515625,-2.042969,0.657959,0.546448,0.099548,0.508423,down
173858,3.972656,9.527344,3.210938,-0.839844,-0.515625,-2.042969,0.657959,0.546448,0.099548,0.508423,down
173863,3.894531,9.753906,3.171875,-0.839844,-0.515625,-2.042969,0.664734,0.545044,0.102722,0.500549,down
173869,3.742188,9.941406,3.136719,-0.576172,-0.363281,-2.185547,0.664734,0.545044,0.102722,0.500549,down
173875,3.398438,10.214844,3.136719,-0.794922,-0.328125,-2.181641,0.675964,0.540955,0.1073,0.488831,down
173880,3.28125,10.292969,3.171875,-0.794922,-0.328125,-2.181641,0.675964,0.540955,0.1073,0.488831,down
173885,3.167969,10.136719,3.289063,-2.132813,-0.289063,-2.136719,0.675964,0.540955,0.1073,0.488831,down
173890,2.9375,9.449219,3.671875,-2.132813,-0.289063,-2.136719,0.68573,0.534912,0.108276,0.481567,down
173895,2.859375,9.105469,3.902344,-3.021484,-0.287109,-2.083984,0.69165,0.530518,0.107727,0.478088,down
173900,2.746094,8.753906,3.976563,-3.021484,-0.287109,-2.083984,0.698608,0.524841,0.106506,0.474548,down
173905,2.746094,8.40625,4.054687,-3.021484,-0.287109,-2.083984,0.705139,0.519226,0.105042,0.471375,down
173910,2.785156,7.601562,4.550781,-3.292969,-0.339844,-2.085938,0.711609,0.51355,0.103394,0.468201,down
173915,2.785156,7.601562,4.550781,-3.306641,-0.394531,-2.089844,0.717773,0.507996,0.101746,0.465271,down
173920,2.859375,7.335937,4.820312,-3.306641,-0.394531,-2.089844,0.724548,0.50177,0.099854,0.461792,down
173925,2.859375,7.335937,4.820312,-3.142578,-0.410156,-2.052734,0.730957,0.495972,0.097961,0.458374,down
173930,2.785156,6.953125,5.433594,-2.796875,-0.376953,-2.046875,0.730957,0.495972,0.097961,0.458374,down
173935,2.785156,7.148437,5.777344,-2.796875,-0.376953,-2.046875,0.742554,0.485535,0.095398,0.451416,down
173940,2.820313,7.453125,5.777344,-1.263672,-0.236328,-2.052734,0.742554,0.485535,0.095398,0.451416,down
173946,2.667969,8.183594,5.511719,-1.263672,-0.236328,-2.052734,0.751892,0.478149,0.095337,0.443726,down
173952,2.402344,8.949219,5.28125,-0.789062,-0.175781,-2.054688,0.758057,0.474548,0.097778,0.436462,down
173958,2.324219,9.214844,5.242187,-0.158203,-0.134766,-2.056641,0.758057,0.474548,0.097778,0.436462,down
173963,2.285156,9.59375,5.203125,-0.060547,-0.111328,-2.046875,0.758057,0.474548,0.097778,0.436462,down
173968,2.132813,9.980469,5.320312,-0.060547,-0.111328,-2.046875,0.76532,0.47229,0.103943,0.424744,down
173973,2.019531,10.132813,5.242187,-0.337891,-0.035156,-2.041016,0.76532,0.47229,0.103943,0.424744,down
173979,1.75,10.363281,5.28125,-0.642578,-0.001953,-2.054688,0.76532,0.47229,0.103943,0.424744,down
173984,1.632813,10.398438,5.355469,-1.083984,-0.015625,-2.048828,0.77356,0.467285,0.10968,0.413818,down
173989,1.632813,10.398438,5.355469,-1.568359,-0.066406,-2.060547,0.777283,0.463989,0.110779,0.410156,down
173994,1.632813,10.214844,5.546875,-2.064453,-0.115234,-2.070313,0.781433,0.460022,0.111145,0.406616,down
173999,1.632813,10.214844,5.546875,-2.523438,-0.140625,-2.074219,0.786316,0.454956,0.110962,0.403015,down
174004,1.558594,9.554688,5.816406,-2.896484,-0.160156,-2.089844,0.791443,0.449219,0.110291,0.399536,down
174009,1.519531,9.027344,6.046875,-3.136719,-0.205078,-2.095703,0.791443,0.449219,0.110291,0.399536,down
174014,1.480469,8.335938,6.542969,-3.136719,-0.205078,-2.095703,0.803284,0.43512,0.10791,0.392151,down
174019,1.480469,7.957031,6.621094,-3.355469,-0.248047,-2.083984,0.803284,0.43512,0.10791,0.392151,down
174024,1.480469,7.640625,6.8125,-3.335938,-0.234375,-2.078125,0.803284,0.43512,0.10791,0.392151,down
174030,1.40625,7.335937,6.964844,-3.277344,-0.210937,-2.058594,0.819641,0.414062,0.10376,0.382019,down
174036,1.214844,6.957031,7.304687,-2.962891,-0.1875,-1.994141,0.824707,0.407349,0.102539,0.378723,down
174041,1.058594,6.917969,7.5,-2.962891,-0.1875,-1.994141,0.835022,0.393433,0.10022,0.371338,down
174047,0.867187,6.992187,7.503906,-2.962891,-0.1875,-1.994141,0.838745,0.388428,0.09967,0.368347,down
174052,0.792969,7.109375,7.5,-2.027344,-0.046875,-1.878906,0.838745,0.388428,0.09967,0.368347,down
174057,0.714844,7.300781,7.65625,-2.027344,-0.046875,-1.878906,0.846008,0.379028,0.099365,0.361511,down
174062,0.601562,7.339844,7.695312,-1.421875,0.009766,-1.832031,0.846008,0.379028,0.099365,0.361511,down
174067,0.601562,7.339844,7.695312,-1.166016,0.050781,-1.8125,0.852051,0.371887,0.100342,0.354492,down
174072,0.484375,7.53125,7.621094,-1.166016,0.050781,-1.8125,0.852051,0.371887,0.100342,0.354492,down
174077,0.484375,7.53125,7.621094,-0.945312,0.083984,-1.810547,0.854675,0.369019,0.101257,0.350891,down
174082,0.484375,7.679687,7.578125,-0.945312,0.083984,-1.810547,0.856995,0.366638,0.102295,0.347351,down
174087,0.484375,7.679687,7.578125,-0.763672,0.037109,-1.802734,0.861511,0.362305,0.104553,0.340088,down
174092,0.332031,8.023438,7.578125,-0.763672,0.037109,-1.802734,0.863708,0.360046,0.105591,0.336548,down
174098,0.253906,8.023438,7.539062,-1.005859,0.007813,-1.818359,0.863708,0.360046,0.105591,0.336548,down
174103,0.253906,7.988281,7.578125,-1.166016,-0.027344,-1.828125,0.863708,0.360046,0.105591,0.336548,down
174108,0.332031,7.875,7.578125,-1.318359,-0.058594,-1.847656,0.863708,0.360046,0.105591,0.336548,down
174114,0.332031,7.800781,7.578125,-1.464844,-0.068359,-1.867188,0.863708,0.360046,0.105591,0.336548,down
174119,0.332031,7.757812,7.617187,-1.582031,-0.082031,-1.882813,0.863708,0.360046,0.105591,0.336548,down
174124,0.292969,7.644531,7.578125,-1.675781,-0.076172,-1.892578,0.863708,0.360046,0.105591,0.336548,down
174129,0.253906,7.53125,7.578125,-1.751953,-0.060547,-1.90625,0.863708,0.360046,0.105591,0.336548,down
174134,0.253906,7.414062,7.539062,-1.832031,-0.035156,-1.916016,0.863708,0.360046,0.105591,0.336548,down
174139,0.253906,7.339844,7.542969,-1.917969,-0.015625,-1.925781,0.863708,0.360046,0.105591,0.336548,down
174144,0.21875,7.261719,7.542969,-2.011719,0.009766,-1.929688,0.863708,0.360046,0.105591,0.336548,down
174150,-0.011719,7.222656,7.617187,-2.011719,0.009766,-1.929688,0.897766,0.311035,0.109314,0.292175,down
174155,-0.128906,7.222656,7.617187,-2.011719,0.009766,-1.929688,0.897766,0.311035,0.109314,0.292175,down
174160,-0.203125,7.148437,7.699219,-2.371094,0.058594,-1.863281,0.897766,0.311035,0.109314,0.292175,down
174166,-0.359375,6.765625,8.042969,-2.371094,0.058594,-1.863281,0.907288,0.292847,0.109009,0.281311,down
174171,-0.433594,6.574219,8.265625,-2.371094,0.058594,-1.863281,0.907288,0.292847,0.109009,0.281311,down
174176,-0.511719,6.417969,8.464844,-2.449219,0.068359,-1.775391,0.910095,0.287231,0.108826,0.278259,down
174181,-0.511719,6.417969,8.464844,-2.449219,0.068359,-1.775391,0.913086,0.281006,0.108582,0.274902,down
174186,-0.625,6.152344,8.535156,-2.322266,0.082031,-1.673828,0.915833,0.275146,0.108337,0.27179,down
174192,-0.625,5.84375,8.769531,-2.216797,0.060547,-1.625,0.921021,0.263855,0.107849,0.265564,down
174197,-0.550781,5.460937,8.917969,-2.216797,0.060547,-1.625,0.92334,0.258667,0.107666,0.262573,down
174203,-0.472656,5.347656,8.957031,-2.216797,0.060547,-1.625,0.925537,0.253845,0.107544,0.259583,down
174208,-0.511719,5.269531,8.914063,-1.628906,0.082031,-1.527344,0.927673,0.249268,0.107605,0.25647,down
174214,-0.585937,5.386719,8.886719,-1.414063,0.099609,-1.539063,0.927673,0.249268,0.107605,0.25647,down
174220,-0.585937,5.578125,8.84375,-1.234375,0.121094,-1.548828,0.931274,0.241699,0.108154,0.250305,down
174225,-0.703125,5.84375,8.726563,-1.234375,0.121094,-1.548828,0.932922,0.238281,0.108704,0.247009,down
174231,-0.742187,6.152344,8.535156,-1.080078,0.150391,-1.570313,0.932922,0.238281,0.108704,0.247009,down
174236,-0.816406,6.648437,8.226563,-1.080078,0.150391,-1.570313,0.937561,0.228943,0.110596,0.237244,down
174241,-0.855469,6.765625,8.078125,-1.392578,0.158203,-1.619141,0.937561,0.228943,0.110596,0.237244,down
174246,-0.894531,6.6875,7.964844,-1.664063,0.169922,-1.646484,0.939392,0.224976,0.111145,0.233582,down
174251,-0.894531,6.6875,7.964844,-1.664063,0.169922,-1.646484,0.94104,0.22113,0.111572,0.23053,down
174256,-1.007813,5.921875,8.191406,-1.953125,0.169922,-1.679688,0.942932,0.216125,0.111877,0.227112,down
174261,-1.007813,5.921875,8.191406,-2.228516,0.203125,-1.714844,0.942932,0.216125,0.111877,0.227112,down
174266,-1.007813,5.921875,8.191406,-2.228516,0.203125,-1.714844,0.94928,0.197815,0.112244,0.217224,down
174271,-1.199219,4.3125,9.070313,-2.228516,0.203125,-1.714844,0.94928,0.197815,0.112244,0.217224,down
174276,-1.351563,4.160156,9.265625,-2.751953,0.306641,-1.736328,0.953491,0.183655,0.112366,0.210876,down
174281,-1.46875,3.890625,9.457031,-2.751953,0.306641,-1.736328,0.953491,0.183655,0.112366,0.210876,down
174286,-1.507813,3.546875,9.6875,-2.746094,0.216797,-1.632813,0.953491,0.183655,0.112366,0.210876,down
174291,-1.699219,3.394531,9.957031,-2.746094,0.216797,-1.632813,0.959473,0.162048,0.112,0.201599,down
174296,-1.738281,3.429688,9.996094,-2.746094,0.216797,-1.632813,0.959473,0.162048,0.112,0.201599,down
174301,-1.851563,3.507813,9.992188,-2.324219,0.089844,-1.462891,0.959473,0.162048,0.112,0.201599,down
174306,-1.851563,3.8125,10.03125,-2.324219,0.089844,-1.462891,0.964417,0.142822,0.110962,0.192871,down
174311,-1.890625,4.351562,9.878906,-2.324219,0.089844,-1.462891,0.96582,0.137512,0.110413,0.190002,down
174316,-1.851563,4.542969,9.609375,-2.324219,0.089844,-1.462891,0.96582,0.137512,0.110413,0.190002,down
174321,-1.851563,4.503906,9.492188,-1.908203,-0.111328,-1.449219,0.968567,0.127258,0.109131,0.183777,down
174326,-1.8125,4.351562,9.492188,-1.898438,-0.201172,-1.521484,0.968567,0.127258,0.109131,0.183777,down
174331,-1.582031,4.195312,9.414063,-1.949219,-0.189453,-1.548828,0.96991,0.122375,0.108337,0.180542,down
174337,-1.507813,4.082031,9.335938,-1.949219,-0.189453,-1.548828,0.972656,0.111633,0.106567,0.173584,down
174342,-1.277344,3.507813,9.230469,-1.949219,-0.189453,-1.548828,0.97406,0.105774,0.105652,0.170044,down
174347,-1.125,3.164063,9.300781,-1.949219,-0.189453,-1.548828,0.97406,0.105774,0.105652,0.170044,down
174352,-1.125,3.164063,9.300781,-2.605469,-0.142578,-1.681641,0.97522,0.100159,0.104797,0.166931,down
174357,-1.007813,2.742188,9.53125,-2.605469,-0.142578,-1.681641,0.976624,0.09314,0.103821,0.163513,down
174362,-0.703125,1.554688,10.144531,-3.087891,0.0,-1.787109,0.978027,0.085144,0.102905,0.159912,down
174367,-0.703125,1.554688,10.144531,-3.087891,0.0,-1.787109,0.978027,0.085144,0.102905,0.159912,down
174372,-0.703125,1.554688,10.144531,-3.164063,0.083984,-1.865234,0.981934,0.060486,0.101074,0.148071,down
174378,-1.125,1.054688,11.21875,-3.164063,0.083984,-1.865234,0.983093,0.052429,0.100586,0.143616,down
174383,-1.429688,1.019531,11.527344,-3.164063,0.083984,-1.865234,0.984314,0.04425,0.099976,0.138672,down
174388,-1.699219,0.863281,11.5625,-2.78125,0.023437,-2.494141,0.985352,0.036621,0.099365,0.133423,down
174393,-1.929688,0.671875,11.640625,-2.589844,0.013672,-2.662109,0.985352,0.036621,0.099365,0.133423,down
174398,-2.121094,0.441406,11.644531,-2.357422,-0.042969,-2.830078,0.985352,0.036621,0.099365,0.133423,down
174403,-2.386719,0.632812,11.289063,-2.357422,-0.042969,-2.830078,0.985352,0.036621,0.099365,0.133423,down
174408,-2.695313,0.863281,11.105469,-1.880859,-0.087891,-3.210938,0.985352,0.036621,0.099365,0.133423,down
174413,-3.039063,0.980469,11.179688,-1.699219,-0.164062,-3.376953,0.985352,0.036621,0.099365,0.133423,down
174419,-3.078125,1.054688,11.449219,-1.699219,-0.164062,-3.376953,0.991211,0.000427,0.095459,0.091492,down
174424,-3.039063,0.75,11.753906,-1.513672,-0.404297,-3.679688,0.991211,0.000427,0.095459,0.091492,down
174429,-3.039063,0.75,11.753906,-1.427734,-0.472656,-3.810547,0.99292,-0.008728,0.092896,0.073792,down
174434,-2.808594,0.175781,11.945313,-1.283203,-0.464844,-3.931641,0.993652,-0.012878,0.091431,0.064575,down
174439,-2.808594,0.175781,11.945313,-1.283203,-0.464844,-3.931641,0.993652,-0.012878,0.091431,0.064575,down
174445,-2.886719,0.175781,11.710938,-1.083984,-0.421875,-4.017578,0.994324,-0.016724,0.089966,0.054749,down
174450,-2.886719,0.175781,11.710938,-0.6875,-0.462891,-4.107422,0.9953,-0.022766,0.08728,0.035217,down
174456,-3.078125,0.75,11.671875,-0.6875,-0.462891,-4.107422,0.995667,-0.025146,0.085693,0.024902,down
174461,-3.191406,0.136719,11.753906,0.134766,-0.826172,-3.927734,0.995667,-0.025146,0.085693,0.024902,down
174466,-2.847656,0.367188,11.605469,0.134766,-0.826172,-3.927734,0.996399,-0.028503,0.079529,-0.004517,down
174471,-3.230469,-0.398438,12.214844,0.134766,-0.826172,-3.927734,0.99646,-0.029358,0.077393,-0.01355,down
174476,-3.957031,-0.359375,11.222656,0.134766,-0.826172,-3.927734,0.99646,-0.029358,0.077393,-0.01355,down
174481,-4.265625,0.023437,10.949219,0.835937,-0.892578,-3.349609,0.99646,-0.029358,0.077393,-0.01355,down
174486,-4.417969,0.710937,10.910156,0.835937,-0.892578,-3.349609,0.99646,-0.027954,0.073059,-0.031189,down
174491,-4.53125,1.628906,10.679688,1.15625,-1.099609,-3.244141,0.99646,-0.027954,0.073059,-0.031189,down
174496,-4.53125,1.628906,10.679688,1.490234,-1.378906,-3.181641,0.996338,-0.02356,0.066833,-0.047913,down
174501,-4.570312,1.746094,10.835938,1.490234,-1.378906,-3.181641,0.996277,-0.020325,0.062805,-0.055908,down
174506,-4.457031,1.746094,10.910156,1.982422,-1.703125,-3.048828,0.996277,-0.020325,0.062805,-0.055908,down
174511,-4.457031,1.746094,10.910156,2.3125,-1.775391,-2.978516,0.995911,-0.01178,0.053406,-0.071655,down
174517,-4.839844,2.207031,9.574219,2.3125,-1.775391,-2.978516,0.995361,6.1e-05,0.042114,-0.086853,down
174522,-4.722656,2.78125,8.882813,2.3125,-1.775391,-2.978516,0.994873,0.007019,0.035522,-0.094238,down
174528,-4.722656,3.046875,8.730469,2.3125,-1.775391,-2.978516,0.994446,0.013367,0.029419,-0.100342,down
174533,-3.996094,3.277344,8.6875,2.3125,-1.775391,-2.978516,0.993835,0.020264,0.022217,-0.106567,down
174539,-3.5,3.238281,8.882813,3.007813,-2.923828,-2.089844,0.993835,0.020264,0.022217,-0.106567,down
174545,-2.617188,3.46875,8.652344,3.007813,-2.923828,-2.089844,0.992493,0.033508,0.006409,-0.117615,down
174550,-2.617188,3.46875,8.652344,2.800781,-2.873047,-1.650391,0.991699,0.039612,-0.001404,-0.122253,down
174555,-2.617188,3.46875,8.652344,2.710938,-2.916016,-1.416016,0.990906,0.045715,-0.009399,-0.126404,down
174560,-2.695313,3.851563,8.304688,2.710938,-2.916016,-1.416016,0.990051,0.051331,-0.017334,-0.129883,down
174565,-1.46875,4.234375,8.957031,2.710938,-2.916016,-1.416016,0.990051,0.051331,-0.017334,-0.129883,down
174570,-0.585937,4.582031,9.265625,2.476563,-2.986328,-1.009766,0.988281,0.061707,-0.033386,-0.135498,down
174576,0.21875,4.390625,8.769531,2.175781,-2.605469,-0.822266,0.986572,0.070129,-0.047241,-0.139832,down
174581,1.097656,4.273437,8.570313,2.175781,-2.605469,-0.822266,0.986572,0.070129,-0.047241,-0.139832,down
174586,0.945312,3.777344,8.730469,2.175781,-2.605469,-0.822266,0.985657,0.073608,-0.054138,-0.141907,down
174591,1.023438,3.46875,9.070313,1.685547,-1.996094,-0.462891,0.985657,0.073608,-0.054138,-0.141907,down
174613,1.328125,2.972656,8.191406,1.992188,-1.464844,-0.388672,0.980652,0.094971,-0.083984,-0.14917,down
174619,1.175781,3.585938,7.921875,1.992188,-1.464844,-0.388672,0.979736,0.099548,-0.088013,-0.150024,down
174625,1.597656,3.929688,8.460938,2.205078,-1.279297,-0.414062,0.979736,0.099548,-0.088013,-0.150024,down
174630,1.597656,3.929688,8.460938,2.255859,-1.207031,-0.453125,0.977661,0.109558,-0.095642,-0.151794,down
174635,1.710938,4.425781,8.804688,2.255859,-1.207031,-0.453125,0.977661,0.109558,-0.095642,-0.151794,down
174641,1.710938,4.425781,8.804688,2.283203,-1.109375,-0.480469,0.975403,0.120178,-0.102478,-0.153687,down
174646,1.710938,4.425781,8.804688,2.181641,-0.876953,-0.488281,0.975403,0.120178,-0.102478,-0.153687,down
174652,2.4375,4.3125,8.039063,2.181641,-0.876953,-0.488281,0.972168,0.135315,-0.110291,-0.156067,down
174657,2.171875,4.042969,7.960937,2.087891,-0.423828,-0.330078,0.972168,0.135315,-0.110291,-0.156067,down
174662,2.246094,4.121094,8.078125,2.087891,-0.423828,-0.330078,0.970154,0.145691,-0.113831,-0.156921,down
174667,2.285156,4.160156,7.964844,1.888672,-0.173828,-0.162109,0.969299,0.15033,-0.115112,-0.156921,down
174672,2.09375,4.082031,8.039063,1.888672,-0.173828,-0.162109,0.969299,0.15033,-0.115112,-0.156921,down
174677,2.210938,4.195312,8.113281,1.660156,0.023437,-0.025391,0.968567,0.154419,-0.115906,-0.156799,down
174682,2.09375,4.042969,8.152344,1.660156,0.023437,-0.025391,0.967102,0.163147,-0.117126,-0.156006,down
174687,1.941406,4.042969,8.191406,1.521484,0.167969,0.042969,0.967102,0.163147,-0.117126,-0.156006,down
174692,1.902344,4.042969,8.226563,1.521484,0.167969,0.042969,0.966003,0.170715,-0.117432,-0.154846,down
174697,2.019531,3.929688,8.265625,1.521484,0.167969,0.042969,0.966003,0.170715,-0.117432,-0.154846,down
174702,2.171875,3.851563,8.347656,1.466797,0.28125,0.0625,0.964905,0.177856,-0.117126,-0.153564,down
174708,2.246094,3.8125,8.34375,1.425781,0.431641,0.064453,0.964478,0.181152,-0.11676,-0.152893,down
174713,2.246094,3.890625,8.386719,1.416016,0.501953,0.068359,0.963928,0.185181,-0.116089,-0.1521,down
174718,2.171875,3.929688,8.382813,1.402344,0.570312,0.083984,0.963379,0.188843,-0.115295,-0.151306,down
174723,2.09375,4.042969,8.425781,1.402344,0.570312,0.083984,0.963013,0.192017,-0.114441,-0.150635,down
174729,2.019531,4.195312,8.382813,1.402344,0.570312,0.083984,0.962585,0.195496,-0.113342,-0.149719,down
174734,2.019531,4.234375,8.464844,1.267578,0.732422,0.140625,0.962585,0.195496,-0.113342,-0.149719,down
174739,1.941406,4.351562,8.464844,1.214844,0.783203,0.181641,0.962585,0.195496,-0.113342,-0.149719,down
174744,1.75,4.425781,8.53125,1.214844,0.783203,0.181641,0.961426,0.205261,-0.109375,-0.146667,down
174749,1.75,4.425781,8.53125,1.214844,0.783203,0.181641,0.961426,0.205261,-0.109375,-0.146667,down
174755,1.75,4.425781,8.53125,1.089844,0.849609,0.269531,0.960937,0.21106,-0.106323,-0.143982,down
174760,1.75,4.425781,8.53125,0.931641,0.916016,0.361328,0.960815,0.213562,-0.104675,-0.142456,down
174765,1.75,4.542969,8.570313,0.931641,0.916016,0.361328,0.960815,0.213562,-0.104675,-0.142456,down
174770,1.824219,4.425781,8.613281,0.861328,0.939453,0.400391,0.960632,0.218201,-0.101196,-0.139099,down
174775,1.824219,4.390625,8.769531,0.734375,1.0,0.470703,0.960632,0.218201,-0.101196,-0.139099,down
174780,1.671875,4.351562,8.691406,0.734375,1.0,0.470703,0.960632,0.218201,-0.101196,-0.139099,down
174786,1.632813,4.351562,8.769531,0.734375,1.0,0.470703,0.960632,0.224182,-0.095154,-0.133484,down
174792,1.597656,4.3125,8.847656,0.59375,1.064453,0.556641,0.960815,0.227539,-0.091064,-0.129578,down
174797,1.597656,4.234375,8.917969,0.59375,1.064453,0.556641,0.960937,0.229004,-0.08905,-0.127563,down
174802,1.632813,4.234375,8.914063,0.451172,1.042969,0.607422,0.960937,0.229004,-0.08905,-0.127563,down
174807,1.632813,4.195312,8.996094,0.414062,1.035156,0.623047,0.96106,0.23053,-0.086792,-0.125305,down
174812,1.632813,4.195312,8.996094,0.414062,1.035156,0.623047,0.961365,0.232849,-0.082947,-0.121338,down
174817,1.558594,4.195312,9.035156,0.414062,1.035156,0.623047,0.961365,0.232849,-0.082947,-0.121338,down
174822,1.480469,4.160156,8.953125,0.414062,1.035156,0.623047,0.961548,0.234131,-0.080688,-0.118896,down
174827,1.441406,4.160156,8.953125,0.347656,0.980469,0.621094,0.961548,0.234131,-0.080688,-0.118896,down
174832,1.480469,4.195312,9.109375,0.314453,0.958984,0.597656,0.961853,0.236206,-0.076965,-0.114746,down
174838,1.519531,4.234375,9.148438,0.314453,0.958984,0.597656,0.962097,0.238037,-0.073303,-0.110901,down
174843,1.519531,4.234375,9.109375,0.240234,0.921875,0.570312,0.96228,0.238831,-0.071472,-0.108948,down
174849,1.558594,4.234375,9.148438,0.216797,0.912109,0.541016,0.96228,0.238831,-0.071472,-0.108948,down
174854,1.480469,4.195312,9.03125,0.216797,0.912109,0.541016,0.962585,0.240234,-0.067749,-0.105347,down
174860,1.441406,4.195312,9.074219,0.207031,0.927734,0.482422,0.962585,0.240234,-0.067749,-0.105347,down
174865,1.367188,4.234375,9.109375,0.205078,0.933594,0.458984,0.962585,0.240234,-0.067749,-0.105347,down
174870,1.328125,4.121094,9.035156,0.205078,0.933594,0.458984,0.963013,0.24231,-0.062012,-0.100403,down
174875,1.367188,4.121094,9.070313,0.232422,0.933594,0.398438,0.963013,0.24231,-0.062012,-0.100403,down
174880,1.328125,4.121094,9.035156,0.230469,0.939453,0.375,0.963013,0.24231,-0.062012,-0.100403,down
174885,1.289063,4.121094,9.035156,0.244141,0.949219,0.349609,0.963013,0.24231,-0.062012,-0.100403,down
174890,1.25,4.195312,8.917969,0.244141,0.949219,0.349609,0.963318,0.245422,-0.054016,-0.094482,down
174896,1.136719,4.3125,8.886719,0.332031,0.974609,0.318359,0.963318,0.245422,-0.054016,-0.094482,down
174901,1.058594,4.351562,8.882813,0.386719,0.984375,0.306641,0.963318,0.245422,-0.054016,-0.094482,down
174907,0.867187,4.617187,8.914063,0.476562,0.972656,0.300781,0.963318,0.245422,-0.054016,-0.094482,down
174912,0.753906,4.695312,8.847656,0.476562,0.972656,0.300781,0.963013,0.250061,-0.045715,-0.089417,down
174917,0.636719,4.808594,8.808594,0.503906,0.923828,0.300781,0.963013,0.250061,-0.045715,-0.089417,down
174923,0.5625,5.0,8.769531,0.503906,0.923828,0.300781,0.962524,0.254272,-0.039734,-0.085327,down
174928,0.5625,5.039062,8.769531,0.503906,0.923828,0.300781,0.962524,0.254272,-0.039734,-0.085327,down
174933,0.5625,5.039062,8.769531,0.427734,0.855469,0.277344,0.962402,0.255493,-0.037964,-0.084106,down
174938,0.523437,5.078125,8.804688,0.375,0.824219,0.263672,0.962402,0.255493,-0.037964,-0.084106,down
174943,0.292969,4.964844,8.574219,0.326172,0.78125,0.261719,0.962402,0.255493,-0.037964,-0.084106,down
174948,0.292969,4.964844,8.574219,0.294922,0.730469,0.253906,0.962036,0.258545,-0.032959,-0.080811,down
174954,0.292969,4.847656,8.574219,0.210937,0.619141,0.244141,0.961975,0.259338,-0.031494,-0.079773,down
174959,0.292969,4.886719,8.574219,0.15625,0.570312,0.230469,0.961975,0.259338,-0.031494,-0.079773,down
174965,0.332031,4.847656,8.503906,0.15625,0.570312,0.230469,0.961853,0.261047,-0.027771,-0.076965,down
174970,0.332031,4.808594,8.460938,0.083984,0.478516,0.232422,0.961853,0.261353,-0.026672,-0.07605,down
174976,0.371094,4.808594,8.425781,0.097656,0.435547,0.238281,0.961853,0.261353,-0.026672,-0.07605,down
174981,0.410156,4.808594,8.34375,0.097656,0.435547,0.238281,0.961853,0.261353,-0.026672,-0.07605,down
174987,0.445312,4.808594,8.34375,0.134766,0.384766,0.201172,0.961853,0.261353,-0.026672,-0.07605,down
174992,0.484375,4.773437,8.304688,0.166016,0.359375,0.15625,0.961853,0.261353,-0.026672,-0.07605,down
174998,0.523437,4.734375,8.304688,0.166016,0.359375,0.15625,0.961548,0.263977,-0.021851,-0.072449,down
175003,0.523437,4.773437,8.304688,0.191406,0.369141,0.111328,0.961426,0.264587,-0.021057,-0.07196,down
175008,0.410156,4.808594,8.226563,0.191406,0.369141,0.111328,0.961304,0.265137,-0.020325,-0.071655,down
175013,0.292969,4.886719,8.148438,0.191406,0.369141,0.111328,0.961182,0.265808,-0.01947,-0.071228,down
175019,0.179687,5.0,8.230469,0.191406,0.369141,0.111328,0.96106,0.266357,-0.018738,-0.070984,down
175024,0.21875,5.039062,8.269531,0.207031,0.332031,0.041016,0.96106,0.266357,-0.018738,-0.070984,down
175030,0.179687,5.117187,8.265625,0.191406,0.308594,0.019531,0.960815,0.267578,-0.017273,-0.070557,down
175035,0.253906,5.191406,8.230469,0.191406,0.308594,0.019531,0.960693,0.268066,-0.016602,-0.070374,down
175040,0.21875,5.230469,8.304688,0.175781,0.283203,-0.025391,0.960693,0.268066,-0.016602,-0.070374,down
175045,0.140625,5.269531,8.230469,0.173828,0.283203,-0.052734,0.960693,0.268066,-0.016602,-0.070374,down
175050,0.140625,5.269531,8.191406,0.181641,0.269531,-0.064453,0.960693,0.268066,-0.016602,-0.070374,down
175055,0.101563,5.347656,8.148438,0.181641,0.269531,-0.064453,0.960693,0.268066,-0.016602,-0.070374,down
175061,0.101563,5.308594,8.269531,0.181641,0.269531,-0.064453,0.960022,0.270691,-0.013306,-0.070435,down
175066,0.027344,5.347656,8.230469,0.185547,0.236328,-0.126953,0.960022,0.270691,-0.013306,-0.070435,down
175072,0.0625,5.308594,8.226563,0.185547,0.236328,-0.126953,0.959534,0.272156,-0.011414,-0.071045,down
175077,0.101563,5.269531,8.226563,0.185547,0.236328,-0.126953,0.959534,0.272156,-0.011414,-0.071045,down
175082,0.101563,5.269531,8.226563,0.177734,0.226562,-0.167969,0.959534,0.272156,-0.011414,-0.071045,down
175087,0.0625,5.230469,8.191406,0.177734,0.226562,-0.167969,0.95929,0.273071,-0.010193,-0.071594,down
175093,-0.011719,5.386719,8.226563,0.177734,0.226562,-0.167969,0.958923,0.274231,-0.008911,-0.072083,down
175098,-0.011719,5.421875,8.226563,0.265625,0.253906,-0.128906,0.958923,0.274231,-0.008911,-0.072083,down
175103,-0.089844,5.5,8.082031,0.28125,0.261719,-0.119141,0.958679,0.274963,-0.00824,-0.072266,down
175108,-0.128906,5.539062,8.082031,0.28125,0.261719,-0.119141,0.958313,0.276367,-0.006958,-0.07251,down
175113,-0.164062,5.613281,8.039063,0.28125,0.261719,-0.119141,0.958069,0.277161,-0.006348,-0.072632,down
175118,-0.28125,5.578125,8.078125,0.292969,0.273438,-0.085937,0.958069,0.277161,-0.006348,-0.072632,down
175123,-0.359375,5.691406,8.042969,0.292969,0.273438,-0.085937,0.957581,0.278748,-0.005005,-0.072876,down
175128,-0.433594,5.730469,8.082031,0.292969,0.273438,-0.085937,0.957581,0.278748,-0.005005,-0.072876,down
175133,-0.359375,5.730469,8.109375,0.261719,0.208984,-0.089844,0.957581,0.278748,-0.005005,-0.072876,down
175138,-0.359375,5.804687,8.109375,0.261719,0.208984,-0.089844,0.956909,0.280945,-0.003357,-0.073181,down
175143,-0.320313,5.730469,8.078125,0.261719,0.208984,-0.089844,0.956726,0.281494,-0.00293,-0.073303,down
175148,-0.242187,5.652344,8.039063,0.205078,0.136719,-0.117188,0.956726,0.281494,-0.00293,-0.073303,down
175153,-0.242187,5.613281,8.078125,0.205078,0.136719,-0.117188,0.956543,0.282043,-0.002502,-0.073547,down
175158,-0.203125,5.578125,8.039063,0.193359,0.128906,-0.119141,0.956543,0.282043,-0.002502,-0.073547,down
175163,-0.164062,5.578125,8.0,0.212891,0.121094,-0.138672,0.956177,0.283142,-0.00177,-0.074097,down
175168,-0.089844,5.539062,7.960937,0.212891,0.121094,-0.138672,0.955811,0.284302,-0.001099,-0.074768,down
175173,-0.050781,5.460937,7.964844,0.212891,0.121094,-0.138672,0.955811,0.284302,-0.001099,-0.074768,down
175178,-0.050781,5.421875,7.925781,0.212891,0.121094,-0.138672,0.955383,0.285522,-0.000305,-0.075317,down
175183,-0.050781,5.421875,7.925781,0.212891,0.121094,-0.138672,0.955383,0.285522,-0.000305,-0.075317,down
175188,-0.050781,5.460937,7.886719,0.296875,0.189453,-0.158203,0.955383,0.285522,-0.000305,-0.075317,down
175193,-0.164062,5.539062,7.847656,0.326172,0.212891,-0.160156,0.955383,0.285522,-0.000305,-0.075317,down
175199,-0.242187,5.652344,7.964844,0.326172,0.212891,-0.160156,0.954285,0.28894,0.001892,-0.076477,down
175204,-0.242187,5.730469,7.925781,0.380859,0.259766,-0.148437,0.954285,0.28894,0.001892,-0.076477,down
175210,-0.320313,5.769531,7.882812,0.382813,0.257813,-0.144531,0.954285,0.28894,0.001892,-0.076477,down
175215,-0.359375,5.804687,7.84375,0.382813,0.257813,-0.144531,0.953308,0.291931,0.003845,-0.077209,down
175221,-0.394531,5.84375,7.847656,0.337891,0.240234,-0.138672,0.953308,0.291931,0.003845,-0.077209,down
