timestamp,ax,ay,az,gx,gy,gz,qw,qx,qy,qz,label
191400,6.925781,6.800781,-0.042969,-0.302734,-0.574219,-0.4375,0.441895,0.694824,0.085632,0.560913,down
191406,6.925781,6.800781,-0.121094,-0.335938,-0.527344,-0.453125,0.441895,0.694824,0.085632,0.560913,down
191412,6.882812,6.839844,-0.199219,-0.369141,-0.513672,-0.458984,0.441895,0.694824,0.085632,0.560913,down
191417,7.035156,6.957031,-0.234375,-0.400391,-0.53125,-0.466797,0.441895,0.694824,0.085632,0.560913,down
191422,7.03125,6.992187,-0.273438,-0.400391,-0.53125,-0.466797,0.448669,0.695923,0.084351,0.55426,down
191428,6.996094,6.992187,-0.3125,-0.472656,-0.507812,-0.488281,0.448669,0.695923,0.084351,0.55426,down
191433,6.996094,7.070312,-0.390625,-0.472656,-0.507812,-0.488281,0.45343,0.696106,0.083374,0.550354,down
191438,6.960937,7.222656,-0.425781,-0.472656,-0.507812,-0.488281,0.454956,0.696106,0.083069,0.549133,down
191443,6.882812,7.148437,-0.160156,-0.501953,-0.503906,-0.478516,0.454956,0.696106,0.083069,0.549133,down
191448,6.769531,7.148437,-0.042969,-0.537109,-0.476562,-0.458984,0.456726,0.696106,0.082703,0.547729,down
191453,6.613281,7.21875,-0.007813,-0.537109,-0.476562,-0.458984,0.459839,0.695923,0.081909,0.54541,down
191458,6.574219,7.300781,0.070312,-0.537109,-0.476562,-0.458984,0.461548,0.695801,0.081421,0.54425,down
191463,6.539062,7.375,0.148437,-0.537109,-0.476562,-0.458984,0.461548,0.695801,0.081421,0.54425,down
191468,6.460937,7.375,0.300781,-0.554687,-0.449219,-0.441406,0.461548,0.695801,0.081421,0.54425,down
191473,6.460937,7.453125,0.375,-0.554687,-0.449219,-0.441406,0.46637,0.695374,0.080139,0.540894,down
191478,6.5,7.453125,0.375,-0.554687,-0.449219,-0.441406,0.46637,0.695374,0.080139,0.540894,down
191483,6.460937,7.53125,0.375,-0.519531,-0.376953,-0.455078,0.46637,0.695374,0.080139,0.540894,down
191488,6.5,7.453125,0.453125,-0.519531,-0.376953,-0.455078,0.471069,0.694824,0.079102,0.537598,down
191493,6.421875,7.53125,0.570312,-0.519531,-0.376953,-0.455078,0.472717,0.694519,0.078857,0.536621,down
191498,6.382812,7.535156,0.605469,-0.519531,-0.376953,-0.455078,0.472717,0.694519,0.078857,0.536621,down
191503,6.347656,7.492187,0.605469,-0.544922,-0.269531,-0.494141,0.476074,0.693665,0.078491,0.534729,down
191508,6.269531,7.417969,0.796875,-0.544922,-0.269531,-0.494141,0.476074,0.693665,0.078491,0.534729,down
191513,6.191406,7.378906,0.875,-0.544922,-0.269531,-0.494141,0.477966,0.693115,0.078491,0.533813,down
191518,6.191406,7.378906,0.875,-0.572266,-0.128906,-0.554687,0.479553,0.692566,0.078552,0.533142,down
191523,5.65625,7.261719,0.722656,-0.554687,-0.085937,-0.566406,0.481201,0.691895,0.078674,0.532471,down
191528,5.65625,7.261719,0.722656,-0.552734,-0.054687,-0.585937,0.48291,0.691162,0.078918,0.531799,down
191533,5.3125,7.261719,0.835937,-0.501953,-0.058594,-0.580078,0.48291,0.691162,0.078918,0.531799,down
191538,5.3125,7.261719,0.835937,-0.457031,-0.072266,-0.591797,0.486206,0.68988,0.079529,0.530457,down
191544,5.082031,7.152344,0.953125,-0.457031,-0.072266,-0.591797,0.489319,0.688782,0.080322,0.52887,down
191549,5.121094,7.148437,1.066406,-0.457031,-0.072266,-0.591797,0.490784,0.688354,0.080811,0.527954,down
191554,5.3125,7.257812,1.179688,-0.457031,-0.072266,-0.591797,0.492249,0.688049,0.08136,0.526917,down
191559,5.386719,7.183594,1.296875,-0.255859,-0.226562,-0.705078,0.492249,0.688049,0.08136,0.526917,down
191564,5.464844,7.21875,1.296875,-0.255859,-0.226562,-0.705078,0.494995,0.687622,0.082642,0.524658,down
191569,5.503906,7.222656,1.335938,-0.207031,-0.201172,-0.751953,0.496521,0.687439,0.083557,0.523376,down
191575,5.582031,7.152344,1.335938,-0.207031,-0.201172,-0.751953,0.497742,0.687256,0.084351,0.522339,down
191581,5.503906,7.074219,1.296875,-0.207031,-0.201172,-0.751953,0.499329,0.686951,0.085266,0.521057,down
191587,5.464844,7.035156,1.335938,-0.349609,-0.09375,-0.8125,0.499329,0.686951,0.085266,0.521057,down
191592,5.425781,6.992187,1.335938,-0.4375,-0.037109,-0.824219,0.499329,0.686951,0.085266,0.521057,down
191597,5.3125,6.917969,1.335938,-0.515625,0.021484,-0.837891,0.499329,0.686951,0.085266,0.521057,down
191602,5.195312,6.875,1.296875,-0.597656,0.087891,-0.867187,0.499329,0.686951,0.085266,0.521057,down
191607,5.195312,6.796875,1.335938,-0.662109,0.125,-0.890625,0.499329,0.686951,0.085266,0.521057,down
191613,5.082031,6.769531,1.410156,-0.708984,0.158203,-0.910156,0.499329,0.686951,0.085266,0.521057,down
191619,5.042969,6.6875,1.488281,-0.730469,0.199219,-0.939453,0.515747,0.678833,0.092285,0.514465,down
191624,4.929687,6.652344,1.566406,-0.703125,0.322266,-1.001953,0.518311,0.677185,0.093567,0.513855,down
191629,4.585937,6.613281,1.527344,-0.703125,0.322266,-1.001953,0.520752,0.675476,0.094971,0.513306,down
191634,4.355469,6.535156,1.449219,-0.703125,0.322266,-1.001953,0.520752,0.675476,0.094971,0.513306,down
191639,4.046875,6.453125,1.410156,-0.589844,0.523437,-1.0625,0.520752,0.675476,0.094971,0.513306,down
191644,3.703125,6.269531,1.257813,-0.589844,0.523437,-1.0625,0.527466,0.670349,0.100037,0.512268,down
191649,3.320313,6.269531,1.066406,-0.589844,0.523437,-1.0625,0.529297,0.668701,0.101685,0.512146,down
191654,2.746094,6.230469,0.683594,-0.541016,0.464844,-1.003906,0.529297,0.668701,0.101685,0.512146,down
191659,2.746094,6.230469,0.683594,-0.490234,0.222656,-0.978516,0.533386,0.665588,0.104858,0.511353,down
191664,2.59375,6.378906,0.722656,-0.490234,0.222656,-0.978516,0.5354,0.664551,0.106018,0.510315,down
191669,2.785156,6.730469,1.21875,-0.490234,0.222656,-0.978516,0.537415,0.66394,0.106934,0.508911,down
191675,3.050781,6.917969,1.792969,-0.490234,0.222656,-0.978516,0.539185,0.663696,0.107727,0.507141,down
191680,3.207031,6.992187,1.832031,-0.082031,-0.476562,-0.984375,0.540771,0.663757,0.108521,0.505188,down
191685,3.359375,6.957031,1.832031,0.105469,-0.505859,-1.015625,0.540771,0.663757,0.108521,0.505188,down
191690,3.398438,6.957031,1.601563,0.105469,-0.505859,-1.015625,0.540771,0.663757,0.108521,0.505188,down
191695,3.511719,6.835937,1.488281,0.380859,-0.53125,-1.123047,0.540771,0.663757,0.108521,0.505188,down
191700,3.625,6.878906,1.371094,0.462891,-0.542969,-1.15625,0.540771,0.663757,0.108521,0.505188,down
191705,3.703125,6.878906,1.335938,0.455078,-0.541016,-1.205078,0.540771,0.663757,0.108521,0.505188,down
191712,4.007812,6.878906,1.335938,0.455078,-0.541016,-1.205078,0.540771,0.663757,0.108521,0.505188,down
191717,4.125,6.996094,1.257813,0.322266,-0.507812,-1.271484,0.540771,0.663757,0.108521,0.505188,down
191722,4.164062,6.875,1.105469,0.195312,-0.443359,-1.304688,0.540771,0.663757,0.108521,0.505188,down
191727,4.046875,6.800781,0.988281,0.050781,-0.34375,-1.337891,0.540771,0.663757,0.108521,0.505188,down
191732,3.894531,6.800781,0.796875,0.050781,-0.34375,-1.337891,0.552612,0.669373,0.125427,0.480408,down
191738,3.894531,6.800781,0.796875,-0.318359,-0.052734,-1.373047,0.554565,0.668823,0.127258,0.478516,down
191743,3.28125,6.800781,0.070312,-0.488281,0.021484,-1.378906,0.556885,0.667786,0.129028,0.476746,down
191748,3.28125,6.800781,0.070312,-0.597656,0.037109,-1.384766,0.556885,0.667786,0.129028,0.476746,down
191753,3.089844,6.875,-0.082031,-0.597656,0.037109,-1.384766,0.559387,0.666565,0.130798,0.475098,down
191758,3.089844,6.875,-0.082031,-0.677734,-0.078125,-1.386719,0.56488,0.663757,0.133911,0.471619,down
191763,2.898438,7.605469,0.03125,-0.677734,-0.078125,-1.386719,0.567566,0.662476,0.135315,0.469727,down
191769,2.859375,7.796875,0.148437,-0.259766,-0.226562,-1.474609,0.567566,0.662476,0.135315,0.469727,down
191774,2.9375,7.957031,0.261719,-0.259766,-0.226562,-1.474609,0.574707,0.660095,0.140564,0.46283,down
191780,2.820313,8.566406,0.414062,-0.259766,-0.226562,-1.474609,0.576416,0.659851,0.142944,0.460327,down
191785,2.707031,8.722656,0.375,0.507812,-0.150391,-1.642578,0.576416,0.659851,0.142944,0.460327,down
191790,2.59375,8.828125,0.414062,0.720703,-0.134766,-1.666016,0.576416,0.659851,0.142944,0.460327,down
191795,2.59375,8.828125,0.414062,0.914062,-0.105469,-1.708984,0.579224,0.661011,0.15271,0.451904,down
191801,2.171875,9.027344,-0.042969,0.914062,-0.105469,-1.708984,0.57959,0.661865,0.156555,0.448975,down
191807,1.980469,8.945313,-0.082031,1.144531,-0.064453,-1.748047,0.57959,0.661865,0.156555,0.448975,down
191813,1.941406,8.90625,-0.199219,1.199219,-0.109375,-1.751953,0.57959,0.661865,0.156555,0.448975,down
191818,2.019531,9.253906,-0.273438,1.216797,-0.191406,-1.736328,0.57959,0.661865,0.156555,0.448975,down
191824,2.09375,9.371094,-0.234375,1.181641,-0.353516,-1.689453,0.57959,0.661865,0.156555,0.448975,down
191829,2.402344,9.632813,-0.007813,1.181641,-0.353516,-1.689453,0.579712,0.668945,0.180359,0.428833,down
191834,2.363281,9.632813,0.03125,1.181641,-0.353516,-1.689453,0.579834,0.669983,0.183533,0.42572,down
191839,2.402344,9.675781,-0.007813,0.970703,-0.269531,-1.644531,0.579834,0.669983,0.183533,0.42572,down
191844,2.476563,9.789063,-0.121094,0.873047,-0.230469,-1.621094,0.580017,0.671082,0.187378,0.422058,down
191849,2.476563,10.015625,-0.390625,0.873047,-0.230469,-1.621094,0.580688,0.672424,0.19397,0.415955,down
191854,2.363281,10.097656,-0.425781,0.873047,-0.230469,-1.621094,0.580688,0.672424,0.19397,0.415955,down
191859,2.363281,10.097656,-0.425781,0.734375,-0.240234,-1.583984,0.581116,0.672913,0.197021,0.413086,down
191864,2.363281,10.210938,-0.464844,0.703125,-0.251953,-1.583984,0.581116,0.672913,0.197021,0.413086,down
191869,2.171875,10.332031,-0.582031,0.669922,-0.246094,-1.585938,0.581116,0.672913,0.197021,0.413086,down
191874,2.171875,10.332031,-0.582031,0.623047,-0.228516,-1.574219,0.582886,0.674133,0.206177,0.404053,down
191880,1.941406,10.289063,-0.65625,0.603516,-0.1875,-1.5625,0.584167,0.674622,0.212219,0.398254,down
191886,1.632813,10.328125,-1.003906,0.603516,-0.1875,-1.5625,0.584778,0.674683,0.215332,0.395569,down
191892,1.40625,10.210938,-1.230469,0.603516,-0.1875,-1.5625,0.584778,0.674683,0.215332,0.395569,down
191897,1.25,10.136719,-1.269531,0.433594,-0.095703,-1.498047,0.584778,0.674683,0.215332,0.395569,down
191902,1.058594,10.09375,-1.230469,0.404297,-0.152344,-1.462891,0.584778,0.674683,0.215332,0.395569,down
191908,0.90625,10.054688,-1.269531,0.404297,-0.152344,-1.462891,0.584778,0.674683,0.215332,0.395569,down
191913,0.867187,10.058594,-1.230469,0.408203,-0.275391,-1.380859,0.584778,0.674683,0.215332,0.395569,down
191918,0.792969,10.136719,-1.195313,0.429687,-0.46875,-1.287109,0.584778,0.674683,0.215332,0.395569,down
191923,0.753906,10.132813,-1.117188,0.429687,-0.46875,-1.287109,0.590149,0.6745,0.233704,0.377014,down
191928,0.753906,10.25,-0.925781,0.429687,-0.46875,-1.287109,0.590942,0.674866,0.235474,0.374023,down
191934,0.832031,10.332031,-0.886719,0.451172,-0.689453,-1.216797,0.590942,0.674866,0.235474,0.374023,down
191939,0.945312,10.515625,-0.8125,0.503906,-0.785156,-1.212891,0.590942,0.674866,0.235474,0.374023,down
191945,0.945312,10.519531,-0.773437,0.503906,-0.785156,-1.212891,0.593872,0.677856,0.241455,0.359802,down
191950,1.023438,10.519531,-0.8125,0.71875,-1.039063,-1.257813,0.594482,0.679016,0.242737,0.355896,down
191956,0.984375,10.59375,-0.886719,0.71875,-1.039063,-1.257813,0.59491,0.680054,0.243835,0.352295,down
191961,1.023438,10.714844,-1.117188,0.71875,-1.039063,-1.257813,0.595459,0.681335,0.245056,0.348083,down
191968,1.023438,10.785156,-1.195313,0.703125,-1.232422,-1.330078,0.595459,0.681335,0.245056,0.348083,down
191973,0.867187,10.824219,-1.117188,0.640625,-1.296875,-1.337891,0.595459,0.681335,0.245056,0.348083,down
191978,0.867187,10.824219,-1.117188,0.560547,-1.332031,-1.363281,0.597839,0.684998,0.248108,0.334473,down
191983,0.945312,10.941406,-1.195313,0.560547,-1.332031,-1.363281,0.597839,0.684998,0.248108,0.334473,down
191988,0.867187,10.902344,-1.195313,0.359375,-1.371094,-1.390625,0.597839,0.684998,0.248108,0.334473,down
191993,0.867187,10.902344,-1.195313,0.273438,-1.375,-1.392578,0.601624,0.6875,0.250244,0.320557,down
191998,0.753906,10.785156,-1.460938,0.273438,-1.375,-1.392578,0.603271,0.688049,0.250793,0.315918,down
192003,0.675781,10.671875,-1.578125,0.132812,-1.347656,-1.373047,0.603271,0.688049,0.250793,0.315918,down
192008,0.5625,10.675781,-1.652344,0.089844,-1.363281,-1.355469,0.603271,0.688049,0.250793,0.315918,down
192013,0.523437,10.671875,-1.613281,0.089844,-1.363281,-1.355469,0.608521,0.689026,0.252197,0.302185,down
192019,0.484375,10.714844,-1.613281,0.113281,-1.441406,-1.306641,0.611755,0.689758,0.252625,0.293579,down
192024,0.410156,10.714844,-1.691406,0.113281,-1.441406,-1.306641,0.611755,0.689758,0.252625,0.293579,down
192029,0.332031,10.746094,-1.652344,0.289063,-1.582031,-1.273438,0.611755,0.689758,0.252625,0.293579,down
192034,0.332031,11.132813,-1.652344,0.289063,-1.582031,-1.273438,0.616272,0.691711,0.252869,0.27887,down
192039,0.292969,11.242188,-1.691406,0.289063,-1.582031,-1.273438,0.616272,0.691711,0.252869,0.27887,down
192044,0.332031,11.242188,-1.691406,0.486328,-1.679688,-1.259766,0.616272,0.691711,0.252869,0.27887,down
192050,0.253906,11.320313,-1.769531,0.486328,-1.679688,-1.259766,0.619568,0.694763,0.252686,0.263855,down
192056,0.101563,11.480469,-2.074219,0.486328,-1.679688,-1.259766,0.620544,0.695801,0.252625,0.258728,down
192062,0.027344,11.546875,-2.152344,0.513672,-1.728516,-1.244141,0.620544,0.695801,0.252625,0.258728,down
192068,0.027344,11.707031,-2.226563,0.507812,-1.755859,-1.236328,0.620544,0.695801,0.252625,0.258728,down
192073,0.027344,11.707031,-2.226563,0.480469,-1.765625,-1.21875,0.620544,0.695801,0.252625,0.258728,down
192079,-0.011719,11.742188,-2.152344,0.431641,-1.759766,-1.212891,0.620544,0.695801,0.252625,0.258728,down
192084,-0.011719,11.859375,-2.226563,0.369141,-1.748047,-1.195313,0.620544,0.695801,0.252625,0.258728,down
192089,-0.050781,11.820313,-2.226563,0.369141,-1.748047,-1.195313,0.628357,0.702271,0.250549,0.221863,down
192094,-0.050781,11.824219,-2.265625,0.369141,-1.748047,-1.195313,0.628357,0.702271,0.250549,0.221863,down
192099,-0.050781,11.824219,-2.265625,0.117188,-1.673828,-1.125,0.6297,0.702637,0.250061,0.217468,down
192104,-0.050781,11.824219,-2.265625,0.070312,-1.621094,-1.083984,0.6297,0.702637,0.250061,0.217468,down
192109,-0.164062,11.96875,-2.304688,0.070312,-1.621094,-1.083984,0.6297,0.702637,0.250061,0.217468,down
192114,-0.203125,12.011719,-2.382813,-0.033203,-1.537109,-1.044922,0.635681,0.703369,0.247681,0.199646,down
192119,-0.28125,12.125,-2.265625,-0.033203,-1.537109,-1.044922,0.635681,0.703369,0.247681,0.199646,down
192125,-0.359375,12.203125,-2.304688,-0.080078,-1.482422,-1.007813,0.638794,0.703247,0.246521,0.191284,down
192130,-0.394531,12.207031,-2.417969,-0.087891,-1.421875,-0.988281,0.640503,0.703125,0.245972,0.186829,down
192136,-0.394531,12.246094,-2.34375,-0.087891,-1.421875,-0.988281,0.641846,0.703003,0.245483,0.183228,down
192141,-0.472656,12.28125,-2.226563,-0.087891,-1.421875,-0.988281,0.643311,0.702881,0.244812,0.179199,down
192147,-0.359375,12.089844,-2.152344,-0.087891,-1.421875,-0.988281,0.643311,0.702881,0.244812,0.179199,down
192152,-0.359375,11.972656,-2.0,-0.169922,-1.285156,-0.845703,0.646179,0.702515,0.243652,0.171875,down
192157,-0.550781,12.011719,-2.113281,-0.220703,-1.220703,-0.800781,0.646179,0.702515,0.243652,0.171875,down
192162,-0.472656,11.78125,-2.152344,-0.28125,-1.166016,-0.785156,0.646179,0.702515,0.243652,0.171875,down
192167,-0.472656,11.667969,-2.074219,-0.302734,-1.177734,-0.763672,0.646179,0.702515,0.243652,0.171875,down
192173,-0.433594,11.667969,-1.882813,-0.271484,-1.169922,-0.726562,0.646179,0.702515,0.243652,0.171875,down
192178,-0.511719,11.515625,-1.652344,-0.228516,-1.117188,-0.689453,0.646179,0.702515,0.243652,0.171875,down
192183,-0.511719,11.480469,-1.652344,-0.228516,-1.117188,-0.689453,0.654968,0.700073,0.239746,0.153198,down
192188,-0.625,11.546875,-1.652344,-0.208984,-1.033203,-0.591797,0.654968,0.700073,0.239746,0.153198,down
192193,-0.625,11.550781,-1.691406,-0.222656,-1.019531,-0.564453,0.654968,0.700073,0.239746,0.153198,down
192199,-0.625,11.546875,-1.613281,-0.222656,-1.019531,-0.564453,0.659668,0.698853,0.236816,0.142822,down
192204,-0.664062,11.550781,-1.691406,-0.222656,-1.019531,-0.564453,0.659668,0.698853,0.236816,0.142822,down
192209,-0.664062,11.519531,-1.613281,0.021484,-0.996094,-0.494141,0.661133,0.698975,0.235291,0.137695,down
192214,-0.742187,11.550781,-1.691406,0.021484,-0.996094,-0.494141,0.661133,0.698975,0.235291,0.137695,down
192219,-0.742187,11.589844,-1.652344,0.021484,-0.996094,-0.494141,0.66156,0.699341,0.234497,0.135132,down
192225,-0.742187,11.628906,-1.613281,0.248047,-1.029297,-0.353516,0.66156,0.699341,0.234497,0.135132,down
192230,-0.625,11.519531,-1.578125,0.248047,-1.029297,-0.353516,0.662598,0.700684,0.231873,0.127441,down
192235,-0.664062,11.519531,-1.5,0.248047,-1.029297,-0.353516,0.662598,0.700684,0.231873,0.127441,down
192240,-0.664062,11.519531,-1.5,0.158203,-0.994141,-0.271484,0.662964,0.701111,0.230896,0.125244,down
192245,-0.625,11.4375,-1.539063,0.158203,-0.994141,-0.271484,0.663391,0.701416,0.229736,0.122986,down
192250,-0.664062,11.285156,-1.578125,0.037109,-0.960937,-0.193359,0.663391,0.701416,0.229736,0.122986,down
192255,-0.664062,11.285156,-1.578125,0.011719,-0.935547,-0.164062,0.66449,0.701904,0.227295,0.118896,down
192261,-0.625,11.097656,-1.691406,-0.001953,-0.921875,-0.125,0.665588,0.702271,0.224792,0.115295,down
192267,-0.511719,10.859375,-1.539063,-0.001953,-0.921875,-0.125,0.666138,0.702393,0.22345,0.113586,down
192272,-0.550781,10.785156,-1.539063,-0.005859,-0.833984,-0.035156,0.666138,0.702393,0.22345,0.113586,down
192278,-0.585937,10.746094,-1.613281,0.011719,-0.794922,-0.013672,0.666138,0.702393,0.22345,0.113586,down
192283,-0.550781,10.632813,-1.613281,0.041016,-0.775391,0.007813,0.666138,0.702393,0.22345,0.113586,down
192288,-0.550781,10.675781,-1.652344,0.076172,-0.759766,0.021484,0.666138,0.702393,0.22345,0.113586,down
192293,-0.511719,10.597656,-1.652344,0.107422,-0.740234,0.027344,0.666138,0.702393,0.22345,0.113586,down
192298,-0.511719,10.554688,-1.613281,0.132812,-0.722656,0.039063,0.666138,0.702393,0.22345,0.113586,down
192304,-0.585937,10.675781,-1.539063,0.132812,-0.722656,0.039063,0.666138,0.702393,0.22345,0.113586,down
192309,-0.550781,10.558594,-1.5,0.132812,-0.722656,0.039063,0.668579,0.704895,0.213501,0.102722,down
192315,-0.550781,10.597656,-1.421875,0.074219,-0.595703,0.111328,0.668579,0.704895,0.213501,0.102722,down
192320,-0.625,10.558594,-1.5,0.074219,-0.595703,0.111328,0.669006,0.705872,0.210266,0.100037,down
192325,-0.664062,10.476563,-1.539063,-0.035156,-0.544922,0.132812,0.669006,0.705872,0.210266,0.100037,down
192330,-0.664062,10.476563,-1.578125,-0.035156,-0.544922,0.132812,0.669678,0.706116,0.207947,0.098511,down
192335,-0.703125,10.519531,-1.578125,-0.035156,-0.544922,0.132812,0.669678,0.706116,0.207947,0.098511,down
192340,-0.742187,10.4375,-1.578125,-0.074219,-0.507812,0.154297,0.670349,0.706238,0.205811,0.097351,down
192345,-0.703125,10.4375,-1.5,-0.074219,-0.507812,0.154297,0.670349,0.706238,0.205811,0.097351,down
192350,-0.777344,10.4375,-1.460938,-0.121094,-0.439453,0.148437,0.670349,0.706238,0.205811,0.097351,down
192355,-0.777344,10.4375,-1.460938,-0.121094,-0.439453,0.148437,0.67157,0.706177,0.202759,0.095947,down
192360,-0.816406,10.332031,-1.5,-0.121094,-0.439453,0.148437,0.67157,0.706177,0.202759,0.095947,down
192365,-0.855469,10.332031,-1.5,-0.222656,-0.355469,0.15625,0.672058,0.706055,0.201843,0.095581,down
192370,-0.855469,10.332031,-1.5,-0.222656,-0.355469,0.15625,0.673157,0.705566,0.200012,0.095093,down
192375,-0.855469,10.292969,-1.5,-0.222656,-0.355469,0.15625,0.673157,0.705566,0.200012,0.095093,down
192380,-0.855469,10.292969,-1.5,-0.316406,-0.271484,0.183594,0.673706,0.705261,0.199219,0.094971,down
192385,-0.894531,10.210938,-1.539063,-0.316406,-0.271484,0.183594,0.675049,0.704468,0.197449,0.094971,down
192390,-0.894531,10.054688,-1.421875,-0.316406,-0.271484,0.183594,0.675049,0.704468,0.197449,0.094971,down
192395,-0.855469,10.019531,-1.386719,-0.316406,-0.271484,0.183594,0.67572,0.704041,0.196594,0.095032,down
192400,-0.894531,9.941406,-1.347656,-0.34375,-0.207031,0.199219,0.677002,0.703186,0.19519,0.095276,down
192405,-0.933594,9.941406,-1.347656,-0.316406,-0.140625,0.201172,0.677002,0.703186,0.19519,0.095276,down
192410,-0.933594,9.941406,-1.347656,-0.316406,-0.140625,0.201172,0.677673,0.702759,0.194458,0.09552,down
192415,-0.933594,9.910156,-1.347656,-0.316406,-0.140625,0.201172,0.67865,0.702026,0.193298,0.09613,down
192420,-0.96875,9.910156,-1.386719,-0.316406,-0.140625,0.201172,0.679077,0.70166,0.192749,0.096436,down
192425,-1.007813,9.871094,-1.386719,-0.316406,-0.140625,0.201172,0.679077,0.70166,0.192749,0.096436,down
192430,-1.007813,9.828125,-1.308594,-0.207031,-0.0625,0.207031,0.679077,0.70166,0.192749,0.096436,down
192435,-0.96875,9.90625,-1.308594,-0.136719,-0.025391,0.216797,0.67981,0.701172,0.191772,0.097107,down
192440,-1.046875,9.871094,-1.308594,-0.136719,-0.025391,0.216797,0.680237,0.700928,0.190918,0.0979,down
192445,-1.046875,9.871094,-1.308594,-0.136719,-0.025391,0.216797,0.680237,0.700928,0.190918,0.0979,down
192450,-1.046875,9.828125,-1.230469,-0.136719,-0.025391,0.216797,0.680481,0.700684,0.190125,0.098938,down
192455,-1.046875,9.792969,-1.269531,-0.136719,-0.025391,0.216797,0.680481,0.700684,0.190125,0.098938,down
192460,-1.085938,9.753906,-1.230469,-0.119141,0.054687,0.244141,0.680481,0.700684,0.190125,0.098938,down
192466,-1.007813,9.671875,-1.195313,-0.119141,0.054687,0.244141,0.680847,0.700378,0.189148,0.100586,down
192472,-1.046875,9.632813,-1.230469,-0.119141,0.054687,0.244141,0.680908,0.700317,0.188843,0.101196,down
192477,-1.007813,9.636719,-1.195313,-0.083984,0.113281,0.248047,0.680969,0.700256,0.188599,0.101868,down
192482,-1.007813,9.636719,-1.230469,-0.087891,0.125,0.251953,0.680969,0.700256,0.188599,0.101868,down
192487,-1.007813,9.636719,-1.195313,-0.087891,0.125,0.251953,0.680969,0.700256,0.188599,0.101868,down
192493,-1.046875,9.675781,-1.195313,-0.066406,0.142578,0.244141,0.680969,0.700256,0.188599,0.101868,down
192499,-1.046875,9.675781,-1.195313,-0.060547,0.150391,0.238281,0.680969,0.700256,0.188599,0.101868,down
192505,-1.007813,9.714844,-1.230469,-0.025391,0.179687,0.238281,0.680969,0.700256,0.188599,0.101868,down
192510,-1.046875,9.753906,-1.269531,-0.025391,0.179687,0.238281,0.680908,0.700012,0.1875,0.106079,down
192515,-1.046875,9.710938,-1.230469,-0.019531,0.193359,0.224609,0.680908,0.700012,0.1875,0.106079,down
192521,-1.007813,9.714844,-1.230469,-0.019531,0.193359,0.224609,0.680542,0.700012,0.187317,0.108337,down
192526,-0.96875,9.714844,-1.230469,-0.013672,0.222656,0.220703,0.68042,0.700012,0.187317,0.109192,down
192531,-0.96875,9.671875,-1.230469,-0.023437,0.236328,0.222656,0.680298,0.700012,0.187317,0.109985,down
192536,-0.96875,9.671875,-1.230469,-0.023437,0.236328,0.222656,0.680176,0.700012,0.187378,0.110718,down
192542,-0.855469,9.558594,-1.195313,-0.023437,0.236328,0.222656,0.680054,0.699951,0.1875,0.111572,down
192547,-0.894531,9.527344,-1.195313,-0.056641,0.28125,0.220703,0.679932,0.69989,0.187561,0.112488,down
192552,-0.855469,9.484375,-1.195313,-0.0625,0.296875,0.210937,0.679932,0.69989,0.187561,0.112488,down
192558,-0.933594,9.484375,-1.117188,-0.0625,0.296875,0.210937,0.679749,0.699707,0.187866,0.11438,down
192564,-0.855469,9.445313,-1.117188,-0.054687,0.339844,0.208984,0.679749,0.699707,0.187866,0.11438,down
192569,-0.855469,9.445313,-1.117188,-0.037109,0.357422,0.208984,0.679749,0.699707,0.187866,0.11438,down
192574,-0.816406,9.445313,-1.117188,-0.035156,0.378906,0.201172,0.679749,0.699707,0.187866,0.11438,down
192580,-0.855469,9.488281,-1.078125,-0.035156,0.378906,0.201172,0.679749,0.699707,0.187866,0.11438,down
192585,-0.855469,9.488281,-1.078125,0.011719,0.439453,0.169922,0.679749,0.699707,0.187866,0.11438,down
192590,-0.816406,9.445313,-1.078125,0.011719,0.439453,0.169922,0.67865,0.699219,0.18988,0.120544,down
192595,-0.777344,9.445313,-1.003906,0.011719,0.439453,0.169922,0.678284,0.699158,0.19043,0.121704,down
192601,-0.742187,9.488281,-1.003906,0.025391,0.505859,0.132812,0.67804,0.699097,0.190979,0.122681,down
192606,-0.777344,9.445313,-1.003906,0.025391,0.505859,0.132812,0.677307,0.698975,0.192383,0.125,down
192612,-0.703125,9.449219,-0.925781,0.025391,0.505859,0.132812,0.677063,0.698914,0.193054,0.126038,down
192617,-0.664062,9.449219,-0.925781,-0.023437,0.580078,0.097656,0.676758,0.69873,0.193909,0.127258,down
192622,-0.625,9.488281,-0.886719,-0.054687,0.605469,0.085937,0.676758,0.69873,0.193909,0.127258,down
192627,-0.625,9.445313,-0.886719,-0.091797,0.640625,0.074219,0.676758,0.69873,0.193909,0.127258,down
192632,-0.511719,9.484375,-0.847656,-0.091797,0.640625,0.074219,0.676758,0.69873,0.193909,0.127258,down
192637,-0.511719,9.449219,-0.886719,-0.142578,0.685547,0.064453,0.676758,0.69873,0.193909,0.127258,down
192642,-0.433594,9.445313,-0.886719,-0.146484,0.710937,0.052734,0.676758,0.69873,0.193909,0.127258,down
192647,-0.433594,9.527344,-0.847656,-0.146484,0.710937,0.052734,0.676758,0.69873,0.193909,0.127258,down
192652,-0.320313,9.523438,-0.847656,-0.146484,0.710937,0.052734,0.676758,0.69873,0.193909,0.127258,down
192658,-0.28125,9.554688,-0.886719,-0.154297,0.820312,0.025391,0.676758,0.69873,0.193909,0.127258,down
192663,-0.242187,9.714844,-0.886719,-0.152344,0.857422,0.019531,0.676758,0.69873,0.193909,0.127258,down
192668,-0.203125,9.753906,-0.847656,-0.144531,0.888672,0.017578,0.676758,0.69873,0.193909,0.127258,down
192674,-0.164062,9.832031,-0.886719,-0.142578,0.927734,0.001953,0.676758,0.69873,0.193909,0.127258,down
192679,-0.164062,9.832031,-0.886719,-0.142578,0.955078,-0.001953,0.674622,0.693237,0.208008,0.144836,down
192684,-0.089844,9.9375,-0.886719,-0.144531,0.976562,-0.021484,0.674377,0.692627,0.209717,0.146606,down
192689,-0.089844,9.9375,-0.886719,-0.136719,0.996094,-0.03125,0.674133,0.692017,0.211365,0.148315,down
192695,-0.128906,10.132813,-0.886719,-0.136719,0.996094,-0.03125,0.673828,0.691406,0.213074,0.150085,down
192700,-0.128906,10.132813,-0.886719,-0.162109,1.037109,-0.052734,0.673523,0.690735,0.214905,0.151917,down
192705,-0.164062,10.671875,-1.003906,-0.162109,1.037109,-0.052734,0.673523,0.690735,0.214905,0.151917,down
192711,-0.050781,10.785156,-1.039063,-0.253906,1.060547,-0.103516,0.673523,0.690735,0.214905,0.151917,down
192716,0.0625,10.902344,-1.039063,-0.253906,1.060547,-0.103516,0.672852,0.687378,0.22229,0.159119,down
192722,0.292969,11.058594,-1.078125,-0.253906,1.060547,-0.103516,0.672852,0.68634,0.224182,0.16095,down
192727,0.410156,11.207031,-1.117188,-0.427734,1.099609,-0.126953,0.672974,0.68512,0.226196,0.162903,down
192732,0.410156,11.285156,-1.15625,-0.488281,1.119141,-0.111328,0.673157,0.683838,0.228088,0.164856,down
192738,0.484375,11.476563,-1.230469,-0.488281,1.119141,-0.111328,0.673401,0.682434,0.230042,0.166992,down
192744,0.445312,11.546875,-1.269531,-0.59375,1.173828,-0.076172,0.673401,0.682434,0.230042,0.166992,down
192749,0.523437,11.585938,-1.308594,-0.632812,1.210938,-0.050781,0.673401,0.682434,0.230042,0.166992,down
192755,0.484375,11.746094,-1.230469,-0.671875,1.248047,-0.017578,0.673401,0.682434,0.230042,0.166992,down
192760,0.484375,11.78125,-1.269531,-0.679687,1.285156,0.021484,0.674866,0.676025,0.23761,0.176392,down
192765,0.445312,11.859375,-1.230469,-0.679687,1.285156,0.021484,0.675171,0.674316,0.239441,0.179016,down
192771,0.484375,11.972656,-1.195313,-0.660156,1.378906,0.089844,0.675171,0.674316,0.239441,0.179016,down
192776,0.523437,12.050781,-1.117188,-0.660156,1.378906,0.089844,0.675781,0.669312,0.245178,0.187866,down
192781,0.523437,12.125,-1.117188,-0.597656,1.503906,0.191406,0.675781,0.669312,0.245178,0.187866,down
192786,0.5625,12.246094,-1.078125,-0.597656,1.503906,0.191406,0.675781,0.66748,0.247314,0.191345,down
192791,0.5625,12.390625,-1.039063,-0.599609,1.574219,0.208984,0.675781,0.66748,0.247314,0.191345,down
192796,0.601562,12.472656,-1.039063,-0.615234,1.691406,0.267578,0.675598,0.664246,0.251282,0.197876,down
192801,0.601562,12.46875,-1.003906,-0.615234,1.691406,0.267578,0.675171,0.660889,0.255493,0.205078,down
192806,0.636719,12.550781,-0.886719,-0.615234,1.691406,0.267578,0.675171,0.660889,0.255493,0.205078,down
192811,0.601562,12.625,-0.8125,-0.615234,1.691406,0.267578,0.674683,0.657166,0.259949,0.213074,down
192816,0.601562,12.667969,-0.734375,-0.615234,1.691406,0.267578,0.674683,0.657166,0.259949,0.213074,down
192821,0.601562,12.667969,-0.734375,-0.732422,2.003906,0.400391,0.674316,0.654846,0.262573,0.218018,down
192826,0.5625,12.777344,-0.542969,-0.755859,2.085938,0.443359,0.674011,0.653015,0.264648,0.221985,down
192831,0.5625,12.777344,-0.542969,-0.775391,2.167969,0.478516,0.673523,0.650879,0.267029,0.226685,down
192836,0.5625,12.8125,-0.503906,-0.775391,2.167969,0.478516,0.673035,0.64856,0.269592,0.231812,down
192841,0.5625,12.8125,-0.503906,-0.806641,2.310547,0.535156,0.672485,0.64624,0.272095,0.236877,down
192847,0.332031,12.929688,-0.273438,-0.806641,2.310547,0.535156,0.671143,0.641357,0.277222,0.24762,down
192853,0.21875,12.929688,-0.234375,-0.806641,2.310547,0.535156,0.67041,0.638855,0.279846,0.253113,down
192858,0.179687,12.933594,-0.234375,-0.912109,2.503906,0.65625,0.669617,0.636169,0.282471,0.258911,down
192864,0.21875,12.929688,-0.273438,-0.964844,2.541016,0.697266,0.669617,0.636169,0.282471,0.258911,down
192869,0.179687,12.855469,-0.121094,-0.964844,2.541016,0.697266,0.669617,0.636169,0.282471,0.258911,down
192874,0.179687,12.855469,-0.042969,-1.09375,2.554688,0.771484,0.669617,0.636169,0.282471,0.258911,down
192879,0.21875,12.894531,-0.042969,-1.167969,2.595703,0.810547,0.669617,0.636169,0.282471,0.258911,down
192885,0.21875,12.894531,-0.042969,-1.167969,2.595703,0.810547,0.669617,0.636169,0.282471,0.258911,down
192891,0.21875,12.8125,-0.007813,-1.355469,2.642578,0.947266,0.669617,0.636169,0.282471,0.258911,down
192896,0.253906,12.773438,0.070312,-1.355469,2.642578,0.947266,0.664185,0.610901,0.300293,0.308899,down
192901,0.292969,12.8125,0.183594,-1.355469,2.642578,0.947266,0.663513,0.607239,0.302124,0.315796,down
192906,0.371094,12.777344,0.375,-1.355469,2.642578,0.947266,0.663513,0.607239,0.302124,0.315796,down
192911,0.445312,12.703125,0.414062,-1.380859,2.603516,1.068359,0.663513,0.607239,0.302124,0.315796,down
192916,0.523437,12.773438,0.492187,-1.380859,2.603516,1.068359,0.661987,0.599976,0.305481,0.329407,down
192921,0.5625,12.667969,0.605469,-1.359375,2.578125,1.087891,0.661987,0.599976,0.305481,0.329407,down
192926,0.5625,12.667969,0.605469,-1.357422,2.564453,1.109375,0.660217,0.592957,0.308472,0.342712,down
192931,0.601562,12.585938,0.683594,-1.357422,2.564453,1.109375,0.65918,0.589294,0.309937,0.349548,down
192936,0.523437,12.628906,0.53125,-1.357422,2.570313,1.140625,0.658203,0.585693,0.311279,0.35614,down
192941,0.523437,12.628906,0.53125,-1.398438,2.582031,1.175781,0.658203,0.585693,0.311279,0.35614,down
192947,0.484375,12.585938,0.605469,-1.398438,2.582031,1.175781,0.65509,0.574402,0.31488,0.376587,down
192952,0.484375,12.429688,0.644531,-1.398438,2.582031,1.175781,0.654053,0.570251,0.315857,0.383728,down
192957,0.484375,12.46875,0.605469,-1.398438,2.582031,1.175781,0.653137,0.566162,0.31665,0.390686,down
192963,0.523437,12.246094,0.644531,-1.398438,2.582031,1.175781,0.652222,0.561951,0.317261,0.397705,down
192968,0.523437,12.164063,0.761719,-1.761719,2.513672,1.359375,0.652222,0.561951,0.317261,0.397705,down
192974,0.5625,12.128906,0.722656,-1.761719,2.513672,1.359375,0.650269,0.553284,0.318115,0.412109,down
192979,0.675781,12.089844,0.835937,-1.761719,2.513672,1.359375,0.64917,0.549011,0.318481,0.419189,down
192985,0.714844,12.125,0.914062,-1.744141,2.5,1.439453,0.64917,0.549011,0.318481,0.419189,down
192990,0.636719,12.203125,0.988281,-1.744141,2.5,1.439453,0.646729,0.539978,0.31897,0.434082,down
192995,0.5625,12.28125,1.027344,-1.677734,2.498047,1.449219,0.646729,0.539978,0.31897,0.434082,down
193001,0.5625,12.28125,1.027344,-1.666016,2.503906,1.435547,0.644043,0.531433,0.319458,0.447998,down
193006,0.5625,12.28125,1.027344,-1.667969,2.515625,1.425781,0.642639,0.527344,0.319763,0.454651,down
193011,0.5625,12.351563,1.027344,-1.667969,2.515625,1.425781,0.641174,0.522827,0.320007,0.461731,down
193016,0.5625,12.242188,1.144531,-1.667969,2.515625,1.425781,0.641174,0.522827,0.320007,0.461731,down
193021,0.5625,12.246094,1.179688,-1.689453,2.457031,1.386719,0.641174,0.522827,0.320007,0.461731,down
193026,0.445312,12.050781,1.371094,-1.716797,2.419922,1.380859,0.641174,0.522827,0.320007,0.461731,down
193031,0.410156,11.933594,1.371094,-1.859375,2.347656,1.384766,0.635376,0.504883,0.320435,0.488586,down
193036,0.371094,11.824219,1.371094,-1.859375,2.347656,1.384766,0.63385,0.499756,0.32019,0.495911,down
193041,0.253906,11.667969,1.449219,-1.847656,2.240234,1.375,0.63385,0.499756,0.32019,0.495911,down
193046,0.0625,11.441406,1.488281,-1.847656,2.240234,1.375,0.631287,0.490479,0.319336,0.50885,down
193052,0.027344,11.242188,1.488281,-1.847656,2.240234,1.375,0.630127,0.486206,0.318909,0.514648,down
193057,-0.089844,11.132813,1.488281,-1.875,2.146484,1.326172,0.627502,0.476868,0.317688,0.527222,down
193062,-0.050781,10.785156,1.640625,-1.875,2.146484,1.326172,0.62616,0.471619,0.316895,0.533936,down
193067,0.027344,10.554688,1.71875,-1.875,2.146484,1.326172,0.625122,0.467346,0.316223,0.539307,down
193072,0.179687,10.402344,1.792969,-1.914063,2.1875,1.275391,0.623718,0.461975,0.31543,0.545959,down
193078,0.253906,10.25,1.949219,-1.914063,2.1875,1.275391,0.622498,0.457458,0.31488,0.551453,down
193083,0.445312,10.097656,2.101563,-1.914063,2.1875,1.275391,0.622498,0.457458,0.31488,0.551453,down
193088,0.445312,10.097656,2.101563,-1.818359,2.291016,1.25,0.619507,0.447327,0.314087,0.563477,down
193093,0.523437,10.058594,2.101563,-1.818359,2.291016,1.25,0.619507,0.447327,0.314087,0.563477,down
193098,0.445312,9.941406,2.101563,-1.660156,2.435547,1.179688,0.616028,0.437134,0.313965,0.575256,down
193104,0.0625,9.671875,2.0625,-1.660156,2.435547,1.179688,0.614136,0.432068,0.314087,0.580933,down
193109,-0.050781,9.554688,2.101563,-1.556641,2.466797,1.097656,0.614136,0.432068,0.314087,0.580933,down
193115,-0.089844,9.488281,2.140625,-1.513672,2.460938,1.044922,0.614136,0.432068,0.314087,0.580933,down
193121,-0.242187,9.332031,2.0625,-1.513672,2.460938,1.044922,0.608398,0.416748,0.315125,0.597351,down
193126,-0.394531,9.292969,2.0625,-1.501953,2.451172,0.955078,0.608398,0.416748,0.315125,0.597351,down
193131,-0.472656,9.144531,2.175781,-1.572266,2.423828,0.857422,0.608398,0.416748,0.315125,0.597351,down
193136,-0.550781,9.027344,2.253906,-1.572266,2.423828,0.857422,0.603027,0.401062,0.316467,0.612671,down
193142,-0.472656,8.792969,2.40625,-1.572266,2.423828,0.857422,0.599731,0.389465,0.317078,0.622986,down
193147,-0.433594,8.679688,2.40625,-1.791016,2.462891,0.685547,0.598267,0.383484,0.317322,0.62793,down
193152,-0.28125,8.449219,2.484375,-1.791016,2.462891,0.685547,0.598267,0.383484,0.317322,0.62793,down
193157,-0.203125,8.484375,2.523438,-1.791016,2.462891,0.685547,0.596985,0.377258,0.317505,0.632812,down
193162,-0.203125,8.484375,2.523438,-1.910156,2.537109,0.560547,0.595886,0.371765,0.317688,0.637024,down
193167,-0.203125,8.523438,2.523438,-1.957031,2.566406,0.501953,0.595886,0.371765,0.317688,0.637024,down
193172,-0.164062,8.527344,2.945313,-1.988281,2.572266,0.455078,0.59375,0.358521,0.318115,0.646301,down
193177,-0.164062,8.527344,2.945313,-2.025391,2.572266,0.412109,0.59375,0.358521,0.318115,0.646301,down
193182,-0.242187,8.449219,3.019531,-2.025391,2.572266,0.412109,0.590881,0.33783,0.318481,0.659729,down
193187,-0.511719,8.445313,2.90625,-2.025391,2.572266,0.412109,0.590027,0.330688,0.318481,0.664124,down
193192,-0.703125,8.40625,2.828125,-2.025391,2.572266,0.412109,0.589172,0.323242,0.318237,0.66864,down
193197,-0.96875,8.222656,2.90625,-2.025391,2.572266,0.412109,0.589172,0.323242,0.318237,0.66864,down
193202,-1.085938,8.0625,2.980469,-2.429688,2.466797,0.347656,0.589172,0.323242,0.318237,0.66864,down
193207,-1.199219,7.796875,3.25,-2.429688,2.466797,0.347656,0.586975,0.300537,0.316223,0.682007,down
193212,-1.238281,7.683594,3.363281,-2.429688,2.466797,0.347656,0.586365,0.293701,0.315247,0.685974,down
193217,-1.238281,7.496094,3.441406,-2.570313,2.373047,0.373047,0.586365,0.293701,0.315247,0.685974,down
193222,-1.238281,7.496094,3.441406,-2.570313,2.373047,0.373047,0.585632,0.285706,0.313965,0.690491,down
193227,-1.316406,6.953125,3.671875,-2.576172,2.359375,0.376953,0.584961,0.278564,0.312744,0.69458,down
193232,-1.316406,6.953125,3.671875,-2.578125,2.341797,0.382813,0.584167,0.270874,0.311401,0.698853,down
193237,-1.199219,6.6875,3.746094,-2.546875,2.330078,0.376953,0.584167,0.270874,0.311401,0.698853,down
193242,-1.199219,6.6875,3.746094,-2.519531,2.308594,0.384766,0.581726,0.248474,0.307373,0.710937,down
193248,-1.238281,6.230469,4.132812,-2.519531,2.308594,0.384766,0.580688,0.241211,0.306152,0.714783,down
193253,-1.351563,6.109375,4.167969,-2.359375,2.345703,0.427734,0.57959,0.234009,0.304993,0.718567,down
193258,-1.351563,6.109375,4.167969,-2.296875,2.349609,0.451172,0.578308,0.226624,0.303894,0.722412,down
193264,-1.773438,6.03125,4.550781,-2.296875,2.349609,0.451172,0.576904,0.219604,0.302979,0.726074,down
193269,-1.851563,6.074219,4.628906,-2.099609,2.353516,0.53125,0.576904,0.219604,0.302979,0.726074,down
193274,-1.890625,6.035156,4.707031,-1.998047,2.367188,0.5625,0.573547,0.205811,0.301514,0.733337,down
193279,-2.121094,6.03125,4.820312,-1.90625,2.371094,0.59375,0.573547,0.205811,0.301514,0.733337,down
193284,-2.15625,6.109375,4.898437,-1.820313,2.371094,0.628906,0.573547,0.205811,0.301514,0.733337,down
193290,-2.195313,6.1875,5.050781,-1.765625,2.335938,0.667969,0.573547,0.205811,0.301514,0.733337,down
193295,-2.195313,6.1875,5.242187,-1.744141,2.296875,0.701172,0.573547,0.205811,0.301514,0.733337,down
193300,-2.234375,6.152344,5.355469,-1.744141,2.296875,0.701172,0.573547,0.205811,0.301514,0.733337,down
193305,-2.3125,6.074219,5.472656,-1.740234,2.244141,0.738281,0.573547,0.205811,0.301514,0.733337,down
193310,-2.347656,5.921875,5.546875,-1.814453,2.121094,0.794922,0.558289,0.161987,0.298462,0.756958,down
193315,-2.347656,5.921875,5.546875,-1.814453,2.121094,0.794922,0.558289,0.161987,0.298462,0.756958,down
193320,-2.539063,5.539062,5.773437,-2.013672,1.962891,0.861328,0.553528,0.150208,0.296265,0.763733,down
193326,-2.695313,5.117187,5.894531,-2.013672,1.962891,0.861328,0.553528,0.150208,0.296265,0.763733,down
193331,-2.808594,4.886719,5.96875,-2.208984,1.769531,0.902344,0.553528,0.150208,0.296265,0.763733,down
193337,-2.769531,4.582031,6.050781,-2.208984,1.769531,0.902344,0.553528,0.150208,0.296265,0.763733,down
193342,-2.769531,4.425781,6.199219,-2.224609,1.429688,0.927734,0.553528,0.150208,0.296265,0.763733,down
193347,-2.734375,4.390625,6.390625,-2.224609,1.429688,0.927734,0.542175,0.122253,0.285278,0.780884,down
193352,-2.617188,4.273437,6.65625,-2.152344,1.320313,0.921875,0.542175,0.122253,0.285278,0.780884,down
193358,-2.539063,4.121094,6.8125,-2.152344,1.320313,0.921875,0.535828,0.108337,0.277222,0.790161,down
193363,-2.425781,4.042969,6.964844,-1.779297,0.984375,0.908203,0.533569,0.104065,0.274475,0.793213,down
193368,-2.3125,3.96875,7.117187,-1.779297,0.984375,0.908203,0.531494,0.100525,0.272034,0.795898,down
193375,-2.195313,4.082031,7.078125,-1.779297,0.984375,0.908203,0.529724,0.097839,0.270081,0.798096,down
193380,-2.195313,4.082031,7.078125,-1.392578,0.71875,0.953125,0.527588,0.095032,0.267883,0.800537,down
193385,-2.195313,4.082031,7.078125,-1.285156,0.615234,0.984375,0.525513,0.092651,0.265869,0.802856,down
193390,-2.234375,4.003906,7.238281,-1.285156,0.615234,0.984375,0.525513,0.092651,0.265869,0.802856,down
193395,-2.234375,4.003906,7.238281,-1.169922,0.439453,1.076172,0.521179,0.088745,0.261841,0.807434,down
193400,-2.234375,4.003906,7.238281,-1.169922,0.439453,1.076172,0.521179,0.088745,0.261841,0.807434,down
193405,-2.3125,3.96875,7.273437,-1.136719,0.359375,1.115234,0.516785,0.085815,0.257751,0.81189,down
193410,-2.195313,3.738281,7.273437,-1.109375,0.210937,1.183594,0.516785,0.085815,0.257751,0.81189,down
193416,-2.121094,3.699219,7.195312,-1.109375,0.210937,1.183594,0.512085,0.083679,0.253235,0.816467,down
193422,-2.042969,3.660156,7.199219,-1.164063,0.091797,1.197266,0.512085,0.083679,0.253235,0.816467,down
193428,-1.964844,3.546875,7.277344,-1.164063,0.091797,1.197266,0.505188,0.080994,0.24585,0.823303,down
193433,-1.964844,3.546875,7.277344,-1.171875,0.042969,1.15625,0.502747,0.080139,0.243042,0.825684,down
193439,-1.660156,3.621094,7.273437,-1.171875,0.042969,1.15625,0.500732,0.079407,0.240723,0.827637,down
193444,-1.546875,3.507813,7.277344,-1.171875,0.042969,1.15625,0.498657,0.078674,0.238281,0.829712,down
193451,-1.546875,3.429688,7.382812,-1.050781,0.056641,1.074219,0.498657,0.078674,0.238281,0.829712,down
193456,-1.46875,3.355469,7.386719,-1.039063,0.080078,1.068359,0.498657,0.078674,0.238281,0.829712,down
193462,-1.316406,3.507813,7.421875,-1.029297,0.109375,1.052734,0.498657,0.078674,0.238281,0.829712,down
193467,-1.277344,3.546875,7.542969,-1.029297,0.109375,1.052734,0.490295,0.0755,0.229187,0.837524,down
193472,-1.238281,3.546875,7.621094,-0.839844,0.1875,1.064453,0.490295,0.0755,0.229187,0.837524,down
193477,-1.277344,3.546875,7.621094,-0.839844,0.1875,1.064453,0.48584,0.073914,0.22522,0.841309,down
193483,-1.277344,3.507813,7.65625,-0.839844,0.1875,1.064453,0.481445,0.072449,0.222107,0.844788,down
193488,-1.316406,3.507813,7.660156,-0.769531,0.263672,1.119141,0.481445,0.072449,0.222107,0.844788,down
193493,-1.429688,3.429688,7.726562,-0.769531,0.263672,1.119141,0.47644,0.070801,0.218994,0.848572,down
193498,-1.507813,3.394531,7.769531,-0.769531,0.263672,1.119141,0.474182,0.070007,0.21759,0.85022,down
193503,-1.582031,3.429688,7.804687,-0.769531,0.263672,1.119141,0.471741,0.069153,0.216064,0.852051,down
193508,-1.621094,3.429688,7.964844,-0.769531,0.257813,1.183594,0.468933,0.068237,0.214355,0.854126,down
193514,-1.660156,3.316406,8.226563,-0.769531,0.257813,1.183594,0.466187,0.067505,0.212708,0.856079,down
193519,-1.582031,3.277344,8.109375,-0.769531,0.257813,1.183594,0.46405,0.066956,0.211426,0.857605,down
193526,-1.546875,3.277344,8.1875,-0.744141,0.173828,1.207031,0.46405,0.066956,0.211426,0.857605,down
193531,-1.507813,3.164063,8.191406,-0.730469,0.121094,1.216797,0.46405,0.066956,0.211426,0.857605,down
193537,-1.429688,3.164063,8.1875,-0.695312,0.068359,1.234375,0.45636,0.065552,0.206665,0.862976,down
193542,-1.429688,3.164063,8.1875,-0.648437,0.025391,1.244141,0.453674,0.065369,0.205078,0.864807,down
193547,-1.429688,3.164063,8.1875,-0.59375,-0.009766,1.257813,0.451111,0.065308,0.203552,0.866516,down
193552,-1.429688,3.125,8.308594,-0.59375,-0.009766,1.257813,0.448486,0.06543,0.202087,0.868164,down
193557,-1.507813,3.007813,8.230469,-0.59375,-0.009766,1.257813,0.448486,0.06543,0.202087,0.868164,down
193562,-1.507813,3.007813,8.230469,-0.435547,-0.087891,1.244141,0.443237,0.065857,0.199402,0.87146,down
193568,-1.699219,3.203125,8.308594,-0.326172,-0.132812,1.240234,0.443237,0.065857,0.199402,0.87146,down
193573,-1.699219,3.203125,8.308594,-0.326172,-0.132812,1.240234,0.435425,0.067444,0.196106,0.876038,down
193578,-1.738281,3.316406,8.570313,-0.326172,-0.132812,1.240234,0.435425,0.067444,0.196106,0.876038,down
193583,-1.699219,3.394531,8.652344,-0.253906,-0.185547,1.251953,0.429932,0.069092,0.194092,0.879028,down
193588,-1.621094,3.394531,8.609375,-0.253906,-0.185547,1.251953,0.42749,0.069885,0.193237,0.880371,down
193593,-1.507813,3.507813,8.609375,-0.253906,-0.185547,1.251953,0.424988,0.070801,0.192261,0.881714,down
193598,-1.46875,3.46875,8.691406,-0.261719,-0.322266,1.267578,0.422363,0.071899,0.191162,0.883118,down
193604,-1.351563,3.429688,8.6875,-0.261719,-0.322266,1.267578,0.419739,0.072998,0.190002,0.884521,down
193609,-1.351563,3.429688,8.726563,-0.261719,-0.322266,1.267578,0.417175,0.074158,0.188721,0.885925,down
193615,-1.316406,3.316406,8.765625,-0.261719,-0.322266,1.267578,0.414429,0.075378,0.187317,0.88739,down
193620,-1.277344,3.277344,8.804688,-0.332031,-0.476562,1.333984,0.411804,0.07666,0.185913,0.888794,down
193626,-1.125,3.238281,8.730469,-0.332031,-0.476562,1.333984,0.409119,0.078125,0.184387,0.890198,down
193631,-0.933594,3.164063,8.804688,-0.332031,-0.476562,1.333984,0.409119,0.078125,0.184387,0.890198,down
193637,-0.894531,3.085938,8.804688,-0.289063,-0.582031,1.382813,0.409119,0.078125,0.184387,0.890198,down
193642,-0.703125,3.007813,8.914063,-0.255859,-0.617187,1.398438,0.409119,0.078125,0.184387,0.890198,down
193647,-0.511719,2.972656,8.992188,-0.255859,-0.617187,1.398438,0.39801,0.084961,0.178406,0.895874,down
193653,-0.472656,2.894531,9.070313,-0.050781,-0.757812,1.476563,0.39801,0.084961,0.178406,0.895874,down
193658,-0.433594,2.894531,9.074219,-0.050781,-0.757812,1.476563,0.388977,0.091797,0.174622,0.899841,down
193663,-0.472656,2.933594,8.996094,-0.050781,-0.757812,1.476563,0.385986,0.094299,0.173706,0.901062,down
193668,-0.511719,3.046875,8.765625,0.142578,-0.869141,1.625,0.385986,0.094299,0.173706,0.901062,down
193673,-0.550781,3.085938,8.691406,0.142578,-0.869141,1.625,0.382507,0.097229,0.172729,0.902466,down
193678,-0.585937,3.203125,8.804688,0.259766,-0.990234,1.728516,0.382507,0.097229,0.172729,0.902466,down
193683,-0.585937,3.238281,9.03125,0.316406,-1.048828,1.771484,0.375793,0.103149,0.171082,0.904907,down
193689,-0.625,3.277344,9.109375,0.316406,-1.048828,1.771484,0.368164,0.110413,0.169617,0.907471,down
193694,-0.703125,3.238281,9.109375,0.316406,-1.048828,1.771484,0.364319,0.114197,0.168884,0.908691,down
193699,-0.625,3.203125,9.109375,0.316406,-1.048828,1.771484,0.364319,0.114197,0.168884,0.908691,down
193704,-0.625,3.203125,9.109375,0.380859,-1.214844,1.888672,0.360901,0.117615,0.168274,0.909729,down
193709,-0.550781,3.164063,9.074219,0.380859,-1.214844,1.888672,0.357056,0.121582,0.16748,0.910889,down
193714,-0.203125,3.007813,9.148438,0.373047,-1.357422,1.917969,0.349121,0.130066,0.165527,0.913147,down
193719,-0.203125,3.007813,9.148438,0.373047,-1.357422,1.917969,0.349121,0.130066,0.165527,0.913147,down
193724,0.101563,3.085938,9.148438,0.380859,-1.462891,1.9375,0.345215,0.13446,0.164551,0.914124,down
193729,0.140625,3.203125,9.113281,0.408203,-1.550781,1.962891,0.345215,0.13446,0.164551,0.914124,down
193736,0.140625,3.164063,9.152344,0.408203,-1.550781,1.962891,0.333191,0.148499,0.161377,0.916992,down
193741,0.253906,3.125,9.191406,0.451172,-1.681641,2.068359,0.328857,0.153625,0.160278,0.917908,down
193746,0.371094,3.085938,9.109375,0.486328,-1.746094,2.150391,0.328857,0.153625,0.160278,0.917908,down
193751,0.332031,3.125,8.804688,0.511719,-1.775391,2.242188,0.328857,0.153625,0.160278,0.917908,down
193756,0.253906,3.699219,8.726563,0.511719,-1.775391,2.242188,0.328857,0.153625,0.160278,0.917908,down
193761,0.253906,3.8125,8.730469,0.599609,-1.884766,2.521484,0.328857,0.153625,0.160278,0.917908,down
193766,0.253906,3.738281,8.691406,0.609375,-1.929688,2.679688,0.328857,0.153625,0.160278,0.917908,down
193771,0.179687,3.085938,8.5,0.609375,-1.929688,2.679688,0.328857,0.153625,0.160278,0.917908,down
193776,0.292969,2.972656,8.5,0.609375,-1.929688,2.679688,0.29248,0.193359,0.151917,0.924133,down
193781,0.292969,2.972656,8.5,0.726562,-2.027344,3.019531,0.285889,0.199707,0.150696,0.925049,down
193786,0.292969,2.972656,8.5,0.810547,-2.134766,3.082031,0.279358,0.206177,0.149475,0.925842,down
193791,0.5625,2.320313,9.070313,0.810547,-2.134766,3.082031,0.279358,0.206177,0.149475,0.925842,down
193796,0.714844,2.015625,9.109375,0.949219,-2.236328,3.103516,0.279358,0.206177,0.149475,0.925842,down
193802,0.714844,2.015625,9.109375,1.095703,-2.361328,3.107422,0.258667,0.227722,0.146973,0.927185,down
193808,1.058594,1.554688,8.726563,1.341797,-2.550781,3.0625,0.258667,0.227722,0.146973,0.927185,down
193813,1.289063,1.515625,8.613281,1.648438,-2.742188,2.957031,0.244629,0.243591,0.146423,0.927002,down
193818,1.328125,1.476563,8.464844,1.648438,-2.742188,2.957031,0.230835,0.260498,0.146912,0.925903,down
193823,1.558594,1.363281,8.464844,1.648438,-2.742188,2.957031,0.230835,0.260498,0.146912,0.925903,down
193828,1.632813,1.210938,8.421875,1.888672,-2.953125,2.738281,0.22406,0.269348,0.147278,0.924988,down
193833,1.671875,1.285156,8.308594,1.888672,-2.953125,2.738281,0.217041,0.278687,0.14801,0.923767,down
193838,1.632813,1.476563,8.042969,1.888672,-2.953125,2.738281,0.210571,0.287598,0.148865,0.922363,down
193843,1.710938,1.820313,7.308594,1.904297,-2.986328,2.601563,0.204529,0.296021,0.149719,0.920898,down
193848,1.710938,1.820313,7.308594,1.919922,-2.990234,2.568359,0.198608,0.304443,0.150635,0.919312,down
193853,1.710938,1.976563,7.117187,1.919922,-2.990234,2.568359,0.192505,0.313171,0.151611,0.917542,down
193858,2.132813,2.050781,6.660156,1.845703,-3.033203,2.46875,0.186279,0.322144,0.152466,0.915588,down
193863,2.132813,2.050781,6.660156,1.820313,-3.001953,2.427734,0.186279,0.322144,0.152466,0.915588,down
193869,2.515625,1.707031,6.433594,1.820313,-3.001953,2.427734,0.168884,0.348022,0.154663,0.909119,down
193874,2.628906,1.667969,6.472656,1.580078,-3.089844,2.25,0.16272,0.357666,0.155151,0.906372,down
193880,2.785156,2.128906,6.855469,1.580078,-3.089844,2.25,0.158142,0.365173,0.155396,0.904175,down
193885,3.433594,1.628906,6.8125,1.580078,-3.089844,2.25,0.153198,0.373535,0.155518,0.90155,down
193890,3.589844,1.054688,6.8125,1.376953,-3.080078,1.974609,0.153198,0.373535,0.155518,0.90155,down
193897,3.703125,0.941406,6.816406,1.339844,-3.041016,1.806641,0.153198,0.373535,0.155518,0.90155,down
193902,3.664063,1.976563,6.695312,1.390625,-2.951172,1.650391,0.153198,0.373535,0.155518,0.90155,down
193908,3.703125,2.28125,6.578125,1.462891,-2.886719,1.480469,0.132629,0.413025,0.157593,0.887146,down
193913,3.742188,2.433594,6.734375,1.570313,-2.824219,1.154297,0.132629,0.413025,0.157593,0.887146,down
193918,3.855469,2.472656,6.773437,1.570313,-2.824219,1.154297,0.129272,0.420654,0.158875,0.883789,down
193923,3.855469,2.472656,6.773437,1.605469,-2.794922,0.96875,0.126526,0.427429,0.160278,0.880676,down
193928,3.894531,2.472656,6.621094,1.605469,-2.794922,0.96875,0.124023,0.434326,0.161987,0.87738,down
193933,3.742188,3.085938,6.578125,1.564453,-2.757813,0.642578,0.121765,0.441284,0.163879,0.87384,down
193938,3.742188,3.085938,6.578125,1.564453,-2.757813,0.642578,0.121765,0.441284,0.163879,0.87384,down
193943,3.703125,3.203125,6.511719,1.523438,-2.759766,0.505859,0.11731,0.461243,0.169556,0.862976,down
193948,3.78125,3.46875,6.199219,1.523438,-2.759766,0.505859,0.11731,0.461243,0.169556,0.862976,down
193954,3.894531,3.394531,6.089844,1.193359,-2.902344,0.220703,0.116028,0.475098,0.172546,0.85498,down
193959,3.933594,3.316406,5.894531,0.736328,-3.082031,0.173828,0.116028,0.475098,0.172546,0.85498,down
193964,3.933594,3.316406,5.894531,0.492187,-3.193359,0.160156,0.116211,0.488403,0.173462,0.847229,down
193970,4.085937,3.203125,5.628906,0.265625,-3.255859,0.132812,0.116882,0.495544,0.173157,0.843079,down
193975,4.125,2.972656,5.125,0.265625,-3.255859,0.132812,0.117859,0.502197,0.172485,0.839172,down
193980,4.125,2.972656,5.125,-0.076172,-3.277344,0.005859,0.119324,0.509705,0.171387,0.834595,down
193987,4.085937,2.625,4.546875,-0.076172,-3.277344,0.005859,0.119324,0.509705,0.171387,0.834595,down
193993,4.085937,2.625,4.285156,-0.203125,-3.208984,-0.191406,0.119324,0.509705,0.171387,0.834595,down
193998,4.164062,2.625,4.09375,-0.175781,-3.158203,-0.302734,0.119324,0.509705,0.171387,0.834595,down
194003,4.164062,2.625,4.09375,-0.099609,-3.087891,-0.431641,0.127136,0.535034,0.167297,0.818298,down
194008,4.128906,2.664063,4.015625,-0.099609,-3.087891,-0.431641,0.127136,0.535034,0.167297,0.818298,down
194013,4.164062,2.894531,3.746094,0.017578,-3.027344,-0.572266,0.131958,0.546936,0.167053,0.809631,down
194018,4.164062,2.894531,3.746094,0.017578,-3.027344,-0.572266,0.131958,0.546936,0.167053,0.809631,down
194023,4.8125,3.507813,3.289063,0.509766,-2.697266,-1.011719,0.131958,0.546936,0.167053,0.809631,down
194028,4.8125,3.738281,3.363281,0.509766,-2.697266,-1.011719,0.139343,0.562805,0.170593,0.796692,down
194033,4.65625,4.160156,3.171875,0.541016,-2.445313,-1.447266,0.139343,0.562805,0.170593,0.796692,down
194038,4.617187,4.617187,2.867188,0.541016,-2.445313,-1.447266,0.145203,0.572205,0.174744,0.788025,down
194044,4.277344,4.734375,2.753906,0.167969,-2.462891,-1.699219,0.14856,0.576416,0.176941,0.783813,down
194049,4.125,4.925781,2.714844,0.167969,-2.462891,-1.699219,0.157349,0.584961,0.180786,0.774841,down
194054,4.164062,5.191406,2.558594,-0.419922,-2.572266,-1.869141,0.162354,0.588928,0.181946,0.770508,down
194059,4.164062,5.121094,2.484375,-0.751953,-2.664063,-1.933594,0.162354,0.588928,0.181946,0.770508,down
194064,4.238281,4.734375,2.253906,-0.751953,-2.664063,-1.933594,0.174622,0.596741,0.182495,0.761658,down
194069,4.238281,4.660156,2.140625,-1.382813,-2.796875,-2.029297,0.181458,0.600464,0.181946,0.757263,down
194074,4.007812,4.542969,1.949219,-1.382813,-2.796875,-2.029297,0.181458,0.600464,0.181946,0.757263,down
194079,3.972656,4.421875,1.910156,-1.382813,-2.796875,-2.029297,0.189026,0.604187,0.180908,0.752686,down
194084,3.972656,4.421875,1.910156,-1.753906,-2.791016,-2.107422,0.196106,0.607361,0.179687,0.748596,down
194089,3.894531,4.390625,1.757813,-1.753906,-2.791016,-2.107422,0.203979,0.610596,0.178223,0.744141,down
194094,3.398438,4.542969,1.105469,-1.84375,-2.648438,-2.208984,0.211975,0.613647,0.176758,0.739807,down
194099,3.398438,4.542969,1.105469,-1.84375,-2.648438,-2.208984,0.211975,0.613647,0.176758,0.739807,down
194104,3.28125,4.777344,0.796875,-1.775391,-2.546875,-2.287109,0.22821,0.61908,0.1745,0.730896,down
194109,3.28125,4.777344,0.796875,-1.203125,-2.246094,-2.605469,0.236328,0.621521,0.174011,0.726379,down
194114,3.625,4.84375,0.53125,-1.203125,-2.246094,-2.605469,0.251404,0.625854,0.175049,0.717224,down
194119,4.046875,5.042969,0.492187,-1.203125,-2.246094,-2.605469,0.258484,0.627808,0.176819,0.712585,down
194124,4.238281,5.425781,0.835937,-1.203125,-2.246094,-2.605469,0.258484,0.627808,0.176819,0.712585,down
194129,3.933594,6.613281,1.027344,-0.3125,-1.947266,-3.048828,0.258484,0.627808,0.176819,0.712585,down
194134,3.625,7.070312,0.953125,-0.3125,-1.947266,-3.048828,0.27948,0.633423,0.186951,0.69696,down
194139,3.433594,7.339844,0.914062,-0.3125,-1.947266,-3.048828,0.27948,0.633423,0.186951,0.69696,down
194144,3.433594,7.339844,0.914062,0.095703,-1.925781,-3.339844,0.285217,0.634949,0.190491,0.692261,down
194149,3.167969,7.566406,0.761719,0.021484,-2.064453,-3.404297,0.285217,0.634949,0.190491,0.692261,down
194154,3.011719,8.027344,0.339844,0.021484,-2.064453,-3.404297,0.285217,0.634949,0.190491,0.692261,down
194159,2.820313,8.261719,0.148437,-0.152344,-2.236328,-3.466797,0.306519,0.640686,0.20166,0.674438,down
194164,2.746094,8.566406,-0.160156,-0.152344,-2.236328,-3.466797,0.306519,0.640686,0.20166,0.674438,down
194169,2.859375,8.640625,-0.273438,-0.152344,-2.236328,-3.466797,0.333984,0.64624,0.208008,0.65387,down
194174,2.746094,8.40625,-0.351563,-2.195313,-3.044922,-3.941406,0.333984,0.64624,0.208008,0.65387,down
194179,2.628906,8.144531,-0.734375,-2.482422,-2.984375,-4.035156,0.34613,0.647522,0.208618,0.645996,down
194185,2.246094,7.878906,-1.269531,-2.482422,-2.984375,-4.035156,0.370178,0.648254,0.208435,0.631897,down
194191,2.324219,7.257812,-1.308594,-2.482422,-2.984375,-4.035156,0.381836,0.647827,0.208008,0.625549,down
194197,2.4375,7.152344,-1.269531,-3.011719,-2.46875,-4.275391,0.381836,0.647827,0.208008,0.625549,down
194202,2.4375,7.152344,-1.269531,-3.021484,-2.166016,-4.324219,0.407532,0.644958,0.207642,0.612244,down
194207,2.171875,7.417969,-0.695312,-2.867188,-1.876953,-4.404297,0.419861,0.6427,0.208069,0.606079,down
194213,1.941406,8.183594,-0.042969,-2.867188,-1.876953,-4.404297,0.419861,0.6427,0.208069,0.606079,down
194219,1.824219,8.40625,0.339844,-1.972656,-1.455078,-4.572266,0.419861,0.6427,0.208069,0.606079,down
194224,1.558594,8.984375,0.835937,-1.972656,-1.455078,-4.572266,0.464783,0.632202,0.21637,0.580994,down
194229,1.40625,9.292969,0.796875,-1.972656,-1.455078,-4.572266,0.464783,0.632202,0.21637,0.580994,down
194234,1.25,9.527344,0.722656,-0.753906,-1.580078,-4.548828,0.464783,0.632202,0.21637,0.580994,down
194239,1.097656,9.714844,0.683594,-0.753906,-1.580078,-4.548828,0.491943,0.627441,0.228333,0.558716,down
194244,0.832031,9.976563,0.570312,-0.753906,-1.580078,-4.548828,0.491943,0.627441,0.228333,0.558716,down
194249,0.636719,10.292969,0.453125,-0.271484,-1.910156,-4.458984,0.491943,0.627441,0.228333,0.558716,down
194254,0.484375,10.710938,0.414062,-0.197266,-2.068359,-4.447266,0.514832,0.626587,0.24054,0.533386,down
194259,0.21875,11.019531,0.261719,-0.197266,-2.068359,-4.447266,0.522888,0.626465,0.244202,0.523926,down
194264,-0.164062,11.164063,-0.007813,-0.734375,-2.492188,-4.544922,0.522888,0.626465,0.244202,0.523926,down
194269,-0.128906,11.167969,-0.3125,-0.734375,-2.492188,-4.544922,0.531738,0.625977,0.247437,0.513977,down
194274,0.253906,11.246094,-0.925781,-1.099609,-2.556641,-4.617187,0.531738,0.625977,0.247437,0.513977,down
194279,0.410156,11.402344,-1.078125,-1.099609,-2.556641,-4.617187,0.549927,0.623535,0.252197,0.495117,down
194284,0.410156,11.707031,-1.117188,-2.103516,-2.398438,-4.882812,0.549927,0.623535,0.252197,0.495117,down
194289,0.21875,12.007813,-1.195313,-2.103516,-2.398438,-4.882812,0.571045,0.618103,0.255798,0.47583,down
194295,-0.011719,12.324219,-1.078125,-2.103516,-2.398438,-4.882812,0.591309,0.61084,0.259155,0.458374,down
194300,-0.128906,12.351563,-1.039063,-2.308594,-1.800781,-5.056641,0.602783,0.605774,0.261536,0.448608,down
194305,-0.28125,12.546875,-1.039063,-2.308594,-1.800781,-5.056641,0.602783,0.605774,0.261536,0.448608,down
194310,-0.394531,12.734375,-1.078125,-2.326172,-1.552734,-5.126953,0.622253,0.595703,0.266724,0.43219,down
194315,-0.664062,13.089844,-0.65625,-2.326172,-1.552734,-5.126953,0.622253,0.595703,0.266724,0.43219,down
194320,-0.664062,13.089844,-0.65625,-2.445313,-1.214844,-5.28125,0.632202,0.589844,0.269897,0.423767,down
194325,-0.894531,13.15625,0.070312,-2.445313,-1.214844,-5.28125,0.652771,0.576416,0.277344,0.405823,down
194330,-1.507813,13.277344,0.492187,-2.445313,-1.214844,-5.28125,0.662476,0.56958,0.281311,0.396851,down
194335,-1.773438,13.195313,0.761719,-2.445313,-1.214844,-5.28125,0.670959,0.563538,0.285034,0.388672,down
194340,-2.003906,13.277344,0.953125,-2.070313,-1.105469,-5.472656,0.680481,0.55658,0.289124,0.378845,down
194345,-2.003906,13.277344,0.953125,-2.050781,-1.28125,-5.386719,0.688599,0.550659,0.292358,0.370239,down
194350,-2.539063,13.816406,1.371094,-2.111328,-1.494141,-5.310547,0.697632,0.544189,0.295471,0.360352,down
194355,-2.808594,13.925781,1.871094,-2.111328,-1.494141,-5.310547,0.706421,0.537781,0.297852,0.350708,down
194360,-2.847656,14.195313,1.832031,-2.111328,-1.494141,-5.310547,0.715759,0.530884,0.299683,0.340698,down
194365,-2.808594,14.308594,1.910156,-2.832031,-1.947266,-5.208984,0.715759,0.530884,0.299683,0.340698,down
194370,-2.769531,14.273438,2.253906,-2.832031,-1.947266,-5.208984,0.734558,0.516052,0.301575,0.321228,down
194375,-2.769531,14.160156,2.484375,-3.257813,-2.117188,-5.267578,0.7453,0.506958,0.302002,0.310242,down
194381,-2.847656,14.117188,2.523438,-3.257813,-2.117188,-5.267578,0.754395,0.499023,0.302124,0.301025,down
194386,-3.117188,14.121094,2.523438,-3.257813,-2.117188,-5.267578,0.754395,0.499023,0.302124,0.301025,down
194391,-3.117188,14.121094,2.523438,-3.646484,-2.029297,-5.558594,0.764221,0.489868,0.302185,0.290955,down
194396,-3.191406,13.890625,2.558594,-3.646484,-2.029297,-5.558594,0.783936,0.470032,0.302673,0.27002,down
194402,-3.765625,13.660156,3.171875,-3.646484,-2.029297,-5.558594,0.783936,0.470032,0.302673,0.27002,down
194408,-4.226562,13.085938,3.210938,-3.457031,-1.521484,-6.003906,0.783936,0.470032,0.302673,0.27002,down
194413,-4.339844,13.582031,2.867188,-2.917969,-1.335938,-6.234375,0.783936,0.470032,0.302673,0.27002,down
194419,-4.761719,13.195313,4.207031,-3.128906,-1.246094,-6.314453,0.783936,0.470032,0.302673,0.27002,down
194424,-4.761719,13.195313,4.207031,-3.183594,-0.939453,-6.453125,0.826477,0.417358,0.311951,0.213074,down
194429,-5.183594,12.773438,3.710938,-3.183594,-0.939453,-6.453125,0.833557,0.406494,0.315308,0.201172,down
194434,-5.835937,12.894531,4.742187,-2.611328,-0.691406,-6.646484,0.840271,0.395691,0.319214,0.188416,down
194439,-5.835937,12.894531,4.742187,-2.175781,-0.582031,-6.685547,0.846252,0.385376,0.323181,0.175903,down
194445,-6.5625,12.96875,5.203125,-2.175781,-0.582031,-6.685547,0.856934,0.365417,0.331299,0.14978,down
194450,-6.679687,12.816406,5.625,-1.822266,-0.832031,-6.416016,0.862,0.355347,0.335083,0.135864,down
194455,-6.90625,12.546875,6.277344,-1.822266,-0.832031,-6.416016,0.866455,0.346313,0.338074,0.122559,down
194460,-7.136719,12.351563,6.46875,-1.822266,-0.832031,-6.416016,0.870178,0.338867,0.340027,0.111023,down
194465,-7.136719,12.351563,6.46875,-1.822266,-0.832031,-6.416016,0.870178,0.338867,0.340027,0.111023,down
194470,-7.328125,12.285156,6.582031,-1.265625,-1.533203,-5.392578,0.870178,0.338867,0.340027,0.111023,down
194475,-7.75,12.351563,6.390625,-1.15625,-1.824219,-4.949219,0.877625,0.324768,0.341553,0.087463,down
194480,-7.789062,12.390625,6.351562,-0.996094,-2.072266,-4.492187,0.881226,0.318542,0.34082,0.076172,down
194485,-8.019531,12.46875,6.238281,-0.810547,-2.292969,-4.044922,0.887939,0.308472,0.336609,0.055969,down
194490,-8.058594,12.429688,6.429687,-0.810547,-2.292969,-4.044922,0.891296,0.304138,0.333008,0.046265,down
194495,-8.019531,12.242188,6.351562,-0.810547,-2.292969,-4.044922,0.894226,0.300842,0.329163,0.038513,down
194500,-7.902344,12.125,6.199219,-0.451172,-3.105469,-2.613281,0.897522,0.297424,0.324097,0.029968,down
194506,-7.597656,11.746094,6.429687,-0.451172,-3.105469,-2.613281,0.900452,0.294739,0.319031,0.022766,down
194511,-7.40625,11.519531,6.351562,-0.451172,-3.105469,-2.613281,0.903503,0.291992,0.313293,0.015442,down
194517,-7.097656,10.898438,6.238281,-0.451172,-3.105469,-2.613281,0.906372,0.289429,0.307556,0.008789,down
194522,-6.90625,10.636719,6.199219,-0.46875,-3.140625,-1.869141,0.90918,0.286926,0.301758,0.002563,down
194528,-6.753906,10.359375,6.160156,-0.529297,-3.021484,-1.748047,0.90918,0.286926,0.301758,0.002563,down
194534,-6.410156,9.832031,6.085937,-0.529297,-3.021484,-1.748047,0.90918,0.286926,0.301758,0.002563,down
194539,-6.21875,9.410156,6.121094,-0.589844,-2.716797,-1.582031,0.90918,0.286926,0.301758,0.002563,down
194544,-6.21875,9.410156,6.121094,-0.652344,-2.527344,-1.486328,0.919128,0.276306,0.280212,-0.019226,down
194549,-5.875,8.832031,6.007812,-0.671875,-2.333984,-1.398438,0.919128,0.276306,0.280212,-0.019226,down
194554,-5.875,8.832031,6.007812,-0.65625,-2.162109,-1.322266,0.923096,0.270935,0.271484,-0.027832,down
194559,-5.492187,8.410156,6.277344,-0.601562,-2.015625,-1.273438,0.923096,0.270935,0.271484,-0.027832,down
194564,-5.261719,7.800781,6.660156,-0.601562,-2.015625,-1.273438,0.926453,0.266052,0.263916,-0.035645,down
194569,-5.261719,7.800781,6.660156,-0.601562,-2.015625,-1.273438,0.929077,0.26239,0.257141,-0.043152,down
194574,-5.144531,7.5625,6.699219,-0.601562,-2.015625,-1.273438,0.929077,0.26239,0.257141,-0.043152,down
194579,-4.992187,7.335937,6.734375,0.027344,-1.681641,-0.923828,0.929077,0.26239,0.257141,-0.043152,down
194584,-4.878906,7.179687,6.773437,0.027344,-1.681641,-0.923828,0.931152,0.260193,0.25061,-0.050049,down
194589,-4.878906,6.957031,6.773437,0.027344,-1.681641,-0.923828,0.932007,0.259583,0.247314,-0.053101,down
194594,-4.800781,6.878906,6.894531,0.027344,-1.681641,-0.923828,0.932861,0.259277,0.243774,-0.056152,down
194600,-4.761719,6.878906,6.960937,0.603516,-1.685547,-0.537109,0.932861,0.259277,0.243774,-0.056152,down
194605,-4.761719,6.957031,6.925781,0.603516,-1.685547,-0.537109,0.934631,0.260864,0.232849,-0.064331,down
194610,-4.761719,6.996094,6.890625,0.603516,-1.685547,-0.537109,0.934631,0.260864,0.232849,-0.064331,down
194615,-4.722656,7.070312,6.773437,0.679687,-1.699219,-0.304688,0.934631,0.260864,0.232849,-0.064331,down
194620,-4.761719,7.148437,6.660156,0.679687,-1.699219,-0.304688,0.936096,0.263977,0.221313,-0.071167,down
194625,-4.722656,7.21875,6.621094,0.679687,-1.699219,-0.304688,0.936096,0.263977,0.221313,-0.071167,down
194630,-4.6875,7.257812,6.582031,0.417969,-1.6875,-0.1875,0.936707,0.264954,0.216858,-0.073364,down
194636,-4.570312,7.03125,6.542969,0.417969,-1.6875,-0.1875,0.937866,0.265869,0.20929,-0.076782,down
194642,-4.457031,6.914062,6.582031,0.417969,-1.6875,-0.1875,0.938538,0.26593,0.205627,-0.078308,down
194647,-4.457031,6.914062,6.582031,-0.041016,-1.572266,-0.142578,0.939331,0.265564,0.202026,-0.079712,down
194652,-4.378906,6.765625,6.582031,-0.041016,-1.572266,-0.142578,0.939331,0.265564,0.202026,-0.079712,down
194657,-4.226562,6.304687,6.738281,-0.207031,-1.519531,-0.117188,0.940125,0.264832,0.198547,-0.080933,down
194662,-4.148437,6.035156,6.738281,-0.359375,-1.464844,-0.097656,0.941101,0.263733,0.195068,-0.082031,down
194669,-3.957031,5.613281,6.890625,-0.359375,-1.464844,-0.097656,0.942017,0.262451,0.191895,-0.082947,down
194675,-3.765625,5.191406,6.960937,-0.330078,-1.171875,-0.007813,0.942017,0.262451,0.191895,-0.082947,down
194680,-3.652344,5.078125,7.039062,-0.330078,-1.171875,-0.007813,0.944702,0.258362,0.183167,-0.085083,down
194685,-3.691406,4.964844,7.039062,0.029297,-1.013672,0.042969,0.944702,0.258362,0.183167,-0.085083,down
194690,-3.765625,5.230469,7.234375,0.029297,-1.013672,0.042969,0.945984,0.257019,0.177734,-0.086243,down
194695,-3.804688,5.386719,7.382812,0.029297,-1.013672,0.042969,0.946594,0.25769,0.172974,-0.087341,down
194700,-3.804688,5.5,7.386719,0.029297,-1.013672,0.042969,0.946594,0.25769,0.172974,-0.087341,down
194705,-3.84375,5.539062,7.34375,0.638672,-0.865234,0.158203,0.946594,0.25769,0.172974,-0.087341,down
194710,-3.726563,5.578125,7.460937,0.638672,-0.865234,0.158203,0.946716,0.259827,0.168579,-0.088257,down
194715,-3.765625,5.578125,7.347656,0.640625,-0.794922,0.226562,0.946716,0.26123,0.166321,-0.088623,down
194720,-3.691406,5.539062,7.347656,0.640625,-0.794922,0.226562,0.946655,0.262756,0.16394,-0.088989,down
194726,-3.574219,5.539062,7.347656,0.583984,-0.757812,0.257813,0.946655,0.262756,0.16394,-0.088989,down
194732,-3.574219,5.421875,7.382812,0.583984,-0.757812,0.257813,0.946655,0.266235,0.158081,-0.08905,down
194738,-3.574219,5.347656,7.425781,0.300781,-0.638672,0.330078,0.946655,0.266235,0.158081,-0.08905,down
194744,-3.5,5.230469,7.503906,0.234375,-0.601562,0.345703,0.946655,0.266235,0.158081,-0.08905,down
194749,-3.535156,5.117187,7.5,0.234375,-0.601562,0.345703,0.946655,0.266235,0.158081,-0.08905,down
194754,-3.460938,5.078125,7.578125,0.160156,-0.525391,0.351563,0.946655,0.266235,0.158081,-0.08905,down
194760,-3.421875,4.964844,7.65625,0.173828,-0.503906,0.345703,0.946655,0.266235,0.158081,-0.08905,down
194765,-3.34375,4.773437,7.726562,0.226562,-0.484375,0.339844,0.946655,0.266235,0.158081,-0.08905,down
194770,-3.308594,4.65625,7.769531,0.226562,-0.484375,0.339844,0.947632,0.270874,0.145447,-0.08606,down
194775,-3.308594,4.65625,7.808594,0.226562,-0.484375,0.339844,0.947632,0.270874,0.145447,-0.08606,down
194780,-3.308594,4.65625,7.808594,0.65625,-0.402344,0.339844,0.947632,0.270874,0.145447,-0.08606,down
194786,-3.269531,4.617187,7.84375,0.65625,-0.402344,0.339844,0.947144,0.275024,0.141541,-0.085083,down
194791,-3.152344,4.65625,7.882812,0.855469,-0.367188,0.337891,0.946777,0.277161,0.140198,-0.084778,down
194797,-3.039063,4.695312,7.730469,0.855469,-0.367188,0.337891,0.94635,0.279175,0.138977,-0.084534,down
194802,-2.960938,4.734375,7.726562,0.972656,-0.333984,0.335938,0.94635,0.279175,0.138977,-0.084534,down
194810,-2.886719,4.886719,7.726562,0.972656,-0.333984,0.335938,0.94635,0.279175,0.138977,-0.084534,down
194815,-2.847656,4.964844,7.65625,1.054688,-0.267578,0.296875,0.94635,0.279175,0.138977,-0.084534,down
194820,-2.734375,5.0,7.539062,1.054688,-0.267578,0.296875,0.944214,0.288879,0.134338,-0.083679,down
194826,-2.734375,5.039062,7.5,1.023438,-0.251953,0.291016,0.942993,0.293823,0.132324,-0.083313,down
194831,-2.734375,5.0,7.425781,0.964844,-0.207031,0.261719,0.942322,0.296387,0.131348,-0.08313,down
194836,-2.65625,5.078125,7.382812,0.964844,-0.207031,0.261719,0.941772,0.298645,0.130554,-0.082947,down
194841,-2.65625,5.191406,7.421875,0.964844,-0.207031,0.261719,0.941223,0.300598,0.129822,-0.082825,down
194846,-2.65625,5.191406,7.421875,0.964844,-0.207031,0.261719,0.941223,0.300598,0.129822,-0.082825,down
194851,-2.734375,5.308594,7.34375,0.839844,-0.164062,0.203125,0.941223,0.300598,0.129822,-0.082825,down
194856,-2.695313,5.386719,7.34375,0.773437,-0.15625,0.181641,0.940125,0.304626,0.128418,-0.082642,down
194861,-2.695313,5.386719,7.34375,0.724609,-0.160156,0.162109,0.939697,0.306396,0.127747,-0.082581,down
194866,-2.769531,5.5,7.34375,0.724609,-0.160156,0.162109,0.938782,0.309631,0.126465,-0.082458,down
194871,-2.734375,5.539062,7.5,0.724609,-0.160156,0.162109,0.938416,0.310974,0.125793,-0.082397,down
194876,-2.734375,5.539062,7.5,0.724609,-0.160156,0.162109,0.938171,0.312134,0.125183,-0.082336,down
194882,-2.695313,5.5,7.464844,0.484375,-0.236328,0.191406,0.937866,0.313354,0.12439,-0.082214,down
194887,-2.695313,5.421875,7.425781,0.484375,-0.236328,0.191406,0.937622,0.314392,0.123596,-0.082092,down
194893,-2.695313,5.460937,7.421875,0.484375,-0.236328,0.191406,0.937378,0.31543,0.122742,-0.081909,down
194899,-2.695313,5.460937,7.421875,0.40625,-0.291016,0.257813,0.937378,0.31543,0.122742,-0.081909,down
194904,-2.65625,5.421875,7.421875,0.398438,-0.306641,0.279297,0.937378,0.31543,0.122742,-0.081909,down
194909,-2.617188,5.386719,7.347656,0.408203,-0.304688,0.292969,0.937378,0.31543,0.122742,-0.081909,down
194914,-2.578125,5.386719,7.347656,0.453125,-0.296875,0.296875,0.937378,0.31543,0.122742,-0.081909,down
194919,-2.539063,5.347656,7.386719,0.498047,-0.292969,0.302734,0.937378,0.31543,0.122742,-0.081909,down
194924,-2.503906,5.386719,7.382812,0.558594,-0.279297,0.296875,0.937378,0.31543,0.122742,-0.081909,down
194930,-2.464844,5.386719,7.425781,0.619141,-0.244141,0.289063,0.935425,0.324829,0.11499,-0.079407,down
194935,-2.464844,5.421875,7.425781,0.619141,-0.244141,0.289063,0.935425,0.324829,0.11499,-0.079407,down
194940,-2.464844,5.460937,7.347656,0.777344,-0.126953,0.228516,0.935425,0.324829,0.11499,-0.079407,down
194945,-2.503906,5.578125,7.277344,0.777344,-0.126953,0.228516,0.934387,0.328369,0.113464,-0.078857,down
194950,-2.464844,5.613281,7.238281,0.777344,-0.126953,0.228516,0.933777,0.330383,0.112915,-0.078613,down
194956,-2.503906,5.730469,7.15625,0.84375,0.003906,0.132812,0.933777,0.330383,0.112915,-0.078613,down
194961,-2.539063,5.84375,7.078125,0.84375,0.003906,0.132812,0.931763,0.336365,0.112,-0.078308,down
194966,-2.503906,5.921875,7.117187,0.84375,0.003906,0.132812,0.931152,0.338135,0.111938,-0.078247,down
194971,-2.578125,6.152344,7.0,0.787109,0.115234,0.060547,0.931152,0.338135,0.111938,-0.078247,down
194976,-2.617188,6.265625,7.042969,0.787109,0.115234,0.060547,0.929687,0.342041,0.112122,-0.078186,down
194981,-2.734375,6.496094,7.0,0.787109,0.115234,0.060547,0.929687,0.342041,0.112122,-0.078186,down
194986,-2.847656,6.609375,6.960937,0.701172,0.160156,0.072266,0.928467,0.345276,0.112488,-0.077942,down
194991,-2.925781,6.839844,7.0,0.591797,0.181641,0.132812,0.928467,0.345276,0.112488,-0.077942,down
194996,-2.960938,6.957031,7.039062,0.591797,0.181641,0.132812,0.927856,0.346985,0.112671,-0.077637,down
195001,-3.191406,7.148437,7.199219,0.539062,0.167969,0.193359,0.927856,0.346985,0.112671,-0.077637,down
195006,-3.191406,7.222656,7.195312,0.488281,0.175781,0.255859,0.926514,0.350708,0.113037,-0.07605,down
195011,-3.308594,7.296875,7.234375,0.419922,0.164062,0.40625,0.926086,0.35199,0.113037,-0.075134,down
