timestamp,ax,ay,az,gx,gy,gz,qw,qx,qy,qz,label
392022,7.160156,5.230469,4.90625,0.017578,0.007813,-0.128906,0.59613,0.498779,-0.075806,0.624573,down
392027,7.121094,5.230469,4.90625,-0.064453,0.037109,-0.125,0.59613,0.498779,-0.075806,0.624573,down
392032,7.046875,5.152344,4.90625,-0.064453,0.037109,-0.125,0.596619,0.498657,-0.075562,0.624207,down
392037,7.007812,5.191406,4.867187,-0.09375,0.072266,-0.126953,0.596619,0.498657,-0.075562,0.624207,down
392043,7.011719,5.113281,4.984375,-0.09375,0.072266,-0.126953,0.597656,0.498047,-0.075195,0.623779,down
392049,6.855469,5.078125,5.058594,-0.09375,0.072266,-0.126953,0.598022,0.497803,-0.075073,0.623657,down
392054,6.777344,5.078125,5.097656,-0.052734,0.113281,-0.138672,0.598389,0.497559,-0.07489,0.623535,down
392059,6.738281,5.039062,5.097656,-0.021484,0.111328,-0.144531,0.598694,0.497314,-0.074585,0.623474,down
392064,6.625,5.039062,5.097656,-0.021484,0.111328,-0.144531,0.598999,0.497192,-0.07428,0.623352,down
392070,6.589844,5.0,5.175781,0.005859,0.089844,-0.148437,0.598999,0.497192,-0.07428,0.623352,down
392075,6.507812,4.921875,5.175781,0.033203,0.080078,-0.158203,0.598999,0.497192,-0.07428,0.623352,down
392080,6.507812,4.921875,5.175781,0.041016,0.064453,-0.15625,0.598999,0.497192,-0.07428,0.623352,down
392086,6.46875,4.921875,5.175781,0.041016,0.064453,-0.15625,0.598999,0.497192,-0.07428,0.623352,down
392091,6.46875,4.921875,5.175781,0.070312,0.023437,-0.158203,0.598999,0.497192,-0.07428,0.623352,down
392097,6.433594,4.921875,5.175781,0.066406,0.011719,-0.164062,0.598999,0.497192,-0.07428,0.623352,down
392102,6.394531,4.847656,5.175781,0.054687,0.007813,-0.175781,0.600525,0.497253,-0.07196,0.62207,down
392107,6.390625,4.847656,5.136719,0.046875,0.009766,-0.173828,0.600769,0.497314,-0.071716,0.621765,down
392112,6.355469,4.886719,5.136719,0.046875,0.009766,-0.173828,0.601013,0.497437,-0.071411,0.621521,down
392117,6.355469,4.847656,5.097656,0.017578,0.021484,-0.207031,0.601257,0.497498,-0.071045,0.621216,down
392122,6.355469,4.847656,5.097656,0.017578,0.021484,-0.207031,0.601868,0.497559,-0.070496,0.620667,down
392127,6.355469,4.730469,5.097656,0.017578,0.021484,-0.207031,0.601868,0.497559,-0.070496,0.620667,down
392132,6.355469,4.730469,5.136719,-0.007813,0.029297,-0.228516,0.601868,0.497559,-0.070496,0.620667,down
392137,6.355469,4.730469,5.136719,-0.017578,0.041016,-0.246094,0.602661,0.497498,-0.069885,0.619995,down
392142,6.46875,4.695312,5.175781,-0.017578,0.041016,-0.246094,0.603088,0.497437,-0.06958,0.61969,down
392147,6.550781,4.730469,5.175781,-0.019531,0.052734,-0.275391,0.603088,0.497437,-0.06958,0.61969,down
392152,6.738281,4.808594,5.136719,-0.019531,0.052734,-0.275391,0.603943,0.497314,-0.068848,0.618958,down
392157,6.738281,4.808594,5.136719,-0.007813,0.052734,-0.324219,0.604492,0.497253,-0.06842,0.61853,down
392162,6.894531,4.886719,5.058594,-0.007813,0.052734,-0.324219,0.60498,0.497253,-0.068054,0.618164,down
392167,6.972656,4.921875,4.945312,0.037109,0.076172,-0.378906,0.60498,0.497253,-0.068054,0.618164,down
392172,7.050781,5.0,4.792969,0.070312,0.070312,-0.412109,0.60614,0.497192,-0.067017,0.617187,down
392177,7.085937,5.078125,4.753906,0.070312,0.070312,-0.412109,0.60675,0.497192,-0.066284,0.616638,down
392182,7.085937,5.113281,4.753906,0.113281,0.076172,-0.447266,0.607361,0.497314,-0.065491,0.616089,down
392187,7.089844,5.230469,4.714844,0.113281,0.076172,-0.447266,0.60791,0.497375,-0.064697,0.615479,down
392192,7.121094,5.34375,4.601562,0.113281,0.076172,-0.447266,0.608521,0.497498,-0.063843,0.614929,down
392197,7.117187,5.382812,4.675781,0.113281,0.076172,-0.447266,0.60907,0.497681,-0.063049,0.61438,down
392202,7.050781,5.382812,4.601562,0.15625,0.117188,-0.478516,0.60907,0.497681,-0.063049,0.61438,down
392207,7.011719,5.421875,4.601562,0.15625,0.117188,-0.478516,0.610291,0.497925,-0.061035,0.613098,down
392212,6.8125,5.496094,4.601562,0.15625,0.117188,-0.478516,0.61084,0.498047,-0.059998,0.612549,down
392218,6.734375,5.535156,4.675781,0.15625,0.117188,-0.478516,0.611389,0.49823,-0.05896,0.611938,down
392223,6.738281,5.535156,4.792969,0.195312,0.0625,-0.390625,0.611389,0.49823,-0.05896,0.611938,down
392228,6.695312,5.535156,4.792969,0.195312,0.0625,-0.390625,0.612549,0.498962,-0.056335,0.610413,down
392233,6.667969,5.574219,4.832031,0.195312,0.0625,-0.390625,0.612549,0.498962,-0.056335,0.610413,down
392238,6.664062,5.613281,4.832031,0.175781,0.068359,-0.320313,0.612915,0.499146,-0.055542,0.609985,down
392243,6.664062,5.613281,4.832031,0.175781,0.068359,-0.320313,0.61322,0.499329,-0.05481,0.609619,down
392248,6.695312,5.6875,4.945312,0.144531,0.072266,-0.273438,0.61322,0.499329,-0.05481,0.609619,down
392253,6.667969,5.6875,4.90625,0.148437,0.111328,-0.255859,0.613953,0.499756,-0.052795,0.608704,down
392258,6.667969,5.6875,4.90625,0.152344,0.148437,-0.251953,0.614258,0.499817,-0.051941,0.608459,down
392263,6.628906,5.6875,4.90625,0.152344,0.148437,-0.251953,0.614441,0.499817,-0.05127,0.608276,down
392268,6.546875,5.652344,4.984375,0.140625,0.210937,-0.259766,0.614746,0.499756,-0.050354,0.608093,down
392274,6.507812,5.574219,4.984375,0.140625,0.210937,-0.259766,0.615051,0.499634,-0.049561,0.607971,down
392279,6.429687,5.496094,5.023437,0.085937,0.300781,-0.275391,0.615051,0.499634,-0.049561,0.607971,down
392284,6.390625,5.382812,5.023437,0.085937,0.300781,-0.275391,0.615051,0.499634,-0.049561,0.607971,down
392289,6.316406,5.34375,5.023437,-0.001953,0.392578,-0.298828,0.615051,0.499634,-0.049561,0.607971,down
392295,6.28125,5.230469,4.984375,-0.03125,0.445312,-0.314453,0.615051,0.499634,-0.049561,0.607971,down
392300,6.207031,5.152344,4.90625,-0.03125,0.445312,-0.314453,0.615051,0.499634,-0.049561,0.607971,down
392306,6.246094,5.152344,4.867187,-0.03125,0.445312,-0.314453,0.618103,0.496399,-0.043701,0.607971,down
392311,6.242187,5.191406,4.867187,-0.095703,0.476562,-0.357422,0.618103,0.496399,-0.043701,0.607971,down
392317,6.242187,5.304687,5.058594,-0.087891,0.449219,-0.367188,0.618103,0.496399,-0.043701,0.607971,down
392322,6.3125,5.382812,5.136719,-0.087891,0.449219,-0.367188,0.6203,0.494019,-0.04071,0.60791,down
392327,6.316406,5.421875,5.214844,-0.046875,0.390625,-0.410156,0.6203,0.494019,-0.04071,0.60791,down
392333,6.390625,5.535156,5.289062,0.025391,0.376953,-0.421875,0.6203,0.494019,-0.04071,0.60791,down
392339,6.390625,5.613281,5.40625,0.025391,0.376953,-0.421875,0.623047,0.491943,-0.036133,0.607056,down
392344,6.355469,5.652344,5.40625,0.207031,0.365234,-0.488281,0.623047,0.491943,-0.036133,0.607056,down
392349,6.355469,5.652344,5.367187,0.259766,0.378906,-0.503906,0.623047,0.491943,-0.036133,0.607056,down
392354,6.316406,5.726562,5.328125,0.259766,0.378906,-0.503906,0.624634,0.491455,-0.031555,0.606079,down
392360,6.085937,5.804687,5.367187,0.259766,0.378906,-0.503906,0.625122,0.491333,-0.029846,0.605713,down
392366,6.011719,5.882812,5.40625,0.246094,0.345703,-0.513672,0.625122,0.491333,-0.029846,0.605713,down
392371,5.78125,5.882812,5.480469,0.226562,0.333984,-0.521484,0.625122,0.491333,-0.029846,0.605713,down
392377,5.742187,5.84375,5.480469,0.203125,0.316406,-0.537109,0.625122,0.491333,-0.029846,0.605713,down
392383,5.78125,5.882812,5.441406,0.107422,0.359375,-0.574219,0.625122,0.491333,-0.029846,0.605713,down
392388,5.703125,5.914062,5.328125,0.107422,0.359375,-0.574219,0.628174,0.49054,-0.0224,0.603577,down
392393,5.78125,6.109375,5.25,0.054687,0.330078,-0.583984,0.629822,0.489807,-0.019836,0.602478,down
392398,5.859375,6.148437,5.25,0.029297,0.220703,-0.607422,0.629822,0.489807,-0.019836,0.602478,down
392403,5.859375,6.230469,5.289062,0.029297,0.220703,-0.607422,0.631714,0.489258,-0.017456,0.601013,down
392408,5.898437,6.265625,5.328125,0.029297,0.220703,-0.607422,0.631714,0.489258,-0.017456,0.601013,down
392413,5.933594,6.300781,5.40625,0.082031,0.175781,-0.632812,0.633423,0.489014,-0.015198,0.599487,down
392418,5.933594,6.414062,5.40625,0.142578,0.107422,-0.626953,0.633423,0.489014,-0.015198,0.599487,down
392423,6.011719,6.53125,5.597656,0.136719,0.082031,-0.619141,0.634338,0.489075,-0.013977,0.598572,down
392428,6.050781,6.570312,5.671875,0.136719,0.082031,-0.619141,0.635803,0.489258,-0.011902,0.596863,down
392433,6.011719,6.570312,5.632812,0.136719,0.082031,-0.619141,0.635803,0.489258,-0.011902,0.596863,down
392438,6.011719,6.53125,5.597656,0.082031,0.082031,-0.558594,0.635803,0.489258,-0.011902,0.596863,down
392444,5.859375,6.53125,5.519531,0.082031,0.082031,-0.558594,0.638123,0.48938,-0.009033,0.594299,down
392449,5.667969,6.453125,5.441406,0.082031,0.082031,-0.558594,0.638855,0.48938,-0.00824,0.593567,down
392454,5.589844,6.375,5.441406,0.015625,0.083984,-0.476562,0.639587,0.489319,-0.007446,0.592834,down
392460,5.476562,6.339844,5.40625,-0.011719,0.089844,-0.464844,0.640259,0.489197,-0.006714,0.592224,down
392465,5.589844,6.339844,5.367187,-0.011719,0.089844,-0.464844,0.640991,0.489014,-0.006104,0.591553,down
392471,5.703125,6.375,5.40625,-0.042969,0.087891,-0.425781,0.640991,0.489014,-0.006104,0.591553,down
392476,5.78125,6.414062,5.328125,-0.041016,0.103516,-0.421875,0.640991,0.489014,-0.006104,0.591553,down
392481,5.820312,6.417969,5.40625,-0.027344,0.115234,-0.423828,0.640991,0.489014,-0.006104,0.591553,down
392487,5.820312,6.339844,5.40625,-0.003906,0.126953,-0.431641,0.640991,0.489014,-0.006104,0.591553,down
392492,5.820312,6.335937,5.441406,0.041016,0.142578,-0.439453,0.640991,0.489014,-0.006104,0.591553,down
392498,5.78125,6.375,5.367187,0.089844,0.154297,-0.443359,0.640991,0.489014,-0.006104,0.591553,down
392503,5.78125,6.375,5.40625,0.132812,0.177734,-0.449219,0.645569,0.487854,-0.000977,0.587585,down
392508,5.742187,6.417969,5.441406,0.132812,0.177734,-0.449219,0.646606,0.487732,0.001099,0.586548,down
392513,5.628906,6.375,5.480469,0.132812,0.177734,-0.449219,0.646606,0.487732,0.001099,0.586548,down
392518,5.550781,6.417969,5.480469,0.132812,0.177734,-0.449219,0.647644,0.48761,0.003357,0.58551,down
392523,5.4375,6.414062,5.480469,0.132812,0.177734,-0.449219,0.647644,0.48761,0.003357,0.58551,down
392528,5.320312,6.375,5.441406,0.158203,0.25,-0.480469,0.647644,0.48761,0.003357,0.58551,down
392533,5.09375,6.335937,5.480469,0.140625,0.259766,-0.486328,0.647644,0.48761,0.003357,0.58551,down
392539,4.976562,6.296875,5.519531,0.091797,0.273438,-0.480469,0.649292,0.487183,0.007019,0.583984,down
392544,4.863281,6.269531,5.558594,0.091797,0.273438,-0.480469,0.650513,0.486633,0.009399,0.583008,down
392550,4.824219,6.191406,5.519531,0.091797,0.273438,-0.480469,0.651062,0.486328,0.010315,0.582642,down
392555,4.902344,6.191406,5.597656,0.091797,0.273438,-0.480469,0.651733,0.486023,0.011292,0.582153,down
392561,4.976562,6.230469,5.597656,0.009766,0.185547,-0.439453,0.651733,0.486023,0.011292,0.582153,down
392566,4.9375,6.191406,5.597656,0.005859,0.177734,-0.435547,0.651733,0.486023,0.011292,0.582153,down
392571,4.976562,6.113281,5.558594,0.015625,0.175781,-0.441406,0.651733,0.486023,0.011292,0.582153,down
392576,4.976562,6.109375,5.480469,0.023437,0.175781,-0.449219,0.651733,0.486023,0.011292,0.582153,down
392582,4.9375,6.070312,5.519531,0.048828,0.177734,-0.455078,0.651733,0.486023,0.011292,0.582153,down
392587,4.902344,6.109375,5.441406,0.089844,0.175781,-0.470703,0.651733,0.486023,0.011292,0.582153,down
392593,4.785156,6.1875,5.40625,0.121094,0.183594,-0.490234,0.651733,0.486023,0.011292,0.582153,down
392598,4.785156,6.1875,5.40625,0.166016,0.173828,-0.498047,0.656677,0.484436,0.018616,0.577759,down
392603,4.710937,6.1875,5.367187,0.166016,0.173828,-0.498047,0.657227,0.484436,0.019775,0.577087,down
392608,4.632812,6.152344,5.367187,0.214844,0.1875,-0.533203,0.657227,0.484436,0.019775,0.577087,down
392613,4.324219,6.074219,5.289062,0.228516,0.208984,-0.552734,0.657227,0.484436,0.019775,0.577087,down
392618,4.171875,5.996094,5.214844,0.228516,0.208984,-0.552734,0.658752,0.484619,0.023621,0.575012,down
392623,3.980469,5.914062,5.328125,0.226562,0.197266,-0.554687,0.658752,0.484619,0.023621,0.575012,down
392628,3.980469,5.914062,5.289062,0.226562,0.197266,-0.554687,0.659851,0.48468,0.026306,0.573608,down
392633,4.132812,5.917969,5.367187,0.195312,0.195312,-0.621094,0.659851,0.48468,0.026306,0.573608,down
392639,4.210937,5.957031,5.40625,0.189453,0.193359,-0.667969,0.661072,0.484741,0.029053,0.572021,down
392644,4.210937,5.957031,5.40625,0.175781,0.207031,-0.716797,0.662476,0.48468,0.031738,0.570251,down
392649,4.480469,6.035156,5.441406,0.181641,0.210937,-0.761719,0.662476,0.48468,0.031738,0.570251,down
392654,4.480469,6.070312,5.441406,0.181641,0.210937,-0.761719,0.664185,0.484558,0.034729,0.568176,down
392659,4.402344,6.148437,5.441406,0.181641,0.210937,-0.761719,0.665222,0.484619,0.036499,0.566833,down
392664,4.402344,6.191406,5.441406,0.181641,0.210937,-0.761719,0.666077,0.48468,0.037964,0.565674,down
392669,4.324219,6.226562,5.480469,0.181641,0.210937,-0.761719,0.667053,0.484863,0.039673,0.56427,down
392674,4.324219,6.296875,5.441406,0.304688,0.078125,-0.974609,0.668091,0.485168,0.041565,0.562622,down
392679,4.097656,6.375,5.367187,0.304688,0.078125,-0.974609,0.669128,0.485474,0.043274,0.560974,down
392684,4.058594,6.417969,5.367187,0.304688,0.078125,-0.974609,0.670166,0.485779,0.044922,0.559387,down
392689,3.941406,6.453125,5.367187,0.289063,0.011719,-1.035156,0.670166,0.485779,0.044922,0.559387,down
392694,3.714844,6.492187,5.25,0.289063,0.011719,-1.035156,0.671265,0.486145,0.046631,0.557556,down
392700,3.558594,6.53125,5.136719,0.289063,0.011719,-1.035156,0.673584,0.486755,0.049866,0.554016,down
392706,3.558594,6.53125,5.136719,0.201172,-0.021484,-1.066406,0.673584,0.486755,0.049866,0.554016,down
392711,3.714844,6.613281,5.097656,0.169922,-0.041016,-1.070313,0.676025,0.487183,0.052917,0.550293,down
392716,4.132812,6.761719,4.984375,0.154297,-0.050781,-1.074219,0.676025,0.487183,0.052917,0.550293,down
392722,4.25,6.878906,4.984375,0.158203,-0.048828,-1.085938,0.676025,0.487183,0.052917,0.550293,down
392727,4.324219,6.953125,4.984375,0.15625,-0.03125,-1.109375,0.676025,0.487183,0.052917,0.550293,down
392733,4.324219,7.03125,4.90625,0.171875,0.011719,-1.128906,0.676025,0.487183,0.052917,0.550293,down
392739,4.210937,7.070312,4.90625,0.255859,0.064453,-1.148438,0.676025,0.487183,0.052917,0.550293,down
392744,4.171875,7.140625,4.832031,0.255859,0.064453,-1.148438,0.685242,0.488342,0.064392,0.536499,down
392749,4.171875,7.179687,4.832031,0.314453,0.109375,-1.150391,0.685242,0.488342,0.064392,0.536499,down
392754,3.941406,7.222656,4.832031,0.314453,0.109375,-1.150391,0.6875,0.488708,0.068298,0.532776,down
392759,3.867188,7.300781,4.832031,0.357422,0.166016,-1.140625,0.68866,0.488892,0.070557,0.530823,down
392765,3.714844,7.296875,4.714844,0.396484,0.183594,-1.136719,0.689758,0.489136,0.072876,0.52887,down
392770,3.40625,7.375,4.714844,0.396484,0.183594,-1.136719,0.690613,0.48938,0.07489,0.527283,down
392776,3.292969,7.457031,4.714844,0.396484,0.183594,-1.136719,0.691406,0.489746,0.077209,0.525513,down
392781,3.367188,7.527344,4.753906,0.572266,0.210937,-1.125,0.691406,0.489746,0.077209,0.525513,down
392786,3.523438,7.644531,4.753906,0.632812,0.222656,-1.121094,0.691406,0.489746,0.077209,0.525513,down
392791,3.636719,7.722656,4.714844,0.632812,0.222656,-1.121094,0.691406,0.489746,0.077209,0.525513,down
392796,3.636719,7.722656,4.714844,0.71875,0.271484,-1.150391,0.694153,0.491882,0.087646,0.518127,down
392801,3.636719,7.722656,4.714844,0.763672,0.285156,-1.154297,0.694641,0.492554,0.090515,0.516357,down
392806,3.789063,8.371094,4.640625,0.763672,0.285156,-1.154297,0.694641,0.492554,0.090515,0.516357,down
392811,3.714844,8.523438,4.640625,0.763672,0.285156,-1.154297,0.694641,0.492554,0.090515,0.516357,down
392817,3.636719,8.566406,4.675781,0.84375,0.287109,-1.146484,0.694641,0.492554,0.090515,0.516357,down
392822,3.636719,8.605469,4.675781,0.839844,0.28125,-1.136719,0.694641,0.492554,0.090515,0.516357,down
392827,3.523438,8.753906,4.675781,0.839844,0.28125,-1.136719,0.694641,0.492554,0.090515,0.516357,down
392833,3.484375,8.792969,4.675781,0.839844,0.28125,-1.136719,0.697021,0.497253,0.108276,0.505127,down
392839,3.328125,8.832031,4.640625,0.757812,0.220703,-1.060547,0.697021,0.497253,0.108276,0.505127,down
392844,3.136719,8.910156,4.601562,0.757812,0.220703,-1.060547,0.698059,0.499634,0.116699,0.499451,down
392849,3.023438,8.90625,4.5625,0.757812,0.220703,-1.060547,0.698059,0.499634,0.116699,0.499451,down
392854,2.910156,8.949219,4.523437,0.792969,0.148437,-1.003906,0.698059,0.499634,0.116699,0.499451,down
392859,2.945313,8.949219,4.523437,0.792969,0.148437,-1.003906,0.698608,0.501221,0.121521,0.495972,down
392865,2.945313,8.949219,4.523437,0.869141,0.091797,-0.972656,0.698914,0.503113,0.126282,0.492371,down
392870,3.175781,9.171875,4.484375,0.914062,0.076172,-0.955078,0.698975,0.504395,0.129028,0.490295,down
392875,3.175781,9.171875,4.484375,0.935547,0.087891,-0.962891,0.698975,0.505493,0.131287,0.488586,down
392881,3.523438,9.558594,4.332031,0.935547,0.087891,-0.962891,0.698914,0.506714,0.133789,0.486694,down
392886,3.523438,9.710938,4.253906,0.960937,0.125,-0.953125,0.698914,0.506714,0.133789,0.486694,down
392891,3.484375,9.75,4.21875,0.96875,0.125,-0.947266,0.69873,0.509155,0.138977,0.482971,down
392896,3.445313,9.902344,4.179687,0.962891,0.119141,-0.943359,0.69873,0.509155,0.138977,0.482971,down
392901,3.445313,9.980469,4.253906,0.935547,0.117188,-0.931641,0.69873,0.509155,0.138977,0.482971,down
392906,3.367188,10.058594,4.21875,0.880859,0.126953,-0.914062,0.69873,0.509155,0.138977,0.482971,down
392913,3.214844,10.097656,4.21875,0.833984,0.119141,-0.908203,0.69873,0.509155,0.138977,0.482971,down
392919,3.136719,10.097656,4.253906,0.775391,0.125,-0.884766,0.698364,0.515442,0.153625,0.472229,down
392924,3.023438,10.058594,4.253906,0.775391,0.125,-0.884766,0.698364,0.515442,0.153625,0.472229,down
392929,2.910156,10.097656,4.21875,0.630859,0.085937,-0.822266,0.698364,0.515442,0.153625,0.472229,down
392934,2.71875,10.09375,4.140625,0.630859,0.085937,-0.822266,0.698669,0.517517,0.159607,0.467468,down
392939,2.71875,10.054688,4.21875,0.556641,0.03125,-0.773437,0.698669,0.517517,0.159607,0.467468,down
392944,2.753906,10.015625,4.21875,0.556641,0.03125,-0.773437,0.698853,0.51825,0.161499,0.465759,down
392949,2.832031,10.015625,4.21875,0.509766,-0.025391,-0.728516,0.698853,0.51825,0.161499,0.465759,down
392954,2.945313,10.136719,4.253906,0.509766,-0.025391,-0.728516,0.69928,0.51947,0.164551,0.462769,down
392959,2.945313,10.136719,4.253906,0.501953,-0.039063,-0.714844,0.699463,0.520081,0.166016,0.461243,down
392964,2.945313,10.171875,4.21875,0.501953,-0.039063,-0.714844,0.699646,0.520691,0.167419,0.459717,down
392969,2.871094,10.246094,4.140625,0.480469,-0.048828,-0.691406,0.699829,0.521301,0.168762,0.458252,down
392974,2.910156,10.210938,4.140625,0.474609,-0.060547,-0.691406,0.700256,0.522461,0.171448,0.455261,down
392979,2.871094,10.246094,4.179687,0.474609,-0.060547,-0.691406,0.700256,0.522461,0.171448,0.455261,down
392984,2.832031,10.285156,4.140625,0.380859,-0.09375,-0.648437,0.700256,0.522461,0.171448,0.455261,down
392989,2.792969,10.359375,4.101562,0.380859,-0.09375,-0.648437,0.700806,0.52356,0.173828,0.452271,down
392995,2.792969,10.324219,4.101562,0.333984,-0.101563,-0.642578,0.701477,0.524414,0.175903,0.449402,down
393000,2.753906,10.324219,4.0625,0.21875,-0.107422,-0.609375,0.701904,0.524719,0.17688,0.447937,down
393005,2.640625,10.285156,4.0625,0.21875,-0.107422,-0.609375,0.702393,0.524902,0.177734,0.446655,down
393010,2.5625,10.242188,4.027344,0.123047,-0.105469,-0.585937,0.702393,0.524902,0.177734,0.446655,down
393015,2.488281,10.171875,3.988281,0.123047,-0.105469,-0.585937,0.703491,0.525085,0.179138,0.444153,down
393020,2.332031,10.097656,3.988281,0.123047,-0.105469,-0.585937,0.704102,0.525024,0.179749,0.442993,down
393025,2.296875,10.015625,3.949219,0.123047,-0.105469,-0.585937,0.704651,0.524963,0.180237,0.442017,down
393030,2.21875,9.976563,3.949219,-0.029297,-0.105469,-0.521484,0.705383,0.524841,0.180725,0.440857,down
393036,2.332031,9.859375,3.988281,-0.029297,-0.105469,-0.521484,0.705994,0.524658,0.181152,0.43988,down
393043,2.371094,9.792969,4.027344,-0.048828,-0.117188,-0.476562,0.705994,0.524658,0.181152,0.43988,down
393048,2.449219,9.710938,4.101562,-0.048828,-0.117188,-0.476562,0.705994,0.524658,0.181152,0.43988,down
393053,2.449219,9.675781,4.0625,-0.046875,-0.089844,-0.439453,0.705994,0.524658,0.181152,0.43988,down
393058,2.410156,9.597656,4.027344,-0.042969,-0.072266,-0.421875,0.705994,0.524658,0.181152,0.43988,down
393063,2.410156,9.554688,4.027344,-0.042969,-0.060547,-0.408203,0.705994,0.524658,0.181152,0.43988,down
393068,2.332031,9.480469,4.027344,-0.046875,-0.048828,-0.402344,0.705994,0.524658,0.181152,0.43988,down
393074,2.371094,9.480469,4.0625,-0.037109,-0.041016,-0.386719,0.705994,0.524658,0.181152,0.43988,down
393080,2.257813,9.445313,4.0625,-0.037109,-0.041016,-0.386719,0.711121,0.522888,0.184509,0.432251,down
393085,2.140625,9.449219,4.101562,-0.017578,-0.021484,-0.388672,0.711609,0.522705,0.184998,0.431519,down
393091,2.105469,9.476563,4.027344,-0.017578,-0.021484,-0.388672,0.712036,0.522522,0.185425,0.430847,down
393096,2.027344,9.515625,4.027344,-0.017578,-0.021484,-0.388672,0.712463,0.522339,0.185913,0.430054,down
393103,1.914063,9.597656,4.027344,-0.017578,-0.021484,-0.388672,0.712463,0.522339,0.185913,0.430054,down
393108,1.914063,9.59375,3.949219,-0.03125,-0.021484,-0.390625,0.712463,0.522339,0.185913,0.430054,down
393114,1.914063,9.632813,3.949219,-0.056641,-0.015625,-0.398438,0.712463,0.522339,0.185913,0.430054,down
393119,1.914063,9.59375,3.949219,-0.056641,-0.015625,-0.398438,0.714417,0.521423,0.187683,0.427185,down
393124,1.875,9.597656,3.910156,-0.152344,0.009766,-0.386719,0.714417,0.521423,0.187683,0.427185,down
393129,1.875,9.636719,3.910156,-0.152344,0.009766,-0.386719,0.715637,0.52063,0.188477,0.425781,down
393134,1.914063,9.671875,3.871094,-0.152344,0.009766,-0.386719,0.716248,0.520142,0.188843,0.425171,down
393140,1.875,9.671875,3.871094,-0.220703,0.021484,-0.367188,0.71759,0.518982,0.189392,0.424133,down
393145,1.914063,9.636719,3.910156,-0.310547,0.029297,-0.341797,0.718384,0.518188,0.189575,0.423645,down
393150,1.988281,9.597656,3.871094,-0.310547,0.029297,-0.341797,0.719055,0.517456,0.189697,0.423279,down
393155,1.988281,9.558594,3.949219,-0.310547,0.029297,-0.341797,0.719849,0.516602,0.189819,0.422974,down
393160,1.988281,9.558594,3.949219,-0.384766,0.064453,-0.285156,0.720703,0.515625,0.18988,0.422668,down
393166,1.914063,9.445313,4.0625,-0.384766,0.064453,-0.285156,0.721497,0.514709,0.190002,0.422424,down
393171,1.835938,9.371094,4.101562,-0.384766,0.064453,-0.285156,0.722168,0.513916,0.190063,0.422241,down
393176,1.835938,9.292969,4.0625,-0.357422,0.099609,-0.257813,0.722168,0.513916,0.190063,0.422241,down
393181,1.796875,9.367188,4.0625,-0.345703,0.103516,-0.251953,0.722168,0.513916,0.190063,0.422241,down
393186,1.796875,9.328125,4.0625,-0.345703,0.103516,-0.251953,0.722168,0.513916,0.190063,0.422241,down
393191,1.796875,9.328125,4.0625,-0.345703,0.103516,-0.251953,0.724854,0.510437,0.190674,0.421509,down
393199,1.835938,9.410156,4.101562,-0.345703,0.103516,-0.251953,0.724854,0.510437,0.190674,0.421509,down
393204,1.875,9.480469,4.101562,-0.267578,0.074219,-0.248047,0.724854,0.510437,0.190674,0.421509,down
393209,1.875,9.480469,4.0625,-0.267578,0.074219,-0.248047,0.726624,0.508362,0.191162,0.420837,down
393214,1.949219,9.476563,4.0625,-0.238281,0.089844,-0.236328,0.726624,0.508362,0.191162,0.420837,down
393219,1.988281,9.515625,4.0625,-0.259766,0.089844,-0.210937,0.726624,0.508362,0.191162,0.420837,down
393224,2.027344,9.519531,4.140625,-0.259766,0.089844,-0.210937,0.728149,0.506409,0.191772,0.420166,down
393229,2.105469,9.519531,4.101562,-0.259766,0.089844,-0.210937,0.72876,0.505615,0.191895,0.420044,down
393234,2.105469,9.515625,4.140625,-0.34375,0.132812,-0.166016,0.72876,0.505615,0.191895,0.420044,down
393239,2.105469,9.480469,4.140625,-0.34375,0.132812,-0.166016,0.729736,0.50415,0.192139,0.419983,down
393244,2.140625,9.476563,4.21875,-0.34375,0.132812,-0.166016,0.730347,0.503235,0.192261,0.420044,down
393250,2.179688,9.40625,4.253906,-0.380859,0.164062,-0.125,0.730347,0.503235,0.192261,0.420044,down
393255,2.257813,9.371094,4.371094,-0.386719,0.175781,-0.115234,0.730347,0.503235,0.192261,0.420044,down
393260,2.257813,9.371094,4.371094,-0.386719,0.175781,-0.115234,0.732422,0.499512,0.192505,0.420776,down
393265,2.296875,9.371094,4.523437,-0.390625,0.226562,-0.082031,0.732422,0.499512,0.192505,0.420776,down
393270,2.371094,9.289063,4.523437,-0.365234,0.232422,-0.064453,0.73291,0.498413,0.192566,0.421082,down
393275,2.371094,9.332031,4.714844,-0.365234,0.232422,-0.064453,0.733337,0.497498,0.192688,0.421387,down
393281,2.488281,9.480469,4.753906,-0.365234,0.232422,-0.064453,0.73407,0.495667,0.192993,0.422119,down
393287,2.5625,9.554688,4.714844,-0.310547,0.246094,-0.023437,0.734436,0.494812,0.193115,0.422485,down
393293,2.527344,9.597656,4.714844,-0.292969,0.253906,-0.017578,0.734436,0.494812,0.193115,0.422485,down
393299,2.5625,9.753906,4.753906,-0.292969,0.253906,-0.017578,0.734436,0.494812,0.193115,0.422485,down
393304,2.5625,9.859375,4.753906,-0.265625,0.25,0.015625,0.734436,0.494812,0.193115,0.422485,down
393309,2.5625,10.015625,4.832031,-0.253906,0.263672,0.058594,0.734436,0.494812,0.193115,0.422485,down
393314,2.449219,10.246094,4.753906,-0.253906,0.263672,0.058594,0.735474,0.490967,0.193909,0.424805,down
393319,2.449219,10.320313,4.714844,-0.253906,0.263672,0.058594,0.735596,0.490234,0.194031,0.425354,down
393325,2.410156,10.402344,4.675781,-0.351563,0.267578,0.113281,0.735596,0.490234,0.194031,0.425354,down
393330,2.371094,10.554688,4.714844,-0.351563,0.267578,0.113281,0.736145,0.48761,0.194092,0.427429,down
393335,2.410156,10.632813,4.675781,-0.351563,0.267578,0.113281,0.736389,0.486572,0.19397,0.428162,down
393340,2.371094,10.742188,4.714844,-0.351563,0.267578,0.113281,0.736389,0.486572,0.19397,0.428162,down
393345,2.371094,10.785156,4.675781,-0.580078,0.289063,0.179687,0.737122,0.483948,0.193359,0.430176,down
393350,2.410156,10.78125,4.714844,-0.777344,0.371094,0.232422,0.73761,0.4823,0.192993,0.431335,down
393355,2.449219,10.746094,4.753906,-0.777344,0.371094,0.232422,0.738159,0.48053,0.192505,0.432617,down
393360,2.527344,10.554688,4.832031,-0.777344,0.371094,0.232422,0.738159,0.48053,0.192505,0.432617,down
393365,2.5625,10.441406,4.945312,-1.048828,0.494141,0.308594,0.738159,0.48053,0.192505,0.432617,down
393370,2.640625,10.28125,4.984375,-1.048828,0.494141,0.308594,0.739441,0.476196,0.191406,0.43573,down
393375,2.640625,10.28125,4.984375,-1.113281,0.552734,0.322266,0.740051,0.473877,0.190857,0.437378,down
393380,2.679688,10.171875,5.023437,-1.167969,0.615234,0.339844,0.740051,0.473877,0.190857,0.437378,down
393385,2.71875,9.898438,5.097656,-1.191406,0.648437,0.363281,0.741516,0.468567,0.189758,0.441162,down
393390,2.753906,9.792969,5.136719,-1.199219,0.701172,0.375,0.742187,0.465698,0.18927,0.443237,down
393395,2.832031,9.75,5.058594,-1.199219,0.701172,0.375,0.743347,0.460022,0.188538,0.44751,down
393400,2.871094,9.828125,5.023437,-1.199219,0.701172,0.375,0.743347,0.460022,0.188538,0.44751,down
393405,2.871094,9.828125,5.058594,-1.199219,0.701172,0.375,0.744263,0.454163,0.188354,0.452026,down
393410,2.832031,9.863281,5.023437,-1.199219,0.701172,0.375,0.744263,0.454163,0.188354,0.452026,down
393415,2.753906,9.976563,5.023437,-1.126953,1.021484,0.375,0.744263,0.454163,0.188354,0.452026,down
393420,2.371094,10.132813,5.058594,-1.136719,1.074219,0.373047,0.745056,0.447937,0.188538,0.456787,down
393425,2.371094,10.132813,5.058594,-1.136719,1.074219,0.373047,0.745728,0.441772,0.189087,0.461487,down
393430,1.988281,10.4375,5.058594,-1.136719,1.074219,0.373047,0.745728,0.441772,0.189087,0.461487,down
393435,1.835938,10.480469,5.136719,-1.285156,1.162109,0.402344,0.745728,0.441772,0.189087,0.461487,down
393441,1.722656,10.441406,5.328125,-1.285156,1.162109,0.402344,0.746826,0.431213,0.18988,0.469299,down
393446,1.644531,10.359375,5.441406,-1.490234,1.210938,0.433594,0.747375,0.426941,0.190002,0.472351,down
393451,1.566406,10.214844,5.558594,-1.490234,1.210938,0.433594,0.747803,0.423279,0.190002,0.474854,down
393457,1.566406,9.976563,5.671875,-1.701172,1.273438,0.482422,0.748413,0.418823,0.18988,0.477905,down
393462,1.605469,9.714844,5.902344,-1.701172,1.273438,0.482422,0.749023,0.414246,0.189697,0.480957,down
393467,1.644531,9.558594,6.019531,-1.925781,1.349609,0.541016,0.749023,0.414246,0.189697,0.480957,down
393473,1.644531,9.367188,6.132812,-2.029297,1.376953,0.556641,0.749023,0.414246,0.189697,0.480957,down
393479,1.605469,9.023438,6.324219,-2.029297,1.376953,0.556641,0.749023,0.414246,0.189697,0.480957,down
393485,1.722656,8.832031,6.402344,-2.199219,1.445313,0.574219,0.749023,0.414246,0.189697,0.480957,down
393490,1.683594,8.671875,6.515625,-2.210938,1.496094,0.574219,0.749023,0.414246,0.189697,0.480957,down
393495,1.605469,8.527344,6.667969,-2.210938,1.496094,0.574219,0.753357,0.381775,0.186829,0.50177,down
393500,1.375,8.222656,6.707031,-2.169922,1.53125,0.566406,0.754028,0.376099,0.186401,0.505249,down
393505,1.375,8.222656,6.707031,-2.101563,1.564453,0.5625,0.754578,0.370422,0.186096,0.508728,down
393510,1.070313,8.027344,6.785156,-2.101563,1.564453,0.5625,0.755005,0.364624,0.185913,0.512268,down
393515,1.070313,8.027344,6.785156,-1.916016,1.572266,0.558594,0.75531,0.359253,0.185852,0.515625,down
393521,0.6875,7.800781,6.898437,-1.822266,1.556641,0.568359,0.755676,0.348755,0.185974,0.522278,down
393526,0.609375,7.722656,6.898437,-1.6875,1.513672,0.587891,0.755676,0.343506,0.186157,0.525696,down
393531,0.378906,7.484375,6.976562,-1.644531,1.480469,0.597656,0.755676,0.343506,0.186157,0.525696,down
393537,0.34375,7.375,7.050781,-1.644531,1.480469,0.597656,0.755493,0.334167,0.18634,0.531799,down
393543,0.304688,7.300781,7.128906,-1.576172,1.410156,0.625,0.755493,0.334167,0.18634,0.531799,down
393548,0.417969,7.105469,7.167969,-1.554688,1.367188,0.644531,0.755493,0.334167,0.18634,0.531799,down
393554,0.496094,7.070312,7.207031,-1.546875,1.326172,0.664062,0.755493,0.334167,0.18634,0.531799,down
393559,0.457031,6.953125,7.203125,-1.560547,1.287109,0.681641,0.755493,0.334167,0.18634,0.531799,down
393565,0.496094,6.761719,7.128906,-1.580078,1.248047,0.701172,0.755493,0.334167,0.18634,0.531799,down
393570,0.535156,6.609375,7.050781,-1.589844,1.181641,0.759766,0.753906,0.307434,0.185486,0.550171,down
393575,0.535156,6.457031,7.089844,-1.589844,1.181641,0.759766,0.75354,0.30304,0.184998,0.553284,down
393581,0.609375,6.339844,7.164062,-1.5625,1.125,0.785156,0.752625,0.294556,0.183716,0.559509,down
393587,0.761719,6.074219,7.398437,-1.5625,1.125,0.785156,0.752075,0.290894,0.183044,0.562378,down
393592,0.761719,6.074219,7.398437,-1.5625,1.125,0.785156,0.752075,0.290894,0.183044,0.562378,down
393597,0.800781,5.957031,7.433594,-1.351563,1.007813,0.851562,0.750671,0.283691,0.181824,0.568298,down
393602,0.800781,5.957031,7.433594,-1.121094,0.978516,0.888672,0.750671,0.283691,0.181824,0.568298,down
393607,0.6875,5.804687,7.585937,-1.121094,0.978516,0.888672,0.749817,0.280518,0.181335,0.571106,down
393612,0.6875,5.804687,7.585937,-1.007813,0.970703,0.882812,0.747742,0.274719,0.180847,0.576782,down
393617,0.535156,5.917969,7.589844,-1.007813,0.970703,0.882812,0.747742,0.274719,0.180847,0.576782,down
393623,0.378906,6.035156,7.628906,-1.007813,0.970703,0.882812,0.745422,0.269653,0.180908,0.582092,down
393629,0.304688,6.1875,7.703125,-0.738281,0.996094,0.865234,0.745422,0.269653,0.180908,0.582092,down
393634,0.1875,6.378906,7.746094,-0.736328,1.013672,0.84375,0.745422,0.269653,0.180908,0.582092,down
393640,0.074219,6.492187,7.785156,-0.763672,1.021484,0.820312,0.745422,0.269653,0.180908,0.582092,down
393645,-0.003906,6.570312,7.933594,-0.794922,1.017578,0.783203,0.745422,0.269653,0.180908,0.582092,down
393650,-0.117188,6.570312,8.007813,-0.859375,1.013672,0.755859,0.745422,0.269653,0.180908,0.582092,down
393656,-0.269531,6.492187,7.96875,-0.921875,1.007813,0.732422,0.745422,0.269653,0.180908,0.582092,down
393661,-0.386719,6.417969,7.96875,-1.072266,0.996094,0.716797,0.73761,0.251038,0.182007,0.599854,down
393666,-0.347656,6.378906,8.046875,-1.072266,0.996094,0.716797,0.735779,0.244446,0.18158,0.604919,down
393671,-0.386719,6.300781,8.050781,-1.072266,0.996094,0.716797,0.735779,0.244446,0.18158,0.604919,down
393676,-0.425781,6.148437,8.128906,-1.146484,0.949219,0.722656,0.734192,0.238342,0.180786,0.609497,down
393681,-0.386719,6.035156,8.167969,-1.146484,0.949219,0.722656,0.734192,0.238342,0.180786,0.609497,down
393686,-0.386719,5.996094,8.234375,-1.107422,0.904297,0.75,0.734192,0.238342,0.180786,0.609497,down
393691,-0.425781,5.882812,8.3125,-1.107422,0.904297,0.75,0.731384,0.228821,0.179321,0.616943,down
393696,-0.460937,5.882812,8.394531,-1.107422,0.904297,0.75,0.730408,0.226196,0.178955,0.61908,down
393701,-0.578125,5.765625,8.617188,-0.90625,0.806641,0.810547,0.730408,0.226196,0.178955,0.61908,down
393706,-0.539062,5.726562,8.695313,-0.8125,0.771484,0.826172,0.729248,0.223328,0.178528,0.621643,down
393711,-0.617187,5.726562,8.738281,-0.8125,0.771484,0.826172,0.726868,0.21875,0.177917,0.626221,down
393717,-0.882812,5.882812,8.777344,-0.8125,0.771484,0.826172,0.725647,0.216858,0.177673,0.628357,down
393722,-0.921875,5.917969,8.734375,-0.550781,0.630859,0.873047,0.725647,0.216858,0.177673,0.628357,down
393727,-1.0,5.996094,8.777344,-0.492187,0.566406,0.888672,0.725647,0.216858,0.177673,0.628357,down
393732,-1.035156,6.035156,8.8125,-0.492187,0.566406,0.888672,0.721497,0.212341,0.177002,0.634827,down
393737,-1.035156,6.035156,8.8125,-0.492187,0.566406,0.888672,0.721497,0.212341,0.177002,0.634827,down
393742,-1.074219,6.109375,8.738281,-0.453125,0.425781,0.892578,0.721497,0.212341,0.177002,0.634827,down
393747,-1.230469,6.265625,8.550781,-0.441406,0.363281,0.892578,0.71875,0.210144,0.176208,0.638916,down
393752,-1.191406,6.378906,8.617188,-0.441406,0.287109,0.884766,0.717407,0.209229,0.175598,0.640869,down
393757,-1.152344,6.457031,8.621094,-0.441406,0.287109,0.884766,0.714844,0.207642,0.17395,0.644653,down
393763,-1.113281,6.457031,8.621094,-0.441406,0.287109,0.884766,0.714844,0.207642,0.17395,0.644653,down
393769,-1.035156,6.417969,8.695313,-0.441406,0.287109,0.884766,0.712646,0.206177,0.17157,0.648193,down
393774,-0.960937,6.339844,8.777344,-0.673828,-0.074219,0.824219,0.712646,0.206177,0.17157,0.648193,down
393779,-0.921875,6.226562,8.855469,-0.748047,-0.150391,0.828125,0.712646,0.206177,0.17157,0.648193,down
393784,-0.84375,6.035156,8.933594,-0.748047,-0.150391,0.828125,0.709839,0.203979,0.166199,0.653381,down
393789,-0.730469,5.804687,8.96875,-0.748047,-0.150391,0.828125,0.709839,0.203979,0.166199,0.653381,down
393794,-0.652344,5.652344,8.933594,-0.964844,-0.365234,0.839844,0.709839,0.203979,0.166199,0.653381,down
393799,-0.617187,5.496094,8.933594,-1.005859,-0.445312,0.855469,0.709839,0.203979,0.166199,0.653381,down
393804,-0.5,5.304687,8.816406,-1.005859,-0.445312,0.855469,0.709839,0.203979,0.166199,0.653381,down
393810,-0.386719,5.230469,8.851563,-1.005859,-0.445312,0.855469,0.705994,0.200439,0.152405,0.661926,down
393816,-0.308594,5.113281,8.777344,-0.978516,-0.724609,0.919922,0.705994,0.200439,0.152405,0.661926,down
393821,-0.195312,4.960937,8.734375,-0.978516,-0.724609,0.919922,0.703735,0.199646,0.142578,0.666748,down
393826,-0.117188,4.960937,8.851563,-0.835937,-0.841797,0.9375,0.703735,0.199646,0.142578,0.666748,down
393831,-0.078125,5.0,8.851563,-0.75,-0.902344,0.939453,0.70282,0.199829,0.138855,0.668457,down
393836,-0.003906,5.113281,8.855469,-0.75,-0.902344,0.939453,0.701111,0.200806,0.132568,0.671265,down
393841,-0.042969,5.078125,8.699219,-0.75,-0.902344,0.939453,0.700134,0.201599,0.129272,0.672668,down
393846,-0.003906,5.113281,8.699219,-0.75,-0.902344,0.939453,0.700134,0.201599,0.129272,0.672668,down
393851,0.035156,5.191406,8.734375,-0.578125,-1.0625,0.943359,0.700134,0.201599,0.129272,0.672668,down
393856,0.074219,5.230469,8.738281,-0.570312,-1.121094,0.933594,0.700134,0.201599,0.129272,0.672668,down
393861,0.035156,5.230469,8.65625,-0.591797,-1.220703,0.939453,0.697266,0.204956,0.119141,0.676514,down
393866,0.035156,5.191406,8.65625,-0.591797,-1.220703,0.939453,0.696228,0.20636,0.115356,0.677734,down
393871,0.152344,5.191406,8.699219,-0.710937,-1.355469,0.966797,0.695312,0.207703,0.111572,0.678955,down
393876,0.1875,5.113281,8.585938,-0.710937,-1.355469,0.966797,0.693542,0.210205,0.103882,0.681152,down
393881,0.265625,5.039062,8.546875,-0.710937,-1.355469,0.966797,0.693542,0.210205,0.103882,0.681152,down
393886,0.34375,4.921875,8.472656,-0.888672,-1.509766,1.001953,0.693542,0.210205,0.103882,0.681152,down
393891,0.378906,4.886719,8.390625,-0.888672,-1.509766,1.001953,0.690918,0.21405,0.09021,0.68457,down
393896,0.570312,4.695312,8.355469,-0.888672,-1.509766,1.001953,0.690918,0.21405,0.09021,0.68457,down
393901,0.570312,4.695312,8.355469,-0.917969,-1.587891,1.03125,0.689941,0.215454,0.085266,0.68573,down
393906,0.648437,4.578125,8.390625,-0.917969,-1.587891,1.03125,0.689026,0.216797,0.080444,0.68689,down
393911,0.953125,4.042969,8.3125,-0.863281,-1.613281,1.076172,0.687988,0.218262,0.075623,0.687988,down
393916,1.070313,3.851563,8.234375,-0.826172,-1.607422,1.099609,0.685669,0.221375,0.06604,0.690308,down
393921,1.222656,3.773438,8.3125,-0.826172,-1.607422,1.099609,0.685669,0.221375,0.06604,0.690308,down
393926,1.375,3.699219,8.472656,-0.603516,-1.603516,1.146484,0.685669,0.221375,0.06604,0.690308,down
393931,1.605469,3.542969,8.773438,-0.603516,-1.603516,1.146484,0.681519,0.226868,0.052612,0.693726,down
393936,1.722656,3.429688,8.777344,-0.603516,-1.603516,1.146484,0.681519,0.226868,0.052612,0.693726,down
393941,1.757813,3.351563,8.660156,-0.427734,-1.632813,1.173828,0.678223,0.231506,0.044006,0.696045,down
393946,1.796875,3.3125,8.390625,-0.427734,-1.632813,1.173828,0.678223,0.231506,0.044006,0.696045,down
393951,1.875,3.238281,8.394531,-0.291016,-1.703125,1.25,0.676514,0.233887,0.039917,0.697144,down
393956,1.914063,3.238281,8.394531,-0.291016,-1.703125,1.25,0.674683,0.236511,0.035645,0.698303,down
393961,1.875,3.238281,8.3125,-0.236328,-1.746094,1.273438,0.674683,0.236511,0.035645,0.698303,down
393966,1.875,3.238281,8.3125,-0.236328,-1.746094,1.273438,0.668823,0.244873,0.023499,0.701538,down
393971,2.140625,2.929688,8.351563,-0.236328,-1.746094,1.273438,0.668823,0.244873,0.023499,0.701538,down
393976,2.21875,2.816406,8.355469,-0.115234,-1.84375,1.308594,0.668823,0.244873,0.023499,0.701538,down
393981,2.410156,2.855469,7.894531,-0.056641,-1.859375,1.306641,0.668823,0.244873,0.023499,0.701538,down
393986,2.410156,2.855469,7.78125,-0.056641,-1.859375,1.306641,0.659912,0.257996,0.007019,0.705627,down
393991,2.527344,2.816406,7.742187,-0.035156,-1.923828,1.277344,0.659912,0.257996,0.007019,0.705627,down
393996,2.640625,2.816406,7.816406,-0.035156,-1.923828,1.277344,0.657898,0.261047,0.003357,0.706421,down
394001,2.871094,2.703125,7.929687,0.0,-1.921875,1.263672,0.657898,0.261047,0.003357,0.706421,down
394006,2.945313,2.703125,7.855469,0.0,-1.921875,1.263672,0.653381,0.267944,-0.0047,0.708008,down
394011,3.101563,2.664063,7.707031,0.082031,-1.927734,1.25,0.653381,0.267944,-0.0047,0.708008,down
394016,3.101563,2.664063,7.707031,0.09375,-1.916016,1.248047,0.648682,0.275024,-0.012451,0.709534,down
394021,3.292969,2.546875,7.507812,0.140625,-1.900391,1.263672,0.646362,0.278503,-0.016113,0.710205,down
394026,3.292969,2.546875,7.507812,0.181641,-1.876953,1.271484,0.643921,0.282043,-0.019714,0.710937,down
394031,3.523438,2.546875,7.285156,0.181641,-1.876953,1.271484,0.641357,0.285706,-0.023376,0.71167,down
394036,3.523438,2.546875,7.285156,0.291016,-1.808594,1.308594,0.638733,0.289246,-0.026672,0.712463,down
394042,3.789063,2.511719,7.402344,0.291016,-1.808594,1.308594,0.636047,0.292847,-0.029907,0.713257,down
394048,3.941406,2.546875,7.164062,0.291016,-1.808594,1.308594,0.63031,0.300171,-0.036072,0.715088,down
394053,3.90625,2.625,7.085937,0.474609,-1.662109,1.414063,0.627319,0.303711,-0.038879,0.716064,down
394058,4.171875,2.394531,7.402344,0.474609,-1.662109,1.414063,0.624146,0.307434,-0.041748,0.717102,down
394063,4.324219,2.316406,7.359375,0.558594,-1.669922,1.480469,0.624146,0.307434,-0.041748,0.717102,down
394068,4.363281,2.316406,7.320312,0.617187,-1.640625,1.505859,0.624146,0.307434,-0.041748,0.717102,down
394073,4.363281,2.316406,7.320312,0.666016,-1.611328,1.523438,0.624146,0.307434,-0.041748,0.717102,down
394079,4.632812,2.164063,7.085937,0.666016,-1.611328,1.523438,0.610718,0.322205,-0.052185,0.721436,down
394085,4.671875,2.125,6.976562,0.701172,-1.560547,1.560547,0.610718,0.322205,-0.052185,0.721436,down
394091,4.710937,2.050781,6.742187,0.720703,-1.529297,1.568359,0.610718,0.322205,-0.052185,0.721436,down
394097,4.746094,2.050781,6.664062,0.712891,-1.449219,1.564453,0.610718,0.322205,-0.052185,0.721436,down
394102,4.746094,2.089844,6.667969,0.712891,-1.449219,1.564453,0.592041,0.340576,-0.063843,0.7276,down
394107,4.902344,2.089844,6.667969,0.712891,-1.449219,1.564453,0.592041,0.340576,-0.063843,0.7276,down
394112,4.976562,2.089844,6.707031,0.712891,-1.449219,1.564453,0.585083,0.347046,-0.068054,0.729797,down
394117,5.054687,2.089844,6.703125,0.679687,-1.474609,1.550781,0.585083,0.347046,-0.068054,0.729797,down
394122,5.054687,2.011719,6.703125,0.679687,-1.474609,1.550781,0.577393,0.354187,-0.072815,0.732056,down
394127,5.207031,2.011719,6.707031,0.679687,-1.474609,1.550781,0.577393,0.354187,-0.072815,0.732056,down
394132,5.320312,1.972656,6.746094,0.679687,-1.474609,1.550781,0.573608,0.357727,-0.075195,0.733093,down
394137,5.320312,1.972656,6.746094,0.675781,-1.544922,1.552734,0.566406,0.36438,-0.079651,0.734863,down
394142,5.359375,1.933594,6.746094,0.675781,-1.544922,1.552734,0.566406,0.36438,-0.079651,0.734863,down
394147,5.511719,1.898438,6.515625,0.677734,-1.574219,1.542969,0.562683,0.367859,-0.08197,0.735718,down
394152,5.511719,1.898438,6.515625,0.677734,-1.574219,1.542969,0.562683,0.367859,-0.08197,0.735718,down
394157,5.742187,1.859375,6.363281,0.623047,-1.605469,1.494141,0.555176,0.375,-0.086914,0.737305,down
394162,5.898437,1.933594,6.132812,0.623047,-1.605469,1.494141,0.547729,0.38208,-0.092041,0.738586,down
394167,6.011719,2.011719,6.058594,0.623047,-1.605469,1.494141,0.544556,0.385254,-0.09436,0.739014,down
394172,6.125,2.089844,6.054687,0.623047,-1.605469,1.494141,0.544556,0.385254,-0.09436,0.739014,down
394177,6.246094,2.125,6.054687,0.580078,-1.677734,1.289063,0.53772,0.392212,-0.099304,0.739685,down
394182,6.316406,2.164063,6.054687,0.580078,-1.677734,1.289063,0.534241,0.395935,-0.101868,0.739868,down
394187,6.472656,2.011719,6.210937,0.572266,-1.720703,1.261719,0.530579,0.399841,-0.104553,0.740051,down
394192,6.589844,1.78125,6.171875,0.550781,-1.705078,1.251953,0.527527,0.403137,-0.106812,0.740112,down
394197,6.738281,1.4375,6.171875,0.550781,-1.705078,1.251953,0.527527,0.403137,-0.106812,0.740112,down
394202,6.777344,1.285156,6.171875,0.550781,-1.705078,1.251953,0.521057,0.410034,-0.111694,0.740173,down
394207,6.855469,1.207031,6.09375,0.550781,-1.705078,1.251953,0.521057,0.410034,-0.111694,0.740173,down
394212,6.894531,1.128906,5.980469,0.451172,-1.552734,1.117188,0.521057,0.410034,-0.111694,0.740173,down
394217,7.011719,1.054688,5.480469,0.443359,-1.453125,1.054688,0.514832,0.416626,-0.116638,0.740112,down
394223,7.117187,0.976562,5.328125,0.443359,-1.453125,1.054688,0.509094,0.422607,-0.120972,0.73999,down
394228,7.238281,1.015625,5.328125,0.494141,-1.351563,0.884766,0.509094,0.422607,-0.120972,0.73999,down
394233,7.238281,1.015625,5.328125,0.580078,-1.345703,0.810547,0.503845,0.428406,-0.124451,0.739624,down
394238,7.394531,1.054688,5.558594,0.580078,-1.345703,0.810547,0.503845,0.428406,-0.124451,0.739624,down
394243,7.394531,1.054688,5.558594,0.722656,-1.355469,0.726562,0.49884,0.434753,-0.12677,0.739014,down
394248,7.433594,1.054688,5.710937,0.722656,-1.355469,0.726562,0.49884,0.434753,-0.12677,0.739014,down
394253,7.433594,1.054688,5.710937,0.955078,-1.355469,0.572266,0.493713,0.441711,-0.127869,0.738098,down
394259,7.578125,1.285156,5.40625,0.955078,-1.355469,0.572266,0.491272,0.44519,-0.127991,0.73761,down
394264,7.621094,1.359375,5.328125,1.109375,-1.197266,0.435547,0.491272,0.44519,-0.127991,0.73761,down
394269,7.542969,1.476563,5.214844,1.083984,-1.175781,0.419922,0.491272,0.44519,-0.127991,0.73761,down
394274,7.5,1.398438,5.214844,1.083984,-1.175781,0.419922,0.491272,0.44519,-0.127991,0.73761,down
394280,7.542969,1.398438,5.175781,1.052734,-1.177734,0.380859,0.491272,0.44519,-0.127991,0.73761,down
394286,7.542969,1.476563,5.136719,1.054688,-1.171875,0.361328,0.491272,0.44519,-0.127991,0.73761,down
394292,7.5,1.707031,5.175781,1.117188,-1.154297,0.349609,0.491272,0.44519,-0.127991,0.73761,down
394297,7.503906,1.78125,5.175781,1.117188,-1.154297,0.349609,0.472595,0.471985,-0.126892,0.733337,down
394302,7.542969,1.859375,5.175781,1.117188,-1.154297,0.349609,0.472595,0.471985,-0.126892,0.733337,down
394307,7.660156,1.933594,4.984375,1.1875,-1.158203,0.328125,0.472595,0.471985,-0.126892,0.733337,down
394312,7.699219,1.933594,4.832031,1.1875,-1.158203,0.328125,0.465454,0.4823,-0.125488,0.731445,down
394317,7.816406,2.089844,4.675781,1.205078,-1.125,0.25,0.465454,0.4823,-0.125488,0.731445,down
394322,7.921875,2.203125,4.640625,1.205078,-1.125,0.25,0.462891,0.486023,-0.124817,0.730713,down
394327,8.199219,2.316406,4.445312,1.171875,-1.109375,0.199219,0.462891,0.486023,-0.124817,0.730713,down
394332,8.234375,2.316406,4.410156,1.080078,-1.039063,0.083984,0.458862,0.49231,-0.123657,0.729248,down
394337,8.273438,2.316406,4.371094,1.080078,-1.039063,0.083984,0.4552,0.498535,-0.122314,0.727478,down
394342,8.238281,2.203125,4.21875,1.080078,-1.039063,0.083984,0.4552,0.498535,-0.122314,0.727478,down
394347,8.121094,2.242188,4.21875,1.080078,-1.039063,0.083984,0.452209,0.504333,-0.120911,0.725647,down
394352,8.039063,2.089844,4.253906,1.080078,-1.039063,0.083984,0.452209,0.504333,-0.120911,0.725647,down
394357,8.039063,2.089844,4.253906,0.847656,-0.939453,-0.056641,0.450806,0.507202,-0.120239,0.724609,down
394362,8.078125,1.707031,4.253906,0.773437,-0.931641,-0.052734,0.449707,0.509644,-0.119812,0.723633,down
394367,8.078125,1.707031,4.253906,0.738281,-0.935547,-0.060547,0.448547,0.512268,-0.119446,0.722595,down
394372,8.121094,1.742188,4.253906,0.738281,-0.935547,-0.060547,0.44751,0.514709,-0.11908,0.721558,down
394377,8.121094,1.742188,4.253906,0.775391,-0.898437,-0.078125,0.44635,0.517334,-0.118591,0.72052,down
394383,8.121094,1.742188,4.253906,0.90625,-0.869141,-0.115234,0.444031,0.522339,-0.11731,0.718506,down
394388,8.277344,1.972656,3.949219,1.033203,-0.849609,-0.15625,0.442566,0.525391,-0.116211,0.717346,down
394394,8.386719,2.050781,3.527344,1.033203,-0.849609,-0.15625,0.441406,0.527771,-0.115112,0.716492,down
394399,8.542969,2.28125,3.257813,1.236328,-0.771484,-0.263672,0.441406,0.527771,-0.115112,0.716492,down
394404,8.308594,2.011719,3.488281,1.332031,-0.763672,-0.3125,0.441406,0.527771,-0.115112,0.716492,down
394409,8.003906,2.394531,3.453125,1.388672,-0.75,-0.353516,0.441406,0.527771,-0.115112,0.716492,down
394414,8.042969,2.96875,3.144531,1.451172,-0.748047,-0.384766,0.441406,0.527771,-0.115112,0.716492,down
394420,8.160156,2.855469,3.796875,1.451172,-0.748047,-0.384766,0.434265,0.542603,-0.105286,0.711243,down
394425,8.078125,2.855469,4.253906,1.392578,-1.066406,-0.392578,0.434265,0.542603,-0.105286,0.711243,down
394430,8.003906,2.929688,4.179687,1.345703,-0.996094,-0.373047,0.434265,0.542603,-0.105286,0.711243,down
394435,7.777344,2.929688,3.71875,1.298828,-0.90625,-0.341797,0.434265,0.542603,-0.105286,0.711243,down
394441,7.773437,2.929688,3.679688,1.226563,-0.919922,-0.316406,0.434265,0.542603,-0.105286,0.711243,down
394447,7.855469,3.085938,3.71875,1.111328,-1.037109,-0.306641,0.434265,0.542603,-0.105286,0.711243,down
394452,8.117188,3.390625,3.527344,1.111328,-1.037109,-0.306641,0.425903,0.561829,-0.095093,0.702759,down
394457,8.117188,3.390625,3.527344,1.111328,-1.037109,-0.306641,0.423706,0.567932,-0.09259,0.699524,down
394462,8.308594,3.734375,3.335938,1.111328,-1.037109,-0.306641,0.423706,0.567932,-0.09259,0.699524,down
394467,8.347656,3.851563,3.144531,1.046875,-0.984375,-0.626953,0.423706,0.567932,-0.09259,0.699524,down
394472,8.421875,4.15625,2.839844,1.046875,-0.984375,-0.626953,0.42218,0.573853,-0.089661,0.695984,down
394477,8.421875,4.15625,2.839844,1.046875,-0.984375,-0.626953,0.421143,0.579956,-0.085876,0.692078,down
394482,8.425781,4.464844,2.761719,1.046875,-0.984375,-0.626953,0.421143,0.579956,-0.085876,0.692078,down
394487,8.464844,4.617187,2.761719,1.126953,-0.986328,-0.869141,0.421143,0.579956,-0.085876,0.692078,down
394493,8.34375,4.808594,2.800781,1.025391,-0.927734,-0.855469,0.420288,0.586182,-0.081543,0.687805,down
394498,8.308594,4.921875,2.761719,1.025391,-0.927734,-0.855469,0.419983,0.589417,-0.079224,0.685486,down
394503,8.308594,4.921875,2.761719,0.902344,-0.857422,-0.802734,0.419739,0.59436,-0.075806,0.681824,down
394508,8.0,5.113281,2.953125,0.902344,-0.857422,-0.802734,0.419739,0.59436,-0.075806,0.681824,down
394513,8.0,5.113281,2.953125,0.902344,-0.857422,-0.802734,0.419739,0.59436,-0.075806,0.681824,down
394518,7.921875,5.078125,2.953125,0.365234,-0.726562,-0.544922,0.420044,0.600342,-0.072571,0.676636,down
394523,8.15625,5.078125,2.875,0.365234,-0.726562,-0.544922,0.42041,0.602234,-0.071899,0.674805,down
394528,8.308594,5.078125,2.800781,0.365234,-0.726562,-0.544922,0.420715,0.603638,-0.071472,0.673462,down
394533,8.386719,4.960937,2.761719,0.25,-0.679687,-0.513672,0.420715,0.603638,-0.071472,0.673462,down
394538,8.460938,4.886719,2.722656,0.25,-0.679687,-0.513672,0.421082,0.605347,-0.070984,0.671753,down
394543,8.425781,4.65625,2.683594,0.255859,-0.662109,-0.537109,0.421082,0.605347,-0.070984,0.671753,down
394549,8.386719,4.5,2.570313,0.255859,-0.662109,-0.537109,0.422241,0.609741,-0.069214,0.667175,down
394554,8.386719,4.5,2.570313,0.419922,-0.693359,-0.658203,0.422607,0.611389,-0.068298,0.665527,down
394559,8.34375,4.578125,2.492188,0.419922,-0.693359,-0.658203,0.422974,0.613159,-0.067261,0.663818,down
394564,8.199219,4.769531,2.609375,0.419922,-0.693359,-0.658203,0.422974,0.613159,-0.067261,0.663818,down
394569,8.117188,4.808594,2.683594,0.587891,-0.791016,-0.763672,0.422974,0.613159,-0.067261,0.663818,down
394574,8.121094,4.847656,2.683594,0.607422,-0.833984,-0.791016,0.422974,0.613159,-0.067261,0.663818,down
394580,8.199219,5.0,2.53125,0.628906,-0.857422,-0.808594,0.422974,0.613159,-0.067261,0.663818,down
394585,8.347656,5.078125,2.378906,0.640625,-0.886719,-0.832031,0.422974,0.613159,-0.067261,0.663818,down
394590,8.539063,5.230469,2.226563,0.615234,-0.904297,-0.857422,0.422974,0.613159,-0.067261,0.663818,down
394595,8.617188,5.269531,2.109375,0.544922,-0.888672,-0.859375,0.422974,0.613159,-0.067261,0.663818,down
394600,8.691406,5.34375,1.84375,0.544922,-0.888672,-0.859375,0.422974,0.613159,-0.067261,0.663818,down
394605,8.6875,5.382812,1.804688,0.285156,-0.734375,-0.871094,0.422974,0.613159,-0.067261,0.663818,down
394610,8.621094,5.382812,1.6875,0.138672,-0.626953,-0.839844,0.422974,0.613159,-0.067261,0.663818,down
394615,8.542969,5.382812,1.6875,0.064453,-0.515625,-0.808594,0.422974,0.613159,-0.067261,0.663818,down
394621,8.15625,5.574219,1.878906,0.064453,-0.515625,-0.808594,0.422974,0.613159,-0.067261,0.663818,down
394627,7.964844,5.765625,2.070313,0.064453,-0.515625,-0.808594,0.430603,0.636169,-0.052368,0.638123,down
394633,7.882812,5.765625,2.265625,-0.257813,-0.326172,-0.443359,0.430603,0.636169,-0.052368,0.638123,down
394639,7.882812,5.765625,2.265625,-0.328125,-0.384766,-0.367188,0.433655,0.637329,-0.052063,0.634888,down
394644,7.773437,5.84375,2.378906,-0.386719,-0.425781,-0.316406,0.434875,0.637634,-0.052612,0.633667,down
394649,7.851562,5.84375,2.300781,-0.386719,-0.425781,-0.316406,0.435852,0.637878,-0.053162,0.63269,down
394654,8.003906,5.765625,2.148438,-0.408203,-0.449219,-0.3125,0.435852,0.637878,-0.053162,0.63269,down
394659,8.277344,5.652344,1.917969,-0.408203,-0.449219,-0.3125,0.435852,0.637878,-0.053162,0.63269,down
394664,8.277344,5.652344,1.917969,-0.337891,-0.486328,-0.376953,0.435852,0.637878,-0.053162,0.63269,down
394669,8.421875,5.496094,1.917969,-0.337891,-0.486328,-0.376953,0.435852,0.637878,-0.053162,0.63269,down
394674,8.539063,5.421875,1.878906,-0.337891,-0.486328,-0.376953,0.441406,0.639771,-0.055847,0.626648,down
394680,8.804688,5.34375,1.84375,-0.337891,-0.486328,-0.376953,0.442688,0.640076,-0.056335,0.625427,down
394685,8.84375,5.304687,1.84375,-0.548828,-0.357422,-0.416016,0.442688,0.640076,-0.056335,0.625427,down
394690,8.921875,5.304687,1.765625,-0.548828,-0.357422,-0.416016,0.442688,0.640076,-0.056335,0.625427,down
394695,8.960938,5.230469,1.84375,-0.748047,-0.15625,-0.40625,0.442688,0.640076,-0.056335,0.625427,down
394701,8.925781,5.191406,1.878906,-0.847656,-0.044922,-0.408203,0.442688,0.640076,-0.056335,0.625427,down
394706,8.730469,5.0,2.070313,-0.929687,0.058594,-0.416016,0.442688,0.640076,-0.056335,0.625427,down
394712,8.660156,4.847656,2.265625,-0.96875,0.169922,-0.423828,0.442688,0.640076,-0.056335,0.625427,down
394717,8.660156,4.847656,2.265625,-0.966797,0.25,-0.425781,0.455811,0.635498,-0.060913,0.620178,down
394722,8.460938,4.730469,2.417969,-0.919922,0.302734,-0.417969,0.458069,0.634033,-0.061462,0.619995,down
394727,8.460938,4.730469,2.417969,-0.84375,0.328125,-0.392578,0.460144,0.632629,-0.061829,0.619873,down
394732,8.078125,4.578125,2.683594,-0.84375,0.328125,-0.392578,0.460144,0.632629,-0.061829,0.619873,down
394737,8.078125,4.578125,2.683594,-0.669922,0.314453,-0.363281,0.463867,0.629944,-0.062256,0.619812,down
394743,8.121094,4.65625,2.761719,-0.669922,0.314453,-0.363281,0.463867,0.629944,-0.062256,0.619812,down
394748,8.117188,4.695312,2.761719,-0.408203,0.298828,-0.421875,0.46698,0.627686,-0.062195,0.619751,down
394753,8.082031,4.769531,2.722656,-0.408203,0.298828,-0.421875,0.469727,0.625916,-0.061401,0.619568,down
394758,7.925781,4.769531,2.722656,-0.408203,0.298828,-0.421875,0.469727,0.625916,-0.061401,0.619568,down
394763,7.882812,4.808594,2.722656,-0.408203,0.298828,-0.421875,0.472351,0.624451,-0.059814,0.619141,down
394768,7.851562,4.847656,2.722656,-0.408203,0.298828,-0.421875,0.472351,0.624451,-0.059814,0.619141,down
394773,7.851562,4.886719,2.722656,-0.189453,0.316406,-0.648437,0.472351,0.624451,-0.059814,0.619141,down
394778,7.773437,5.0,2.722656,-0.220703,0.304688,-0.685547,0.472351,0.624451,-0.059814,0.619141,down
394783,7.65625,5.0,2.761719,-0.369141,0.324219,-0.722656,0.476685,0.622498,-0.05658,0.618103,down
394788,7.539062,5.039062,2.761719,-0.369141,0.324219,-0.722656,0.478455,0.621643,-0.055542,0.617676,down
394793,7.433594,5.039062,2.800781,-0.369141,0.324219,-0.722656,0.480286,0.620789,-0.054626,0.617249,down
394798,7.15625,4.960937,2.839844,-0.484375,0.316406,-0.724609,0.480286,0.620789,-0.054626,0.617249,down
394803,7.050781,5.039062,2.914063,-0.539062,0.285156,-0.722656,0.483887,0.618896,-0.053223,0.616394,down
394808,7.007812,5.039062,2.914063,-0.539062,0.285156,-0.722656,0.486084,0.617798,-0.052551,0.615845,down
394813,7.117187,4.921875,2.953125,-0.509766,0.195312,-0.691406,0.488037,0.616882,-0.051941,0.615295,down
394819,7.238281,5.0,2.875,-0.509766,0.195312,-0.691406,0.491699,0.615234,-0.050964,0.614075,down
394824,7.160156,5.152344,2.875,-0.433594,0.121094,-0.662109,0.493652,0.614502,-0.050415,0.613342,down
394829,7.195312,5.152344,2.875,-0.404297,0.101563,-0.662109,0.4953,0.613892,-0.049927,0.612671,down
394834,7.5,5.269531,2.722656,-0.369141,0.082031,-0.669922,0.4953,0.613892,-0.049927,0.612671,down
394840,7.773437,5.421875,2.53125,-0.369141,0.082031,-0.669922,0.498413,0.612915,-0.048828,0.611206,down
394846,7.8125,5.460937,2.492188,-0.34375,0.027344,-0.708984,0.498413,0.612915,-0.048828,0.611206,down
394852,7.925781,5.496094,2.457031,-0.349609,0.009766,-0.748047,0.498413,0.612915,-0.048828,0.611206,down
394857,8.0,5.652344,2.300781,-0.349609,0.009766,-0.748047,0.498413,0.612915,-0.048828,0.611206,down
394863,8.039063,5.726562,2.265625,-0.363281,0.001953,-0.822266,0.498413,0.612915,-0.048828,0.611206,down
394868,8.042969,5.917969,2.1875,-0.363281,0.001953,-0.822266,0.506958,0.611023,-0.045654,0.606262,down
394873,7.925781,6.109375,2.148438,-0.363281,0.001953,-0.822266,0.508911,0.610596,-0.044922,0.605164,down
394878,7.773437,6.226562,2.1875,-0.435547,0.136719,-0.824219,0.51062,0.610107,-0.044189,0.604187,down
394883,7.621094,6.339844,2.265625,-0.435547,0.136719,-0.824219,0.512756,0.609375,-0.043335,0.603149,down
394889,7.578125,6.265625,2.492188,-0.435547,0.136719,-0.824219,0.516479,0.608032,-0.041992,0.601501,down
394894,7.539062,6.300781,2.53125,-0.498047,0.181641,-0.736328,0.516479,0.608032,-0.041992,0.601501,down
394899,7.46875,6.417969,2.609375,-0.498047,0.181641,-0.736328,0.520264,0.606323,-0.040771,0.600037,down
394904,7.234375,6.609375,2.683594,-0.498047,0.181641,-0.736328,0.522217,0.605408,-0.040283,0.599243,down
394909,7.351562,6.609375,2.761719,-0.498047,0.181641,-0.736328,0.523865,0.604675,-0.039978,0.598572,down
394914,7.503906,6.609375,2.761719,-0.568359,0.089844,-0.591797,0.525757,0.603821,-0.039734,0.597839,down
394920,7.617187,6.683594,2.800781,-0.568359,0.089844,-0.591797,0.527344,0.603088,-0.039612,0.597168,down
394925,7.695312,6.722656,2.800781,-0.568359,0.089844,-0.591797,0.529236,0.602234,-0.039551,0.596375,down
394931,7.8125,6.839844,2.800781,-0.568359,0.089844,-0.591797,0.529236,0.602234,-0.039551,0.596375,down
394936,7.855469,6.914062,2.800781,-0.5625,0.007813,-0.587891,0.532532,0.60083,-0.03949,0.594849,down
394941,8.0,6.992187,2.839844,-0.582031,-0.011719,-0.601562,0.532532,0.60083,-0.03949,0.594849,down
394946,8.042969,6.992187,2.953125,-0.605469,-0.025391,-0.605469,0.532532,0.60083,-0.03949,0.594849,down
394952,8.042969,7.03125,2.914063,-0.634766,-0.019531,-0.619141,0.532532,0.60083,-0.03949,0.594849,down
394957,8.042969,7.03125,2.914063,-0.671875,-0.011719,-0.615234,0.539856,0.5979,-0.039551,0.591187,down
394962,7.925781,7.03125,2.992188,-0.705078,0.001953,-0.623047,0.541809,0.597046,-0.039673,0.590271,down
394967,7.925781,7.03125,2.992188,-0.75,0.017578,-0.615234,0.543884,0.596069,-0.039795,0.589355,down
394973,7.777344,6.953125,3.105469,-0.75,0.017578,-0.615234,0.545898,0.595032,-0.039978,0.588501,down
394978,7.777344,6.953125,3.105469,-0.810547,0.076172,-0.585937,0.547974,0.593933,-0.040222,0.587708,down
394983,7.316406,6.648437,3.453125,-0.810547,0.076172,-0.585937,0.552063,0.591492,-0.040649,0.586243,down
394988,7.316406,6.648437,3.488281,-0.810547,0.076172,-0.585937,0.552063,0.591492,-0.040649,0.586243,down
394993,7.390625,6.570312,3.566406,-0.714844,0.103516,-0.480469,0.552063,0.591492,-0.040649,0.586243,down
394999,7.503906,6.570312,3.644531,-0.714844,0.103516,-0.480469,0.557617,0.588074,-0.041321,0.584351,down
395004,7.503906,6.570312,3.644531,-0.611328,0.125,-0.449219,0.557617,0.588074,-0.041321,0.584351,down
395009,7.542969,6.570312,3.644531,-0.611328,0.125,-0.449219,0.560974,0.585999,-0.041443,0.583252,down
395014,7.65625,6.570312,3.679688,-0.611328,0.125,-0.449219,0.562317,0.585205,-0.041382,0.582825,down
395019,7.65625,6.53125,3.71875,-0.611328,0.125,-0.449219,0.56366,0.584412,-0.041199,0.582275,down
395024,7.617187,6.492187,3.757813,-0.429687,0.115234,-0.476562,0.56366,0.584412,-0.041199,0.582275,down
395029,7.617187,6.492187,3.835938,-0.429687,0.115234,-0.476562,0.566528,0.582825,-0.040771,0.581116,down
395034,7.542969,6.457031,3.871094,-0.429687,0.115234,-0.476562,0.56781,0.582153,-0.040588,0.580566,down
395039,7.503906,6.378906,3.910156,-0.511719,0.083984,-0.513672,0.56781,0.582153,-0.040588,0.580566,down
395044,7.429687,6.378906,3.949219,-0.511719,0.083984,-0.513672,0.570984,0.580444,-0.040344,0.579102,down
395049,7.394531,6.378906,3.988281,-0.511719,0.083984,-0.513672,0.572449,0.579712,-0.040344,0.578491,down
395054,7.277344,6.339844,4.101562,-0.511719,0.083984,-0.513672,0.574402,0.578613,-0.040466,0.577576,down
395059,7.199219,6.300781,4.0625,-0.511719,0.083984,-0.513672,0.574402,0.578613,-0.040466,0.577576,down
395064,7.15625,6.265625,4.0625,-0.720703,0.044922,-0.621094,0.574402,0.578613,-0.040466,0.577576,down
395069,6.929687,6.226562,4.179687,-0.720703,0.044922,-0.621094,0.580078,0.575623,-0.04071,0.574951,down
395074,6.890625,6.109375,4.21875,-0.720703,0.044922,-0.621094,0.581909,0.574768,-0.040771,0.573975,down
395079,6.890625,6.109375,4.253906,-0.720703,0.044922,-0.621094,0.581909,0.574768,-0.040771,0.573975,down
395084,6.816406,6.074219,4.292969,-0.601562,-0.052734,-0.638672,0.58551,0.573242,-0.040833,0.571777,down
395090,6.851562,6.109375,4.179687,-0.601562,-0.052734,-0.638672,0.587097,0.572693,-0.040771,0.570679,down
395095,6.851562,6.109375,4.179687,-0.462891,-0.123047,-0.605469,0.588684,0.572205,-0.040771,0.569519,down
395100,6.8125,6.226562,3.988281,-0.462891,-0.123047,-0.605469,0.59021,0.571716,-0.04071,0.56842,down
395105,6.816406,6.226562,3.949219,-0.462891,-0.123047,-0.605469,0.591675,0.571289,-0.040588,0.567322,down
395110,6.816406,6.148437,3.910156,-0.462891,-0.123047,-0.605469,0.591675,0.571289,-0.040588,0.567322,down
395115,6.734375,6.109375,3.835938,-0.339844,-0.078125,-0.615234,0.591675,0.571289,-0.040588,0.567322,down
395120,6.699219,6.109375,3.835938,-0.302734,-0.054687,-0.632812,0.591675,0.571289,-0.040588,0.567322,down
395125,6.664062,6.074219,3.796875,-0.302734,-0.054687,-0.632812,0.597168,0.570007,-0.039429,0.562988,down
395130,6.589844,6.109375,3.71875,-0.302734,-0.054687,-0.632812,0.59845,0.569702,-0.03894,0.56189,down
395135,6.589844,6.109375,3.71875,-0.236328,-0.029297,-0.695312,0.599792,0.569458,-0.03833,0.560791,down
395140,6.546875,6.226562,3.566406,-0.236328,-0.029297,-0.695312,0.601257,0.569214,-0.037659,0.55957,down
395146,6.472656,6.1875,3.566406,-0.236328,-0.029297,-0.695312,0.602478,0.568909,-0.037048,0.558533,down
395151,6.472656,6.265625,3.527344,-0.240234,0.009766,-0.738281,0.602478,0.568909,-0.037048,0.558533,down
395157,6.429687,6.265625,3.527344,-0.238281,0.037109,-0.753906,0.605286,0.568298,-0.035583,0.556213,down
395163,6.472656,6.300781,3.414063,-0.238281,0.037109,-0.753906,0.605286,0.568298,-0.035583,0.556213,down
395169,6.472656,6.300781,3.527344,-0.271484,0.039063,-0.771484,0.605286,0.568298,-0.035583,0.556213,down
395174,6.472656,6.339844,3.566406,-0.330078,0.011719,-0.75,0.605286,0.568298,-0.035583,0.556213,down
395179,6.429687,6.339844,3.566406,-0.330078,0.011719,-0.75,0.611145,0.56665,-0.032593,0.551636,down
395184,6.394531,6.414062,3.605469,-0.345703,-0.005859,-0.734375,0.612671,0.566223,-0.032043,0.550476,down
395189,6.394531,6.414062,3.605469,-0.355469,-0.021484,-0.722656,0.614197,0.565735,-0.031494,0.549316,down
395194,6.546875,6.570312,3.566406,-0.355469,-0.021484,-0.722656,0.615662,0.565308,-0.031006,0.548157,down
395199,6.546875,6.570312,3.566406,-0.345703,-0.050781,-0.701172,0.617126,0.56488,-0.030579,0.546936,down
395204,6.507812,6.757812,3.566406,-0.345703,-0.050781,-0.701172,0.617126,0.56488,-0.030579,0.546936,down
395209,6.507812,6.796875,3.644531,-0.345703,-0.050781,-0.701172,0.621338,0.563843,-0.029114,0.543274,down
395214,6.433594,6.914062,3.566406,-0.345703,-0.050781,-0.701172,0.621338,0.563843,-0.029114,0.543274,down
395219,6.394531,6.957031,3.527344,-0.345703,-0.050781,-0.701172,0.622498,0.56366,-0.028625,0.542175,down
395224,6.28125,6.996094,3.527344,-0.1875,-0.042969,-0.710937,0.622498,0.56366,-0.028625,0.542175,down
395230,6.203125,7.101562,3.566406,-0.1875,-0.042969,-0.710937,0.626343,0.563049,-0.02655,0.538513,down
395236,6.242187,7.21875,3.605469,-0.1875,-0.042969,-0.710937,0.627502,0.562805,-0.025879,0.537415,down
395241,6.316406,7.296875,3.566406,-0.212891,0.013672,-0.742187,0.627502,0.562805,-0.025879,0.537415,down
395248,6.316406,7.457031,3.605469,-0.246094,0.046875,-0.734375,0.627502,0.562805,-0.025879,0.537415,down
395254,6.355469,7.523437,3.679688,-0.289063,0.078125,-0.740234,0.627502,0.562805,-0.025879,0.537415,down
395259,6.316406,7.5625,3.71875,-0.361328,0.121094,-0.714844,0.627502,0.562805,-0.025879,0.537415,down
395264,6.242187,7.5625,3.796875,-0.361328,0.121094,-0.714844,0.63446,0.560425,-0.022034,0.53186,down
395269,6.050781,7.566406,3.988281,-0.394531,0.132812,-0.701172,0.63446,0.560425,-0.022034,0.53186,down
395274,6.011719,7.527344,4.0625,-0.445312,0.107422,-0.644531,0.63739,0.55896,-0.020752,0.529968,down
395279,5.933594,7.488281,4.140625,-0.445312,0.107422,-0.644531,0.639038,0.558044,-0.020142,0.528931,down
395285,5.820312,7.417969,4.179687,-0.490234,0.064453,-0.603516,0.640381,0.557312,-0.019714,0.528137,down
395291,5.859375,7.378906,4.292969,-0.490234,0.064453,-0.603516,0.643372,0.555603,-0.019165,0.526306,down
395296,5.859375,7.378906,4.292969,-0.464844,-0.023437,-0.597656,0.644897,0.554871,-0.018982,0.525269,down
395303,5.898437,7.339844,4.332031,-0.464844,-0.023437,-0.597656,0.644897,0.554871,-0.018982,0.525269,down
395308,5.933594,7.261719,4.292969,-0.40625,-0.087891,-0.607422,0.644897,0.554871,-0.018982,0.525269,down
395314,5.859375,7.179687,4.332031,-0.386719,-0.097656,-0.619141,0.644897,0.554871,-0.018982,0.525269,down
395319,5.898437,7.222656,4.21875,-0.322266,-0.083984,-0.638672,0.644897,0.554871,-0.018982,0.525269,down
395325,5.933594,7.222656,4.253906,-0.322266,-0.083984,-0.638672,0.652954,0.55188,-0.017517,0.518372,down
395330,5.972656,7.21875,4.21875,-0.3125,-0.041016,-0.673828,0.654358,0.551453,-0.01709,0.51709,down
395336,6.011719,7.183594,4.21875,-0.3125,-0.041016,-0.673828,0.655579,0.551025,-0.016663,0.516052,down
395341,6.011719,7.183594,4.21875,-0.3125,-0.041016,-0.673828,0.657043,0.550476,-0.016174,0.514832,down
395348,5.933594,7.179687,4.332031,-0.3125,-0.041016,-0.673828,0.657043,0.550476,-0.016174,0.514832,down
395354,5.933594,7.105469,4.410156,-0.423828,0.019531,-0.675781,0.657043,0.550476,-0.016174,0.514832,down
395359,5.78125,7.070312,4.371094,-0.431641,0.011719,-0.677734,0.657043,0.550476,-0.016174,0.514832,down
395364,5.703125,7.070312,4.445312,-0.431641,0.011719,-0.677734,0.662781,0.547791,-0.014587,0.510315,down
395369,5.667969,7.105469,4.523437,-0.378906,-0.039063,-0.666016,0.662781,0.547791,-0.014587,0.510315,down
395374,5.628906,7.074219,4.5625,-0.378906,-0.039063,-0.666016,0.66571,0.546448,-0.013733,0.507935,down
395379,5.550781,7.105469,4.5625,-0.378906,-0.039063,-0.666016,0.667053,0.545959,-0.013428,0.506714,down
395384,5.511719,7.183594,4.445312,-0.25,-0.085937,-0.658203,0.668274,0.545532,-0.013123,0.505554,down
395389,5.4375,7.21875,4.445312,-0.25,-0.085937,-0.658203,0.669556,0.545166,-0.012634,0.504272,down
395394,5.476562,7.300781,4.445312,-0.171875,-0.113281,-0.666016,0.670715,0.544983,-0.012207,0.502991,down
395400,5.476562,7.453125,4.332031,-0.171875,-0.113281,-0.666016,0.672791,0.544678,-0.01123,0.500549,down
395405,5.476562,7.488281,4.253906,-0.15625,-0.111328,-0.683594,0.673889,0.544617,-0.010681,0.499146,down
395410,5.550781,7.523437,4.21875,-0.15625,-0.111328,-0.683594,0.675049,0.544495,-0.010132,0.497803,down
395415,5.589844,7.566406,4.179687,-0.15625,-0.111328,-0.683594,0.676025,0.544312,-0.009644,0.496582,down
395420,5.628906,7.605469,4.140625,-0.214844,-0.072266,-0.703125,0.677307,0.544067,-0.008972,0.495117,down
395425,5.628906,7.605469,4.140625,-0.246094,-0.058594,-0.708984,0.678528,0.543762,-0.008423,0.493774,down
395430,5.667969,7.640625,4.140625,-0.246094,-0.058594,-0.708984,0.679626,0.543396,-0.007996,0.492676,down
395435,5.550781,7.601562,4.179687,-0.367188,-0.046875,-0.697266,0.681091,0.542847,-0.007507,0.491272,down
395440,5.476562,7.5625,4.292969,-0.367188,-0.046875,-0.697266,0.681091,0.542847,-0.007507,0.491272,down
395445,5.476562,7.5625,4.292969,-0.423828,-0.060547,-0.685547,0.682373,0.542297,-0.007141,0.490112,down
395450,5.4375,7.488281,4.292969,-0.439453,-0.070312,-0.673828,0.682373,0.542297,-0.007141,0.490112,down
395455,5.320312,7.488281,4.332031,-0.439453,-0.070312,-0.673828,0.682373,0.542297,-0.007141,0.490112,down
395460,5.320312,7.488281,4.332031,-0.423828,-0.115234,-0.644531,0.686584,0.540405,-0.00647,0.486328,down
395465,5.285156,7.488281,4.445312,-0.371094,-0.140625,-0.632812,0.686584,0.540405,-0.00647,0.486328,down
395471,5.246094,7.566406,4.484375,-0.371094,-0.140625,-0.632812,0.690491,0.53894,-0.005981,0.482422,down
395476,5.246094,7.566406,4.484375,-0.259766,-0.154297,-0.632812,0.691711,0.538574,-0.005676,0.481079,down
395482,5.167969,7.601562,4.445312,-0.259766,-0.154297,-0.632812,0.692749,0.538391,-0.005432,0.479797,down
395487,5.054687,7.679687,4.445312,-0.259766,-0.154297,-0.632812,0.693787,0.538269,-0.005005,0.478455,down
395493,5.054687,7.761719,4.410156,-0.125,-0.164062,-0.667969,0.693787,0.538269,-0.005005,0.478455,down
395498,5.015625,7.839844,4.371094,-0.119141,-0.173828,-0.667969,0.693787,0.538269,-0.005005,0.478455,down
395503,5.09375,7.945312,4.332031,-0.107422,-0.181641,-0.660156,0.693787,0.538269,-0.005005,0.478455,down
395508,5.054687,7.984375,4.332031,-0.117188,-0.169922,-0.648437,0.693787,0.538269,-0.005005,0.478455,down
395513,5.09375,8.023438,4.292969,-0.154297,-0.160156,-0.634766,0.693787,0.538269,-0.005005,0.478455,down
395518,5.09375,7.988281,4.253906,-0.173828,-0.134766,-0.621094,0.693787,0.538269,-0.005005,0.478455,down
395525,5.054687,7.984375,4.292969,-0.210937,-0.123047,-0.609375,0.701599,0.537598,-0.001709,0.467712,down
395530,5.09375,7.910156,4.292969,-0.285156,-0.117188,-0.59375,0.701599,0.537598,-0.001709,0.467712,down
395535,5.09375,7.871094,4.292969,-0.285156,-0.117188,-0.59375,0.703796,0.536865,-0.001221,0.465271,down
395540,5.054687,7.761719,4.332031,-0.285156,-0.117188,-0.59375,0.704956,0.536377,-0.000977,0.46405,down
395545,5.054687,7.722656,4.332031,-0.382813,-0.101563,-0.591797,0.704956,0.536377,-0.000977,0.46405,down
395550,5.015625,7.605469,4.332031,-0.382813,-0.101563,-0.591797,0.707397,0.535217,-0.00061,0.461609,down
395555,5.015625,7.605469,4.371094,-0.382813,-0.101563,-0.591797,0.707397,0.535217,-0.00061,0.461609,down
395560,4.9375,7.527344,4.332031,-0.373047,-0.111328,-0.617187,0.709778,0.53418,-0.000244,0.459167,down
395565,4.902344,7.527344,4.332031,-0.304688,-0.130859,-0.625,0.709778,0.53418,-0.000244,0.459167,down
395570,4.863281,7.601562,4.292969,-0.304688,-0.130859,-0.625,0.712097,0.533386,0.000305,0.456482,down
395575,4.746094,7.644531,4.292969,-0.304688,-0.130859,-0.625,0.712097,0.533386,0.000305,0.456482,down
395580,4.671875,7.679687,4.253906,-0.201172,-0.136719,-0.625,0.713989,0.53302,0.000977,0.453979,down
395585,4.671875,7.761719,4.332031,-0.078125,-0.150391,-0.591797,0.713989,0.53302,0.000977,0.453979,down
395590,4.632812,7.871094,4.332031,-0.078125,-0.150391,-0.591797,0.715637,0.53302,0.001892,0.451355,down
395595,4.671875,7.90625,4.292969,0.070312,-0.150391,-0.560547,0.715637,0.53302,0.001892,0.451355,down
395600,4.671875,7.984375,4.332031,0.070312,-0.150391,-0.560547,0.716736,0.53363,0.002991,0.448914,down
395605,4.671875,8.027344,4.332031,0.162109,-0.175781,-0.542969,0.716736,0.53363,0.002991,0.448914,down
395610,4.785156,8.179688,4.292969,0.162109,-0.175781,-0.542969,0.717163,0.534058,0.00354,0.447754,down
395615,4.824219,8.183594,4.332031,0.162109,-0.175781,-0.542969,0.717896,0.535095,0.004761,0.445374,down
395620,4.902344,8.222656,4.292969,0.162109,-0.175781,-0.542969,0.717896,0.535095,0.004761,0.445374,down
395625,4.902344,8.289063,4.253906,0.214844,-0.150391,-0.550781,0.717896,0.535095,0.004761,0.445374,down
395630,4.863281,8.445313,4.140625,0.214844,-0.150391,-0.550781,0.718872,0.536682,0.006836,0.441711,down
395635,4.824219,8.527344,4.101562,0.214844,-0.150391,-0.550781,0.719238,0.537109,0.007507,0.440552,down
395640,4.824219,8.488281,4.101562,0.214844,-0.150391,-0.550781,0.719238,0.537109,0.007507,0.440552,down
395645,4.710937,8.605469,4.0625,0.052734,-0.074219,-0.523437,0.719238,0.537109,0.007507,0.440552,down
395650,4.515625,8.601563,4.0625,0.052734,-0.074219,-0.523437,0.720764,0.537781,0.009583,0.437195,down
395655,4.441406,8.644531,4.0625,0.052734,-0.074219,-0.523437,0.721313,0.537781,0.010071,0.43634,down
395660,4.402344,8.640625,4.0625,0.052734,-0.074219,-0.523437,0.721313,0.537781,0.010071,0.43634,down
395665,4.097656,8.605469,4.140625,-0.089844,-0.050781,-0.480469,0.721313,0.537781,0.010071,0.43634,down
395670,4.019531,8.601563,4.179687,-0.107422,-0.083984,-0.453125,0.722595,0.537537,0.010986,0.434448,down
395675,3.980469,8.445313,4.21875,-0.107422,-0.083984,-0.453125,0.723877,0.537292,0.011719,0.432617,down
395680,4.019531,8.40625,4.21875,-0.076172,-0.154297,-0.423828,0.723877,0.537292,0.011719,0.432617,down
395686,4.097656,8.289063,4.179687,-0.076172,-0.154297,-0.423828,0.725037,0.537292,0.012146,0.430664,down
395691,4.210937,8.292969,4.179687,-0.037109,-0.248047,-0.384766,0.725586,0.537476,0.012207,0.429504,down
395697,4.402344,8.332031,4.140625,-0.037109,-0.248047,-0.384766,0.726013,0.537659,0.012207,0.428589,down
395704,4.554687,8.332031,4.0625,-0.037109,-0.248047,-0.384766,0.726501,0.537903,0.012207,0.42749,down
395709,4.59375,8.289063,4.0625,-0.037109,-0.248047,-0.384766,0.726501,0.537903,0.012207,0.42749,down
395715,4.59375,8.289063,4.101562,-0.013672,-0.267578,-0.386719,0.726501,0.537903,0.012207,0.42749,down
395720,4.515625,8.257813,4.027344,-0.023437,-0.261719,-0.394531,0.726501,0.537903,0.012207,0.42749,down
395725,4.441406,8.179688,3.949219,-0.083984,-0.230469,-0.396484,0.728271,0.538757,0.012268,0.423279,down
395730,4.480469,8.222656,3.949219,-0.083984,-0.230469,-0.396484,0.728882,0.538879,0.012268,0.422119,down
395735,4.441406,8.183594,3.988281,-0.083984,-0.230469,-0.396484,0.729431,0.538879,0.012268,0.421082,down
395740,4.324219,8.144531,4.101562,-0.216797,-0.207031,-0.378906,0.729431,0.538879,0.012268,0.421082,down
395745,4.25,8.101563,4.140625,-0.302734,-0.193359,-0.378906,0.730774,0.538574,0.012085,0.41925,down
395750,4.289062,8.066406,4.101562,-0.302734,-0.193359,-0.378906,0.731689,0.538208,0.011902,0.418213,down
395755,4.171875,8.0625,4.101562,-0.306641,-0.167969,-0.384766,0.732483,0.537781,0.01178,0.417297,down
395761,4.058594,8.101563,4.140625,-0.306641,-0.167969,-0.384766,0.73407,0.536987,0.011536,0.415527,down
395766,4.019531,8.0625,4.179687,-0.273438,-0.171875,-0.373047,0.734924,0.536621,0.011475,0.41449,down
395771,4.058594,7.988281,4.21875,-0.248047,-0.177734,-0.376953,0.735657,0.536316,0.011353,0.413574,down
395776,4.058594,7.988281,4.292969,-0.248047,-0.177734,-0.376953,0.735657,0.536316,0.011353,0.413574,down
395781,4.058594,7.988281,4.292969,-0.222656,-0.171875,-0.361328,0.736328,0.536072,0.011292,0.412781,down
395786,4.019531,7.945312,4.292969,-0.222656,-0.171875,-0.361328,0.737,0.535828,0.01123,0.411865,down
395791,4.019531,7.871094,4.332031,-0.226562,-0.171875,-0.351563,0.73761,0.535583,0.011169,0.41095,down
395796,4.019531,7.871094,4.332031,-0.226562,-0.171875,-0.351563,0.73761,0.535583,0.011169,0.41095,down
395801,4.058594,7.800781,4.332031,-0.253906,-0.177734,-0.341797,0.739685,0.53479,0.010803,0.408325,down
395806,4.058594,7.800781,4.371094,-0.253906,-0.177734,-0.341797,0.740479,0.534363,0.01062,0.407471,down
395811,4.019531,7.683594,4.371094,-0.253906,-0.177734,-0.341797,0.741272,0.533936,0.010437,0.406555,down
395816,4.058594,7.644531,4.410156,-0.253906,-0.177734,-0.341797,0.742126,0.533447,0.010254,0.405701,down
395821,4.019531,7.601562,4.371094,-0.369141,-0.154297,-0.365234,0.743042,0.532898,0.010071,0.404785,down
395826,3.90625,7.527344,4.410156,-0.369141,-0.154297,-0.365234,0.743958,0.532288,0.009888,0.40387,down
395831,3.90625,7.488281,4.371094,-0.369141,-0.154297,-0.365234,0.744751,0.531738,0.009766,0.403076,down
395836,3.828125,7.488281,4.371094,-0.375,-0.105469,-0.396484,0.744751,0.531738,0.009766,0.403076,down
395841,3.789063,7.488281,4.332031,-0.375,-0.105469,-0.396484,0.746582,0.530518,0.009644,0.401306,down
395846,3.675781,7.335937,4.371094,-0.375,-0.105469,-0.396484,0.747559,0.529846,0.009644,0.400391,down
395851,3.714844,7.296875,4.332031,-0.375,-0.105469,-0.396484,0.748413,0.529236,0.009705,0.399536,down
395856,3.636719,7.339844,4.332031,-0.345703,-0.060547,-0.464844,0.74939,0.528625,0.009827,0.39856,down
395862,3.558594,7.21875,4.292969,-0.345703,-0.060547,-0.464844,0.750305,0.528076,0.01001,0.397644,down
395867,3.789063,7.257812,4.332031,-0.345703,-0.060547,-0.464844,0.75116,0.527527,0.010193,0.396667,down
395872,3.789063,7.300781,4.332031,-0.291016,-0.072266,-0.498047,0.75116,0.527527,0.010193,0.396667,down
395878,3.828125,7.300781,4.371094,-0.289063,-0.060547,-0.509766,0.75116,0.527527,0.010193,0.396667,down
395883,3.828125,7.335937,4.410156,-0.273438,-0.041016,-0.533203,0.75116,0.527527,0.010193,0.396667,down
395890,3.789063,7.296875,4.484375,-0.259766,-0.035156,-0.552734,0.75116,0.527527,0.010193,0.396667,down
395895,3.828125,7.335937,4.5625,-0.244141,-0.025391,-0.574219,0.75116,0.527527,0.010193,0.396667,down
395900,3.714844,7.339844,4.5625,-0.230469,-0.015625,-0.589844,0.75116,0.527527,0.010193,0.396667,down
395905,3.675781,7.335937,4.601562,-0.230469,-0.015625,-0.589844,0.757446,0.524109,0.012878,0.389099,down
395911,3.597656,7.417969,4.601562,-0.224609,-0.013672,-0.630859,0.757446,0.524109,0.012878,0.389099,down
395916,3.597656,7.488281,4.640625,-0.224609,-0.013672,-0.630859,0.760193,0.522766,0.014709,0.385437,down
395921,3.484375,7.679687,4.640625,-0.224609,-0.013672,-0.630859,0.760986,0.522461,0.015259,0.384277,down
395926,3.40625,7.761719,4.640625,-0.158203,-0.044922,-0.65625,0.760986,0.522461,0.015259,0.384277,down
395931,3.367188,7.839844,4.675781,-0.158203,-0.044922,-0.65625,0.762756,0.521851,0.016602,0.381592,down
395937,3.328125,7.945312,4.601562,-0.158203,-0.044922,-0.65625,0.763428,0.521667,0.017212,0.380371,down
395943,3.214844,8.257813,4.5625,-0.03125,-0.070312,-0.675781,0.764221,0.521606,0.017883,0.378967,down
395948,3.214844,8.332031,4.601562,-0.013672,-0.078125,-0.675781,0.764221,0.521606,0.017883,0.378967,down
395954,3.214844,8.371094,4.5625,-0.021484,-0.074219,-0.679687,0.764221,0.521606,0.017883,0.378967,down
395960,3.175781,8.488281,4.523437,-0.021484,-0.074219,-0.679687,0.766235,0.521606,0.020081,0.374817,down
395966,3.175781,8.488281,4.484375,-0.074219,-0.068359,-0.652344,0.766235,0.521606,0.020081,0.374817,down
395971,3.292969,8.523438,4.484375,-0.074219,-0.068359,-0.652344,0.767639,0.521423,0.021484,0.372009,down
395976,3.253906,8.527344,4.5625,-0.074219,-0.068359,-0.652344,0.769165,0.520935,0.022583,0.369446,down
395981,3.292969,8.523438,4.675781,-0.074219,-0.068359,-0.652344,0.770081,0.520508,0.023071,0.368164,down
395986,3.328125,8.449219,4.714844,-0.316406,-0.070312,-0.621094,0.770081,0.520508,0.023071,0.368164,down
395991,3.328125,8.40625,4.792969,-0.345703,-0.066406,-0.630859,0.771118,0.519958,0.02356,0.36676,down
395997,3.328125,8.40625,4.792969,-0.361328,-0.076172,-0.632812,0.773071,0.518677,0.024292,0.364258,down
396002,3.292969,8.332031,4.832031,-0.375,-0.09375,-0.625,0.774292,0.517883,0.024658,0.362793,down
396008,3.292969,8.261719,4.90625,-0.375,-0.09375,-0.625,0.775208,0.517334,0.024902,0.361694,down
396013,3.328125,8.21875,5.023437,-0.375,-0.09375,-0.625,0.776306,0.516602,0.025146,0.360291,down
396019,3.292969,8.222656,4.984375,-0.373047,-0.125,-0.638672,0.776306,0.516602,0.025146,0.360291,down
396024,3.292969,8.222656,4.984375,-0.333984,-0.142578,-0.636719,0.776306,0.516602,0.025146,0.360291,down
396030,3.292969,8.222656,4.984375,-0.333984,-0.142578,-0.636719,0.780334,0.514343,0.026184,0.354736,down
396035,3.292969,8.261719,4.984375,-0.333984,-0.142578,-0.636719,0.780334,0.514343,0.026184,0.354736,down
396040,3.292969,8.289063,4.984375,-0.236328,-0.160156,-0.636719,0.780334,0.514343,0.026184,0.354736,down
396045,3.214844,8.328125,5.023437,-0.224609,-0.152344,-0.642578,0.780334,0.514343,0.026184,0.354736,down
396050,3.175781,8.371094,4.984375,-0.224609,-0.152344,-0.642578,0.782959,0.513245,0.027161,0.350403,down
396056,3.101563,8.371094,4.945312,-0.205078,-0.136719,-0.652344,0.782959,0.513245,0.027161,0.350403,down
396061,3.0625,8.449219,4.984375,-0.183594,-0.117188,-0.654297,0.782959,0.513245,0.027161,0.350403,down
396066,2.984375,8.449219,4.945312,-0.183594,-0.117188,-0.654297,0.786316,0.511963,0.028809,0.344666,down
396071,2.910156,8.445313,4.945312,-0.183594,-0.117188,-0.654297,0.786316,0.511963,0.028809,0.344666,down
396076,2.910156,8.449219,4.90625,-0.1875,-0.117188,-0.644531,0.786316,0.511963,0.028809,0.344666,down
396081,2.910156,8.449219,4.90625,-0.199219,-0.134766,-0.646484,0.787903,0.511292,0.029663,0.341858,down
396086,2.871094,8.449219,4.867187,-0.214844,-0.136719,-0.642578,0.788757,0.510925,0.03009,0.340393,down
396091,2.871094,8.449219,4.867187,-0.226562,-0.150391,-0.634766,0.789612,0.51062,0.030396,0.338989,down
396112,3.0625,8.445313,4.714844,-0.207031,-0.175781,-0.625,0.793701,0.50885,0.031921,0.331787,down
396118,3.023438,8.449219,4.601562,-0.207031,-0.175781,-0.625,0.794495,0.508545,0.032166,0.330322,down
396123,2.984375,8.484375,4.5625,-0.207031,-0.175781,-0.625,0.795288,0.50824,0.032471,0.328857,down
396128,2.945313,8.523438,4.484375,-0.171875,-0.173828,-0.648437,0.795288,0.50824,0.032471,0.328857,down
396133,2.984375,8.566406,4.5625,-0.136719,-0.173828,-0.650391,0.795288,0.50824,0.032471,0.328857,down
396139,2.945313,8.710938,4.484375,-0.115234,-0.173828,-0.658203,0.795288,0.50824,0.032471,0.328857,down
396144,2.910156,8.792969,4.410156,-0.097656,-0.15625,-0.666016,0.795288,0.50824,0.032471,0.328857,down
396149,2.910156,8.871094,4.445312,-0.072266,-0.146484,-0.654297,0.795288,0.50824,0.032471,0.328857,down
396154,2.871094,8.828125,4.484375,-0.070312,-0.130859,-0.650391,0.795288,0.50824,0.032471,0.328857,down
396159,2.832031,8.910156,4.371094,-0.070312,-0.130859,-0.650391,0.795288,0.50824,0.032471,0.328857,down
396165,2.792969,8.910156,4.371094,-0.070312,-0.130859,-0.650391,0.80072,0.507019,0.036072,0.316956,down
396170,2.832031,8.910156,4.410156,-0.058594,-0.087891,-0.621094,0.80072,0.507019,0.036072,0.316956,down
396176,2.753906,8.988281,4.410156,-0.058594,-0.087891,-0.621094,0.80188,0.506775,0.037292,0.31427,down
396181,2.71875,8.988281,4.371094,-0.050781,-0.076172,-0.583984,0.802917,0.506592,0.03833,0.311768,down
396186,2.679688,8.984375,4.410156,-0.056641,-0.101563,-0.548828,0.802917,0.506592,0.03833,0.311768,down
396191,2.640625,9.058594,4.445312,-0.064453,-0.095703,-0.542969,0.803467,0.50647,0.038879,0.310425,down
396196,2.5625,9.054688,4.410156,-0.064453,-0.095703,-0.542969,0.804504,0.506287,0.039734,0.308105,down
396201,2.527344,9.09375,4.484375,-0.064453,-0.095703,-0.542969,0.804504,0.506287,0.039734,0.308105,down
396206,2.488281,9.136719,4.445312,-0.058594,-0.136719,-0.525391,0.804504,0.506287,0.039734,0.308105,down
396212,2.449219,9.214844,4.484375,-0.066406,-0.150391,-0.521484,0.805481,0.506104,0.040527,0.305603,down
396217,2.410156,9.25,4.523437,-0.066406,-0.150391,-0.521484,0.806458,0.50592,0.041138,0.303223,down
396222,2.410156,9.214844,4.5625,-0.101563,-0.169922,-0.505859,0.807068,0.505798,0.041382,0.301819,down
396227,2.371094,9.214844,4.5625,-0.101563,-0.169922,-0.505859,0.807617,0.505676,0.041626,0.300598,down
396232,2.371094,9.171875,4.5625,-0.101563,-0.169922,-0.505859,0.808105,0.505432,0.041748,0.299561,down
396237,2.371094,9.171875,4.601562,-0.205078,-0.166016,-0.480469,0.808105,0.505432,0.041748,0.299561,down
396242,2.371094,9.171875,4.601562,-0.232422,-0.152344,-0.455078,0.809387,0.504761,0.041992,0.297302,down
396248,2.296875,8.988281,4.640625,-0.232422,-0.152344,-0.455078,0.810059,0.504333,0.042114,0.296204,down
396254,2.296875,8.984375,4.753906,-0.267578,-0.128906,-0.443359,0.810059,0.504333,0.042114,0.296204,down
396260,2.296875,8.90625,4.792969,-0.248047,-0.123047,-0.429687,0.81134,0.503357,0.042297,0.294189,down
396266,2.179688,8.867188,4.753906,-0.248047,-0.123047,-0.429687,0.812561,0.502502,0.042664,0.292236,down
396271,2.140625,8.867188,4.714844,-0.248047,-0.123047,-0.429687,0.812561,0.502502,0.042664,0.292236,down
396276,2.105469,8.867188,4.714844,-0.095703,-0.109375,-0.412109,0.812561,0.502502,0.042664,0.292236,down
396281,2.066406,8.90625,4.832031,-0.095703,-0.109375,-0.412109,0.813538,0.502075,0.043091,0.290283,down
396286,2.105469,8.867188,4.792969,-0.095703,-0.109375,-0.412109,0.813965,0.501892,0.043335,0.289307,down
396291,2.027344,8.910156,4.753906,-0.064453,-0.113281,-0.394531,0.813965,0.501892,0.043335,0.289307,down
396296,1.988281,8.910156,4.792969,-0.064453,-0.113281,-0.394531,0.814758,0.501648,0.043823,0.287354,down
396301,1.949219,8.867188,4.753906,-0.064453,-0.113281,-0.394531,0.815125,0.501587,0.044006,0.286438,down
396307,1.988281,8.871094,4.792969,-0.064453,-0.113281,-0.394531,0.815491,0.501526,0.044189,0.285583,down
396312,1.949219,8.828125,4.792969,-0.103516,-0.119141,-0.369141,0.815491,0.501526,0.044189,0.285583,down
396317,1.949219,8.789063,4.832031,-0.103516,-0.119141,-0.369141,0.81665,0.501038,0.044739,0.282776,down
396323,1.949219,8.671875,4.90625,-0.103516,-0.119141,-0.369141,0.817139,0.500793,0.0448,0.281982,down
396328,1.988281,8.675781,4.90625,-0.212891,-0.121094,-0.359375,0.817139,0.500793,0.0448,0.281982,down
396334,1.949219,8.640625,4.945312,-0.21875,-0.121094,-0.355469,0.817139,0.500793,0.0448,0.281982,down
396339,1.914063,8.640625,4.984375,-0.21875,-0.121094,-0.355469,0.818726,0.499634,0.045044,0.279419,down
396344,1.914063,8.640625,5.023437,-0.210937,-0.115234,-0.359375,0.818726,0.499634,0.045044,0.279419,down
396350,1.914063,8.675781,5.023437,-0.208984,-0.109375,-0.365234,0.818726,0.499634,0.045044,0.279419,down
396355,1.835938,8.675781,5.058594,-0.207031,-0.109375,-0.357422,0.818726,0.499634,0.045044,0.279419,down
396360,1.875,8.675781,5.058594,-0.201172,-0.103516,-0.359375,0.818726,0.499634,0.045044,0.279419,down
396365,1.875,8.671875,5.097656,-0.189453,-0.099609,-0.345703,0.818726,0.499634,0.045044,0.279419,down
396370,1.835938,8.671875,5.097656,-0.181641,-0.09375,-0.34375,0.818726,0.499634,0.045044,0.279419,down
396375,1.835938,8.671875,5.097656,-0.181641,-0.09375,-0.34375,0.818726,0.499634,0.045044,0.279419,down
396381,1.796875,8.675781,5.136719,-0.181641,-0.09375,-0.34375,0.822754,0.496582,0.045837,0.272766,down
396387,1.796875,8.671875,5.25,-0.175781,-0.097656,-0.316406,0.822754,0.496582,0.045837,0.272766,down
396393,1.796875,8.671875,5.25,-0.173828,-0.097656,-0.320313,0.824036,0.495605,0.046021,0.270569,down
396398,1.796875,8.601563,5.328125,-0.173828,-0.097656,-0.320313,0.824524,0.495239,0.046143,0.269775,down
396403,1.796875,8.644531,5.367187,-0.138672,-0.115234,-0.322266,0.824524,0.495239,0.046143,0.269775,down
396408,1.796875,8.644531,5.367187,-0.130859,-0.132812,-0.316406,0.824524,0.495239,0.046143,0.269775,down
396413,1.796875,8.644531,5.367187,-0.130859,-0.132812,-0.316406,0.824524,0.495239,0.046143,0.269775,down
396419,1.835938,8.675781,5.367187,-0.128906,-0.152344,-0.322266,0.826111,0.494324,0.046326,0.266602,down
396424,1.835938,8.675781,5.40625,-0.138672,-0.160156,-0.330078,0.826111,0.494324,0.046326,0.266602,down
396429,1.875,8.710938,5.40625,-0.138672,-0.160156,-0.330078,0.826904,0.493835,0.046326,0.264893,down
396434,1.875,8.710938,5.367187,-0.160156,-0.164062,-0.345703,0.826904,0.493835,0.046326,0.264893,down
396440,1.875,8.710938,5.40625,-0.179687,-0.15625,-0.349609,0.826904,0.493835,0.046326,0.264893,down
396446,1.835938,8.710938,5.328125,-0.179687,-0.15625,-0.349609,0.826904,0.493835,0.046326,0.264893,down
396451,1.835938,8.675781,5.328125,-0.179687,-0.15625,-0.349609,0.828857,0.492554,0.046326,0.261292,down
396457,1.835938,8.675781,5.40625,-0.248047,-0.140625,-0.339844,0.828857,0.492554,0.046326,0.261292,down
396462,1.796875,8.671875,5.40625,-0.248047,-0.140625,-0.339844,0.829834,0.491699,0.046265,0.259644,down
396467,1.796875,8.605469,5.441406,-0.261719,-0.136719,-0.333984,0.830383,0.491211,0.046265,0.25885,down
396472,1.796875,8.605469,5.441406,-0.261719,-0.136719,-0.333984,0.830383,0.491211,0.046265,0.25885,down
396477,1.796875,8.605469,5.441406,-0.214844,-0.158203,-0.300781,0.831482,0.490295,0.046082,0.257263,down
396482,1.796875,8.605469,5.441406,-0.214844,-0.158203,-0.300781,0.831482,0.490295,0.046082,0.257263,down
396487,1.796875,8.5625,5.367187,-0.154297,-0.177734,-0.304688,0.832397,0.489502,0.045898,0.255676,down
396492,1.796875,8.5625,5.367187,-0.154297,-0.177734,-0.304688,0.833191,0.489014,0.045715,0.254028,down
396498,1.796875,8.5625,5.367187,-0.154297,-0.177734,-0.304688,0.833557,0.488892,0.045715,0.253174,down
396503,1.796875,8.488281,5.367187,-0.154297,-0.177734,-0.304688,0.833862,0.48877,0.045654,0.252319,down
396508,1.835938,8.449219,5.328125,-0.041016,-0.162109,-0.308594,0.834167,0.48877,0.045654,0.251404,down
396514,1.875,8.527344,5.214844,-0.041016,-0.162109,-0.308594,0.834351,0.48877,0.045715,0.250732,down
396520,1.914063,8.605469,5.175781,-0.023437,-0.148437,-0.310547,0.834351,0.48877,0.045715,0.250732,down
396525,1.875,8.644531,5.214844,-0.023437,-0.154297,-0.316406,0.834351,0.48877,0.045715,0.250732,down
396530,1.949219,8.644531,5.175781,-0.035156,-0.15625,-0.3125,0.834351,0.48877,0.045715,0.250732,down
396535,1.914063,8.714844,5.097656,-0.03125,-0.132812,-0.318359,0.834351,0.48877,0.045715,0.250732,down
396541,1.875,8.832031,5.097656,-0.007813,-0.119141,-0.326172,0.834351,0.48877,0.045715,0.250732,down
396546,1.875,8.910156,5.097656,-0.007813,-0.119141,-0.326172,0.835815,0.488708,0.046204,0.245789,down
396552,1.796875,8.945313,4.984375,-0.001953,-0.107422,-0.322266,0.835815,0.488708,0.046204,0.245789,down
396557,1.796875,9.027344,5.023437,-0.044922,-0.107422,-0.292969,0.836304,0.488708,0.04657,0.244202,down
396562,1.796875,9.023438,5.097656,-0.044922,-0.107422,-0.292969,0.836731,0.488586,0.046814,0.242737,down
396567,1.796875,9.027344,5.058594,-0.087891,-0.09375,-0.259766,0.836731,0.488586,0.046814,0.242737,down
396572,1.796875,8.988281,5.058594,-0.087891,-0.09375,-0.259766,0.83728,0.488281,0.046936,0.241455,down
396577,1.757813,9.027344,5.097656,-0.128906,-0.085937,-0.240234,0.83728,0.488281,0.046936,0.241455,down
396582,1.757813,9.027344,5.136719,-0.128906,-0.085937,-0.240234,0.837646,0.488037,0.046997,0.240845,down
396587,1.722656,8.910156,5.175781,-0.154297,-0.085937,-0.224609,0.837646,0.488037,0.046997,0.240845,down
396592,1.722656,8.910156,5.175781,-0.154297,-0.085937,-0.224609,0.838623,0.487122,0.046997,0.239258,down
396597,1.757813,8.828125,5.25,-0.154297,-0.085937,-0.224609,0.838623,0.487122,0.046997,0.239258,down
396602,1.757813,8.792969,5.214844,-0.162109,-0.146484,-0.175781,0.838623,0.487122,0.046997,0.239258,down
396608,1.757813,8.753906,5.214844,-0.162109,-0.146484,-0.175781,0.8396,0.486206,0.046448,0.237671,down
396614,1.757813,8.75,5.175781,-0.162109,-0.146484,-0.175781,0.839905,0.485962,0.046265,0.237183,down
396620,1.757813,8.75,5.175781,-0.130859,-0.171875,-0.160156,0.84021,0.485779,0.046021,0.236633,down
396625,1.757813,8.753906,5.136719,-0.125,-0.171875,-0.162109,0.84021,0.485779,0.046021,0.236633,down
396630,1.757813,8.671875,5.136719,-0.125,-0.171875,-0.162109,0.840698,0.485352,0.045593,0.235596,down
396635,1.796875,8.710938,5.136719,-0.119141,-0.166016,-0.164062,0.840698,0.485352,0.045593,0.235596,down
396641,1.757813,8.671875,5.136719,-0.111328,-0.169922,-0.169922,0.840698,0.485352,0.045593,0.235596,down
396646,1.722656,8.671875,5.175781,-0.111328,-0.169922,-0.169922,0.840698,0.485352,0.045593,0.235596,down
396651,1.683594,8.671875,5.136719,-0.111328,-0.169922,-0.169922,0.841736,0.48468,0.044739,0.233459,down
396656,1.683594,8.671875,5.136719,-0.103516,-0.167969,-0.162109,0.841736,0.48468,0.044739,0.233459,down
396662,1.683594,8.710938,5.25,-0.089844,-0.171875,-0.160156,0.841736,0.48468,0.044739,0.233459,down
396667,1.644531,8.714844,5.214844,-0.089844,-0.171875,-0.160156,0.842407,0.484314,0.044128,0.231934,down
396672,1.605469,8.710938,5.214844,-0.050781,-0.175781,-0.171875,0.842407,0.484314,0.044128,0.231934,down
396677,1.566406,8.710938,5.214844,-0.050781,-0.175781,-0.171875,0.842834,0.484192,0.043701,0.230835,down
396683,1.453125,8.710938,5.25,-0.050781,-0.175781,-0.171875,0.84314,0.484253,0.043335,0.229675,down
396688,1.53125,8.675781,5.289062,-0.019531,-0.214844,-0.175781,0.843262,0.484314,0.043091,0.229004,down
396693,1.492188,8.640625,5.328125,-0.035156,-0.224609,-0.185547,0.843445,0.484375,0.042847,0.228394,down
396699,1.453125,8.640625,5.289062,-0.050781,-0.248047,-0.181641,0.843628,0.484375,0.042603,0.227844,down
396704,1.453125,8.566406,5.328125,-0.050781,-0.248047,-0.181641,0.843811,0.484375,0.042236,0.227173,down
396709,1.453125,8.566406,5.367187,-0.072266,-0.296875,-0.185547,0.843811,0.484375,0.042236,0.227173,down
396714,1.414063,8.523438,5.25,-0.089844,-0.300781,-0.193359,0.843811,0.484375,0.042236,0.227173,down
396719,1.453125,8.527344,5.214844,-0.101563,-0.3125,-0.205078,0.843811,0.484375,0.042236,0.227173,down
396727,1.453125,8.566406,5.175781,-0.101563,-0.3125,-0.205078,0.843811,0.484375,0.042236,0.227173,down
396732,1.453125,8.5625,5.214844,-0.113281,-0.339844,-0.228516,0.843811,0.484375,0.042236,0.227173,down
396737,1.492188,8.488281,5.214844,-0.089844,-0.337891,-0.232422,0.845398,0.484009,0.03949,0.222473,down
396742,1.453125,8.484375,5.175781,-0.089844,-0.337891,-0.232422,0.845703,0.483948,0.039001,0.221497,down
396747,1.492188,8.445313,5.214844,-0.060547,-0.326172,-0.257813,0.845947,0.483948,0.038574,0.220703,down
396752,1.492188,8.410156,5.136719,-0.060547,-0.326172,-0.257813,0.846191,0.483948,0.038086,0.219666,down
396757,1.492188,8.410156,5.136719,-0.060547,-0.326172,-0.257813,0.846436,0.484009,0.03772,0.218811,down
396762,1.492188,8.410156,5.136719,-0.037109,-0.316406,-0.261719,0.84668,0.48407,0.037292,0.217834,down
396768,1.566406,8.328125,5.097656,-0.013672,-0.302734,-0.259766,0.847046,0.484253,0.036743,0.216125,down
396774,1.492188,8.289063,5.023437,-0.013672,-0.302734,-0.259766,0.847168,0.484375,0.036499,0.215271,down
396780,1.53125,8.328125,5.058594,0.066406,-0.224609,-0.269531,0.84729,0.484558,0.036377,0.214417,down
396786,1.53125,8.292969,5.097656,0.113281,-0.195312,-0.273438,0.84729,0.484558,0.036377,0.214417,down
396792,1.414063,8.367188,5.175781,0.113281,-0.195312,-0.273438,0.84729,0.484558,0.036377,0.214417,down
396797,1.414063,8.367188,5.175781,0.208984,-0.179687,-0.277344,0.84729,0.484558,0.036377,0.214417,down
396802,1.375,8.332031,5.136719,0.263672,-0.183594,-0.279297,0.84729,0.484558,0.036377,0.214417,down
396807,1.300781,8.332031,5.136719,0.263672,-0.183594,-0.279297,0.846985,0.486816,0.03656,0.210327,down
396812,1.261719,8.40625,5.214844,0.263672,-0.183594,-0.279297,0.846802,0.487488,0.036682,0.209473,down
396817,1.300781,8.484375,5.175781,0.320313,-0.207031,-0.287109,0.846802,0.487488,0.036682,0.209473,down
396823,1.300781,8.488281,5.136719,0.351563,-0.195312,-0.300781,0.846802,0.487488,0.036682,0.209473,down
396829,1.261719,8.644531,5.023437,0.351563,-0.195312,-0.300781,0.845825,0.490723,0.037292,0.205933,down
396834,1.222656,8.644531,5.023437,0.371094,-0.183594,-0.326172,0.84552,0.491516,0.037476,0.205078,down
396841,1.183594,8.671875,4.945312,0.369141,-0.205078,-0.339844,0.84552,0.491516,0.037476,0.205078,down
396846,1.144531,8.675781,4.90625,0.369141,-0.205078,-0.339844,0.84552,0.491516,0.037476,0.205078,down
396851,1.144531,8.675781,4.867187,0.373047,-0.212891,-0.375,0.84552,0.491516,0.037476,0.205078,down
396856,1.070313,8.671875,4.867187,0.369141,-0.246094,-0.382813,0.84552,0.491516,0.037476,0.205078,down
396862,1.144531,8.714844,4.792969,0.365234,-0.267578,-0.390625,0.843994,0.496704,0.038513,0.198547,down
396867,1.222656,8.710938,4.753906,0.365234,-0.267578,-0.390625,0.843994,0.496704,0.038513,0.198547,down
396872,1.222656,8.871094,4.640625,0.328125,-0.271484,-0.347656,0.843994,0.496704,0.038513,0.198547,down
396877,1.222656,8.945313,4.640625,0.328125,-0.271484,-0.347656,0.843567,0.498352,0.038635,0.196289,down
396883,1.183594,9.054688,4.753906,0.324219,-0.265625,-0.318359,0.84314,0.499939,0.038635,0.194275,down
396888,1.144531,9.023438,4.90625,0.335938,-0.238281,-0.248047,0.84314,0.499939,0.038635,0.194275,down
396893,1.144531,8.984375,4.90625,0.335938,-0.238281,-0.248047,0.842834,0.500793,0.038635,0.193298,down
396898,0.992187,8.90625,4.867187,0.349609,-0.21875,-0.205078,0.842834,0.500793,0.038635,0.193298,down
396903,0.992187,8.910156,4.832031,0.355469,-0.207031,-0.154297,0.841858,0.503174,0.038513,0.191406,down
396908,0.992187,8.90625,4.867187,0.345703,-0.210937,-0.066406,0.841858,0.503174,0.038513,0.191406,down
396914,1.109375,8.988281,4.832031,0.345703,-0.210937,-0.066406,0.841064,0.504883,0.038208,0.190491,down
396919,1.144531,8.910156,4.832031,0.345703,-0.210937,-0.066406,0.840637,0.505615,0.038086,0.190247,down
396924,1.261719,8.90625,4.792969,0.392578,-0.148437,-0.023437,0.840149,0.506592,0.037964,0.189941,down
396929,1.375,8.910156,4.792969,0.416016,-0.123047,-0.046875,0.839661,0.507507,0.037903,0.189636,down
396935,1.375,8.832031,4.5625,0.416016,-0.123047,-0.046875,0.839233,0.508362,0.037964,0.189392,down
396941,1.414063,8.789063,4.484375,0.507812,-0.103516,-0.082031,0.838562,0.50946,0.038086,0.189087,down
396946,1.492188,8.828125,4.484375,0.552734,-0.113281,-0.101563,0.838562,0.50946,0.038086,0.189087,down
396951,1.492188,8.828125,4.484375,0.552734,-0.113281,-0.101563,0.837341,0.51178,0.038452,0.188293,down
396956,1.566406,8.90625,4.410156,0.552734,-0.113281,-0.101563,0.837341,0.51178,0.038452,0.188293,down
396961,1.566406,8.90625,4.410156,0.552734,-0.113281,-0.101563,0.835937,0.514343,0.038818,0.187378,down
396966,1.566406,8.90625,4.410156,0.560547,-0.130859,-0.146484,0.835327,0.515564,0.039001,0.186829,down
396971,1.566406,8.867188,4.292969,0.560547,-0.130859,-0.146484,0.834717,0.516724,0.039185,0.18634,down
396976,1.566406,8.984375,4.21875,0.560547,-0.130859,-0.146484,0.834717,0.516724,0.039185,0.18634,down
396981,1.566406,8.984375,4.21875,0.458984,-0.107422,-0.125,0.833557,0.518921,0.03949,0.185364,down
396986,1.492188,9.023438,4.140625,0.458984,-0.107422,-0.125,0.833557,0.518921,0.03949,0.185364,down
396991,1.492188,9.058594,4.140625,0.458984,-0.107422,-0.125,0.833557,0.518921,0.03949,0.185364,down
396996,1.492188,9.132813,4.179687,0.458984,-0.107422,-0.125,0.832092,0.521545,0.039917,0.184326,down
397001,1.414063,9.023438,4.179687,0.296875,-0.076172,-0.068359,0.832092,0.521545,0.039917,0.184326,down
397006,1.492188,9.023438,4.179687,0.261719,-0.082031,-0.056641,0.832092,0.521545,0.039917,0.184326,down
397011,1.492188,8.984375,4.140625,0.261719,-0.082031,-0.056641,0.832092,0.521545,0.039917,0.184326,down
397016,1.453125,9.023438,4.140625,0.261719,-0.082031,-0.056641,0.830872,0.523865,0.040161,0.183411,down
397022,1.492188,9.058594,4.179687,0.210937,-0.087891,-0.050781,0.830872,0.523865,0.040161,0.183411,down
397028,1.453125,9.054688,4.253906,0.234375,-0.087891,-0.056641,0.830872,0.523865,0.040161,0.183411,down
397033,1.414063,9.027344,4.253906,0.234375,-0.087891,-0.056641,0.830078,0.52533,0.040161,0.182739,down
397038,1.375,8.988281,4.253906,0.269531,-0.052734,-0.076172,0.830078,0.52533,0.040161,0.182739,down
397043,1.222656,9.09375,4.21875,0.269531,-0.052734,-0.076172,0.829163,0.526978,0.040405,0.182007,down
397048,1.222656,9.132813,4.292969,0.269531,-0.052734,-0.076172,0.829163,0.526978,0.040405,0.182007,down
397053,1.222656,9.132813,4.292969,0.3125,-0.083984,-0.085937,0.829163,0.526978,0.040405,0.182007,down
397058,1.183594,9.171875,4.292969,0.3125,-0.083984,-0.085937,0.828125,0.528931,0.040771,0.181152,down
397063,1.183594,9.171875,4.292969,0.349609,-0.121094,-0.091797,0.828125,0.528931,0.040771,0.181152,down
397069,1.222656,9.289063,4.292969,0.349609,-0.121094,-0.091797,0.827271,0.530518,0.040833,0.18042,down
397074,1.261719,9.328125,4.292969,0.396484,-0.144531,-0.103516,0.826782,0.531372,0.040894,0.179993,down
397079,1.300781,9.40625,4.179687,0.396484,-0.144531,-0.103516,0.826355,0.532166,0.040894,0.179626,down
397085,1.375,9.449219,4.179687,0.396484,-0.144531,-0.103516,0.825867,0.533081,0.040955,0.179138,down
397090,1.375,9.449219,4.179687,0.398438,-0.130859,-0.111328,0.825867,0.533081,0.040955,0.179138,down
397095,1.414063,9.40625,4.179687,0.382813,-0.113281,-0.113281,0.825867,0.533081,0.040955,0.179138,down
397101,1.375,9.445313,4.101562,0.382813,-0.113281,-0.113281,0.824463,0.535583,0.041199,0.177917,down
397106,1.300781,9.367188,4.179687,0.314453,-0.072266,-0.107422,0.824463,0.535583,0.041199,0.177917,down
397112,1.261719,9.332031,4.179687,0.275391,-0.054687,-0.101563,0.824463,0.535583,0.041199,0.177917,down
397117,1.183594,9.328125,4.179687,0.275391,-0.054687,-0.101563,0.823425,0.537476,0.041687,0.177002,down
397122,1.144531,9.328125,4.140625,0.230469,-0.017578,-0.101563,0.823425,0.537476,0.041687,0.177002,down
397128,1.070313,9.332031,4.179687,0.212891,-0.019531,-0.107422,0.822693,0.538818,0.042297,0.17627,down
397133,1.03125,9.371094,4.253906,0.212891,-0.019531,-0.107422,0.822449,0.539246,0.04248,0.176025,down
397138,1.070313,9.367188,4.292969,0.255859,-0.048828,-0.113281,0.822449,0.539246,0.04248,0.176025,down
397143,1.03125,9.410156,4.253906,0.255859,-0.048828,-0.113281,0.822144,0.539734,0.042664,0.175781,down
397148,1.070313,9.40625,4.292969,0.279297,-0.060547,-0.117188,0.822144,0.539734,0.042664,0.175781,down
397153,1.070313,9.40625,4.292969,0.279297,-0.060547,-0.117188,0.821167,0.541565,0.043152,0.174683,down
397158,1.109375,9.449219,4.179687,0.279297,-0.060547,-0.117188,0.821167,0.541565,0.043152,0.174683,down
397163,1.109375,9.367188,4.140625,0.292969,-0.134766,-0.123047,0.821167,0.541565,0.043152,0.174683,down
397168,1.144531,9.328125,4.179687,0.292969,-0.134766,-0.123047,0.820496,0.542908,0.043274,0.173828,down
397173,1.144531,9.292969,4.101562,0.230469,-0.140625,-0.132812,0.820129,0.543518,0.043335,0.173401,down
397178,1.222656,9.289063,4.0625,0.230469,-0.140625,-0.132812,0.819885,0.544067,0.043335,0.172913,down
397183,1.222656,9.25,4.101562,0.164062,-0.125,-0.132812,0.819641,0.544556,0.043335,0.172485,down
397189,1.261719,9.289063,4.0625,0.164062,-0.125,-0.132812,0.819336,0.545288,0.043335,0.171631,down
397194,1.261719,9.25,4.027344,0.111328,-0.087891,-0.146484,0.819214,0.545593,0.043457,0.171204,down
397200,1.183594,9.253906,3.988281,0.111328,-0.087891,-0.146484,0.819153,0.545837,0.043518,0.170776,down
397205,1.109375,9.253906,4.027344,0.111328,-0.087891,-0.146484,0.819092,0.546021,0.043701,0.17041,down
397210,1.109375,9.292969,4.0625,0.111328,-0.087891,-0.146484,0.81897,0.546265,0.043884,0.169983,down
397216,1.070313,9.328125,3.988281,0.142578,-0.019531,-0.173828,0.81897,0.546265,0.043884,0.169983,down
397221,0.992187,9.332031,3.988281,0.146484,0.001953,-0.179687,0.81897,0.546265,0.043884,0.169983,down
397227,0.917969,9.25,4.0625,0.146484,0.001953,-0.179687,0.81897,0.546265,0.043884,0.169983,down
397232,0.878906,9.289063,4.101562,0.167969,-0.023437,-0.164062,0.81897,0.546265,0.043884,0.169983,down
397237,0.839844,9.289063,4.101562,0.171875,-0.029297,-0.150391,0.81897,0.546265,0.043884,0.169983,down
397243,0.800781,9.292969,4.0625,0.171875,-0.037109,-0.134766,0.818115,0.548096,0.045532,0.167847,down
397249,0.761719,9.292969,3.949219,0.164062,-0.070312,-0.113281,0.81781,0.548828,0.045715,0.167175,down
397254,0.839844,9.289063,3.988281,0.140625,-0.130859,-0.0625,0.817627,0.549133,0.045654,0.16687,down
397259,0.878906,9.328125,3.988281,0.130859,-0.134766,-0.048828,0.817627,0.549133,0.045654,0.16687,down
397264,0.917969,9.371094,3.796875,0.130859,-0.134766,-0.048828,0.817322,0.549744,0.04541,0.166321,down
397269,0.953125,9.328125,3.796875,0.140625,-0.154297,-0.029297,0.817322,0.549744,0.04541,0.166321,down
397274,1.03125,9.328125,3.796875,0.140625,-0.154297,-0.029297,0.816956,0.550476,0.045044,0.165771,down
397279,1.109375,9.332031,3.71875,0.140625,-0.154297,-0.029297,0.816833,0.550781,0.044861,0.165588,down
397284,1.109375,9.289063,3.605469,0.140625,-0.154297,-0.029297,0.81665,0.551086,0.044617,0.165344,down
397289,1.144531,9.25,3.605469,0.09375,-0.128906,-0.029297,0.816528,0.551392,0.044434,0.1651,down
397294,1.222656,9.214844,3.679688,0.09375,-0.128906,-0.029297,0.816467,0.551636,0.04425,0.164856,down
397299,1.261719,9.171875,3.679688,0.09375,-0.128906,-0.029297,0.816406,0.551758,0.044128,0.164734,down
397304,1.300781,9.136719,3.644531,0.09375,-0.128906,-0.029297,0.816406,0.551758,0.044128,0.164734,down
397309,1.261719,9.09375,3.644531,0.011719,-0.076172,-0.005859,0.816345,0.55188,0.043884,0.164551,down
397314,1.300781,9.132813,3.679688,0.011719,-0.076172,-0.005859,0.816406,0.55188,0.043762,0.16449,down
397319,1.261719,9.058594,3.71875,0.011719,-0.076172,-0.005859,0.816406,0.551819,0.04364,0.164429,down
397324,1.261719,9.058594,3.757813,-0.005859,-0.035156,0.005859,0.816406,0.551819,0.04364,0.164429,down
397329,1.261719,9.058594,3.757813,-0.005859,-0.035156,0.005859,0.816406,0.551819,0.043579,0.164429,down
397335,1.261719,9.058594,3.835938,-0.005859,-0.035156,0.005859,0.816345,0.551941,0.043457,0.164429,down
397341,1.222656,9.132813,3.835938,0.070312,-0.023437,0.005859,0.816284,0.552063,0.043457,0.164429,down
397346,1.261719,9.175781,3.835938,0.089844,-0.033203,0.007813,0.816284,0.552063,0.043457,0.164429,down
397351,1.261719,9.171875,3.949219,0.089844,-0.033203,0.007813,0.81604,0.552429,0.043457,0.164429,down
397357,1.222656,9.175781,4.027344,0.103516,-0.044922,0.003906,0.81604,0.552429,0.043457,0.164429,down
397362,1.261719,9.175781,3.988281,0.101563,-0.044922,-0.003906,0.81604,0.552429,0.043457,0.164429,down
397367,1.222656,9.175781,3.910156,0.103516,-0.033203,-0.009766,0.81604,0.552429,0.043457,0.164429,down
397372,1.261719,9.175781,3.871094,0.097656,-0.033203,-0.009766,0.81604,0.552429,0.043457,0.164429,down
397377,1.300781,9.214844,3.910156,0.089844,-0.048828,-0.011719,0.81604,0.552429,0.043457,0.164429,down
397383,1.300781,9.171875,3.910156,0.060547,-0.060547,-0.023437,0.81604,0.552429,0.043457,0.164429,down
397389,1.339844,9.132813,3.871094,0.044922,-0.060547,-0.021484,0.815125,0.553894,0.043274,0.16394,down
397394,1.300781,9.097656,3.910156,0.044922,-0.060547,-0.021484,0.815063,0.554016,0.043213,0.163818,down
397399,1.339844,9.09375,3.871094,0.060547,-0.060547,-0.023437,0.815063,0.554016,0.043213,0.163818,down
397404,1.261719,9.058594,3.835938,0.060547,-0.060547,-0.023437,0.81488,0.554443,0.043091,0.163452,down
397409,1.339844,9.09375,3.871094,0.085937,-0.068359,-0.035156,0.81488,0.554443,0.043091,0.163452,down
397414,1.300781,9.097656,3.871094,0.085937,-0.068359,-0.035156,0.814758,0.554626,0.043091,0.16333,down
397419,1.339844,9.097656,3.796875,0.101563,-0.087891,-0.048828,0.814758,0.554626,0.043091,0.16333,down
397424,1.300781,9.097656,3.757813,0.101563,-0.087891,-0.048828,0.814453,0.555298,0.042908,0.162781,down
397429,1.300781,9.09375,3.796875,0.101563,-0.087891,-0.048828,0.814453,0.555298,0.042908,0.162781,down
397434,1.339844,9.132813,3.757813,0.154297,-0.101563,-0.064453,0.814453,0.555298,0.042908,0.162781,down
397439,1.300781,9.136719,3.757813,0.154297,-0.101563,-0.064453,0.813904,0.556274,0.042786,0.161987,down
397444,1.300781,9.175781,3.679688,0.154297,-0.101563,-0.064453,0.813721,0.556641,0.042847,0.161743,down
397449,1.300781,9.210938,3.679688,0.154297,-0.101563,-0.064453,0.813721,0.556641,0.042847,0.161743,down
397454,1.339844,9.214844,3.679688,0.166016,-0.078125,-0.080078,0.813721,0.556641,0.042847,0.161743,down
397459,1.339844,9.171875,3.679688,0.166016,-0.078125,-0.080078,0.81311,0.557739,0.042969,0.16095,down
397464,1.339844,9.132813,3.71875,0.166016,-0.078125,-0.080078,0.812927,0.558105,0.043091,0.160706,down
397469,1.339844,9.136719,3.605469,0.166016,-0.078125,-0.080078,0.812927,0.558105,0.043091,0.160706,down
397474,1.339844,9.097656,3.566406,0.246094,-0.005859,-0.107422,0.812927,0.558105,0.043091,0.160706,down
397479,1.339844,9.054688,3.605469,0.246094,-0.005859,-0.107422,0.812012,0.55957,0.043762,0.160034,down
397484,1.339844,9.054688,3.605469,0.246094,-0.005859,-0.107422,0.812012,0.55957,0.043762,0.160034,down
397489,1.300781,9.058594,3.566406,0.355469,0.033203,-0.126953,0.811096,0.560913,0.044495,0.159607,down
397494,1.300781,9.097656,3.488281,0.449219,0.046875,-0.128906,0.811096,0.560913,0.044495,0.159607,down
397499,1.300781,9.136719,3.453125,0.449219,0.046875,-0.128906,0.809937,0.562683,0.045471,0.15918,down
397504,1.339844,9.132813,3.375,0.449219,0.046875,-0.128906,0.809937,0.562683,0.045471,0.15918,down
397509,1.339844,9.171875,3.296875,0.544922,0.064453,-0.154297,0.808472,0.564819,0.046692,0.15863,down
397515,1.300781,9.214844,3.257813,0.628906,0.099609,-0.179687,0.807678,0.565918,0.047363,0.158386,down
397520,1.222656,9.289063,3.257813,0.662109,0.105469,-0.197266,0.806763,0.567322,0.048157,0.158081,down
397526,1.261719,9.367188,3.257813,0.662109,0.105469,-0.197266,0.805908,0.568481,0.048889,0.157776,down
397531,1.183594,9.332031,3.183594,0.662109,0.105469,-0.197266,0.804932,0.569885,0.049805,0.157532,down
397537,1.144531,9.445313,3.144531,0.662109,0.105469,-0.197266,0.804932,0.569885,0.049805,0.157532,down
397542,1.144531,9.515625,3.144531,0.742187,0.177734,-0.191406,0.802979,0.572632,0.051636,0.157043,down
397548,1.109375,9.554688,3.144531,0.75,0.185547,-0.181641,0.802979,0.572632,0.051636,0.157043,down
397553,1.03125,9.558594,3.105469,0.75,0.185547,-0.181641,0.802979,0.572632,0.051636,0.157043,down
397559,1.03125,9.59375,3.105469,0.705078,0.181641,-0.138672,0.802979,0.572632,0.051636,0.157043,down
397564,1.03125,9.632813,3.105469,0.65625,0.173828,-0.089844,0.802979,0.572632,0.051636,0.157043,down
397570,0.953125,9.753906,2.992188,0.65625,0.173828,-0.089844,0.796997,0.580566,0.056763,0.156555,down
397575,0.953125,9.714844,2.992188,0.617187,0.130859,-0.058594,0.795959,0.581909,0.057495,0.156555,down
397581,0.992187,9.792969,2.992188,0.617187,0.130859,-0.058594,0.795166,0.582947,0.057983,0.156555,down
397586,0.992187,9.792969,2.992188,0.617187,0.130859,-0.058594,0.79425,0.584106,0.058533,0.156555,down
397592,1.03125,9.753906,2.953125,0.617187,0.130859,-0.058594,0.79425,0.584106,0.058533,0.156555,down
397597,1.03125,9.753906,2.914063,0.492187,0.056641,-0.019531,0.79425,0.584106,0.058533,0.156555,down
397602,1.03125,9.753906,2.914063,0.447266,0.044922,-0.007813,0.792114,0.586975,0.059692,0.156616,down
397607,1.144531,9.753906,2.875,0.447266,0.044922,-0.007813,0.792114,0.586975,0.059692,0.156616,down
397612,1.109375,9.671875,2.875,0.373047,0.037109,0.007813,0.790833,0.588562,0.060181,0.156616,down
397617,1.109375,9.671875,2.875,0.373047,0.037109,0.007813,0.790833,0.588562,0.060181,0.156616,down
397622,1.183594,9.597656,2.800781,0.318359,0.025391,0.017578,0.789856,0.589783,0.060486,0.156677,down
397627,1.261719,9.476563,2.800781,0.214844,0.013672,0.029297,0.789856,0.589783,0.060486,0.156677,down
397632,1.222656,9.519531,2.800781,0.167969,0.015625,0.039063,0.789856,0.589783,0.060486,0.156677,down
397637,1.222656,9.476563,2.800781,0.140625,0.005859,0.042969,0.789856,0.589783,0.060486,0.156677,down
397642,1.300781,9.476563,2.761719,0.140625,0.005859,0.042969,0.788757,0.591248,0.06073,0.157043,down
397647,1.300781,9.449219,2.761719,0.087891,0.019531,0.039063,0.788757,0.591248,0.06073,0.157043,down
397653,1.339844,9.445313,2.761719,0.072266,0.021484,0.029297,0.788757,0.591248,0.06073,0.157043,down
397658,1.339844,9.445313,2.761719,0.072266,0.021484,0.029297,0.788269,0.591736,0.060852,0.15741,down
397664,1.414063,9.371094,2.800781,0.058594,0.070312,0.041016,0.788269,0.591736,0.060852,0.15741,down
397669,1.414063,9.371094,2.800781,0.058594,0.070312,0.041016,0.788025,0.591919,0.061035,0.157715,down
397674,1.453125,9.328125,2.761719,0.052734,0.101563,0.044922,0.788025,0.591919,0.061035,0.157715,down
397679,1.492188,9.328125,2.761719,0.052734,0.101563,0.044922,0.787781,0.592102,0.061401,0.158264,down
397685,1.53125,9.328125,2.761719,0.072266,0.191406,0.03125,0.787781,0.592102,0.061401,0.158264,down
397690,1.566406,9.253906,2.761719,0.072266,0.191406,0.03125,0.787354,0.592285,0.062439,0.159302,down
397696,1.683594,9.25,2.761719,0.072266,0.191406,0.03125,0.78717,0.592346,0.062927,0.159668,down
397701,1.683594,9.25,2.761719,0.107422,0.28125,0.013672,0.786926,0.592468,0.063538,0.160156,down
397706,1.683594,9.25,2.761719,0.107422,0.28125,0.013672,0.786743,0.59259,0.064087,0.160583,down
397711,1.683594,9.25,2.761719,0.107422,0.28125,0.013672,0.786499,0.592712,0.06488,0.161133,down
397716,1.683594,9.367188,2.761719,0.107422,0.28125,0.013672,0.786499,0.592712,0.06488,0.161133,down
397721,1.644531,9.410156,2.800781,0.097656,0.392578,0.023437,0.786499,0.592712,0.06488,0.161133,down
397728,1.605469,9.449219,2.800781,0.078125,0.419922,0.013672,0.786499,0.592712,0.06488,0.161133,down
397733,1.566406,9.40625,2.800781,0.078125,0.419922,0.013672,0.786499,0.592712,0.06488,0.161133,down
397739,1.453125,9.480469,2.800781,0.021484,0.472656,0.013672,0.786499,0.592712,0.06488,0.161133,down
397744,1.414063,9.476563,2.761719,-0.042969,0.505859,0.013672,0.786499,0.592712,0.06488,0.161133,down
397749,1.339844,9.476563,2.800781,-0.042969,0.505859,0.013672,0.785278,0.592224,0.070923,0.165955,down
397754,1.375,9.445313,2.800781,-0.042969,0.505859,0.013672,0.785278,0.591919,0.071899,0.166809,down
397760,1.339844,9.445313,2.761719,-0.115234,0.515625,0.029297,0.785278,0.591919,0.071899,0.166809,down
397765,1.222656,9.449219,2.800781,-0.142578,0.509766,0.035156,0.785278,0.591919,0.071899,0.166809,down
397771,1.261719,9.410156,2.839844,-0.142578,0.509766,0.035156,0.785645,0.589966,0.0755,0.170227,down
397776,1.183594,9.410156,2.800781,-0.201172,0.507812,0.029297,0.785828,0.589417,0.076416,0.171082,down
