timestamp,ax,ay,az,gx,gy,gz,qw,qx,qy,qz,label
85937,6.652344,4.65625,4.972656,-0.173828,0.123047,-0.384766,0.238403,0.481018,0.156189,0.829102,down
85942,6.613281,4.617187,4.972656,-0.185547,0.126953,-0.398438,0.244446,0.477051,0.158997,0.829102,down
85947,6.574219,4.582031,4.972656,-0.185547,0.126953,-0.398438,0.245483,0.476379,0.159302,0.829102,down
85953,6.5,4.542969,5.050781,-0.185547,0.126953,-0.398438,0.24646,0.475708,0.159607,0.829163,down
85959,6.5,4.617187,5.089844,-0.177734,0.175781,-0.451172,0.24646,0.475708,0.159607,0.829163,down
85964,6.421875,4.65625,5.164062,-0.183594,0.191406,-0.472656,0.24646,0.475708,0.159607,0.829163,down
85970,6.347656,4.65625,5.394531,-0.183594,0.191406,-0.472656,0.24646,0.475708,0.159607,0.829163,down
85976,6.308594,4.695312,5.433594,-0.080078,0.224609,-0.492187,0.24646,0.475708,0.159607,0.829163,down
85981,6.304687,4.734375,5.585937,-0.080078,0.224609,-0.492187,0.251831,0.471924,0.161865,0.829285,down
85986,6.386719,4.734375,5.738281,-0.076172,0.212891,-0.484375,0.253784,0.470398,0.163147,0.829285,down
85991,6.382812,4.773437,5.816406,-0.052734,0.185547,-0.460937,0.253784,0.470398,0.163147,0.829285,down
85996,6.386719,4.695312,5.816406,-0.052734,0.185547,-0.460937,0.255737,0.468994,0.164551,0.829224,down
86001,6.425781,4.695312,5.777344,-0.052734,0.185547,-0.460937,0.255737,0.468994,0.164551,0.829224,down
86006,6.421875,4.773437,5.738281,-0.048828,0.142578,-0.445312,0.257446,0.467896,0.16571,0.829041,down
86011,6.421875,4.773437,5.703125,-0.048828,0.142578,-0.445312,0.257446,0.467896,0.16571,0.829041,down
86016,6.421875,4.808594,5.777344,-0.082031,0.091797,-0.457031,0.257446,0.467896,0.16571,0.829041,down
86021,6.34375,4.886719,5.738281,-0.082031,0.091797,-0.457031,0.260376,0.466431,0.167297,0.828674,down
86026,6.386719,4.886719,5.816406,-0.082031,0.091797,-0.457031,0.260376,0.466431,0.167297,0.828674,down
86031,6.34375,4.964844,5.738281,-0.089844,0.056641,-0.478516,0.262512,0.465515,0.168274,0.828308,down
86036,6.265625,5.0,5.738281,-0.089844,0.056641,-0.478516,0.263672,0.465088,0.168762,0.828064,down
86041,6.191406,5.039062,5.664062,-0.089844,0.056641,-0.478516,0.264648,0.464783,0.169128,0.827881,down
86046,6.191406,5.039062,5.625,-0.089844,0.056641,-0.478516,0.264648,0.464783,0.169128,0.827881,down
86051,6.191406,5.078125,5.585937,-0.128906,-0.007813,-0.46875,0.266907,0.46405,0.169861,0.827393,down
86056,6.308594,5.230469,5.585937,-0.128906,-0.007813,-0.46875,0.268066,0.463745,0.170166,0.827148,down
86061,6.425781,5.230469,5.585937,-0.220703,-0.058594,-0.464844,0.268066,0.463745,0.170166,0.827148,down
86066,6.574219,5.230469,5.511719,-0.220703,-0.058594,-0.464844,0.269226,0.463379,0.170349,0.826904,down
86071,6.609375,5.230469,5.546875,-0.257813,-0.078125,-0.470703,0.271912,0.462769,0.170532,0.826355,down
86076,6.730469,5.191406,5.546875,-0.257813,-0.078125,-0.470703,0.273132,0.462463,0.170471,0.826111,down
86081,6.804687,5.15625,5.394531,-0.257813,-0.078125,-0.470703,0.273132,0.462463,0.170471,0.826111,down
86086,6.804687,5.117187,5.28125,-0.347656,-0.074219,-0.482422,0.273132,0.462463,0.170471,0.826111,down
86091,6.804687,5.15625,5.203125,-0.347656,-0.074219,-0.482422,0.276001,0.461731,0.170288,0.825623,down
86097,6.804687,5.15625,5.203125,-0.335938,-0.080078,-0.46875,0.278809,0.460999,0.170105,0.825134,down
86102,6.726562,5.078125,5.128906,-0.322266,-0.080078,-0.464844,0.278809,0.460999,0.170105,0.825134,down
86107,6.726562,5.078125,5.128906,-0.328125,-0.068359,-0.457031,0.281494,0.460327,0.169861,0.824585,down
86113,6.574219,4.847656,4.972656,-0.328125,-0.068359,-0.457031,0.282837,0.460022,0.1698,0.824341,down
86118,6.613281,4.847656,4.933594,-0.25,-0.029297,-0.458984,0.282837,0.460022,0.1698,0.824341,down
86124,6.5,4.886719,4.898437,-0.201172,-0.003906,-0.457031,0.282837,0.460022,0.1698,0.824341,down
86129,6.425781,5.0,4.820312,-0.144531,0.023437,-0.445312,0.282837,0.460022,0.1698,0.824341,down
86135,6.347656,5.117187,4.859375,-0.101563,0.052734,-0.4375,0.282837,0.460022,0.1698,0.824341,down
86140,6.304687,5.15625,4.859375,-0.070312,0.074219,-0.423828,0.282837,0.460022,0.1698,0.824341,down
86146,6.269531,5.308594,4.972656,-0.042969,0.097656,-0.40625,0.282837,0.460022,0.1698,0.824341,down
86151,6.308594,5.386719,5.050781,-0.042969,0.097656,-0.40625,0.290161,0.457092,0.171997,0.822998,down
86156,6.269531,5.386719,5.050781,-0.033203,0.123047,-0.392578,0.290161,0.457092,0.171997,0.822998,down
86161,6.230469,5.421875,5.128906,-0.087891,0.152344,-0.402344,0.290161,0.457092,0.171997,0.822998,down
86166,6.191406,5.539062,5.164062,-0.087891,0.152344,-0.402344,0.292603,0.455505,0.173462,0.822693,down
86172,6.039062,5.578125,5.320312,-0.087891,0.152344,-0.402344,0.294556,0.454163,0.174255,0.822571,down
86177,6.003906,5.539062,5.394531,-0.238281,0.158203,-0.433594,0.295593,0.45343,0.174438,0.822571,down
86182,5.921875,5.578125,5.394531,-0.291016,0.150391,-0.439453,0.296753,0.452698,0.174622,0.82251,down
86188,5.621094,5.347656,5.546875,-0.291016,0.150391,-0.439453,0.297791,0.451965,0.174622,0.82251,down
86194,5.582031,5.230469,5.589844,-0.416016,0.109375,-0.460937,0.297791,0.451965,0.174622,0.82251,down
86199,5.503906,5.15625,5.625,-0.443359,0.09375,-0.466797,0.300537,0.450378,0.174255,0.822449,down
86204,5.351562,4.886719,5.667969,-0.443359,0.09375,-0.466797,0.302002,0.449585,0.17395,0.822449,down
86210,5.273437,4.886719,5.625,-0.439453,0.064453,-0.466797,0.302002,0.449585,0.17395,0.822449,down
86215,5.195312,4.925781,5.703125,-0.390625,0.0625,-0.460937,0.302002,0.449585,0.17395,0.822449,down
86220,5.273437,4.925781,5.734375,-0.390625,0.0625,-0.460937,0.306274,0.447449,0.173279,0.822144,down
86226,5.464844,5.0,5.777344,-0.181641,0.085937,-0.466797,0.306274,0.447449,0.173279,0.822144,down
86231,5.464844,5.0,5.777344,-0.181641,0.085937,-0.466797,0.308594,0.44635,0.173462,0.821838,down
86236,5.542969,5.117187,5.96875,-0.113281,0.089844,-0.455078,0.308594,0.44635,0.173462,0.821838,down
86241,5.617187,5.15625,6.011719,-0.113281,0.089844,-0.455078,0.31073,0.445312,0.174255,0.821472,down
86247,5.617187,5.230469,5.894531,0.054687,0.070312,-0.449219,0.311584,0.444885,0.174866,0.821228,down
86252,5.617187,5.269531,5.890625,0.054687,0.070312,-0.449219,0.313354,0.444214,0.17627,0.820618,down
86258,5.617187,5.347656,5.851562,0.054687,0.070312,-0.449219,0.314148,0.44397,0.176758,0.820312,down
86263,5.617187,5.347656,5.851562,-0.044922,-0.03125,-0.447266,0.315186,0.443726,0.177307,0.819946,down
86268,5.617187,5.308594,5.773437,-0.044922,-0.03125,-0.447266,0.316162,0.443542,0.177612,0.819641,down
86274,5.65625,5.191406,5.777344,-0.191406,-0.126953,-0.445312,0.316162,0.443542,0.177612,0.819641,down
86280,5.734375,5.15625,5.734375,-0.253906,-0.164062,-0.451172,0.316162,0.443542,0.177612,0.819641,down
86285,5.738281,5.15625,5.625,-0.302734,-0.191406,-0.453125,0.316162,0.443542,0.177612,0.819641,down
86290,5.773437,5.078125,5.472656,-0.333984,-0.203125,-0.455078,0.316162,0.443542,0.177612,0.819641,down
86295,5.773437,4.964844,5.433594,-0.355469,-0.214844,-0.46875,0.316162,0.443542,0.177612,0.819641,down
86300,5.773437,4.886719,5.433594,-0.361328,-0.214844,-0.472656,0.316162,0.443542,0.177612,0.819641,down
86305,5.773437,4.886719,5.394531,-0.34375,-0.210937,-0.472656,0.316162,0.443542,0.177612,0.819641,down
86310,5.777344,5.0,5.433594,-0.291016,-0.212891,-0.478516,0.316162,0.443542,0.177612,0.819641,down
86315,5.695312,5.039062,5.394531,-0.291016,-0.212891,-0.478516,0.316162,0.443542,0.177612,0.819641,down
86320,5.695312,5.039062,5.394531,-0.291016,-0.212891,-0.478516,0.329712,0.442566,0.175781,0.815186,down
86325,5.738281,5.039062,5.433594,-0.164062,-0.205078,-0.478516,0.329712,0.442566,0.175781,0.815186,down
86331,5.738281,5.078125,5.433594,-0.138672,-0.201172,-0.480469,0.332214,0.442566,0.175903,0.814148,down
86336,5.777344,5.078125,5.433594,-0.138672,-0.201172,-0.480469,0.333435,0.442627,0.176086,0.813538,down
86341,5.773437,5.078125,5.320312,-0.050781,-0.195312,-0.482422,0.333435,0.442627,0.176086,0.813538,down
86346,5.808594,5.039062,5.355469,-0.050781,-0.195312,-0.482422,0.335754,0.442749,0.176636,0.812439,down
86351,5.847656,4.964844,5.320312,-0.050781,-0.195312,-0.482422,0.336853,0.442871,0.176941,0.811829,down
86356,5.925781,5.0,5.320312,-0.050781,-0.195312,-0.482422,0.337952,0.442993,0.177185,0.811218,down
86362,5.964844,5.0,5.28125,-0.09375,-0.222656,-0.464844,0.337952,0.442993,0.177185,0.811218,down
86367,5.921875,5.0,5.242187,-0.09375,-0.222656,-0.464844,0.341309,0.44342,0.177795,0.809509,down
86372,5.921875,5.039062,5.203125,-0.072266,-0.224609,-0.462891,0.341309,0.44342,0.177795,0.809509,down
86377,5.921875,5.078125,5.242187,-0.072266,-0.224609,-0.462891,0.343628,0.443665,0.178223,0.808289,down
86382,5.921875,5.039062,5.242187,-0.072266,-0.224609,-0.462891,0.344604,0.443787,0.178467,0.807739,down
86387,5.886719,5.117187,5.242187,-0.072266,-0.224609,-0.462891,0.345825,0.44397,0.178833,0.807007,down
86392,5.886719,5.117187,5.242187,-0.072266,-0.224609,-0.462891,0.345825,0.44397,0.178833,0.807007,down
86397,5.882812,5.117187,5.320312,0.035156,-0.240234,-0.470703,0.345825,0.44397,0.178833,0.807007,down
86402,5.921875,5.15625,5.28125,0.035156,-0.240234,-0.470703,0.348816,0.444641,0.179993,0.805115,down
86408,5.886719,5.308594,5.242187,0.035156,-0.240234,-0.470703,0.349731,0.444946,0.180481,0.804443,down
86413,5.886719,5.308594,5.242187,0.083984,-0.271484,-0.447266,0.350708,0.445251,0.180969,0.803772,down
86418,5.960937,5.308594,5.320312,0.083984,-0.271484,-0.447266,0.351685,0.445679,0.181458,0.802979,down
86423,5.964844,5.308594,5.28125,0.083984,-0.271484,-0.447266,0.352539,0.446045,0.181824,0.802307,down
86428,6.039062,5.308594,5.320312,0.083984,-0.271484,-0.447266,0.353455,0.446411,0.182251,0.801575,down
86434,6.039062,5.347656,5.28125,0.078125,-0.304688,-0.425781,0.35437,0.446899,0.182678,0.800842,down
86440,6.0,5.421875,5.28125,0.078125,-0.304688,-0.425781,0.355225,0.447266,0.183044,0.800171,down
86445,6.0,5.421875,5.242187,0.068359,-0.298828,-0.435547,0.355225,0.447266,0.183044,0.800171,down
86451,5.886719,5.5,5.203125,0.052734,-0.298828,-0.441406,0.355225,0.447266,0.183044,0.800171,down
86456,5.804687,5.539062,5.203125,0.039063,-0.308594,-0.449219,0.358154,0.448486,0.184204,0.797913,down
86461,5.777344,5.460937,5.203125,0.039063,-0.308594,-0.449219,0.35907,0.448914,0.184509,0.79718,down
86466,5.734375,5.421875,5.203125,0.033203,-0.318359,-0.464844,0.35907,0.448914,0.184509,0.79718,down
86472,5.621094,5.308594,5.164062,0.041016,-0.320313,-0.476562,0.35907,0.448914,0.184509,0.79718,down
86477,5.660156,5.308594,5.164062,0.107422,-0.324219,-0.46875,0.362183,0.450134,0.185608,0.794861,down
86482,5.660156,5.308594,5.203125,0.107422,-0.324219,-0.46875,0.364075,0.45105,0.186523,0.793213,down
86487,5.617187,5.347656,5.203125,0.107422,-0.324219,-0.46875,0.364075,0.45105,0.186523,0.793213,down
86492,5.660156,5.347656,5.128906,0.173828,-0.332031,-0.482422,0.364075,0.45105,0.186523,0.793213,down
86497,5.621094,5.386719,5.089844,0.232422,-0.351563,-0.496094,0.365967,0.452148,0.187744,0.791443,down
86502,5.617187,5.421875,5.050781,0.232422,-0.351563,-0.496094,0.367676,0.453369,0.189209,0.789551,down
86507,5.621094,5.5,4.933594,0.232422,-0.351563,-0.496094,0.367676,0.453369,0.189209,0.789551,down
86512,5.582031,5.613281,4.933594,0.253906,-0.386719,-0.523437,0.368652,0.454163,0.190186,0.788452,down
86517,5.503906,5.578125,4.933594,0.253906,-0.386719,-0.523437,0.370483,0.455566,0.191833,0.786377,down
86522,5.464844,5.652344,4.78125,0.253906,-0.386719,-0.523437,0.370483,0.455566,0.191833,0.786377,down
86527,5.351562,5.6875,4.742187,0.261719,-0.398438,-0.576172,0.37146,0.456299,0.192749,0.785278,down
86532,5.273437,5.730469,4.78125,0.261719,-0.398438,-0.576172,0.372314,0.456909,0.193542,0.784302,down
86537,5.195312,5.730469,4.707031,0.179687,-0.40625,-0.603516,0.373535,0.457703,0.194458,0.78302,down
86542,5.082031,5.648437,4.628906,0.179687,-0.40625,-0.603516,0.374634,0.458313,0.19519,0.781982,down
86548,4.929687,5.578125,4.589844,0.179687,-0.40625,-0.603516,0.377014,0.459351,0.19635,0.779907,down
86553,4.96875,5.5,4.550781,0.060547,-0.400391,-0.666016,0.378601,0.459961,0.19696,0.778687,down
86558,5.121094,5.421875,4.589844,0.017578,-0.375,-0.701172,0.380066,0.460327,0.197449,0.777588,down
86563,5.273437,5.421875,4.550781,0.017578,-0.375,-0.701172,0.38147,0.460571,0.197937,0.776672,down
86568,5.3125,5.425781,4.515625,0.017578,-0.375,-0.701172,0.383179,0.460754,0.198547,0.775574,down
86573,5.351562,5.460937,4.515625,-0.03125,-0.208984,-0.869141,0.385071,0.460754,0.19928,0.774414,down
86578,5.3125,5.503906,4.476562,-0.017578,-0.132812,-0.933594,0.387024,0.460571,0.200134,0.773315,down
86584,5.273437,5.578125,4.476562,-0.023437,-0.066406,-1.007813,0.388733,0.460266,0.20105,0.7724,down
86589,5.042969,6.152344,4.359375,-0.023437,-0.066406,-1.007813,0.390747,0.459717,0.202148,0.771423,down
86594,4.929687,6.457031,4.476562,-0.054687,0.064453,-1.142578,0.390747,0.459717,0.202148,0.771423,down
86600,4.890625,6.574219,4.550781,-0.054687,0.064453,-1.142578,0.395447,0.458069,0.204834,0.769287,down
86605,4.851562,6.609375,4.628906,-0.054687,0.064453,-1.142578,0.397644,0.457153,0.205994,0.768433,down
86611,4.738281,6.6875,4.742187,-0.263672,0.166016,-1.271484,0.397644,0.457153,0.205994,0.768433,down
86616,4.699219,6.796875,4.820312,-0.263672,0.166016,-1.271484,0.40332,0.454407,0.208313,0.766418,down
86621,4.660156,6.765625,4.820312,-0.550781,0.169922,-1.308594,0.40332,0.454407,0.208313,0.766418,down
86627,4.660156,6.765625,4.820312,-0.728516,0.15625,-1.341797,0.409363,0.451233,0.209534,0.764771,down
86632,4.621094,6.34375,5.050781,-0.939453,0.125,-1.386719,0.412537,0.449463,0.209656,0.764099,down
86637,4.851562,5.460937,5.242187,-0.939453,0.125,-1.386719,0.416321,0.447388,0.209351,0.763367,down
86642,4.96875,5.230469,5.355469,-1.255859,0.107422,-1.498047,0.420532,0.445129,0.20874,0.762512,down
86648,5.082031,5.0,5.433594,-1.273438,0.191406,-1.642578,0.420532,0.445129,0.20874,0.762512,down
86653,5.273437,4.503906,5.46875,-1.273438,0.191406,-1.642578,0.434021,0.437195,0.20752,0.759888,down
86658,5.351562,4.390625,5.394531,-1.273438,0.191406,-1.642578,0.437866,0.434753,0.207825,0.759033,down
86663,5.351562,4.425781,5.351562,-0.730469,0.529297,-1.958984,0.437866,0.434753,0.207825,0.759033,down
86668,5.351562,4.425781,5.351562,-0.435547,0.693359,-2.066406,0.44635,0.428955,0.21051,0.756592,down
86674,4.96875,5.539062,5.164062,-0.435547,0.693359,-2.066406,0.450134,0.426086,0.213135,0.755249,down
86679,4.699219,6.035156,5.011719,0.216797,1.076172,-2.261719,0.453857,0.423035,0.216797,0.753723,down
86685,4.546875,6.375,4.898437,0.486328,1.244141,-2.318359,0.457092,0.419983,0.22113,0.752197,down
86690,4.394531,6.875,5.011719,0.701172,1.371094,-2.363281,0.457092,0.419983,0.22113,0.752197,down
86697,4.277344,7.300781,5.128906,0.824219,1.451172,-2.390625,0.457092,0.419983,0.22113,0.752197,down
86702,4.164062,7.601562,5.128906,0.865234,1.503906,-2.408203,0.457092,0.419983,0.22113,0.752197,down
86707,4.125,8.222656,5.355469,0.751953,1.541016,-2.429688,0.457092,0.419983,0.22113,0.752197,down
86712,4.085937,8.523438,5.546875,0.751953,1.541016,-2.429688,0.471436,0.403442,0.248962,0.743652,down
86718,4.164062,8.832031,5.664062,0.019531,1.517578,-2.527344,0.471436,0.403442,0.248962,0.743652,down
86723,4.277344,9.144531,5.664062,0.019531,1.517578,-2.527344,0.482178,0.390259,0.263306,0.738831,down
86728,4.355469,9.289063,5.96875,0.019531,1.517578,-2.527344,0.482178,0.390259,0.263306,0.738831,down
86733,4.394531,9.144531,6.121094,-0.574219,1.484375,-2.617188,0.486023,0.385681,0.266541,0.737549,down
86738,4.394531,9.144531,6.121094,-0.822266,1.480469,-2.685547,0.490723,0.380127,0.269714,0.736206,down
86744,4.355469,8.984375,6.507812,-0.822266,1.480469,-2.685547,0.500671,0.368347,0.274292,0.733765,down
86750,4.125,8.910156,6.507812,-0.822266,1.480469,-2.685547,0.506226,0.361633,0.275818,0.732727,down
86757,4.046875,8.949219,6.582031,-1.619141,1.587891,-2.837891,0.506226,0.361633,0.275818,0.732727,down
86762,4.085937,9.027344,6.582031,-1.644531,1.65625,-2.896484,0.506226,0.361633,0.275818,0.732727,down
86767,3.894531,9.289063,6.773437,-1.609375,1.75,-2.955078,0.506226,0.361633,0.275818,0.732727,down
86772,3.78125,9.371094,6.851562,-1.609375,1.75,-2.955078,0.528259,0.332947,0.282715,0.728149,down
86778,3.625,9.597656,6.851562,-1.431641,1.972656,-3.099609,0.528259,0.332947,0.282715,0.728149,down
86783,3.28125,10.136719,7.003906,-1.431641,1.972656,-3.099609,0.544434,0.309692,0.289978,0.723633,down
86788,3.050781,10.132813,7.273437,-1.351563,2.0625,-3.080078,0.550049,0.301086,0.292908,0.721802,down
86793,2.898438,10.09375,7.308594,-1.363281,2.087891,-3.044922,0.554932,0.293213,0.295593,0.720215,down
86798,2.628906,10.136719,7.425781,-1.363281,2.087891,-3.044922,0.554932,0.293213,0.295593,0.720215,down
86803,2.402344,10.136719,7.539062,-1.363281,2.087891,-3.044922,0.559937,0.285034,0.298279,0.718506,down
86808,2.402344,10.136719,7.539062,-1.46875,2.101563,-2.894531,0.564026,0.277954,0.300415,0.717163,down
86813,2.210938,10.171875,7.65625,-1.498047,2.109375,-2.777344,0.564026,0.277954,0.300415,0.717163,down
86818,1.558594,10.328125,8.039063,-1.513672,2.089844,-2.667969,0.572876,0.26178,0.30481,0.714417,down
86823,1.40625,10.4375,8.078125,-1.498047,2.0,-2.482422,0.572876,0.26178,0.30481,0.714417,down
86828,1.289063,10.558594,8.0,-1.498047,2.0,-2.482422,0.584839,0.237488,0.310486,0.710693,down
86833,0.792969,10.597656,8.039063,-1.498047,2.0,-2.482422,0.584839,0.237488,0.310486,0.710693,down
86838,0.5625,10.671875,8.113281,-1.498047,2.0,-2.482422,0.592163,0.222168,0.313538,0.708252,down
86843,0.371094,10.785156,8.191406,-1.498047,2.0,-2.482422,0.592163,0.222168,0.313538,0.708252,down
86848,0.179687,10.902344,8.113281,-1.443359,1.691406,-2.361328,0.592163,0.222168,0.313538,0.708252,down
86853,-0.164062,10.941406,8.078125,-1.443359,1.691406,-2.361328,0.602417,0.201599,0.3172,0.704163,down
86858,-0.320313,10.820313,8.078125,-1.443359,1.691406,-2.361328,0.605835,0.194885,0.318237,0.702637,down
86863,-0.472656,10.710938,8.0,-1.576172,1.611328,-2.431641,0.605835,0.194885,0.318237,0.702637,down
86868,-0.472656,10.59375,7.921875,-1.679688,1.636719,-2.451172,0.609619,0.187561,0.319153,0.700928,down
86873,-0.625,10.136719,7.847656,-1.679688,1.636719,-2.451172,0.616943,0.172791,0.320496,0.697693,down
86878,-0.742187,9.90625,7.960937,-1.679688,1.636719,-2.451172,0.616943,0.172791,0.320496,0.697693,down
86883,-0.894531,9.789063,7.808594,-1.679688,1.636719,-2.451172,0.624329,0.156555,0.321228,0.694641,down
86888,-0.894531,9.789063,7.808594,-1.679688,1.636719,-2.451172,0.624329,0.156555,0.321228,0.694641,down
86893,-0.855469,9.789063,8.269531,-2.380859,1.908203,-2.363281,0.624329,0.156555,0.321228,0.694641,down
86898,-0.855469,9.789063,8.269531,-2.402344,1.972656,-2.304688,0.631104,0.138611,0.320862,0.692505,down
86903,-0.96875,9.871094,8.917969,-2.402344,1.972656,-2.304688,0.636963,0.120544,0.320129,0.690796,down
86908,-1.390625,9.292969,9.074219,-2.402344,1.972656,-2.304688,0.639648,0.111145,0.319519,0.690247,down
86913,-1.582031,9.101563,9.113281,-2.566406,1.931641,-1.734375,0.639648,0.111145,0.319519,0.690247,down
86918,-1.890625,8.871094,9.191406,-2.566406,1.931641,-1.734375,0.64209,0.101318,0.318604,0.68988,down
86923,-2.082031,8.5625,9.152344,-2.533203,1.818359,-1.310547,0.64209,0.101318,0.318604,0.68988,down
86928,-2.539063,7.914062,9.1875,-2.451172,1.75,-1.103516,0.645447,0.084534,0.316589,0.689941,down
86933,-2.539063,7.914062,9.1875,-2.451172,1.75,-1.103516,0.647339,0.069275,0.314209,0.690979,down
86938,-2.925781,7.414062,9.226563,-2.451172,1.75,-1.103516,0.647339,0.069275,0.314209,0.690979,down
86943,-3.039063,6.957031,9.265625,-2.181641,1.542969,-0.740234,0.647339,0.069275,0.314209,0.690979,down
86948,-3.039063,6.957031,9.230469,-1.988281,1.419922,-0.572266,0.648132,0.049622,0.310913,0.69342,down
86953,-3.117188,6.957031,9.109375,-1.988281,1.419922,-0.572266,0.648132,0.049622,0.310913,0.69342,down
86958,-3.191406,6.878906,9.035156,-1.617188,1.230469,-0.269531,0.647461,0.039307,0.309204,0.695496,down
86963,-3.039063,6.957031,8.847656,-1.617188,1.230469,-0.269531,0.647461,0.039307,0.309204,0.695496,down
86968,-3.039063,6.957031,8.847656,-1.246094,1.033203,-0.021484,0.646851,0.035339,0.308655,0.696472,down
86973,-3.152344,6.992187,8.84375,-1.246094,1.033203,-0.021484,0.646118,0.031616,0.308167,0.69751,down
86978,-3.152344,6.992187,8.84375,-0.990234,0.867187,0.173828,0.645264,0.028503,0.307861,0.698608,down
86984,-3.230469,6.992187,8.53125,-0.990234,0.867187,0.173828,0.644348,0.025696,0.307495,0.699768,down
86989,-3.269531,6.992187,8.460938,-1.048828,0.625,0.439453,0.641907,0.020203,0.306152,0.702759,down
86995,-3.34375,6.839844,8.265625,-1.048828,0.625,0.439453,0.640808,0.018127,0.305298,0.704163,down
87000,-3.382813,6.6875,8.109375,-1.048828,0.625,0.439453,0.639465,0.015686,0.303894,0.705994,down
87006,-3.382813,6.6875,8.191406,-1.388672,0.376953,0.65625,0.639465,0.015686,0.303894,0.705994,down
87011,-3.382813,6.609375,8.269531,-1.476563,0.271484,0.720703,0.639465,0.015686,0.303894,0.705994,down
87016,-3.460938,6.535156,8.386719,-1.548828,0.146484,0.798828,0.639465,0.015686,0.303894,0.705994,down
87022,-3.613281,6.152344,8.304688,-1.548828,0.146484,0.798828,0.639465,0.015686,0.303894,0.705994,down
87027,-3.613281,5.921875,8.1875,-1.712891,-0.121094,0.964844,0.639465,0.015686,0.303894,0.705994,down
87033,-3.613281,5.386719,7.964844,-1.792969,-0.263672,1.076172,0.639465,0.015686,0.303894,0.705994,down
87038,-3.613281,5.039062,7.960937,-1.792969,-0.263672,1.076172,0.626404,0.000183,0.280151,0.727417,down
87043,-3.535156,4.773437,7.960937,-1.792969,-0.263672,1.076172,0.626404,0.000183,0.280151,0.727417,down
87048,-3.382813,4.582031,7.921875,-1.716797,-0.746094,1.429688,0.626404,0.000183,0.280151,0.727417,down
87054,-3.191406,4.195312,7.769531,-1.716797,-0.746094,1.429688,0.6203,-0.001282,0.267639,0.737305,down
87059,-3.117188,4.003906,7.660156,-1.527344,-0.923828,1.5625,0.617798,-0.001038,0.262939,0.741089,down
87065,-3.078125,3.8125,7.421875,-1.527344,-0.923828,1.5625,0.615662,-0.000549,0.259033,0.744202,down
87072,-2.886719,3.851563,7.34375,-1.320313,-1.050781,1.660156,0.615662,-0.000549,0.259033,0.744202,down
87077,-2.769531,4.003906,7.347656,-1.320313,-1.050781,1.660156,0.615662,-0.000549,0.259033,0.744202,down
87083,-2.769531,3.96875,7.277344,-1.097656,-1.142578,1.775391,0.615662,-0.000549,0.259033,0.744202,down
87088,-2.769531,3.96875,7.277344,-1.025391,-1.181641,1.847656,0.605469,0.004578,0.243286,0.757751,down
87093,-2.960938,4.042969,7.195312,-1.025391,-1.181641,1.847656,0.605469,0.004578,0.243286,0.757751,down
87098,-3.152344,3.738281,7.121094,-0.974609,-1.224609,1.90625,0.599609,0.008545,0.235718,0.764709,down
87104,-3.152344,3.621094,7.160156,-0.953125,-1.287109,2.056641,0.593323,0.013,0.228149,0.771851,down
87109,-3.039063,3.546875,7.199219,-0.947266,-1.3125,2.238281,0.589722,0.015442,0.224243,0.775696,down
87114,-3.039063,3.546875,7.234375,-0.921875,-1.328125,2.3125,0.585632,0.018188,0.219849,0.780029,down
87119,-2.925781,3.429688,7.308594,-0.921875,-1.328125,2.3125,0.582214,0.020508,0.216431,0.783386,down
87124,-2.808594,3.355469,7.460937,-0.849609,-1.367188,2.494141,0.577942,0.023437,0.212341,0.787659,down
87129,-2.769531,3.238281,7.621094,-0.849609,-1.367188,2.494141,0.574036,0.026001,0.208923,0.79126,down
87134,-2.734375,3.164063,7.660156,-0.849609,-1.367188,2.494141,0.569702,0.028992,0.2052,0.795288,down
87139,-2.578125,3.164063,7.695312,-0.732422,-1.443359,2.744141,0.564697,0.03241,0.201172,0.799744,down
87145,-2.539063,3.164063,8.039063,-0.732422,-1.443359,2.744141,0.560303,0.035522,0.197815,0.803528,down
87151,-2.578125,3.085938,8.078125,-0.480469,-1.541016,2.916016,0.560303,0.035522,0.197815,0.803528,down
87156,-2.503906,3.046875,8.152344,-0.398438,-1.605469,3.011719,0.550049,0.043274,0.190918,0.811829,down
87161,-2.539063,2.550781,7.964844,-0.316406,-1.662109,3.101563,0.550049,0.043274,0.190918,0.811829,down
87166,-2.539063,2.550781,7.964844,-0.265625,-1.748047,3.197266,0.539001,0.052246,0.184265,0.820251,down
87171,-2.578125,2.511719,7.808594,-0.234375,-1.837891,3.304688,0.533264,0.057007,0.180908,0.824402,down
87176,-2.578125,2.511719,7.808594,-0.212891,-1.921875,3.404297,0.533264,0.057007,0.180908,0.824402,down
87181,-2.769531,2.089844,7.5,-0.212891,-1.921875,3.404297,0.527344,0.062073,0.17749,0.828613,down
87186,-2.808594,1.898438,7.464844,-0.179687,-2.003906,3.486328,0.514587,0.073059,0.170288,0.837158,down
87192,-2.695313,1.59375,7.621094,-0.179687,-2.003906,3.486328,0.514587,0.073059,0.170288,0.837158,down
87197,-2.503906,1.59375,7.730469,0.101563,-2.177734,3.6875,0.514587,0.073059,0.170288,0.837158,down
87202,-2.234375,1.746094,7.925781,0.101563,-2.177734,3.6875,0.514587,0.073059,0.170288,0.837158,down
87207,-2.195313,1.515625,7.882812,0.101563,-2.177734,3.6875,0.486816,0.098267,0.157288,0.853577,down
87212,-2.082031,1.285156,7.765625,0.728516,-2.304688,3.759766,0.486816,0.098267,0.157288,0.853577,down
87217,-1.851563,1.707031,7.464844,0.728516,-2.304688,3.759766,0.472229,0.112854,0.152771,0.860779,down
87223,-1.8125,1.667969,7.347656,1.060547,-2.339844,3.849609,0.472229,0.112854,0.152771,0.860779,down
87228,-1.699219,1.707031,7.117187,1.21875,-2.34375,3.931641,0.472229,0.112854,0.152771,0.860779,down
87233,-1.621094,2.128906,7.042969,1.21875,-2.34375,3.931641,0.448914,0.13623,0.148132,0.870605,down
87238,-1.621094,2.167969,7.042969,1.21875,-2.34375,3.931641,0.440369,0.144653,0.14679,0.87384,down
87244,-1.546875,2.398438,6.964844,1.322266,-2.40625,3.972656,0.440369,0.144653,0.14679,0.87384,down
87249,-1.546875,2.398438,6.964844,1.326172,-2.445313,3.988281,0.423767,0.161072,0.144226,0.879578,down
87254,-1.46875,1.59375,6.777344,1.302734,-2.462891,4.0,0.415771,0.168945,0.142944,0.882141,down
87259,-1.46875,1.59375,6.777344,1.273438,-2.474609,4.005859,0.40741,0.177063,0.141479,0.884644,down
87264,-1.125,1.054688,7.0,1.273438,-2.474609,4.005859,0.398621,0.185425,0.139954,0.887207,down
87269,-0.816406,1.171875,6.851562,1.351563,-2.25,3.996094,0.390076,0.19342,0.138489,0.889526,down
87275,-0.816406,1.9375,6.890625,1.351563,-2.25,3.996094,0.372437,0.208923,0.136108,0.893921,down
87280,-0.664062,2.28125,7.15625,1.603516,-1.996094,4.001953,0.363586,0.216248,0.135559,0.895935,down
87285,-0.472656,2.128906,7.5,1.634766,-1.919922,4.050781,0.354553,0.223389,0.135193,0.897827,down
87291,-0.28125,1.363281,7.304687,1.634766,-1.919922,4.050781,0.34491,0.230591,0.134888,0.899841,down
87297,-0.28125,1.246094,7.160156,1.720703,-1.691406,4.140625,0.34491,0.230591,0.134888,0.899841,down
87303,-0.164062,1.09375,7.160156,1.585938,-1.632813,4.183594,0.34491,0.230591,0.134888,0.899841,down
87308,-0.164062,1.09375,7.160156,1.601563,-1.605469,4.222656,0.315674,0.250305,0.134338,0.905334,down
87313,-0.164062,0.902344,7.621094,1.601563,-1.605469,4.222656,0.315674,0.250305,0.134338,0.905334,down
87318,-0.089844,0.632812,7.699219,1.792969,-1.599609,4.207031,0.315674,0.250305,0.134338,0.905334,down
87323,0.21875,-0.167969,8.152344,2.029297,-1.792969,4.130859,0.315674,0.250305,0.134338,0.905334,down
87328,0.484375,-0.398438,8.308594,2.208984,-1.947266,4.070312,0.315674,0.250305,0.134338,0.905334,down
87333,0.675781,-0.628906,8.148438,2.208984,-1.947266,4.070312,0.265381,0.284851,0.136414,0.91095,down
87339,0.675781,-0.476562,7.84375,2.494141,-2.103516,3.917969,0.2453,0.300476,0.139343,0.911133,down
87344,0.867187,0.175781,7.425781,2.828125,-1.876953,3.75,0.235474,0.307861,0.141479,0.910889,down
87349,1.097656,0.828125,7.042969,2.828125,-1.876953,3.75,0.225708,0.314941,0.144104,0.910583,down
87354,1.519531,1.019531,7.234375,3.074219,-1.560547,3.412109,0.225708,0.314941,0.144104,0.910583,down
87359,1.902344,1.324219,7.542969,3.074219,-1.560547,3.412109,0.215393,0.322083,0.147461,0.910034,down
87364,1.75,1.976563,7.617187,3.074219,-1.560547,3.412109,0.205872,0.32843,0.151001,0.909363,down
87369,1.75,1.976563,7.617187,3.097656,-1.21875,2.898438,0.197815,0.333618,0.154541,0.908691,down
87374,1.597656,2.703125,7.578125,3.025391,-1.150391,2.65625,0.197815,0.333618,0.154541,0.908691,down
87379,1.480469,1.363281,8.226563,2.785156,-1.208984,2.339844,0.181946,0.344055,0.162415,0.906738,down
87384,1.480469,1.363281,8.226563,2.785156,-1.208984,2.339844,0.181946,0.344055,0.162415,0.906738,down
87389,1.289063,2.128906,8.730469,2.490234,-1.330078,2.021484,0.181946,0.344055,0.162415,0.906738,down
87395,0.984375,2.625,7.964844,1.535156,-1.796875,1.248047,0.181946,0.344055,0.162415,0.906738,down
87401,1.097656,0.75,6.738281,1.535156,-1.796875,1.248047,0.158386,0.36969,0.174561,0.898743,down
87406,0.714844,0.941406,6.15625,0.822266,-2.09375,0.644531,0.156738,0.375183,0.17511,0.896667,down
87412,1.023438,0.902344,6.890625,0.576172,-2.160156,0.367188,0.156738,0.375183,0.17511,0.896667,down
87418,1.367188,1.09375,6.773437,0.576172,-2.160156,0.367188,0.156738,0.375183,0.17511,0.896667,down
87424,0.90625,1.976563,6.273437,0.160156,-1.923828,-0.080078,0.156738,0.375183,0.17511,0.896667,down
87429,0.675781,2.320313,6.472656,0.0625,-1.660156,-0.337891,0.156738,0.375183,0.17511,0.896667,down
87434,0.140625,1.324219,5.738281,0.0625,-1.660156,-0.337891,0.161316,0.401611,0.173828,0.884583,down
87439,-0.089844,0.828125,5.972656,0.146484,-1.625,-0.53125,0.161316,0.401611,0.173828,0.884583,down
87444,-0.320313,0.828125,6.234375,0.433594,-1.683594,-0.652344,0.16333,0.405334,0.173828,0.882507,down
87449,-0.320313,0.828125,6.234375,0.433594,-1.683594,-0.652344,0.165161,0.408569,0.174194,0.880615,down
87454,-0.894531,0.671875,6.046875,0.707031,-1.746094,-0.785156,0.167053,0.412292,0.175415,0.878296,down
87459,-0.894531,0.671875,6.046875,0.978516,-1.880859,-0.939453,0.169006,0.416199,0.177246,0.875671,down
87464,-0.777344,1.246094,5.777344,0.978516,-1.880859,-0.939453,0.170959,0.420593,0.179993,0.87262,down
87469,-0.777344,1.246094,5.777344,1.376953,-2.173828,-1.214844,0.173157,0.425171,0.182983,0.869324,down
87475,-0.550781,1.976563,5.351562,1.376953,-2.173828,-1.214844,0.175781,0.430237,0.18634,0.865601,down
87481,-0.816406,1.976563,4.929687,1.376953,-2.173828,-1.214844,0.182068,0.440735,0.191956,0.857727,down
87486,-0.855469,1.976563,4.707031,0.876953,-2.800781,-1.720703,0.186157,0.446411,0.194519,0.853394,down
87492,-0.96875,2.167969,4.515625,0.876953,-2.800781,-1.720703,0.190491,0.451904,0.196777,0.848938,down
87497,-1.046875,2.359375,4.625,0.550781,-3.044922,-2.115234,0.190491,0.451904,0.196777,0.848938,down
87503,-1.007813,2.433594,4.707031,0.458984,-3.152344,-2.332031,0.190491,0.451904,0.196777,0.848938,down
87508,-1.199219,2.472656,4.785156,0.371094,-3.216797,-2.574219,0.190491,0.451904,0.196777,0.848938,down
87513,-1.351563,2.703125,4.546875,0.291016,-3.271484,-2.826172,0.190491,0.451904,0.196777,0.848938,down
87518,-1.351563,2.703125,4.546875,0.226562,-3.359375,-3.121094,0.222412,0.47998,0.207336,0.822937,down
87523,-1.773438,2.972656,4.589844,0.226562,-3.359375,-3.121094,0.23053,0.485352,0.209778,0.816895,down
87529,-1.773438,2.972656,4.589844,0.191406,-3.601563,-3.697266,0.239685,0.490906,0.212402,0.810181,down
87534,-1.8125,2.972656,5.703125,0.177734,-3.921875,-4.335937,0.239685,0.490906,0.212402,0.810181,down
87539,-1.964844,3.085938,5.667969,0.177734,-3.921875,-4.335937,0.259338,0.501831,0.218262,0.795776,down
87544,-1.851563,3.085938,5.667969,0.177734,-3.921875,-4.335937,0.271423,0.507874,0.221802,0.786865,down
87549,-1.851563,3.085938,5.667969,-0.054687,-4.322266,-5.058594,0.282471,0.512939,0.224731,0.77887,down
87555,-1.851563,3.007813,6.117187,-0.054687,-4.322266,-5.058594,0.295776,0.518555,0.227966,0.769226,down
87560,-2.578125,5.386719,6.394531,-0.462891,-4.695312,-5.841797,0.309509,0.523743,0.231079,0.759277,down
87565,-2.578125,5.386719,6.394531,-0.644531,-4.892578,-6.333984,0.309509,0.523743,0.231079,0.759277,down
87570,-2.695313,3.929688,6.8125,-0.644531,-4.892578,-6.333984,0.359375,0.537842,0.240234,0.723755,down
87575,-3.34375,3.355469,7.078125,-0.644531,-4.892578,-6.333984,0.3797,0.541321,0.243103,0.709717,down
87581,-6.027344,4.617187,6.738281,-0.644531,-4.892578,-6.333984,0.403015,0.544067,0.24646,0.69342,down
87586,-6.027344,4.617187,6.738281,-0.644531,-4.892578,-6.333984,0.403015,0.544067,0.24646,0.69342,down
87592,-6.027344,4.617187,6.738281,-2.443359,-6.205078,-11.037109,0.4552,0.545776,0.255127,0.655579,down
87597,-6.027344,4.617187,6.738281,-2.837891,-6.296875,-13.630859,0.483582,0.544373,0.260986,0.633789,down
87602,-9.511719,6.800781,3.058594,-2.837891,-6.296875,-13.630859,0.483582,0.544373,0.260986,0.633789,down
87607,-9.511719,6.800781,3.058594,-3.525391,-5.994141,-14.912109,0.546448,0.53302,0.275391,0.58429,down
87614,-15.867188,3.316406,3.480469,-3.525391,-5.994141,-14.912109,0.546448,0.53302,0.275391,0.58429,down
87619,-17.597656,-1.703125,0.148437,-6.943359,-6.142578,-20.345703,0.546448,0.53302,0.275391,0.58429,down
87624,-17.402344,1.707031,2.332031,-6.943359,-6.142578,-20.345703,0.652344,0.492004,0.299316,0.492737,down
87629,-16.289062,7.453125,1.179688,-6.943359,-6.142578,-20.345703,0.688477,0.473389,0.305054,0.45697,down
87634,-17.898437,10.25,-1.195313,-6.951172,-7.109375,-22.044922,0.728394,0.450378,0.31073,0.412415,down
87639,-19.972656,20.171875,-3.988281,-6.951172,-7.109375,-22.044922,0.760254,0.428772,0.314636,0.373108,down
87644,-18.207031,32.238281,-4.488281,-2.826172,-5.822266,-19.746094,0.760254,0.428772,0.314636,0.373108,down
87649,-12.425781,38.75,-3.1875,-2.826172,-5.822266,-19.746094,0.815491,0.385315,0.324463,0.285034,down
87654,-8.25,33.660156,-4.832031,-2.826172,-5.822266,-19.746094,0.849731,0.35022,0.333435,0.210083,down
87659,-11.160156,32.195312,-1.84375,-2.826172,-5.822266,-19.746094,0.849731,0.35022,0.333435,0.210083,down
87664,-13.917969,29.136719,2.558594,-3.152344,-2.5,-10.984375,0.849731,0.35022,0.333435,0.210083,down
87669,-18.78125,19.292969,4.132812,-3.771484,-2.154297,-7.841797,0.849731,0.35022,0.333435,0.210083,down
87674,-18.480469,15.0,5.050781,-3.771484,-2.154297,-7.841797,0.877686,0.305908,0.33728,0.149597,down
87680,-17.097656,11.972656,6.160156,0.996094,-1.185547,-3.914063,0.877686,0.305908,0.33728,0.149597,down
87685,-16.449219,11.132813,5.355469,0.996094,-1.185547,-3.914063,0.886108,0.294983,0.337585,0.117432,down
87691,-15.757813,22.890625,0.375,0.996094,-1.185547,-3.914063,0.884277,0.30127,0.340698,0.106018,down
87696,-15.949219,24.886719,-0.425781,5.855469,0.746094,-3.365234,0.884277,0.30127,0.340698,0.106018,down
87702,-16.5625,25.796875,-0.773437,5.740234,1.277344,-3.078125,0.884277,0.30127,0.340698,0.106018,down
87707,-17.097656,24.304687,0.453125,5.740234,1.277344,-3.078125,0.871155,0.328369,0.357788,0.072693,down
87713,-16.945312,22.316406,0.875,2.910156,1.408203,-2.410156,0.871155,0.328369,0.357788,0.072693,down
87718,-16.945312,21.089844,1.488281,1.388672,1.292969,-2.242188,0.871155,0.328369,0.357788,0.072693,down
87724,-15.757813,20.136719,3.058594,0.355469,1.017578,-2.15625,0.871155,0.328369,0.357788,0.072693,down
87730,-15.414063,19.941406,3.746094,-0.507812,0.330078,-1.931641,0.871155,0.328369,0.357788,0.072693,down
87735,-14.722656,19.828125,4.207031,-0.507812,0.330078,-1.931641,0.86322,0.327759,0.38147,0.043335,down
87740,-13.613281,19.25,4.667969,-0.507812,0.330078,-1.931641,0.86322,0.327759,0.38147,0.043335,down
87745,-12.882813,18.601562,4.859375,-0.507812,0.330078,-1.931641,0.86554,0.322021,0.381714,0.03833,down
87750,-11.964844,17.800781,5.089844,-1.044922,-1.058594,-0.621094,0.867432,0.318909,0.380188,0.036682,down
87755,-11.121094,16.722656,5.28125,-0.863281,-1.21875,-0.326172,0.867432,0.318909,0.380188,0.036682,down
87760,-8.9375,14.726563,5.089844,-0.863281,-1.21875,-0.326172,0.871033,0.31488,0.375427,0.03479,down
87765,-7.902344,13.773438,5.242187,0.130859,-1.269531,0.099609,0.871033,0.31488,0.375427,0.03479,down
87770,-7.445312,13.121094,5.28125,0.130859,-1.269531,0.099609,0.87323,0.315552,0.369873,0.032898,down
87775,-6.410156,11.589844,4.589844,0.130859,-1.269531,0.099609,0.873596,0.317871,0.367126,0.031738,down
87780,-5.910156,11.097656,4.359375,0.130859,-1.269531,0.099609,0.873535,0.320618,0.364929,0.03064,down
87785,-5.566406,10.671875,4.132812,1.509766,-0.791016,0.421875,0.873535,0.320618,0.364929,0.03064,down
87790,-5.261719,10.332031,3.863281,1.509766,-0.791016,0.421875,0.873169,0.324341,0.362732,0.029419,down
87795,-4.992187,9.832031,3.136719,1.472656,-0.650391,0.482422,0.873169,0.324341,0.362732,0.029419,down
87800,-4.878906,9.558594,3.136719,1.136719,-0.361328,0.607422,0.871887,0.331482,0.359314,0.027771,down
87805,-4.878906,9.410156,3.058594,1.136719,-0.361328,0.607422,0.870667,0.337341,0.356873,0.02771,down
87810,-4.878906,8.867188,3.136719,1.136719,-0.361328,0.607422,0.870667,0.337341,0.356873,0.02771,down
87815,-4.878906,8.679688,3.171875,1.136719,-0.361328,0.607422,0.869507,0.34198,0.355286,0.028992,down
87820,-4.914062,8.484375,3.289063,1.136719,-0.361328,0.607422,0.869507,0.34198,0.355286,0.028992,down
87825,-4.914062,8.296875,3.289063,0.65625,0.078125,0.703125,0.869507,0.34198,0.355286,0.028992,down
87830,-4.878906,8.21875,3.519531,0.701172,0.140625,0.730469,0.869507,0.34198,0.355286,0.028992,down
87836,-4.878906,8.21875,3.519531,0.822266,0.197266,0.779297,0.866455,0.350464,0.354065,0.033081,down
87841,-4.992187,8.101563,3.554688,0.851562,0.181641,0.814453,0.865356,0.353271,0.353821,0.034363,down
87846,-4.953125,7.914062,3.710938,0.851562,0.181641,0.814453,0.864502,0.35553,0.353577,0.0354,down
87852,-5.070312,7.679687,3.632813,0.851562,0.181641,0.814453,0.863525,0.358154,0.353149,0.03656,down
87857,-5.03125,7.605469,3.671875,0.783203,0.03125,0.857422,0.863525,0.358154,0.353149,0.03656,down
87862,-4.953125,7.5625,3.785156,0.671875,-0.042969,0.853516,0.863525,0.358154,0.353149,0.03656,down
87867,-4.878906,7.378906,3.785156,0.515625,-0.140625,0.849609,0.861389,0.364929,0.351074,0.0401,down
87872,-4.800781,6.914062,3.746094,0.515625,-0.140625,0.849609,0.861084,0.366577,0.349976,0.041321,down
87878,-4.761719,6.648437,3.824219,0.144531,-0.322266,0.806641,0.861084,0.366577,0.349976,0.041321,down
87883,-4.6875,6.457031,3.902344,0.0,-0.390625,0.775391,0.861084,0.366577,0.349976,0.041321,down
87888,-4.648437,6.265625,3.902344,0.0,-0.390625,0.775391,0.86145,0.369263,0.345642,0.045166,down
87894,-4.570312,6.1875,3.902344,-0.158203,-0.451172,0.673828,0.86145,0.369263,0.345642,0.045166,down
87899,-4.570312,6.035156,3.902344,-0.148437,-0.451172,0.617187,0.86145,0.369263,0.345642,0.045166,down
87905,-4.496094,6.074219,3.941406,-0.068359,-0.427734,0.523437,0.862854,0.370178,0.34082,0.048584,down
87910,-4.417969,6.113281,3.902344,-0.068359,-0.427734,0.523437,0.863525,0.370789,0.338257,0.050049,down
87915,-4.417969,6.035156,3.902344,-0.003906,-0.371094,0.478516,0.863525,0.370789,0.338257,0.050049,down
87920,-4.339844,5.992187,3.824219,-0.003906,-0.371094,0.478516,0.86377,0.371216,0.336914,0.050781,down
87925,-4.339844,6.035156,3.863281,-0.003906,-0.371094,0.478516,0.864136,0.372131,0.334717,0.052124,down
87930,-4.304687,5.925781,3.941406,-0.003906,-0.371094,0.478516,0.864136,0.372131,0.334717,0.052124,down
87935,-4.265625,5.84375,3.941406,0.054687,-0.234375,0.470703,0.864319,0.37323,0.332825,0.05365,down
87941,-4.265625,5.691406,3.863281,0.054687,-0.234375,0.470703,0.864258,0.37384,0.332092,0.054382,down
87946,-4.304687,5.609375,3.902344,0.054687,-0.234375,0.470703,0.864197,0.374451,0.331482,0.055237,down
87951,-4.339844,5.6875,3.976563,0.150391,-0.011719,0.464844,0.864014,0.375183,0.330994,0.056152,down
87957,-4.496094,5.765625,4.015625,0.150391,-0.011719,0.464844,0.86377,0.375916,0.330688,0.056946,down
87962,-4.648437,5.960937,4.015625,0.150391,-0.011719,0.464844,0.863403,0.376831,0.330444,0.057739,down
87968,-4.722656,6.113281,3.976563,0.345703,0.125,0.425781,0.863403,0.376831,0.330444,0.057739,down
87973,-4.800781,6.1875,4.015625,0.369141,0.152344,0.427734,0.862427,0.378967,0.330322,0.059265,down
87978,-4.992187,6.34375,4.054687,0.394531,0.171875,0.414062,0.862427,0.378967,0.330322,0.059265,down
87983,-5.03125,6.457031,4.015625,0.404297,0.173828,0.408203,0.862427,0.378967,0.330322,0.059265,down
87988,-5.222656,6.691406,4.015625,0.402344,0.150391,0.400391,0.862427,0.378967,0.330322,0.059265,down
87993,-5.300781,6.730469,3.976563,0.363281,0.121094,0.380859,0.862427,0.378967,0.330322,0.059265,down
87998,-5.375,6.839844,3.941406,0.363281,0.121094,0.380859,0.862427,0.378967,0.330322,0.059265,down
88004,-5.335937,6.914062,3.976563,0.363281,0.121094,0.380859,0.859192,0.385498,0.330505,0.063171,down
88010,-5.335937,6.878906,3.941406,0.101563,-0.003906,0.335938,0.858826,0.386536,0.330017,0.064392,down
88015,-5.222656,6.765625,4.015625,0.101563,-0.003906,0.335938,0.858765,0.38678,0.32959,0.065002,down
88020,-5.144531,6.648437,3.976563,0.101563,-0.003906,0.335938,0.858765,0.38678,0.32959,0.065002,down
88025,-5.070312,6.652344,3.902344,-0.056641,-0.117188,0.279297,0.858765,0.38678,0.32959,0.065002,down
88030,-4.914062,6.609375,3.863281,-0.066406,-0.119141,0.259766,0.858765,0.38678,0.32959,0.065002,down
88035,-4.800781,6.652344,3.941406,-0.066406,-0.119141,0.259766,0.859009,0.387207,0.328247,0.066467,down
88040,-4.761719,6.6875,3.902344,-0.003906,-0.083984,0.208984,0.859009,0.387207,0.328247,0.066467,down
88045,-4.6875,6.6875,3.863281,-0.003906,-0.083984,0.208984,0.859131,0.387512,0.327454,0.067261,down
88050,-4.609375,6.730469,3.902344,-0.003906,-0.083984,0.208984,0.85907,0.387756,0.327209,0.067627,down
88055,-4.570312,6.574219,4.054687,0.066406,0.056641,0.181641,0.859009,0.388,0.327026,0.067932,down
88060,-4.609375,6.574219,4.132812,0.066406,0.056641,0.181641,0.858887,0.388306,0.326965,0.068359,down
88065,-4.53125,6.609375,4.207031,0.152344,0.126953,0.183594,0.858643,0.388672,0.327026,0.068726,down
88070,-4.648437,6.726562,4.398437,0.152344,0.126953,0.183594,0.858398,0.389038,0.327148,0.069092,down
88076,-4.648437,6.648437,4.628906,0.152344,0.126953,0.183594,0.858093,0.389526,0.327332,0.069458,down
88081,-4.648437,6.648437,4.589844,0.208984,0.150391,0.214844,0.858093,0.389526,0.327332,0.069458,down
88086,-4.6875,6.652344,4.589844,0.208984,0.150391,0.214844,0.856934,0.391357,0.327942,0.07074,down
88092,-4.722656,6.835937,4.742187,0.208984,0.150391,0.214844,0.856506,0.391968,0.328125,0.071106,down
88097,-4.761719,6.875,4.742187,0.244141,0.152344,0.181641,0.856506,0.391968,0.328125,0.071106,down
88103,-4.839844,6.835937,4.742187,0.251953,0.142578,0.164062,0.856506,0.391968,0.328125,0.071106,down
88109,-4.761719,6.875,4.78125,0.251953,0.142578,0.164062,0.855286,0.393921,0.328796,0.07196,down
88114,-4.6875,6.914062,4.742187,0.248047,0.123047,0.101563,0.855286,0.393921,0.328796,0.07196,down
88119,-4.722656,7.035156,4.628906,0.238281,0.099609,0.074219,0.855286,0.393921,0.328796,0.07196,down
88125,-4.722656,7.035156,4.628906,0.230469,0.089844,0.048828,0.854187,0.395752,0.329529,0.072266,down
88131,-4.722656,7.035156,4.628906,0.160156,0.070312,0.013672,0.854187,0.395752,0.329529,0.072266,down
88136,-4.6875,7.113281,4.589844,0.160156,0.070312,0.013672,0.853333,0.396973,0.330139,0.072144,down
88142,-4.648437,7.109375,4.589844,0.160156,0.070312,0.013672,0.853149,0.397217,0.330322,0.072083,down
88147,-4.722656,7.109375,4.515625,0.105469,0.041016,0.005859,0.853027,0.397461,0.330444,0.072083,down
88152,-4.648437,7.074219,4.476562,0.105469,0.029297,0.003906,0.853027,0.397461,0.330444,0.072083,down
88157,-4.6875,7.074219,4.550781,0.105469,0.029297,0.003906,0.852661,0.397949,0.330688,0.07196,down
88162,-4.648437,7.109375,4.628906,0.105469,0.029297,0.003906,0.852661,0.397949,0.330688,0.07196,down
88167,-4.648437,7.109375,4.628906,0.191406,0.027344,-0.005859,0.852661,0.397949,0.330688,0.07196,down
88173,-4.648437,7.148437,4.476562,0.191406,0.027344,-0.005859,0.851746,0.399475,0.331482,0.070923,down
88178,-4.761719,7.261719,4.476562,0.191406,0.027344,-0.005859,0.851318,0.400208,0.331787,0.070557,down
88183,-4.800781,7.339844,4.515625,0.320313,0.029297,-0.019531,0.851318,0.400208,0.331787,0.070557,down
88189,-4.839844,7.378906,4.4375,0.357422,0.027344,-0.019531,0.851318,0.400208,0.331787,0.070557,down
88194,-4.878906,7.492187,4.398437,0.363281,0.033203,-0.013672,0.851318,0.400208,0.331787,0.070557,down
88199,-4.953125,7.5625,4.4375,0.363281,0.033203,-0.013672,0.851318,0.400208,0.331787,0.070557,down
88204,-4.953125,7.5625,4.4375,0.363281,0.033203,-0.013672,0.84906,0.404297,0.333069,0.068481,down
88209,-5.070312,7.5625,4.359375,0.320313,0.03125,-0.007813,0.84906,0.404297,0.333069,0.068481,down
88215,-5.070312,7.601562,4.359375,0.304688,0.011719,-0.007813,0.84906,0.404297,0.333069,0.068481,down
88220,-5.03125,7.605469,4.324219,0.304688,0.011719,-0.007813,0.847778,0.406555,0.33374,0.067322,down
88226,-4.992187,7.601562,4.246094,0.212891,0.001953,-0.017578,0.847778,0.406555,0.33374,0.067322,down
88231,-5.03125,7.601562,4.246094,0.212891,0.001953,-0.017578,0.846863,0.408264,0.334229,0.066345,down
88237,-4.992187,7.5625,4.246094,0.181641,0.009766,-0.037109,0.846619,0.408752,0.334351,0.06604,down
88242,-5.03125,7.5625,4.132812,0.189453,0.009766,-0.041016,0.846375,0.40918,0.334473,0.065735,down
88247,-4.992187,7.644531,4.09375,0.189453,0.009766,-0.041016,0.84613,0.409607,0.334656,0.065491,down
88253,-4.953125,7.796875,4.054687,0.189453,0.009766,-0.041016,0.845886,0.410034,0.3349,0.065125,down
88259,-4.992187,7.839844,4.015625,0.197266,0.025391,-0.085937,0.845886,0.410034,0.3349,0.065125,down
88264,-4.992187,7.757812,3.976563,0.183594,0.025391,-0.091797,0.845886,0.410034,0.3349,0.065125,down
88270,-4.992187,7.878906,4.015625,0.183594,0.025391,-0.091797,0.845093,0.411194,0.335571,0.064026,down
88276,-4.992187,7.839844,4.015625,0.146484,-0.009766,-0.080078,0.845093,0.411194,0.335571,0.064026,down
88281,-4.992187,7.878906,4.054687,0.146484,-0.009766,-0.080078,0.844482,0.412231,0.336121,0.062866,down
88286,-4.992187,7.878906,4.054687,0.146484,-0.009766,-0.080078,0.84436,0.412537,0.336121,0.062561,down
88291,-5.070312,7.914062,3.941406,0.125,-0.070312,-0.042969,0.84436,0.412537,0.336121,0.062561,down
88296,-5.070312,7.988281,3.941406,0.125,-0.070312,-0.042969,0.844055,0.413208,0.336121,0.06189,down
88301,-5.070312,8.027344,3.902344,0.125,-0.070312,-0.042969,0.844055,0.413208,0.336121,0.06189,down
88306,-5.070312,7.917969,3.863281,0.125,-0.070312,-0.042969,0.843811,0.413879,0.335999,0.061279,down
88311,-5.03125,7.917969,3.824219,0.125,-0.070312,-0.042969,0.843811,0.413879,0.335999,0.061279,down
88316,-4.992187,7.835937,3.863281,0.119141,-0.107422,0.007813,0.843811,0.413879,0.335999,0.061279,down
88322,-4.953125,7.800781,3.863281,0.119141,-0.107422,0.007813,0.843567,0.414856,0.335632,0.060547,down
88327,-4.839844,7.761719,3.785156,0.119141,-0.107422,0.007813,0.843445,0.415222,0.33551,0.060303,down
88332,-4.878906,7.722656,3.710938,0.132812,-0.072266,0.013672,0.843323,0.415527,0.335388,0.06012,down
88337,-4.800781,7.71875,3.710938,0.130859,-0.058594,0.007813,0.843323,0.415527,0.335388,0.06012,down
88342,-4.761719,7.722656,3.746094,0.130859,-0.058594,0.007813,0.843323,0.415527,0.335388,0.06012,down
88347,-4.761719,7.722656,3.746094,0.115234,-0.058594,0.005859,0.843323,0.415527,0.335388,0.06012,down
88353,-4.722656,7.722656,3.710938,0.115234,-0.058594,0.005859,0.842834,0.41687,0.335083,0.059387,down
