timestamp,ax,ay,az,gx,gy,gz,qw,qx,qy,qz,label
325355,8.328125,5.628906,2.359375,-0.148437,-0.044922,-0.105469,0.316895,0.612549,0.107666,0.716064,down
325360,8.328125,5.589844,2.359375,-0.148437,-0.044922,-0.105469,0.317749,0.612427,0.107361,0.715881,down
325365,8.289063,5.628906,2.359375,-0.160156,-0.03125,-0.107422,0.317749,0.612427,0.107361,0.715881,down
325370,8.289063,5.589844,2.359375,-0.160156,-0.03125,-0.107422,0.318604,0.612244,0.107056,0.715637,down
325375,8.289063,5.589844,2.359375,-0.160156,-0.03125,-0.107422,0.319519,0.612061,0.10675,0.715454,down
325380,8.253906,5.589844,2.320313,-0.160156,-0.03125,-0.107422,0.319519,0.612061,0.10675,0.715454,down
325385,8.214844,5.554687,2.359375,-0.126953,-0.019531,-0.111328,0.319519,0.612061,0.10675,0.715454,down
325390,8.175781,5.589844,2.359375,-0.126953,-0.019531,-0.111328,0.320435,0.611816,0.106567,0.715271,down
325395,8.175781,5.589844,2.359375,-0.126953,-0.019531,-0.111328,0.321167,0.611694,0.106445,0.715088,down
325400,8.136719,5.589844,2.320313,-0.126953,-0.019531,-0.111328,0.321167,0.611694,0.106445,0.715088,down
325405,8.136719,5.589844,2.320313,-0.078125,-0.019531,-0.105469,0.321777,0.611572,0.106445,0.714905,down
325410,8.054688,5.628906,2.320313,-0.078125,-0.019531,-0.105469,0.321777,0.611572,0.106445,0.714905,down
325415,8.054688,5.628906,2.320313,-0.054687,-0.033203,-0.085937,0.322083,0.611511,0.106445,0.714844,down
325420,8.027344,5.589844,2.320313,-0.054687,-0.033203,-0.085937,0.322327,0.61145,0.106445,0.714722,down
325426,8.058594,5.707031,2.359375,-0.048828,-0.033203,-0.078125,0.322327,0.61145,0.106445,0.714722,down
325432,7.988281,5.746094,2.242188,-0.048828,-0.033203,-0.078125,0.322998,0.61145,0.106445,0.714478,down
325437,7.949219,5.78125,2.28125,-0.048828,-0.035156,-0.058594,0.322998,0.61145,0.106445,0.714478,down
325443,7.984375,5.746094,2.320313,-0.044922,-0.039063,-0.054687,0.322998,0.61145,0.106445,0.714478,down
325449,7.910156,5.746094,2.359375,-0.044922,-0.039063,-0.054687,0.322998,0.61145,0.106445,0.714478,down
325455,7.910156,5.746094,2.359375,-0.054687,-0.025391,-0.042969,0.322998,0.61145,0.106445,0.714478,down
325460,7.910156,5.707031,2.359375,-0.054687,-0.025391,-0.042969,0.324036,0.61145,0.106201,0.713989,down
325465,7.910156,5.707031,2.359375,-0.054687,-0.025391,-0.042969,0.324219,0.61145,0.10614,0.713928,down
325470,7.871094,5.667969,2.398438,-0.054687,-0.025391,-0.042969,0.324219,0.61145,0.10614,0.713928,down
325475,7.910156,5.628906,2.359375,-0.074219,-0.025391,-0.039063,0.324219,0.61145,0.10614,0.713928,down
325480,7.871094,5.589844,2.359375,-0.074219,-0.025391,-0.039063,0.324585,0.611389,0.106018,0.713867,down
325485,7.910156,5.554687,2.320313,-0.070312,-0.03125,-0.029297,0.324951,0.611389,0.105835,0.713745,down
325490,7.945312,5.476562,2.359375,-0.070312,-0.03125,-0.029297,0.324951,0.611389,0.105835,0.713745,down
325495,7.945312,5.476562,2.398438,-0.033203,-0.03125,-0.037109,0.324951,0.611389,0.105835,0.713745,down
325500,7.910156,5.515625,2.320313,-0.033203,-0.03125,-0.037109,0.325256,0.611389,0.105652,0.713623,down
325505,7.871094,5.515625,2.320313,-0.033203,-0.03125,-0.037109,0.325378,0.611389,0.105652,0.713562,down
325510,7.871094,5.476562,2.28125,-0.033203,-0.03125,-0.037109,0.325439,0.611389,0.105713,0.713501,down
325516,7.867187,5.515625,2.359375,0.046875,-0.015625,-0.03125,0.325439,0.611511,0.105896,0.713379,down
325521,7.949219,5.554687,2.28125,0.046875,-0.015625,-0.03125,0.325378,0.611572,0.106079,0.713318,down
325526,7.949219,5.515625,2.28125,0.072266,0.003906,-0.033203,0.325317,0.611633,0.106262,0.713318,down
325531,7.984375,5.554687,2.28125,0.072266,0.007813,-0.039063,0.325317,0.611633,0.106445,0.713257,down
325536,7.945312,5.515625,2.320313,0.072266,0.007813,-0.039063,0.325256,0.611694,0.106628,0.713257,down
325541,7.949219,5.554687,2.28125,0.072266,0.013672,-0.035156,0.325195,0.611694,0.106873,0.713196,down
325547,7.90625,5.554687,2.28125,0.072266,0.013672,-0.035156,0.325195,0.611694,0.106995,0.713196,down
325552,7.867187,5.554687,2.28125,0.042969,0.009766,-0.035156,0.325195,0.611694,0.107178,0.713135,down
325558,7.867187,5.554687,2.28125,0.042969,0.009766,-0.035156,0.325195,0.611755,0.1073,0.713135,down
325564,7.871094,5.554687,2.320313,0.023437,0.003906,-0.037109,0.325195,0.611755,0.1073,0.713135,down
325569,7.871094,5.515625,2.320313,0.011719,0.005859,-0.035156,0.325195,0.611755,0.1073,0.713135,down
325575,7.828125,5.554687,2.398438,0.011719,0.0,-0.037109,0.325317,0.611694,0.107666,0.713013,down
325580,7.871094,5.476562,2.433594,0.011719,0.0,-0.037109,0.325317,0.611694,0.107666,0.713013,down
325585,7.867187,5.476562,2.472656,0.019531,0.017578,-0.052734,0.325317,0.611694,0.107666,0.713013,down
325590,7.828125,5.515625,2.433594,0.029297,0.035156,-0.054687,0.325317,0.611694,0.107666,0.713013,down
325595,7.832031,5.515625,2.511719,0.029297,0.035156,-0.054687,0.3255,0.611572,0.108154,0.712952,down
325600,7.832031,5.515625,2.511719,0.027344,0.039063,-0.066406,0.3255,0.611572,0.108154,0.712952,down
325606,7.910156,5.554687,2.511719,0.021484,0.033203,-0.080078,0.325745,0.611389,0.108704,0.712952,down
325611,7.867187,5.515625,2.550781,0.021484,0.033203,-0.080078,0.325867,0.611267,0.108887,0.712952,down
325616,7.789062,5.554687,2.550781,0.019531,0.033203,-0.097656,0.32605,0.611206,0.109131,0.712891,down
325621,7.789062,5.554687,2.550781,0.019531,0.033203,-0.097656,0.326172,0.611145,0.109314,0.71283,down
325626,7.753906,5.515625,2.589844,0.015625,0.017578,-0.109375,0.326172,0.611145,0.109314,0.71283,down
325632,7.710937,5.554687,2.625,0.015625,0.017578,-0.109375,0.326477,0.611084,0.109741,0.712708,down
325637,7.671875,5.515625,2.589844,0.015625,0.001953,-0.109375,0.32666,0.611023,0.109924,0.712646,down
325642,7.640625,5.515625,2.550781,0.011719,-0.001953,-0.111328,0.326843,0.611023,0.110107,0.712524,down
325647,7.671875,5.515625,2.589844,0.011719,-0.001953,-0.111328,0.327026,0.610962,0.110291,0.712463,down
325653,7.601562,5.476562,2.664063,0.011719,-0.001953,-0.111328,0.327271,0.610962,0.110535,0.712341,down
325658,7.675781,5.515625,2.664063,0.027344,-0.007813,-0.132812,0.327271,0.610962,0.110535,0.712341,down
325664,7.792969,5.589844,2.625,0.037109,-0.001953,-0.140625,0.327271,0.610962,0.110535,0.712341,down
325670,7.789062,5.554687,2.625,0.048828,0.0,-0.146484,0.327271,0.610962,0.110535,0.712341,down
325676,7.828125,5.554687,2.703125,0.037109,-0.001953,-0.152344,0.327271,0.610962,0.110535,0.712341,down
325681,7.828125,5.554687,2.664063,0.037109,-0.001953,-0.152344,0.328247,0.610962,0.111938,0.71167,down
325686,7.789062,5.628906,2.589844,0.03125,0.005859,-0.158203,0.328735,0.61084,0.112488,0.711426,down
325691,7.789062,5.589844,2.589844,0.03125,0.005859,-0.158203,0.328735,0.61084,0.112488,0.711426,down
325696,7.792969,5.589844,2.550781,0.007813,0.009766,-0.148437,0.329285,0.610718,0.113037,0.711182,down
325701,7.675781,5.628906,2.472656,0.007813,0.009766,-0.148437,0.329285,0.610718,0.113037,0.711182,down
325706,7.644531,5.628906,2.433594,0.0,0.039063,-0.144531,0.329285,0.610718,0.113037,0.711182,down
325711,7.5625,5.628906,2.433594,0.0,0.039063,-0.144531,0.329773,0.610535,0.113586,0.71106,down
325716,7.449219,5.667969,2.472656,0.007813,-0.009766,-0.142578,0.330017,0.610413,0.113831,0.710999,down
325721,7.449219,5.667969,2.472656,0.007813,-0.009766,-0.142578,0.330505,0.610352,0.114258,0.710754,down
325726,7.328125,5.707031,2.472656,0.007813,-0.009766,-0.142578,0.330505,0.610352,0.114258,0.710754,down
325731,7.371094,5.707031,2.433594,0.0625,-0.048828,-0.140625,0.330811,0.610596,0.114807,0.710327,down
325736,7.445312,5.746094,2.433594,0.0625,-0.048828,-0.140625,0.330933,0.610779,0.115173,0.710022,down
325741,7.449219,5.746094,2.472656,0.0625,-0.048828,-0.140625,0.330994,0.611084,0.115601,0.709717,down
325746,7.484375,5.78125,2.550781,0.0625,-0.048828,-0.140625,0.330994,0.611084,0.115601,0.709717,down
325751,7.488281,5.746094,2.550781,0.173828,-0.111328,-0.15625,0.331116,0.611633,0.116516,0.708984,down
325756,7.5625,5.78125,2.589844,0.173828,-0.111328,-0.15625,0.331116,0.611938,0.116943,0.708679,down
325761,7.5625,5.78125,2.589844,0.173828,-0.111328,-0.15625,0.331177,0.612244,0.117371,0.708313,down
325766,7.5625,5.820312,2.550781,0.173828,-0.111328,-0.15625,0.331177,0.612244,0.117371,0.708313,down
325771,7.566406,5.78125,2.625,0.109375,-0.09375,-0.15625,0.331177,0.612244,0.117371,0.708313,down
325776,7.601562,5.746094,2.625,0.109375,-0.09375,-0.15625,0.331665,0.612854,0.118347,0.707397,down
325781,7.5625,5.667969,2.625,0.109375,-0.09375,-0.15625,0.331909,0.612976,0.118591,0.707153,down
325786,7.527344,5.667969,2.625,0.109375,-0.09375,-0.15625,0.331909,0.612976,0.118591,0.707153,down
325791,7.445312,5.667969,2.703125,0.015625,-0.083984,-0.152344,0.331909,0.612976,0.118591,0.707153,down
325796,7.410156,5.667969,2.664063,0.003906,-0.085937,-0.148437,0.332458,0.61322,0.118958,0.706604,down
325801,7.332031,5.667969,2.742188,0.011719,-0.089844,-0.154297,0.332764,0.613342,0.119141,0.706299,down
325806,7.21875,5.628906,2.703125,0.011719,-0.089844,-0.154297,0.333008,0.613464,0.119324,0.706055,down
325811,7.144531,5.589844,2.742188,0.011719,-0.089844,-0.154297,0.333618,0.613708,0.119751,0.705505,down
325816,7.144531,5.476562,2.703125,0.011719,-0.089844,-0.154297,0.333618,0.613708,0.119751,0.705505,down
325821,7.101562,5.476562,2.703125,0.072266,-0.113281,-0.173828,0.333618,0.613708,0.119751,0.705505,down
325827,7.023437,5.515625,2.664063,0.072266,-0.113281,-0.173828,0.33429,0.614258,0.120544,0.70459,down
325833,7.023437,5.554687,2.664063,0.072266,-0.113281,-0.173828,0.334595,0.614563,0.120911,0.704102,down
325838,7.066406,5.554687,2.742188,0.117188,-0.177734,-0.199219,0.334778,0.614807,0.121216,0.703735,down
325843,7.066406,5.554687,2.742188,0.130859,-0.21875,-0.207031,0.335022,0.615234,0.121582,0.703186,down
325848,7.140625,5.589844,2.816406,0.130859,-0.21875,-0.207031,0.335266,0.615662,0.121948,0.702637,down
325854,7.179687,5.628906,2.855469,0.121094,-0.236328,-0.222656,0.335266,0.615662,0.121948,0.702637,down
325859,7.140625,5.628906,2.816406,0.121094,-0.234375,-0.236328,0.335266,0.615662,0.121948,0.702637,down
325864,7.140625,5.628906,2.855469,0.121094,-0.234375,-0.236328,0.336182,0.617004,0.123047,0.700867,down
325869,7.140625,5.589844,2.855469,0.082031,-0.267578,-0.255859,0.336182,0.617004,0.123047,0.700867,down
325874,7.140625,5.554687,2.894531,0.050781,-0.287109,-0.265625,0.336182,0.617004,0.123047,0.700867,down
325880,7.179687,5.515625,2.894531,0.027344,-0.300781,-0.283203,0.336182,0.617004,0.123047,0.700867,down
325886,7.183594,5.476562,2.933594,0.027344,-0.300781,-0.283203,0.338745,0.619263,0.124268,0.697388,down
325891,7.21875,5.4375,2.933594,0.027344,-0.300781,-0.283203,0.338745,0.619263,0.124268,0.697388,down
325896,7.21875,5.285156,2.894531,-0.064453,-0.308594,-0.318359,0.34021,0.619995,0.124512,0.695923,down
325901,7.289062,5.207031,2.855469,-0.064453,-0.308594,-0.318359,0.34021,0.619995,0.124512,0.695923,down
325906,7.332031,5.171875,2.855469,-0.089844,-0.294922,-0.390625,0.34021,0.619995,0.124512,0.695923,down
325911,7.289062,5.207031,2.816406,-0.089844,-0.294922,-0.390625,0.342041,0.620728,0.124817,0.694336,down
325917,7.21875,5.171875,2.855469,-0.089844,-0.294922,-0.390625,0.343933,0.621277,0.125305,0.692871,down
325923,7.140625,5.246094,2.855469,-0.089844,-0.294922,-0.390625,0.344849,0.621521,0.125671,0.692078,down
325928,7.144531,5.324219,2.855469,-0.019531,-0.271484,-0.505859,0.345886,0.621826,0.12616,0.691223,down
325933,7.144531,5.324219,2.816406,0.007813,-0.283203,-0.537109,0.345886,0.621826,0.12616,0.691223,down
325939,7.140625,5.4375,2.855469,0.007813,-0.283203,-0.537109,0.3479,0.622437,0.12738,0.689392,down
325945,7.140625,5.476562,2.855469,0.066406,-0.287109,-0.59375,0.3479,0.622437,0.12738,0.689392,down
325950,7.140625,5.515625,2.894531,0.087891,-0.275391,-0.626953,0.3479,0.622437,0.12738,0.689392,down
325956,7.101562,5.628906,2.894531,0.103516,-0.255859,-0.642578,0.3479,0.622437,0.12738,0.689392,down
325961,7.0625,5.667969,2.894531,0.121094,-0.226562,-0.65625,0.3479,0.622437,0.12738,0.689392,down
325966,6.984375,5.707031,2.855469,0.074219,-0.144531,-0.691406,0.3479,0.622437,0.12738,0.689392,down
325971,6.871094,5.78125,2.855469,0.074219,-0.144531,-0.691406,0.354126,0.624146,0.132996,0.683594,down
325976,6.839844,5.898437,2.894531,0.074219,-0.144531,-0.691406,0.355347,0.624146,0.134094,0.6828,down
325981,6.800781,5.9375,2.894531,-0.033203,-0.076172,-0.712891,0.355347,0.624146,0.134094,0.6828,down
325986,6.757812,5.972656,2.78125,-0.09375,-0.011719,-0.742187,0.359375,0.623413,0.137024,0.680725,down
325991,6.5625,5.972656,2.742188,-0.09375,-0.011719,-0.742187,0.359375,0.623413,0.137024,0.680725,down
325996,6.453125,5.972656,2.703125,-0.09375,-0.011719,-0.742187,0.361084,0.622803,0.138123,0.680176,down
326002,6.222656,6.011719,2.589844,-0.230469,0.142578,-0.818359,0.361084,0.622803,0.138123,0.680176,down
326007,5.839844,6.050781,2.28125,-0.230469,0.142578,-0.818359,0.364319,0.621521,0.140076,0.67926,down
326012,5.683594,6.125,2.167969,-0.248047,0.140625,-0.835937,0.365967,0.620789,0.141052,0.678833,down
326017,5.683594,6.125,2.167969,-0.248047,0.140625,-0.835937,0.365967,0.620789,0.141052,0.678833,down
326022,5.53125,6.125,2.089844,-0.277344,-0.109375,-0.871094,0.365967,0.620789,0.141052,0.678833,down
326027,5.457031,6.046875,2.167969,-0.277344,-0.109375,-0.871094,0.373474,0.618652,0.144531,0.675964,down
326032,5.492187,6.050781,2.207031,-0.197266,-0.318359,-0.873047,0.373474,0.618652,0.144531,0.675964,down
326037,5.492187,6.085937,2.207031,-0.197266,-0.318359,-0.873047,0.377441,0.618713,0.146057,0.67334,down
326042,5.609375,6.046875,2.242188,-0.007813,-0.474609,-0.90625,0.377441,0.618713,0.146057,0.67334,down
326047,5.992187,6.125,2.167969,-0.007813,-0.474609,-0.90625,0.380737,0.619568,0.147827,0.670349,down
326052,6.222656,6.128906,2.089844,0.175781,-0.5625,-0.951172,0.380737,0.619568,0.147827,0.670349,down
326057,6.417969,6.164062,2.015625,0.175781,-0.5625,-0.951172,0.383972,0.621094,0.150452,0.666504,down
326062,6.566406,6.128906,1.976563,0.175781,-0.5625,-0.951172,0.385315,0.621826,0.151733,0.664673,down
326067,6.683594,6.242187,1.785156,0.318359,-0.544922,-1.021484,0.386841,0.622742,0.153381,0.662598,down
326072,6.679687,6.320312,1.746094,0.292969,-0.53125,-1.029297,0.386841,0.622742,0.153381,0.662598,down
326077,6.71875,6.433594,1.667969,0.220703,-0.505859,-1.039063,0.388245,0.623474,0.154968,0.660645,down
326083,6.71875,6.433594,1.667969,0.130859,-0.480469,-1.029297,0.391235,0.624695,0.157837,0.657043,down
326088,6.5625,6.394531,1.667969,0.029297,-0.462891,-1.027344,0.39325,0.625244,0.159302,0.655029,down
326093,6.453125,6.46875,1.628906,-0.060547,-0.449219,-1.015625,0.395142,0.625549,0.1604,0.65332,down
326099,6.105469,6.550781,1.515625,-0.060547,-0.449219,-1.015625,0.396851,0.625732,0.161255,0.651917,down
326104,6.03125,6.546875,1.515625,-0.171875,-0.392578,-1.013672,0.398926,0.625854,0.162231,0.650269,down
326110,5.839844,6.46875,1.515625,-0.175781,-0.386719,-1.019531,0.398926,0.625854,0.162231,0.650269,down
326115,5.761719,6.472656,1.476563,-0.169922,-0.369141,-1.023438,0.398926,0.625854,0.162231,0.650269,down
326120,5.875,6.394531,1.402344,-0.169922,-0.369141,-1.023438,0.398926,0.625854,0.162231,0.650269,down
326126,6.03125,6.429687,1.324219,-0.169922,-0.369141,-1.023438,0.407227,0.625916,0.166199,0.644043,down
326131,6.183594,6.429687,1.324219,-0.005859,-0.333984,-1.070313,0.407227,0.625916,0.166199,0.644043,down
326136,6.296875,6.472656,1.285156,0.208984,-0.265625,-1.128906,0.411011,0.626038,0.168945,0.640747,down
326141,6.296875,6.546875,1.210938,0.208984,-0.265625,-1.128906,0.412659,0.62616,0.170532,0.63916,down
326146,6.296875,6.589844,1.132813,0.208984,-0.265625,-1.128906,0.414185,0.626343,0.172546,0.637512,down
326152,6.261719,6.589844,1.019531,0.417969,-0.175781,-1.177734,0.414185,0.626343,0.172546,0.637512,down
326157,6.183594,6.667969,0.941406,0.417969,-0.175781,-1.177734,0.41803,0.626953,0.179993,0.632263,down
326162,5.992187,6.8125,0.828125,0.607422,-0.136719,-1.248047,0.41803,0.626953,0.179993,0.632263,down
326167,5.914062,6.777344,0.789062,0.644531,-0.152344,-1.261719,0.419067,0.627197,0.182495,0.630676,down
326172,5.761719,6.929687,0.863281,0.644531,-0.152344,-1.261719,0.421143,0.627808,0.18811,0.627014,down
326177,5.722656,7.046875,1.019531,0.722656,-0.117188,-1.271484,0.421143,0.627808,0.18811,0.627014,down
326182,5.609375,7.125,1.019531,0.730469,-0.03125,-1.265625,0.42218,0.628235,0.191345,0.624939,down
326187,5.609375,7.125,1.019531,0.730469,-0.03125,-1.265625,0.422974,0.628418,0.194153,0.62323,down
326192,5.1875,7.128906,0.710937,0.730469,-0.03125,-1.265625,0.422974,0.628418,0.194153,0.62323,down
326197,4.765625,7.085937,0.175781,0.736328,0.128906,-1.269531,0.422974,0.628418,0.194153,0.62323,down
326202,4.765625,7.085937,0.023437,0.728516,0.126953,-1.251953,0.426025,0.628479,0.207031,0.617004,down
326207,4.765625,7.050781,-0.09375,0.728516,0.126953,-1.251953,0.426697,0.62854,0.210266,0.615295,down
326212,4.726562,7.15625,-0.09375,0.849609,0.011719,-1.214844,0.426697,0.62854,0.210266,0.615295,down
326217,4.765625,7.238281,0.058594,0.849609,0.011719,-1.214844,0.427368,0.628723,0.213745,0.613464,down
326222,4.84375,7.3125,-0.015625,1.066406,0.052734,-1.214844,0.427368,0.628723,0.213745,0.613464,down
326227,4.804687,7.46875,-0.132812,1.066406,0.052734,-1.214844,0.428101,0.629761,0.223877,0.608276,down
326232,4.6875,7.546875,-0.09375,1.341797,0.064453,-1.203125,0.428101,0.629761,0.223877,0.608276,down
326237,4.496094,7.65625,-0.167969,1.458984,0.033203,-1.197266,0.427856,0.630371,0.22821,0.606201,down
326242,4.382812,7.734375,-0.246094,1.458984,0.033203,-1.197266,0.42688,0.631958,0.236145,0.602173,down
326247,4.304687,7.851562,-0.246094,1.732422,-0.15625,-1.210938,0.42688,0.631958,0.236145,0.602173,down
326252,4.269531,8.042969,-0.246094,1.732422,-0.15625,-1.210938,0.426147,0.633179,0.240417,0.599731,down
326257,4.34375,8.121094,-0.09375,1.943359,-0.375,-1.224609,0.425171,0.634766,0.245178,0.596802,down
326263,4.765625,8.460938,-0.132812,1.943359,-0.375,-1.224609,0.423218,0.638245,0.253662,0.590881,down
326268,4.84375,8.621094,-0.207031,2.039063,-0.46875,-1.240234,0.421936,0.640564,0.258789,0.587097,down
326274,4.917969,9.078125,-0.398438,2.039063,-0.46875,-1.240234,0.420837,0.642517,0.263184,0.58374,down
326279,4.882812,9.265625,-0.4375,1.925781,-0.501953,-1.261719,0.419983,0.644226,0.267029,0.58075,down
326284,4.882812,9.425781,-0.554687,1.925781,-0.501953,-1.261719,0.419128,0.646179,0.271362,0.577209,down
326289,4.882812,9.425781,-0.554687,1.677734,-0.564453,-1.283203,0.418518,0.647888,0.27533,0.573853,down
326294,4.882812,9.503906,-0.628906,1.677734,-0.564453,-1.283203,0.418518,0.647888,0.27533,0.573853,down
326299,4.652344,9.769531,-0.78125,1.515625,-0.605469,-1.292969,0.418518,0.647888,0.27533,0.573853,down
326305,4.652344,9.765625,-0.820312,1.316406,-0.634766,-1.302734,0.418457,0.652161,0.285706,0.563843,down
326310,4.535156,9.609375,-0.9375,1.316406,-0.634766,-1.302734,0.419128,0.653198,0.288696,0.560608,down
326316,4.382812,9.386719,-0.972656,0.685547,-0.636719,-1.314453,0.419128,0.653198,0.288696,0.560608,down
326322,4.382812,9.347656,-1.011719,0.515625,-0.638672,-1.306641,0.419128,0.653198,0.288696,0.560608,down
326327,4.382812,9.265625,-0.972656,0.277344,-0.646484,-1.277344,0.419128,0.653198,0.288696,0.560608,down
326333,4.765625,9.382813,-0.972656,0.207031,-0.640625,-1.273438,0.424805,0.655212,0.297607,0.549255,down
326338,4.804687,9.570313,-0.972656,0.207031,-0.640625,-1.273438,0.428711,0.655518,0.301208,0.543884,down
326343,4.804687,9.765625,-0.898437,0.207031,-0.640625,-1.273438,0.428711,0.655518,0.301208,0.543884,down
326348,4.882812,9.925781,-0.898437,0.134766,-0.583984,-1.277344,0.432495,0.655396,0.304443,0.539185,down
326354,4.6875,10.269531,-0.898437,0.134766,-0.583984,-1.277344,0.434265,0.655273,0.30603,0.537048,down
326359,4.535156,10.414063,-0.9375,0.201172,-0.453125,-1.322266,0.436096,0.65509,0.307983,0.534607,down
326364,4.460937,10.574219,-0.9375,0.230469,-0.445312,-1.361328,0.437866,0.654846,0.309937,0.532288,down
326369,4.421875,10.652344,-0.9375,0.230469,-0.445312,-1.361328,0.439819,0.654602,0.312256,0.529663,down
326375,4.191406,10.648438,-0.898437,0.230469,-0.445312,-1.361328,0.441467,0.654419,0.314148,0.527405,down
326381,4.152344,10.6875,-0.859375,0.214844,-0.451172,-1.384766,0.441467,0.654419,0.314148,0.527405,down
326386,4.039062,10.722656,-0.859375,0.160156,-0.470703,-1.373047,0.441467,0.654419,0.314148,0.527405,down
326392,3.847656,10.652344,-0.707031,0.160156,-0.470703,-1.373047,0.441467,0.654419,0.314148,0.527405,down
326397,3.769531,10.574219,-0.707031,-0.134766,-0.544922,-1.300781,0.441467,0.654419,0.314148,0.527405,down
326402,3.730469,10.457031,-0.707031,-0.134766,-0.544922,-1.300781,0.451477,0.65271,0.323303,0.515442,down
326407,3.539063,10.265625,-0.707031,-0.246094,-0.572266,-1.251953,0.451477,0.65271,0.323303,0.515442,down
326413,3.539063,10.265625,-0.707031,-0.332031,-0.597656,-1.21875,0.45636,0.65155,0.3255,0.511108,down
326418,3.539063,10.148438,-0.707031,-0.332031,-0.597656,-1.21875,0.458984,0.651001,0.326233,0.509033,down
326423,3.539063,10.148438,-0.707031,-0.410156,-0.701172,-1.140625,0.461731,0.650391,0.326843,0.506897,down
326428,3.5,10.113281,-0.398438,-0.283203,-0.722656,-1.080078,0.464355,0.649963,0.327393,0.504761,down
326433,3.5,10.113281,-0.398438,-0.283203,-0.722656,-1.080078,0.469238,0.649292,0.32843,0.500366,down
326438,3.425781,10.191406,-0.476562,-0.179687,-0.820312,-1.017578,0.47168,0.64917,0.328979,0.497864,down
326444,3.386719,10.339844,-0.4375,-0.179687,-0.820312,-1.017578,0.473633,0.649231,0.329407,0.495605,down
326450,3.386719,10.414063,-0.398438,0.011719,-0.919922,-0.960937,0.473633,0.649231,0.329407,0.495605,down
326455,3.347656,10.453125,-0.398438,0.160156,-0.957031,-0.947266,0.477783,0.650024,0.330444,0.489868,down
326460,3.308594,10.648438,-0.476562,0.298828,-0.970703,-0.939453,0.477783,0.650024,0.330444,0.489868,down
326465,3.273438,10.71875,-0.476562,0.398438,-0.998047,-0.925781,0.477783,0.650024,0.330444,0.489868,down
326470,3.195313,10.71875,-0.515625,0.474609,-1.017578,-0.919922,0.477783,0.650024,0.330444,0.489868,down
326475,3.195313,10.761719,-0.589844,0.488281,-1.044922,-0.908203,0.477783,0.650024,0.330444,0.489868,down
326480,3.117188,10.71875,-0.628906,0.488281,-1.044922,-0.908203,0.484131,0.654541,0.334229,0.474854,down
326486,3.042969,10.570313,-0.820312,0.488281,-1.044922,-0.908203,0.485413,0.655579,0.3349,0.47168,down
326492,3.042969,10.53125,-0.859375,0.263672,-1.152344,-0.826172,0.485413,0.655579,0.3349,0.47168,down
326497,3.003906,10.414063,-0.898437,0.263672,-1.152344,-0.826172,0.48822,0.657593,0.335754,0.465332,down
326502,2.964844,10.339844,-0.972656,0.263672,-1.152344,-0.826172,0.489746,0.658569,0.335938,0.462219,down
326508,3.003906,10.269531,-1.011719,0.181641,-1.220703,-0.716797,0.489746,0.658569,0.335938,0.462219,down
326513,2.925781,10.191406,-1.128906,0.181641,-1.220703,-0.716797,0.492859,0.660522,0.335938,0.455994,down
326519,2.851563,10.148438,-1.28125,0.181641,-1.220703,-0.716797,0.495789,0.662598,0.335632,0.450012,down
326524,2.8125,10.109375,-1.394531,0.287109,-1.25,-0.646484,0.497192,0.663757,0.33551,0.446838,down
326529,2.773438,10.148438,-1.472656,0.367188,-1.265625,-0.621094,0.497192,0.663757,0.33551,0.446838,down
326534,2.734375,10.1875,-1.585938,0.367188,-1.265625,-0.621094,0.499451,0.666382,0.335266,0.440552,down
326540,2.734375,10.339844,-1.742188,0.367188,-1.265625,-0.621094,0.500366,0.667908,0.335205,0.437195,down
326545,2.773438,10.453125,-1.855469,0.625,-1.296875,-0.587891,0.50116,0.669556,0.335205,0.433838,down
326550,2.8125,10.53125,-1.894531,0.625,-1.296875,-0.587891,0.501831,0.671448,0.335266,0.429993,down
326555,2.773438,10.6875,-1.96875,0.625,-1.296875,-0.587891,0.501831,0.671448,0.335266,0.429993,down
326561,2.8125,10.757813,-2.007813,0.722656,-1.277344,-0.587891,0.501831,0.671448,0.335266,0.429993,down
326566,2.8125,10.757813,-2.007813,0.673828,-1.255859,-0.582031,0.503296,0.676575,0.335693,0.4198,down
326571,2.773438,10.800781,-2.199219,0.673828,-1.255859,-0.582031,0.503296,0.676575,0.335693,0.4198,down
326576,2.773438,10.800781,-2.199219,0.496094,-1.197266,-0.548828,0.504578,0.679626,0.335754,0.41333,down
326582,2.773438,10.613281,-2.351563,0.496094,-1.197266,-0.548828,0.504578,0.679626,0.335754,0.41333,down
326587,2.773438,10.53125,-2.429688,0.277344,-1.167969,-0.5,0.504578,0.679626,0.335754,0.41333,down
326592,2.773438,10.453125,-2.429688,0.277344,-1.167969,-0.5,0.507385,0.683228,0.334961,0.404419,down
326598,2.773438,10.453125,-2.429688,0.097656,-1.089844,-0.441406,0.507385,0.683228,0.334961,0.404419,down
326603,2.773438,10.378906,-2.507813,0.097656,-1.089844,-0.441406,0.510925,0.685913,0.333435,0.396606,down
326608,2.773438,10.378906,-2.542969,0.097656,-1.089844,-0.441406,0.511963,0.686707,0.333008,0.394287,down
326613,2.699219,10.378906,-2.582031,0.171875,-1.033203,-0.425781,0.511963,0.686707,0.333008,0.394287,down
326618,2.660156,10.414063,-2.621094,0.232422,-1.021484,-0.425781,0.513123,0.687622,0.33252,0.391541,down
326623,2.621094,10.414063,-2.621094,0.232422,-1.021484,-0.425781,0.514832,0.689453,0.331848,0.386719,down
326628,2.621094,10.453125,-2.621094,0.232422,-1.021484,-0.425781,0.515442,0.690369,0.331665,0.384277,down
326633,2.507813,10.453125,-2.660156,0.232422,-1.021484,-0.425781,0.515442,0.690369,0.331665,0.384277,down
326638,2.542969,10.453125,-2.660156,0.378906,-0.974609,-0.439453,0.516663,0.692444,0.33136,0.37915,down
326643,2.429688,10.496094,-2.621094,0.378906,-0.974609,-0.439453,0.516663,0.692444,0.33136,0.37915,down
326648,2.390625,10.457031,-2.660156,0.275391,-0.939453,-0.425781,0.516663,0.692444,0.33136,0.37915,down
326653,2.3125,10.414063,-2.621094,0.195312,-0.921875,-0.425781,0.517883,0.694336,0.331055,0.374268,down
326659,2.238281,10.304688,-2.660156,0.195312,-0.921875,-0.425781,0.519592,0.695923,0.330505,0.369385,down
326665,2.199219,10.1875,-2.738281,0.195312,-0.921875,-0.425781,0.520569,0.696411,0.330139,0.367432,down
326671,2.160156,10.074219,-2.738281,-0.066406,-0.880859,-0.394531,0.520569,0.696411,0.330139,0.367432,down
326677,2.160156,9.925781,-2.699219,-0.109375,-0.873047,-0.390625,0.520569,0.696411,0.330139,0.367432,down
326682,2.160156,9.886719,-2.738281,-0.115234,-0.84375,-0.382813,0.520569,0.696411,0.330139,0.367432,down
326688,2.121094,9.804688,-2.738281,-0.052734,-0.791016,-0.376953,0.520569,0.696411,0.330139,0.367432,down
326693,2.085938,9.808594,-2.773438,-0.052734,-0.791016,-0.376953,0.52655,0.69812,0.327637,0.357849,down
326699,2.046875,9.769531,-2.8125,-0.052734,-0.791016,-0.376953,0.528442,0.698914,0.326904,0.354126,down
326704,2.046875,9.769531,-2.8125,0.179687,-0.75,-0.365234,0.529175,0.699402,0.32666,0.352234,down
326709,2.007813,9.769531,-2.773438,0.275391,-0.734375,-0.361328,0.529724,0.700134,0.326538,0.350098,down
326715,1.929688,9.769531,-2.8125,0.275391,-0.734375,-0.361328,0.53009,0.700806,0.326538,0.348267,down
326721,1.929688,9.765625,-2.773438,0.414062,-0.681641,-0.361328,0.53009,0.700806,0.326538,0.348267,down
326726,1.929688,9.808594,-2.8125,0.445312,-0.664062,-0.359375,0.53009,0.700806,0.326538,0.348267,down
326731,1.929688,9.886719,-2.773438,0.439453,-0.648437,-0.363281,0.53009,0.700806,0.326538,0.348267,down
326737,1.894531,9.925781,-2.699219,0.419922,-0.634766,-0.363281,0.53009,0.700806,0.326538,0.348267,down
326742,1.894531,9.953125,-2.738281,0.378906,-0.611328,-0.369141,0.53009,0.700806,0.326538,0.348267,down
326747,1.894531,9.953125,-2.738281,0.320313,-0.582031,-0.363281,0.530823,0.705505,0.327332,0.336609,down
326752,1.855469,9.953125,-2.773438,0.255859,-0.546875,-0.367188,0.530823,0.705505,0.327332,0.336609,down
326757,1.855469,9.953125,-2.773438,0.173828,-0.533203,-0.371094,0.531494,0.706482,0.327637,0.333252,down
326763,1.777344,9.886719,-2.8125,0.173828,-0.533203,-0.371094,0.531982,0.706787,0.327759,0.331787,down
326768,1.738281,9.886719,-2.8125,0.173828,-0.533203,-0.371094,0.533203,0.707214,0.32782,0.328857,down
326773,1.703125,9.886719,-2.8125,0.041016,-0.503906,-0.371094,0.533203,0.707214,0.32782,0.328857,down
326778,1.664063,9.84375,-2.773438,0.041016,-0.503906,-0.371094,0.533936,0.707336,0.32782,0.327271,down
326783,1.625,9.847656,-2.8125,0.064453,-0.486328,-0.373047,0.533936,0.707336,0.32782,0.327271,down
326789,1.625,9.84375,-2.773438,0.064453,-0.486328,-0.373047,0.535706,0.707825,0.328064,0.323181,down
326794,1.585938,9.847656,-2.738281,0.140625,-0.474609,-0.380859,0.536194,0.708069,0.328186,0.321655,down
326799,1.546875,9.84375,-2.738281,0.183594,-0.478516,-0.384766,0.536621,0.708313,0.328369,0.320129,down
326805,1.511719,9.84375,-2.738281,0.212891,-0.455078,-0.384766,0.536926,0.708618,0.328613,0.318726,down
326810,1.433594,9.886719,-2.660156,0.212891,-0.455078,-0.384766,0.537231,0.708923,0.328857,0.317261,down
326815,1.472656,9.882813,-2.582031,0.228516,-0.445312,-0.384766,0.537231,0.708923,0.328857,0.317261,down
326821,1.433594,9.886719,-2.621094,0.205078,-0.449219,-0.375,0.537231,0.708923,0.328857,0.317261,down
326826,1.394531,9.847656,-2.542969,0.205078,-0.449219,-0.375,0.537231,0.708923,0.328857,0.317261,down
326832,1.316406,9.808594,-2.507813,0.138672,-0.433594,-0.369141,0.537231,0.708923,0.328857,0.317261,down
326837,1.28125,9.804688,-2.507813,0.138672,-0.433594,-0.369141,0.538879,0.710327,0.330017,0.310059,down
326842,1.28125,9.804688,-2.507813,0.138672,-0.433594,-0.369141,0.539429,0.710449,0.330139,0.308777,down
326848,1.203125,9.804688,-2.46875,0.138672,-0.433594,-0.369141,0.539429,0.710449,0.330139,0.308777,down
326853,1.242188,9.765625,-2.507813,-0.025391,-0.435547,-0.375,0.541382,0.710449,0.330383,0.304993,down
326858,1.242188,9.765625,-2.507813,-0.025391,-0.435547,-0.375,0.541382,0.710449,0.330383,0.304993,down
326863,1.203125,9.730469,-2.46875,-0.035156,-0.4375,-0.378906,0.541382,0.710449,0.330383,0.304993,down
326868,1.203125,9.730469,-2.46875,-0.035156,-0.4375,-0.378906,0.542847,0.710327,0.330566,0.30249,down
326874,1.203125,9.726563,-2.429688,-0.009766,-0.425781,-0.378906,0.544189,0.710266,0.33075,0.299927,down
326880,1.203125,9.730469,-2.46875,-0.009766,-0.425781,-0.378906,0.544739,0.710327,0.330872,0.298706,down
326885,1.203125,9.730469,-2.46875,0.087891,-0.400391,-0.373047,0.545227,0.710449,0.331055,0.297424,down
326890,1.164063,9.808594,-2.429688,0.087891,-0.400391,-0.373047,0.545593,0.710571,0.331238,0.296204,down
326895,1.125,9.808594,-2.429688,0.087891,-0.400391,-0.373047,0.545959,0.710754,0.331421,0.294922,down
326900,1.125,9.84375,-2.429688,0.087891,-0.400391,-0.373047,0.545959,0.710754,0.331421,0.294922,down
326905,1.089844,9.808594,-2.351563,0.191406,-0.359375,-0.298828,0.545959,0.710754,0.331421,0.294922,down
326911,1.050781,9.84375,-2.390625,0.208984,-0.353516,-0.294922,0.545959,0.710754,0.331421,0.294922,down
326916,1.011719,9.84375,-2.351563,0.208984,-0.353516,-0.294922,0.545959,0.710754,0.331421,0.294922,down
326922,0.972656,9.804688,-2.316406,0.222656,-0.359375,-0.269531,0.545959,0.710754,0.331421,0.294922,down
326927,0.972656,9.804688,-2.316406,0.224609,-0.363281,-0.261719,0.545959,0.710754,0.331421,0.294922,down
326932,0.972656,9.804688,-2.316406,0.224609,-0.363281,-0.261719,0.546936,0.712769,0.332703,0.286499,down
326937,0.933594,9.808594,-2.316406,0.224609,-0.363281,-0.261719,0.546936,0.712769,0.332703,0.286499,down
326942,0.898437,9.847656,-2.277344,0.224609,-0.363281,-0.261719,0.547119,0.71344,0.332947,0.28418,down
326947,0.859375,9.847656,-2.277344,0.207031,-0.380859,-0.246094,0.547119,0.71344,0.332947,0.28418,down
326952,0.859375,9.730469,-2.238281,0.207031,-0.380859,-0.246094,0.547119,0.71344,0.332947,0.28418,down
326958,0.859375,9.726563,-2.199219,0.207031,-0.380859,-0.246094,0.547546,0.714478,0.33313,0.28064,down
326963,0.820312,9.730469,-2.199219,0.15625,-0.416016,-0.232422,0.547546,0.714478,0.33313,0.28064,down
326968,0.78125,9.574219,-2.160156,0.15625,-0.416016,-0.232422,0.547974,0.715027,0.33313,0.27832,down
326973,0.742187,9.53125,-2.125,0.15625,-0.416016,-0.232422,0.548218,0.715332,0.333069,0.277161,down
326979,0.78125,9.503906,-2.085938,0.142578,-0.427734,-0.230469,0.548218,0.715332,0.333069,0.277161,down
326984,0.742187,9.425781,-2.046875,0.142578,-0.427734,-0.230469,0.54895,0.716248,0.332947,0.273499,down
326989,0.707031,9.347656,-2.046875,0.142578,-0.427734,-0.230469,0.549194,0.716553,0.332825,0.272339,down
326994,0.707031,9.269531,-2.085938,0.148437,-0.457031,-0.21875,0.549194,0.716553,0.332825,0.272339,down
326999,0.667969,9.265625,-2.046875,0.160156,-0.451172,-0.216797,0.5495,0.716858,0.332764,0.270996,down
327004,0.667969,9.269531,-2.085938,0.160156,-0.451172,-0.216797,0.549988,0.717529,0.33252,0.268616,down
327009,0.628906,9.269531,-2.085938,0.160156,-0.451172,-0.216797,0.550171,0.717834,0.332397,0.267395,down
327014,0.667969,9.269531,-2.125,0.160156,-0.451172,-0.216797,0.550171,0.717834,0.332397,0.267395,down
327019,0.628906,9.191406,-2.046875,0.203125,-0.478516,-0.201172,0.550171,0.717834,0.332397,0.267395,down
327024,0.589844,9.226563,-2.125,0.203125,-0.478516,-0.201172,0.550598,0.719177,0.332031,0.263489,down
327029,0.515625,9.191406,-2.125,0.289063,-0.484375,-0.1875,0.550598,0.719177,0.332031,0.263489,down
327034,0.476562,9.269531,-2.085938,0.3125,-0.486328,-0.183594,0.550598,0.719727,0.331909,0.262024,down
327040,0.398438,9.269531,-2.046875,0.3125,-0.486328,-0.183594,0.550537,0.720825,0.331665,0.259338,down
327045,0.285156,9.304688,-2.046875,0.3125,-0.486328,-0.183594,0.550415,0.721436,0.331604,0.257996,down
327051,0.285156,9.308594,-1.96875,0.355469,-0.46875,-0.199219,0.550293,0.722046,0.331543,0.256592,down
327056,0.246094,9.226563,-1.96875,0.363281,-0.476562,-0.207031,0.550293,0.722046,0.331543,0.256592,down
327061,0.167969,9.269531,-1.933594,0.363281,-0.476562,-0.207031,0.550049,0.723267,0.331482,0.253784,down
327066,0.167969,9.269531,-1.933594,0.363281,-0.476562,-0.207031,0.550049,0.723267,0.331482,0.253784,down
327072,0.167969,9.269531,-1.933594,0.367188,-0.464844,-0.222656,0.549805,0.724487,0.331543,0.250854,down
327077,0.167969,9.269531,-1.933594,0.339844,-0.458984,-0.232422,0.549683,0.725037,0.331543,0.249451,down
327082,0.09375,9.078125,-2.007813,0.339844,-0.458984,-0.232422,0.549683,0.725037,0.331543,0.249451,down
327087,0.09375,9.078125,-1.933594,0.316406,-0.474609,-0.226562,0.549561,0.726135,0.331482,0.246582,down
327092,0.128906,9.117188,-1.933594,0.324219,-0.474609,-0.216797,0.549561,0.726135,0.331482,0.246582,down
327097,0.054687,9.191406,-2.085938,0.324219,-0.474609,-0.216797,0.549561,0.726135,0.331482,0.246582,down
327102,0.015625,9.265625,-2.125,0.324219,-0.474609,-0.216797,0.549255,0.727844,0.331421,0.242249,down
327107,0.015625,9.347656,-2.160156,0.464844,-0.488281,-0.234375,0.549255,0.727844,0.331421,0.242249,down
327112,-0.023437,9.382813,-2.160156,0.464844,-0.488281,-0.234375,0.548645,0.729309,0.331482,0.239075,down
327117,-0.0625,9.386719,-2.277344,0.464844,-0.488281,-0.234375,0.548645,0.729309,0.331482,0.239075,down
327122,-0.023437,9.460938,-2.351563,0.464844,-0.488281,-0.234375,0.547913,0.730896,0.331665,0.235779,down
327127,-0.023437,9.53125,-2.429688,0.511719,-0.509766,-0.242187,0.547913,0.730896,0.331665,0.235779,down
327132,-0.097656,9.769531,-2.429688,0.511719,-0.509766,-0.242187,0.547913,0.730896,0.331665,0.235779,down
327137,-0.097656,9.992188,-2.46875,0.511719,-0.509766,-0.242187,0.546753,0.733215,0.331848,0.230835,down
327142,-0.136719,10.148438,-2.507813,0.486328,-0.464844,-0.271484,0.546753,0.733215,0.331848,0.230835,down
327147,-0.136719,10.265625,-2.542969,0.445312,-0.429687,-0.28125,0.546753,0.733215,0.331848,0.230835,down
327152,-0.214844,10.53125,-2.738281,0.445312,-0.429687,-0.28125,0.546753,0.733215,0.331848,0.230835,down
327158,-0.253906,10.570313,-2.773438,0.445312,-0.429687,-0.28125,0.545654,0.735596,0.332642,0.224731,down
327164,-0.253906,10.652344,-2.773438,0.21875,-0.388672,-0.298828,0.545654,0.735596,0.332642,0.224731,down
327169,-0.253906,10.691406,-2.8125,0.160156,-0.378906,-0.298828,0.546021,0.736267,0.33313,0.220947,down
327174,-0.289063,10.691406,-2.773438,0.160156,-0.378906,-0.298828,0.546021,0.736267,0.33313,0.220947,down
327179,-0.253906,10.691406,-2.738281,-0.001953,-0.330078,-0.285156,0.546021,0.736267,0.33313,0.220947,down
327184,-0.253906,10.652344,-2.773438,-0.001953,-0.330078,-0.285156,0.54718,0.736206,0.333435,0.217834,down
327189,-0.253906,10.574219,-2.738281,-0.001953,-0.330078,-0.285156,0.547668,0.736023,0.333496,0.21698,down
327194,-0.214844,10.453125,-2.738281,-0.001953,-0.330078,-0.285156,0.547668,0.736023,0.333496,0.21698,down
327199,-0.175781,10.339844,-2.738281,-0.158203,-0.292969,-0.255859,0.549011,0.735474,0.333496,0.215515,down
327204,-0.175781,10.152344,-2.738281,-0.158203,-0.292969,-0.255859,0.549011,0.735474,0.333496,0.215515,down
327209,-0.175781,10.074219,-2.773438,-0.183594,-0.244141,-0.238281,0.549011,0.735474,0.333496,0.215515,down
327214,-0.214844,10.03125,-2.738281,-0.183594,-0.244141,-0.238281,0.550476,0.734802,0.333496,0.214172,down
327220,-0.328125,10.113281,-2.738281,-0.183594,-0.244141,-0.238281,0.551575,0.734253,0.333557,0.212952,down
327226,-0.367188,10.1875,-2.738281,-0.183594,-0.244141,-0.238281,0.552002,0.73407,0.333618,0.212402,down
327231,-0.445312,10.492188,-2.660156,-0.015625,-0.214844,-0.197266,0.552368,0.733948,0.333679,0.21167,down
327237,-0.519531,10.574219,-2.699219,0.019531,-0.195312,-0.195312,0.552368,0.733948,0.333679,0.21167,down
327243,-0.558594,10.757813,-2.773438,0.019531,-0.195312,-0.195312,0.552795,0.733887,0.333923,0.21051,down
327249,-0.597656,10.800781,-2.851563,0.0625,-0.181641,-0.195312,0.552795,0.733887,0.333923,0.21051,down
327254,-0.558594,10.835938,-2.890625,0.050781,-0.167969,-0.175781,0.553223,0.733887,0.334351,0.208679,down
327260,-0.480469,10.878906,-2.929688,0.050781,-0.167969,-0.175781,0.553406,0.733826,0.334473,0.208191,down
327265,-0.367188,10.796875,-3.003906,0.050781,-0.167969,-0.175781,0.55365,0.733704,0.334534,0.207825,down
327270,-0.367188,10.796875,-3.003906,-0.121094,-0.105469,-0.097656,0.554016,0.733521,0.334595,0.20752,down
327275,-0.214844,10.570313,-2.929688,-0.121094,-0.105469,-0.097656,0.554382,0.733276,0.334534,0.207397,down
327280,-0.097656,10.496094,-2.890625,-0.121094,-0.105469,-0.097656,0.55481,0.732971,0.334534,0.207458,down
327285,-0.0625,10.378906,-2.929688,-0.337891,0.035156,-0.023437,0.55542,0.732483,0.334473,0.207703,down
327290,-0.0625,10.191406,-3.003906,-0.337891,0.035156,-0.023437,0.55603,0.731934,0.334412,0.208069,down
327295,0.054687,9.808594,-2.929688,-0.337891,0.035156,-0.023437,0.556641,0.731384,0.33429,0.208557,down
327301,0.167969,9.652344,-2.851563,-0.337891,0.035156,-0.023437,0.557312,0.730713,0.334229,0.209106,down
327306,0.167969,9.535156,-2.851563,-0.273438,0.167969,0.017578,0.557678,0.730286,0.33429,0.209595,down
327312,0.324219,9.5,-2.773438,-0.179687,0.201172,0.035156,0.557678,0.730286,0.33429,0.209595,down
327318,0.359375,9.503906,-2.738281,-0.087891,0.216797,0.037109,0.557678,0.730286,0.33429,0.209595,down
327323,0.398438,9.503906,-2.621094,0.023437,0.25,0.046875,0.557678,0.730286,0.33429,0.209595,down
327329,0.515625,9.464844,-2.507813,0.109375,0.287109,0.054687,0.557678,0.730286,0.33429,0.209595,down
327334,0.515625,9.5,-2.429688,0.109375,0.287109,0.054687,0.556885,0.729492,0.335571,0.212341,down
327339,0.515625,9.503906,-2.351563,0.261719,0.384766,0.064453,0.556885,0.729492,0.335571,0.212341,down
327344,0.550781,9.53125,-2.277344,0.261719,0.384766,0.064453,0.555359,0.729858,0.33667,0.213501,down
327350,0.515625,9.574219,-2.238281,0.261719,0.384766,0.064453,0.55365,0.730225,0.337891,0.214661,down
327355,0.550781,9.570313,-2.199219,0.208984,0.431641,0.044922,0.552734,0.730408,0.338562,0.215393,down
327360,0.515625,9.609375,-2.160156,0.130859,0.443359,0.064453,0.552002,0.730408,0.339233,0.216187,down
327365,0.515625,9.648438,-2.160156,0.130859,0.443359,0.064453,0.552002,0.730408,0.339233,0.216187,down
327370,0.515625,9.652344,-2.316406,0.130859,0.443359,0.064453,0.550903,0.730164,0.340393,0.217957,down
327375,0.515625,9.648438,-2.351563,-0.021484,0.488281,0.052734,0.550415,0.729919,0.341003,0.218994,down
327380,0.476562,9.730469,-2.390625,-0.076172,0.462891,0.052734,0.550049,0.729614,0.341614,0.220032,down
327385,0.515625,9.765625,-2.351563,-0.150391,0.429687,0.041016,0.550049,0.729614,0.341614,0.220032,down
327390,0.667969,9.613281,-2.277344,-0.150391,0.429687,0.041016,0.549805,0.72876,0.342529,0.221924,down
327395,0.78125,9.503906,-2.351563,-0.142578,0.369141,-0.037109,0.549805,0.728333,0.343018,0.222778,down
327400,0.859375,9.609375,-2.46875,-0.142578,0.369141,-0.037109,0.549805,0.728333,0.343018,0.222778,down
327405,1.050781,9.648438,-2.507813,-0.142578,0.369141,-0.037109,0.549744,0.727478,0.344116,0.223999,down
327410,1.089844,9.726563,-2.507813,-0.095703,0.298828,-0.173828,0.549744,0.726929,0.344849,0.224487,down
327415,1.164063,9.886719,-2.507813,-0.095703,0.298828,-0.173828,0.549744,0.726501,0.345581,0.224854,down
327420,1.28125,10.03125,-2.46875,-0.095703,0.298828,-0.173828,0.549744,0.726074,0.346375,0.225098,down
327425,1.316406,10.070313,-2.582031,-0.011719,0.294922,-0.271484,0.549683,0.725647,0.347229,0.225281,down
327430,1.355469,10.152344,-2.582031,0.037109,0.314453,-0.289063,0.549683,0.725647,0.347229,0.225281,down
327435,1.242188,10.265625,-2.621094,0.097656,0.332031,-0.302734,0.5495,0.72522,0.348267,0.225464,down
327440,1.125,10.339844,-2.773438,0.097656,0.332031,-0.302734,0.54895,0.724548,0.350281,0.225769,down
327445,0.972656,10.308594,-2.851563,0.060547,0.363281,-0.314453,0.54895,0.724548,0.350281,0.225769,down
327450,0.933594,10.304688,-2.851563,0.060547,0.363281,-0.314453,0.548645,0.724121,0.351563,0.225952,down
327455,0.898437,10.609375,-2.851563,-0.001953,0.330078,-0.308594,0.548645,0.724121,0.351563,0.225952,down
327461,0.933594,10.652344,-2.699219,-0.001953,0.330078,-0.308594,0.548645,0.722534,0.35437,0.226562,down
327466,0.933594,10.652344,-2.699219,-0.292969,0.294922,-0.337891,0.549072,0.721741,0.355225,0.226807,down
327471,1.050781,10.414063,-2.851563,-0.292969,0.294922,-0.337891,0.549561,0.720764,0.35614,0.227234,down
327478,0.972656,10.1875,-3.042969,-0.292969,0.294922,-0.337891,0.550049,0.719788,0.357117,0.227661,down
327484,1.089844,10.035156,-3.042969,-0.429687,0.34375,-0.398438,0.550049,0.719788,0.357117,0.227661,down
327490,1.164063,9.992188,-3.003906,-0.474609,0.316406,-0.386719,0.552185,0.716309,0.359924,0.229126,down
327495,1.394531,9.847656,-2.738281,-0.474609,0.316406,-0.386719,0.552856,0.715088,0.360962,0.229614,down
327500,1.394531,9.730469,-2.621094,-0.419922,0.552734,-0.421875,0.552856,0.715088,0.360962,0.229614,down
327505,1.355469,9.652344,-2.542969,-0.419922,0.552734,-0.421875,0.553833,0.712524,0.363525,0.23114,down
327510,1.316406,9.769531,-2.964844,-0.419922,0.552734,-0.421875,0.554199,0.711304,0.364807,0.232117,down
327515,1.28125,9.648438,-3.195313,-0.332031,0.521484,-0.289063,0.554199,0.711304,0.364807,0.232117,down
327520,1.316406,9.6875,-3.464844,-0.332031,0.521484,-0.289063,0.554504,0.710083,0.366089,0.233093,down
327525,1.355469,9.886719,-3.617188,-0.324219,0.5625,-0.230469,0.554504,0.710083,0.366089,0.233093,down
327531,1.089844,10.269531,-3.847656,-0.324219,0.5625,-0.230469,0.554932,0.70813,0.368042,0.234863,down
327536,1.089844,10.269531,-3.847656,-0.283203,0.494141,-0.197266,0.555115,0.707214,0.368958,0.235779,down
327541,1.050781,10.535156,-3.925781,-0.283203,0.494141,-0.197266,0.555298,0.70636,0.369812,0.236633,down
327546,1.050781,10.535156,-3.925781,-0.347656,0.369141,-0.117188,0.555908,0.704712,0.370972,0.23822,down
327552,1.011719,10.757813,-3.539063,-0.347656,0.369141,-0.117188,0.556213,0.703857,0.371582,0.239075,down
327558,0.820312,10.839844,-3.347656,-0.308594,0.580078,-0.109375,0.556213,0.703857,0.371582,0.239075,down
327563,0.628906,10.839844,-3.195313,-0.242187,0.701172,-0.113281,0.556213,0.703857,0.371582,0.239075,down
327569,0.246094,10.796875,-3.121094,-0.242187,0.701172,-0.113281,0.556213,0.703857,0.371582,0.239075,down
327575,0.207031,10.6875,-3.121094,-0.054687,0.841797,-0.179687,0.556213,0.703857,0.371582,0.239075,down
327580,0.015625,10.375,-2.964844,-0.054687,0.841797,-0.179687,0.554993,0.699829,0.376953,0.245239,down
327585,-0.0625,10.226563,-2.890625,-0.054687,0.841797,-0.179687,0.553894,0.698059,0.380005,0.247864,down
327590,-0.136719,10.1875,-2.929688,-0.259766,0.839844,-0.259766,0.553894,0.698059,0.380005,0.247864,down
327595,-0.214844,10.03125,-2.851563,-0.359375,0.798828,-0.269531,0.553589,0.696899,0.381653,0.24939,down
327601,-0.367188,9.769531,-2.738281,-0.359375,0.798828,-0.269531,0.553589,0.694458,0.384338,0.252075,down
327607,-0.445312,9.957031,-2.773438,-0.359375,0.798828,-0.269531,0.553833,0.693176,0.385498,0.253357,down
327614,-0.480469,10.03125,-2.851563,-0.492187,0.648437,-0.242187,0.553833,0.693176,0.385498,0.253357,down
327619,-0.75,10.070313,-3.042969,-0.501953,0.662109,-0.259766,0.553833,0.693176,0.385498,0.253357,down
327624,-1.019531,10.226563,-3.195313,-0.501953,0.662109,-0.259766,0.554932,0.689026,0.388672,0.257263,down
327629,-1.058594,10.269531,-3.3125,-0.554687,0.574219,-0.21875,0.554932,0.689026,0.388672,0.257263,down
327634,-0.941406,10.191406,-3.347656,-0.552734,0.412109,-0.205078,0.554932,0.689026,0.388672,0.257263,down
327639,-0.828125,9.925781,-3.503906,-0.552734,0.412109,-0.205078,0.556763,0.685059,0.390869,0.260681,down
327645,-0.828125,9.921875,-3.617188,-0.492187,0.289063,-0.185547,0.556763,0.685059,0.390869,0.260681,down
327650,-0.789062,9.957031,-3.730469,-0.244141,0.367188,-0.152344,0.556763,0.685059,0.390869,0.260681,down
327656,-1.058594,10.035156,-3.886719,-0.244141,0.367188,-0.152344,0.558289,0.681458,0.393005,0.26355,down
327662,-1.09375,9.804688,-3.808594,-0.244141,0.367188,-0.152344,0.557983,0.680969,0.39386,0.264282,down
327667,-1.09375,9.804688,-3.808594,0.087891,0.476562,-0.050781,0.557556,0.680664,0.394531,0.264832,down
327673,-1.324219,9.648438,-3.503906,0.087891,0.476562,-0.050781,0.557556,0.680664,0.394531,0.264832,down
327679,-1.402344,9.53125,-3.425781,0.177734,0.523437,-0.001953,0.557556,0.680664,0.394531,0.264832,down
327685,-1.441406,9.464844,-3.386719,0.169922,0.496094,0.005859,0.557556,0.680664,0.394531,0.264832,down
327691,-1.515625,9.308594,-3.539063,0.177734,0.460937,0.003906,0.557556,0.680664,0.394531,0.264832,down
327697,-1.746094,9.648438,-3.617188,0.177734,0.460937,0.003906,0.552917,0.679932,0.399536,0.268921,down
327702,-1.898438,9.769531,-3.617188,0.214844,0.453125,-0.074219,0.552124,0.679871,0.400452,0.269409,down
327707,-1.976563,9.765625,-3.617188,0.21875,0.441406,-0.105469,0.552124,0.679871,0.400452,0.269409,down
327713,-2.207031,9.6875,-3.464844,0.21875,0.441406,-0.105469,0.550659,0.679626,0.402283,0.270264,down
327718,-2.28125,9.613281,-3.425781,0.152344,0.347656,-0.125,0.550659,0.679626,0.402283,0.270264,down
327723,-2.359375,9.503906,-3.386719,0.101563,0.285156,-0.121094,0.550659,0.679626,0.402283,0.270264,down
327729,-2.4375,9.460938,-3.503906,0.029297,0.238281,-0.111328,0.550659,0.679626,0.402283,0.270264,down
327734,-2.359375,9.382813,-3.578125,0.029297,0.238281,-0.111328,0.550659,0.679626,0.402283,0.270264,down
327739,-2.320313,9.265625,-3.617188,0.029297,0.238281,-0.111328,0.549194,0.678406,0.405334,0.271729,down
327745,-2.128906,9.230469,-3.65625,-0.246094,0.167969,-0.064453,0.549194,0.678406,0.405334,0.271729,down
327751,-2.050781,9.226563,-3.539063,-0.330078,0.164062,-0.066406,0.550232,0.676697,0.405884,0.273254,down
327756,-2.015625,9.191406,-3.503906,-0.365234,0.191406,-0.082031,0.55072,0.675842,0.406006,0.273926,down
327761,-1.976563,9.1875,-3.464844,-0.3125,0.214844,-0.089844,0.551147,0.675171,0.40625,0.274475,down
327767,-1.976563,9.230469,-3.425781,-0.208984,0.265625,-0.109375,0.551392,0.674561,0.406555,0.275024,down
327772,-1.976563,9.425781,-3.503906,-0.208984,0.265625,-0.109375,0.551392,0.674011,0.407104,0.275574,down
327778,-2.089844,9.460938,-3.464844,0.050781,0.429687,-0.126953,0.551392,0.674011,0.407104,0.275574,down
327784,-2.207031,9.570313,-3.347656,0.1875,0.515625,-0.125,0.551392,0.674011,0.407104,0.275574,down
327789,-2.320313,9.53125,-3.273438,0.289063,0.59375,-0.115234,0.551392,0.674011,0.407104,0.275574,down
327795,-2.398438,9.53125,-3.195313,0.378906,0.6875,-0.080078,0.551392,0.674011,0.407104,0.275574,down
327800,-2.472656,9.652344,-3.003906,0.378906,0.6875,-0.080078,0.547241,0.672913,0.412537,0.278442,down
327805,-2.472656,9.613281,-2.851563,0.378906,0.6875,-0.080078,0.545898,0.672852,0.41394,0.279175,down
327810,-2.628906,9.613281,-2.8125,0.378906,0.6875,-0.080078,0.544739,0.672729,0.4151,0.279968,down
327816,-2.703125,9.609375,-2.8125,0.236328,0.681641,0.005859,0.542419,0.672424,0.417358,0.28186,down
327821,-2.664063,9.535156,-2.773438,0.236328,0.681641,0.005859,0.541321,0.672241,0.418335,0.282959,down
327826,-2.664063,9.574219,-2.8125,0.111328,0.5625,0.119141,0.541321,0.672241,0.418335,0.282959,down
327831,-2.703125,9.609375,-2.851563,0.111328,0.5625,0.119141,0.539673,0.671997,0.419556,0.284912,down
327836,-2.664063,9.570313,-2.890625,0.111328,0.5625,0.119141,0.53894,0.671875,0.419983,0.28595,down
327841,-2.589844,9.574219,-2.773438,0.111328,0.5625,0.119141,0.53833,0.671753,0.420227,0.286987,down
327846,-2.511719,9.613281,-2.738281,-0.099609,0.384766,0.285156,0.53833,0.671753,0.420227,0.286987,down
327851,-2.4375,9.609375,-2.699219,-0.115234,0.326172,0.318359,0.537781,0.671631,0.420288,0.288208,down
327856,-2.4375,9.609375,-2.699219,-0.117188,0.285156,0.345703,0.536987,0.671509,0.419983,0.290405,down
327861,-2.207031,9.769531,-2.851563,-0.089844,0.255859,0.361328,0.536987,0.671509,0.419983,0.290405,down
327866,-2.207031,9.730469,-2.890625,-0.089844,0.255859,0.361328,0.536194,0.67157,0.419434,0.29248,down
327871,-2.167969,9.765625,-2.890625,-0.089844,0.255859,0.361328,0.535645,0.671814,0.419067,0.293579,down
327876,-2.089844,9.648438,-2.773438,-0.089844,0.255859,0.361328,0.535095,0.672058,0.418762,0.294434,down
327881,-2.050781,9.648438,-2.738281,0.09375,0.21875,0.443359,0.535095,0.672058,0.418762,0.294434,down
327886,-2.050781,9.503906,-2.738281,0.09375,0.21875,0.443359,0.534363,0.672424,0.418335,0.295471,down
327891,-1.785156,9.269531,-2.621094,0.152344,0.216797,0.458984,0.53363,0.672852,0.41803,0.296265,down
327896,-1.785156,9.269531,-2.621094,0.181641,0.214844,0.476562,0.53363,0.672852,0.41803,0.296265,down
327901,-1.785156,9.269531,-2.621094,0.181641,0.214844,0.476562,0.53186,0.674011,0.417297,0.297913,down
327906,-1.785156,9.269531,-2.621094,0.146484,0.255859,0.556641,0.529968,0.675171,0.416382,0.299744,down
327912,-1.515625,8.539063,-2.390625,0.146484,0.255859,0.556641,0.528992,0.675781,0.415894,0.300842,down
327917,-1.515625,8.578125,-2.390625,0.150391,0.244141,0.599609,0.528992,0.675781,0.415894,0.300842,down
327922,-1.554688,8.542969,-2.507813,0.148437,0.234375,0.613281,0.528992,0.675781,0.415894,0.300842,down
327927,-1.554688,8.542969,-2.507813,0.148437,0.207031,0.613281,0.526123,0.677673,0.414124,0.304016,down
327933,-1.476563,8.273438,-2.582031,0.148437,0.207031,0.613281,0.525085,0.678467,0.413391,0.305176,down
327939,-1.402344,8.273438,-2.542969,0.164062,0.123047,0.619141,0.525085,0.678467,0.413391,0.305176,down
327944,-1.324219,8.277344,-2.542969,0.201172,0.103516,0.615234,0.525085,0.678467,0.413391,0.305176,down
327949,-1.09375,8.34375,-2.542969,0.201172,0.103516,0.615234,0.5224,0.680725,0.411316,0.307556,down
327954,-0.980469,8.421875,-2.582031,0.34375,0.091797,0.605469,0.5224,0.680725,0.411316,0.307556,down
327959,-0.941406,8.421875,-2.542969,0.410156,0.089844,0.595703,0.5224,0.680725,0.411316,0.307556,down
327964,-0.828125,8.425781,-2.542969,0.410156,0.089844,0.595703,0.518738,0.683777,0.409485,0.309265,down
327970,-0.828125,8.425781,-2.507813,0.455078,0.09375,0.558594,0.518738,0.683777,0.409485,0.309265,down
327975,-0.710937,8.382813,-2.46875,0.455078,0.09375,0.558594,0.516113,0.685913,0.408508,0.310242,down
327981,-0.636719,8.421875,-2.582031,0.472656,0.087891,0.546875,0.516113,0.685913,0.408508,0.310242,down
327986,-0.671875,8.464844,-2.621094,0.466797,0.128906,0.486328,0.513428,0.688049,0.407654,0.311035,down
327991,-0.636719,8.503906,-2.660156,0.466797,0.128906,0.486328,0.510803,0.690002,0.407043,0.311829,down
327996,-0.519531,8.5,-2.660156,0.298828,0.128906,0.427734,0.510803,0.690002,0.407043,0.311829,down
328001,-0.367188,8.65625,-2.507813,0.298828,0.128906,0.427734,0.508789,0.691406,0.406433,0.312805,down
328006,-0.367188,8.542969,-2.390625,0.074219,0.148437,0.371094,0.508789,0.691406,0.406433,0.312805,down
328011,-0.367188,8.539063,-2.277344,0.074219,0.148437,0.371094,0.508057,0.691895,0.406006,0.313538,down
328016,-0.367188,8.695313,-2.429688,0.001953,0.152344,0.34375,0.508057,0.691895,0.406006,0.313538,down
328021,-0.367188,8.695313,-2.429688,0.001953,0.152344,0.34375,0.506775,0.692444,0.405029,0.315613,down
328026,-0.519531,8.882813,-2.542969,0.001953,0.152344,0.34375,0.506775,0.692444,0.405029,0.315613,down
328031,-0.519531,9.0,-2.542969,-0.066406,0.179687,0.289063,0.506165,0.692566,0.404358,0.3172,down
328036,-0.367188,9.152344,-2.542969,-0.066406,0.179687,0.289063,0.506165,0.692566,0.404358,0.3172,down
328041,-0.328125,9.1875,-2.542969,-0.126953,0.107422,0.277344,0.50592,0.692627,0.404053,0.317871,down
328046,-0.253906,9.304688,-2.582031,-0.126953,0.107422,0.277344,0.505798,0.692627,0.403625,0.318665,down
328051,-0.136719,9.464844,-2.582031,-0.126953,0.070312,0.28125,0.505798,0.692627,0.403625,0.318665,down
328056,-0.136719,9.464844,-2.582031,-0.126953,0.070312,0.28125,0.505493,0.692871,0.402222,0.320435,down
328061,-0.0625,9.574219,-2.660156,-0.126953,0.070312,0.28125,0.505493,0.692871,0.402222,0.320435,down
328066,0.015625,9.648438,-2.660156,-0.085937,0.015625,0.294922,0.505493,0.692871,0.402222,0.320435,down
328071,0.167969,9.6875,-2.660156,-0.066406,0.013672,0.296875,0.505493,0.692871,0.402222,0.320435,down
328076,0.207031,9.726563,-2.660156,-0.066406,0.013672,0.296875,0.504944,0.693542,0.400024,0.32251,down
328081,0.246094,9.769531,-2.582031,-0.066406,0.013672,0.296875,0.504944,0.693542,0.400024,0.32251,down
328086,0.285156,9.808594,-2.542969,-0.148437,0.078125,0.304688,0.504944,0.693542,0.400024,0.32251,down
328092,0.324219,9.84375,-2.429688,-0.148437,0.078125,0.304688,0.504639,0.693726,0.398499,0.324402,down
328097,0.359375,9.84375,-2.429688,-0.210937,0.105469,0.316406,0.504639,0.693726,0.397888,0.325256,down
328102,0.398438,9.804688,-2.351563,-0.242187,0.130859,0.328125,0.504639,0.693665,0.397339,0.326111,down
328108,0.515625,9.691406,-2.277344,-0.242187,0.130859,0.328125,0.504639,0.693542,0.39679,0.326965,down
328113,0.667969,9.53125,-2.199219,-0.242187,0.130859,0.328125,0.504578,0.693481,0.39624,0.327881,down
328120,0.707031,9.464844,-2.199219,-0.220703,0.144531,0.357422,0.504578,0.693481,0.39624,0.327881,down
328125,0.78125,9.425781,-2.199219,-0.208984,0.142578,0.369141,0.504578,0.693481,0.39624,0.327881,down
328130,0.859375,9.265625,-2.007813,-0.208984,0.142578,0.369141,0.504578,0.693481,0.39624,0.327881,down
328136,0.933594,9.148438,-1.933594,-0.166016,0.142578,0.384766,0.504578,0.693481,0.39624,0.327881,down
328141,0.933594,9.121094,-1.933594,-0.095703,0.134766,0.396484,0.503601,0.693604,0.392639,0.333374,down
328146,0.933594,9.191406,-1.96875,-0.095703,0.134766,0.396484,0.503601,0.693604,0.392639,0.333374,down
328151,0.933594,9.226563,-2.046875,0.066406,0.099609,0.388672,0.503601,0.693604,0.392639,0.333374,down
328156,0.972656,9.226563,-2.007813,0.066406,0.099609,0.388672,0.502563,0.694214,0.391602,0.334839,down
328161,0.933594,9.347656,-1.933594,0.066406,0.099609,0.388672,0.502014,0.694641,0.391174,0.335388,down
328166,0.898437,9.421875,-1.96875,0.066406,0.099609,0.388672,0.501404,0.695068,0.390686,0.335938,down
328171,0.898437,9.503906,-1.96875,0.148437,0.048828,0.361328,0.500854,0.695496,0.39032,0.336365,down
328176,0.898437,9.53125,-2.007813,0.148437,0.048828,0.361328,0.500183,0.695984,0.389893,0.336853,down
328182,0.820312,9.574219,-2.046875,0.148437,0.048828,0.361328,0.499023,0.696899,0.388977,0.337646,down
328187,0.859375,9.574219,-2.085938,0.050781,0.025391,0.361328,0.498535,0.697266,0.388489,0.338074,down
328192,0.78125,9.53125,-2.007813,-0.011719,0.013672,0.380859,0.498169,0.697693,0.387878,0.338623,down
328197,0.78125,9.503906,-2.007813,-0.011719,0.013672,0.380859,0.497864,0.697998,0.387146,0.339172,down
328202,0.820312,9.308594,-2.007813,-0.011719,0.013672,0.380859,0.497742,0.698181,0.386475,0.339722,down
328207,0.859375,9.042969,-2.007813,-0.205078,-0.041016,0.416016,0.497742,0.698364,0.385559,0.340393,down
328212,0.820312,8.960938,-2.125,-0.205078,-0.041016,0.416016,0.497803,0.698547,0.384644,0.341064,down
328217,0.707031,8.847656,-2.199219,-0.205078,-0.041016,0.416016,0.497803,0.69873,0.383545,0.341797,down
328222,0.707031,8.960938,-2.238281,-0.197266,-0.066406,0.486328,0.497803,0.698975,0.382385,0.34259,down
328227,0.707031,9.0,-2.277344,-0.197266,-0.066406,0.486328,0.497742,0.699219,0.38147,0.343201,down
328232,0.742187,9.0,-2.316406,-0.121094,-0.09375,0.5,0.49762,0.699646,0.380249,0.343872,down
328238,0.78125,8.964844,-2.46875,-0.121094,-0.09375,0.5,0.497437,0.700073,0.379272,0.34436,down
328243,0.859375,8.921875,-2.542969,0.027344,-0.109375,0.509766,0.497437,0.700073,0.379272,0.34436,down
328249,0.898437,8.921875,-2.542969,0.152344,-0.111328,0.503906,0.497437,0.700073,0.379272,0.34436,down
328254,1.050781,8.886719,-2.582031,0.271484,-0.107422,0.511719,0.497437,0.700073,0.379272,0.34436,down
328260,1.125,8.886719,-2.582031,0.361328,-0.083984,0.517578,0.497437,0.700073,0.379272,0.34436,down
328265,1.164063,8.847656,-2.660156,0.408203,-0.068359,0.515625,0.497437,0.700073,0.379272,0.34436,down
328270,1.164063,8.847656,-2.660156,0.408203,-0.060547,0.515625,0.492798,0.705078,0.374573,0.346008,down
328275,1.355469,8.882813,-2.621094,0.408203,-0.060547,0.515625,0.492798,0.705078,0.374573,0.346008,down
328280,1.355469,8.925781,-2.582031,0.359375,-0.052734,0.505859,0.490723,0.70697,0.373291,0.346436,down
328285,1.355469,8.960938,-2.621094,0.259766,-0.039063,0.478516,0.490723,0.70697,0.373291,0.346436,down
328290,1.394531,9.082031,-2.660156,0.216797,-0.037109,0.457031,0.490723,0.70697,0.373291,0.346436,down
328295,1.394531,9.1875,-2.699219,0.216797,-0.037109,0.457031,0.488281,0.709229,0.371399,0.347351,down
328300,1.316406,9.308594,-2.660156,0.142578,-0.023437,0.410156,0.488281,0.709229,0.371399,0.347351,down
328305,1.242188,9.421875,-2.582031,0.095703,-0.011719,0.384766,0.488281,0.709229,0.371399,0.347351,down
328311,1.164063,9.574219,-2.507813,0.095703,-0.011719,0.384766,0.486267,0.711121,0.368958,0.348816,down
328316,1.164063,9.613281,-2.429688,0.095703,-0.011719,0.384766,0.486267,0.711121,0.368958,0.348816,down
328321,1.203125,9.570313,-2.390625,-0.117188,-0.035156,0.328125,0.486267,0.711121,0.368958,0.348816,down
328326,1.203125,9.535156,-2.390625,-0.117188,-0.035156,0.328125,0.48584,0.71167,0.367676,0.349731,down
328332,1.242188,9.382813,-2.390625,-0.117188,-0.035156,0.328125,0.485962,0.711914,0.366089,0.350769,down
328337,1.316406,9.269531,-2.351563,-0.248047,-0.039063,0.353516,0.485962,0.711914,0.366089,0.350769,down
328342,1.316406,9.152344,-2.46875,-0.248047,-0.039063,0.353516,0.486084,0.711975,0.365234,0.351318,down
328347,1.316406,9.003906,-2.429688,-0.248047,-0.039063,0.353516,0.486389,0.712036,0.363464,0.352539,down
328352,1.316406,8.847656,-2.390625,-0.234375,-0.035156,0.427734,0.486389,0.712036,0.363464,0.352539,down
328357,1.355469,8.738281,-2.429688,-0.191406,-0.021484,0.453125,0.486511,0.712158,0.362427,0.353271,down
328362,1.433594,8.542969,-2.46875,-0.191406,-0.021484,0.453125,0.486389,0.712524,0.360474,0.354675,down
328367,1.433594,8.421875,-2.46875,-0.191406,-0.021484,0.453125,0.486145,0.71283,0.359558,0.355286,down
328372,1.511719,8.382813,-2.542969,0.046875,-0.054687,0.507812,0.486145,0.71283,0.359558,0.355286,down
328377,1.546875,8.347656,-2.773438,0.046875,-0.054687,0.507812,0.485718,0.713379,0.358582,0.355835,down
328382,1.546875,8.347656,-2.773438,0.277344,-0.111328,0.484375,0.484436,0.714722,0.356934,0.356506,down
328387,1.664063,8.617188,-2.929688,0.380859,-0.126953,0.458984,0.484436,0.714722,0.356934,0.356506,down
328392,1.777344,8.804688,-3.003906,0.470703,-0.117188,0.433594,0.483459,0.715698,0.356262,0.356567,down
328397,1.777344,9.152344,-2.929688,0.470703,-0.117188,0.433594,0.482361,0.716736,0.355713,0.356567,down
328403,1.777344,9.464844,-3.003906,0.470703,-0.117188,0.433594,0.480042,0.71875,0.35498,0.356323,down
328408,1.777344,9.464844,-3.003906,0.521484,-0.082031,0.375,0.47876,0.719788,0.354675,0.35614,down
328413,1.777344,9.53125,-3.003906,0.472656,-0.074219,0.363281,0.477478,0.720886,0.35437,0.356018,down
328419,1.929688,9.460938,-2.964844,0.472656,-0.074219,0.363281,0.476562,0.72168,0.354065,0.356018,down
328425,1.929688,9.421875,-2.929688,0.255859,-0.056641,0.382813,0.476562,0.72168,0.354065,0.356018,down
328430,1.96875,9.34375,-2.929688,0.125,-0.044922,0.410156,0.476562,0.72168,0.354065,0.356018,down
328436,2.007813,9.226563,-2.929688,-0.097656,-0.019531,0.472656,0.476562,0.72168,0.354065,0.356018,down
328441,2.085938,9.121094,-2.964844,-0.097656,-0.019531,0.472656,0.474243,0.723877,0.35144,0.357239,down
328447,2.121094,8.964844,-2.964844,-0.158203,0.021484,0.501953,0.474243,0.723877,0.35144,0.357239,down
328452,2.160156,8.804688,-3.042969,-0.158203,0.021484,0.501953,0.473816,0.724365,0.349487,0.358704,down
328457,2.199219,8.769531,-3.121094,-0.082031,0.039063,0.519531,0.473572,0.724609,0.348389,0.359558,down
328462,2.199219,8.734375,-3.121094,-0.082031,0.039063,0.519531,0.473267,0.724915,0.347412,0.360413,down
328467,2.238281,8.734375,-3.15625,0.070312,0.033203,0.505859,0.472778,0.725281,0.346436,0.361145,down
328473,2.351563,8.734375,-3.273438,0.160156,0.027344,0.5,0.47229,0.725647,0.345703,0.361755,down
328478,2.390625,8.847656,-3.234375,0.160156,0.027344,0.5,0.470764,0.726807,0.34436,0.362793,down
328483,2.390625,8.847656,-3.234375,0.294922,0.048828,0.470703,0.469788,0.727417,0.343811,0.36322,down
328488,2.507813,9.003906,-3.121094,0.294922,0.048828,0.470703,0.46875,0.728149,0.343323,0.363586,down
328494,2.429688,9.082031,-2.929688,0.294922,0.048828,0.470703,0.467712,0.728821,0.342896,0.364014,down
328500,2.390625,9.121094,-2.890625,0.265625,0.105469,0.417969,0.467712,0.728821,0.342896,0.364014,down
328505,2.351563,9.152344,-2.890625,0.220703,0.115234,0.416016,0.467712,0.728821,0.342896,0.364014,down
328510,2.277344,8.886719,-2.8125,0.220703,0.115234,0.416016,0.464966,0.730347,0.341736,0.36554,down
328515,2.238281,8.808594,-2.773438,0.068359,0.126953,0.394531,0.464966,0.730347,0.341736,0.36554,down
328521,2.277344,8.765625,-2.660156,-0.007813,0.119141,0.398438,0.464966,0.730347,0.341736,0.36554,down
328526,2.277344,8.421875,-2.507813,-0.109375,0.126953,0.386719,0.464966,0.730347,0.341736,0.36554,down
328532,2.277344,8.3125,-2.542969,-0.214844,0.095703,0.382813,0.464966,0.730347,0.341736,0.36554,down
328537,2.3125,8.160156,-2.582031,-0.214844,0.095703,0.382813,0.463074,0.731079,0.338684,0.369202,down
328542,2.351563,8.003906,-2.621094,-0.214844,0.09375,0.390625,0.463074,0.731079,0.338684,0.369202,down
328547,2.3125,8.042969,-2.660156,-0.214844,0.09375,0.390625,0.462952,0.731079,0.337097,0.370911,down
328552,2.351563,8.15625,-2.699219,-0.003906,0.074219,0.355469,0.462708,0.73114,0.336487,0.371582,down
328557,2.351563,8.347656,-2.851563,-0.003906,0.074219,0.355469,0.462341,0.731323,0.335876,0.372253,down
328562,2.621094,8.503906,-2.738281,-0.003906,0.074219,0.355469,0.461365,0.731995,0.3349,0.373047,down
328567,2.621094,8.769531,-2.773438,-0.003906,0.074219,0.355469,0.461365,0.731995,0.3349,0.373047,down
328572,2.660156,8.921875,-2.738281,0.302734,-0.048828,0.273438,0.461365,0.731995,0.3349,0.373047,down
328577,2.734375,9.152344,-2.621094,0.302734,-0.048828,0.273438,0.459839,0.733093,0.334229,0.373352,down
328582,2.773438,9.1875,-2.621094,0.302734,-0.048828,0.273438,0.45813,0.734497,0.333862,0.373108,down
328587,2.773438,9.269531,-2.738281,0.302734,-0.048828,0.273438,0.45813,0.734497,0.333862,0.373108,down
328592,2.773438,9.269531,-2.851563,0.380859,-0.105469,0.238281,0.456482,0.73584,0.333496,0.372742,down
328597,2.734375,9.304688,-2.929688,0.380859,-0.105469,0.238281,0.456482,0.73584,0.333496,0.372742,down
328602,2.699219,9.265625,-2.890625,0.119141,-0.074219,0.28125,0.455811,0.736389,0.333252,0.372681,down
328607,2.8125,9.1875,-2.890625,0.119141,-0.074219,0.28125,0.455261,0.736877,0.332825,0.372742,down
328613,2.8125,9.003906,-2.964844,0.011719,-0.080078,0.316406,0.455261,0.736877,0.332825,0.372742,down
328619,2.890625,8.699219,-3.042969,0.011719,-0.080078,0.316406,0.454651,0.737732,0.330872,0.373535,down
328624,2.964844,8.503906,-3.042969,-0.154297,-0.089844,0.363281,0.454651,0.737976,0.330017,0.373962,down
328629,3.042969,8.277344,-3.121094,-0.119141,-0.080078,0.382813,0.45459,0.738159,0.329102,0.374329,down
328634,3.003906,8.121094,-3.195313,-0.119141,-0.080078,0.382813,0.454407,0.738464,0.328125,0.374817,down
328639,2.925781,7.734375,-3.234375,-0.119141,-0.080078,0.382813,0.454407,0.738464,0.328125,0.374817,down
328644,2.925781,7.734375,-3.234375,0.126953,-0.021484,0.435547,0.454407,0.738464,0.328125,0.374817,down
328651,2.699219,7.507812,-3.464844,0.126953,-0.021484,0.435547,0.454407,0.738464,0.328125,0.374817,down
328656,2.660156,7.429687,-3.503906,0.355469,-0.021484,0.462891,0.454407,0.738464,0.328125,0.374817,down
328661,2.542969,7.433594,-3.578125,0.355469,-0.021484,0.462891,0.450684,0.741394,0.325012,0.376282,down
328667,2.542969,7.355469,-3.695313,0.724609,-0.115234,0.482422,0.450684,0.741394,0.325012,0.376282,down
328673,2.699219,7.273437,-3.769531,0.724609,-0.115234,0.482422,0.445801,0.745056,0.323914,0.375793,down
328678,2.773438,7.316406,-3.808594,0.986328,-0.148437,0.470703,0.443604,0.746643,0.323792,0.375305,down
328683,2.890625,7.433594,-3.847656,1.119141,-0.160156,0.464844,0.441284,0.748413,0.32373,0.374695,down
328688,3.15625,7.511719,-3.925781,1.119141,-0.160156,0.464844,0.441284,0.748413,0.32373,0.374695,down
333889,4.804687,10.148438,-0.054687,-0.402344,0.390625,-0.017578,0.427673,0.580872,0.393066,0.570251,down
333894,4.765625,10.335938,-0.015625,-0.402344,0.390625,-0.017578,0.427673,0.580872,0.393066,0.570251,down
333899,4.804687,10.453125,-0.054687,-0.396484,0.46875,-0.044922,0.427673,0.580872,0.393066,0.570251,down
333904,4.84375,10.535156,-0.015625,-0.396484,0.46875,-0.044922,0.427979,0.578674,0.393005,0.572266,down
333909,4.882812,10.613281,-0.015625,-0.421875,0.505859,-0.058594,0.428162,0.577454,0.393005,0.573364,down
333914,4.917969,10.648438,0.023437,-0.421875,0.505859,-0.058594,0.428345,0.576172,0.393066,0.574524,down
333919,4.996094,10.691406,0.058594,-0.460937,0.578125,-0.072266,0.428528,0.57489,0.393127,0.575623,down
333925,5.035156,10.722656,0.097656,-0.460937,0.578125,-0.072266,0.428711,0.573486,0.393188,0.576782,down
333931,5.109375,10.757813,0.136719,-0.503906,0.609375,-0.082031,0.429138,0.570618,0.393311,0.579285,down
333937,5.074219,10.6875,0.175781,-0.576172,0.707031,-0.085937,0.429138,0.570618,0.393311,0.579285,down
333942,5.109375,10.652344,0.175781,-0.576172,0.707031,-0.085937,0.429626,0.567078,0.393433,0.582275,down
333947,5.074219,10.609375,0.214844,-0.654297,0.791016,-0.080078,0.429626,0.567078,0.393433,0.582275,down
333953,5.035156,10.691406,0.25,-0.685547,0.839844,-0.087891,0.429626,0.567078,0.393433,0.582275,down
333958,4.957031,10.722656,0.214844,-0.685547,0.839844,-0.087891,0.43042,0.560852,0.393494,0.587646,down
333964,4.957031,10.800781,0.289063,-0.685547,0.839844,-0.087891,0.430725,0.556763,0.393616,0.591248,down
333969,4.996094,10.835938,0.289063,-0.685547,0.839844,-0.087891,0.430725,0.556763,0.393616,0.591248,down
333974,5.074219,10.878906,0.289063,-0.675781,0.945312,-0.060547,0.430908,0.552307,0.39386,0.595093,down
333979,5.226562,11.03125,0.40625,-0.675781,0.945312,-0.060547,0.430908,0.550049,0.394043,0.597046,down
333984,5.226562,11.144531,0.40625,-0.675781,0.945312,-0.060547,0.430908,0.550049,0.394043,0.597046,down
333989,5.265625,11.183594,0.441406,-0.613281,1.068359,-0.046875,0.430603,0.545288,0.394653,0.601196,down
333995,5.265625,11.222656,0.558594,-0.613281,1.068359,-0.046875,0.430359,0.542908,0.395081,0.603271,down
334000,5.265625,11.21875,0.671875,-0.613281,1.068359,-0.046875,0.430054,0.540405,0.39563,0.605408,down
334006,5.265625,11.222656,0.632812,-0.587891,1.314453,-0.089844,0.429687,0.537781,0.39624,0.607605,down
334012,5.226562,11.222656,0.671875,-0.605469,1.386719,-0.111328,0.429687,0.537781,0.39624,0.607605,down
334018,5.109375,11.257813,0.671875,-0.605469,1.386719,-0.111328,0.429687,0.537781,0.39624,0.607605,down
334023,5.109375,11.257813,0.671875,-0.681641,1.501953,-0.167969,0.428467,0.52887,0.398438,0.614746,down
334028,4.996094,11.179688,0.671875,-0.681641,1.501953,-0.167969,0.428162,0.525574,0.399231,0.617249,down
334033,4.84375,11.109375,0.710937,-0.681641,1.501953,-0.167969,0.428162,0.525574,0.399231,0.617249,down
334038,4.84375,11.109375,0.710937,-0.816406,1.634766,-0.251953,0.427673,0.518494,0.400879,0.622559,down
334044,4.726562,10.953125,0.75,-0.816406,1.634766,-0.251953,0.427368,0.510925,0.402527,0.62793,down
334049,4.726562,10.914063,0.789062,-0.816406,1.634766,-0.251953,0.427368,0.510925,0.402527,0.62793,down
334054,4.574219,10.917969,0.828125,-0.890625,1.75,-0.371094,0.427246,0.507019,0.403381,0.630615,down
334060,4.496094,10.875,0.828125,-0.890625,1.75,-0.371094,0.427124,0.49884,0.405212,0.636047,down
334065,4.421875,10.878906,0.863281,-0.890625,1.75,-0.371094,0.427124,0.493958,0.406433,0.639038,down
334071,4.460937,10.878906,0.980469,-0.890625,1.75,-0.371094,0.427246,0.489807,0.40741,0.641541,down
334076,4.460937,10.839844,1.054688,-1.009766,1.917969,-0.646484,0.427246,0.489807,0.40741,0.641541,down
334081,4.421875,10.839844,1.132813,-1.056641,1.970703,-0.744141,0.427856,0.480225,0.409851,0.64679,down
334087,4.230469,10.839844,1.132813,-1.056641,1.970703,-0.744141,0.428406,0.474854,0.411255,0.649536,down
334093,4.152344,10.757813,1.132813,-1.126953,2.126953,-0.916016,0.428406,0.474854,0.411255,0.649536,down
334098,4.0,10.691406,1.09375,-1.160156,2.191406,-1.0,0.428406,0.474854,0.411255,0.649536,down
334104,3.65625,10.6875,1.054688,-1.197266,2.255859,-1.078125,0.428406,0.474854,0.411255,0.649536,down
334109,3.5,10.761719,1.054688,-1.267578,2.371094,-1.201172,0.428406,0.474854,0.411255,0.649536,down
334114,3.386719,10.917969,1.09375,-1.267578,2.371094,-1.201172,0.432068,0.444763,0.419495,0.663025,down
334119,3.234375,10.917969,1.171875,-1.378906,2.447266,-1.298828,0.432068,0.444763,0.419495,0.663025,down
334125,2.890625,10.761719,1.171875,-1.378906,2.447266,-1.298828,0.43396,0.431335,0.423035,0.668335,down
334130,2.8125,10.839844,1.246094,-1.46875,2.488281,-1.333984,0.43512,0.424072,0.424805,0.671082,down
334135,2.8125,10.839844,1.246094,-1.46875,2.488281,-1.333984,0.436279,0.416931,0.426392,0.673828,down
334140,2.582031,11.21875,1.554688,-1.621094,2.466797,-1.378906,0.437561,0.409607,0.427856,0.676514,down
334145,2.582031,11.21875,1.554688,-1.697266,2.447266,-1.380859,0.438965,0.401978,0.429138,0.679382,down
334151,2.390625,11.300781,1.628906,-1.802734,2.443359,-1.345703,0.441833,0.386902,0.43103,0.685059,down
334158,1.929688,11.21875,1.476563,-1.802734,2.443359,-1.345703,0.441833,0.386902,0.43103,0.685059,down
334163,1.855469,11.070313,1.554688,-2.189453,2.462891,-1.199219,0.441833,0.386902,0.43103,0.685059,down
334169,1.777344,10.878906,1.707031,-2.414063,2.306641,-1.054688,0.441833,0.386902,0.43103,0.685059,down
334174,1.472656,10.761719,2.050781,-2.414063,2.306641,-1.054688,0.447632,0.35498,0.431274,0.698303,down
334179,1.28125,10.570313,2.089844,-2.414063,2.306641,-1.054688,0.449158,0.346741,0.43042,0.701965,down
334184,1.164063,10.417969,2.207031,-2.414063,2.306641,-1.054688,0.4505,0.339294,0.429321,0.705383,down
334190,1.011719,10.308594,2.28125,-2.683594,2.162109,-0.832031,0.453308,0.323303,0.426025,0.713074,down
334195,0.972656,10.035156,2.703125,-2.683594,2.162109,-0.832031,0.45459,0.316162,0.424133,0.716614,down
334200,0.820312,9.886719,2.816406,-2.683594,2.162109,-0.832031,0.45459,0.316162,0.424133,0.716614,down
334205,0.820312,9.886719,2.816406,-2.791016,1.914063,-0.650391,0.455872,0.308838,0.421875,0.720276,down
334210,0.742187,9.730469,2.894531,-2.791016,1.84375,-0.599609,0.455872,0.308838,0.421875,0.720276,down
334215,0.515625,9.34375,3.046875,-2.775391,1.794922,-0.568359,0.455872,0.308838,0.421875,0.720276,down
334220,0.515625,9.34375,3.046875,-2.724609,1.705078,-0.537109,0.459534,0.287537,0.414368,0.731079,down
334226,0.324219,9.003906,3.507813,-2.625,1.605469,-0.488281,0.460693,0.280701,0.411621,0.734497,down
334232,-0.023437,8.65625,3.660156,-2.625,1.605469,-0.488281,0.462769,0.267822,0.406433,0.740906,down
334237,-0.0625,8.621094,3.738281,-2.521484,1.529297,-0.443359,0.462769,0.267822,0.406433,0.740906,down
334242,-0.175781,8.660156,3.890625,-2.476563,1.484375,-0.416016,0.4646,0.255249,0.401123,0.74707,down
334247,-0.023437,8.382813,4.082031,-2.455078,1.462891,-0.388672,0.4646,0.255249,0.401123,0.74707,down
334252,-0.0625,8.238281,4.082031,-2.40625,1.449219,-0.357422,0.4646,0.255249,0.401123,0.74707,down
334258,-0.253906,8.238281,4.042969,-2.304688,1.46875,-0.292969,0.4646,0.255249,0.401123,0.74707,down
334263,-0.328125,8.273438,4.082031,-2.333984,1.453125,-0.224609,0.4646,0.255249,0.401123,0.74707,down
334269,-0.40625,8.039063,4.195312,-2.333984,1.453125,-0.224609,0.467468,0.225891,0.387939,0.761536,down
334274,-0.480469,7.855469,4.195312,-2.544922,1.445313,-0.095703,0.467468,0.225891,0.387939,0.761536,down
334279,-0.519531,7.660156,4.121094,-2.505859,1.472656,0.03125,0.467468,0.225891,0.387939,0.761536,down
334284,-0.519531,7.660156,4.121094,-2.505859,1.472656,0.03125,0.467712,0.208374,0.37854,0.771057,down
334289,-0.597656,7.546875,4.121094,-2.505859,1.472656,0.03125,0.467712,0.208374,0.37854,0.771057,down
334294,-0.789062,7.507812,4.351562,-2.167969,1.423828,0.167969,0.46698,0.197571,0.372864,0.7771,down
334299,-0.789062,7.507812,4.351562,-2.021484,1.412109,0.220703,0.46698,0.197571,0.372864,0.7771,down
334305,-0.863281,7.46875,4.542969,-2.021484,1.412109,0.220703,0.464478,0.183228,0.365906,0.785339,down
334310,-1.019531,7.433594,4.582031,-2.021484,1.412109,0.220703,0.463257,0.178528,0.36377,0.788147,down
334316,-1.132813,7.3125,4.582031,-1.625,1.279297,0.365234,0.462158,0.174377,0.361877,0.790588,down
334321,-1.210938,7.355469,4.65625,-1.625,1.279297,0.365234,0.460999,0.170654,0.360046,0.792908,down
334327,-1.476563,7.273437,4.808594,-1.625,1.279297,0.365234,0.459717,0.166931,0.358276,0.795288,down
334332,-1.707031,7.316406,4.773437,-1.474609,1.123047,0.445312,0.458435,0.16333,0.356445,0.797546,down
334338,-1.824219,7.3125,4.808594,-1.474609,1.123047,0.445312,0.45697,0.159424,0.354309,0.80011,down
334343,-1.9375,7.390625,5.0,-1.474609,1.123047,0.445312,0.455811,0.156616,0.352661,0.802063,down
334348,-1.898438,7.433594,5.15625,-1.445313,0.867187,0.496094,0.455811,0.156616,0.352661,0.802063,down
334353,-1.859375,7.472656,5.191406,-1.480469,0.800781,0.507812,0.455811,0.156616,0.352661,0.802063,down
334358,-1.859375,7.394531,5.15625,-1.480469,0.800781,0.507812,0.452209,0.147827,0.346008,0.808655,down
334364,-1.785156,7.355469,5.078125,-1.607422,0.683594,0.527344,0.452209,0.147827,0.346008,0.808655,down
334370,-1.667969,7.3125,5.191406,-1.667969,0.625,0.541016,0.448975,0.139648,0.337708,0.81543,down
334375,-1.667969,7.128906,5.117187,-1.667969,0.625,0.541016,0.447876,0.137024,0.334595,0.817749,down
334380,-1.785156,6.929687,5.117187,-1.667969,0.625,0.541016,0.446777,0.134521,0.33136,0.820068,down
334385,-1.667969,6.777344,5.230469,-1.667969,0.625,0.541016,0.446777,0.134521,0.33136,0.820068,down
334390,-1.59375,6.742187,5.421875,-1.761719,0.417969,0.660156,0.444458,0.129944,0.324585,0.824768,down
334395,-1.554688,6.550781,5.769531,-1.761719,0.417969,0.660156,0.443237,0.128052,0.321289,0.826965,down
334400,-1.59375,6.394531,5.921875,-1.761719,0.417969,0.660156,0.443237,0.128052,0.321289,0.826965,down
334405,-1.59375,6.394531,5.921875,-1.511719,0.197266,0.806641,0.441895,0.126465,0.317993,0.829224,down
334410,-1.707031,6.246094,5.960937,-1.40625,0.126953,0.859375,0.441895,0.126465,0.317993,0.829224,down
334415,-1.898438,5.898437,6.035156,-1.40625,0.126953,0.859375,0.441895,0.126465,0.317993,0.829224,down
334420,-1.9375,5.589844,6.308594,-1.076172,-0.091797,0.978516,0.437439,0.123535,0.309021,0.835388,down
334425,-2.015625,5.398437,6.378906,-1.076172,-0.091797,0.978516,0.435852,0.123169,0.306335,0.83728,down
334430,-2.015625,5.398437,6.378906,-1.076172,-0.091797,0.978516,0.432495,0.123108,0.301208,0.840881,down
334435,-1.785156,5.476562,6.496094,-0.789062,-0.25,0.980469,0.432495,0.123108,0.301208,0.840881,down
334440,-1.707031,5.515625,6.574219,-0.789062,-0.25,0.980469,0.430664,0.123474,0.298767,0.84259,down
334445,-1.441406,5.554687,6.570312,-0.724609,-0.287109,0.96875,0.430664,0.123474,0.298767,0.84259,down
334450,-1.324219,5.554687,6.570312,-0.724609,-0.287109,0.96875,0.427551,0.124512,0.294556,0.84552,down
334455,-1.210938,5.589844,6.6875,-0.685547,-0.341797,0.953125,0.425781,0.125183,0.292297,0.847107,down
334460,-1.210938,5.589844,6.796875,-0.685547,-0.341797,0.953125,0.424316,0.125793,0.290283,0.84845,down
334465,-1.25,5.4375,6.957031,-0.722656,-0.367188,0.972656,0.422729,0.126526,0.288208,0.849854,down
334470,-1.324219,5.4375,6.953125,-0.722656,-0.367188,0.972656,0.421204,0.127197,0.286133,0.851196,down
334475,-1.324219,5.476562,6.992187,-0.839844,-0.371094,1.011719,0.419495,0.12793,0.283691,0.852783,down
334480,-1.324219,5.363281,6.953125,-0.839844,-0.371094,1.011719,0.417786,0.128601,0.281189,0.854309,down
334486,-1.324219,5.363281,6.953125,-0.896484,-0.433594,1.03125,0.414673,0.129822,0.276184,0.857239,down
334491,-1.25,5.171875,7.335937,-0.888672,-0.447266,1.027344,0.412842,0.130676,0.273132,0.859009,down
334496,-1.210938,5.171875,7.414062,-0.859375,-0.451172,1.025391,0.411133,0.13147,0.270386,0.860535,down
334502,-1.171875,5.132812,7.375,-0.84375,-0.457031,1.009766,0.40979,0.132141,0.268188,0.861816,down
334508,-1.058594,5.207031,7.640625,-0.84375,-0.457031,1.009766,0.40979,0.132141,0.268188,0.861816,down
334513,-0.941406,5.171875,7.761719,-0.796875,-0.556641,0.992187,0.40979,0.132141,0.268188,0.861816,down
334518,-0.902344,5.171875,7.835937,-0.769531,-0.613281,0.992187,0.40979,0.132141,0.268188,0.861816,down
334523,-0.902344,5.171875,7.914062,-0.769531,-0.613281,0.992187,0.40979,0.132141,0.268188,0.861816,down
334529,-0.902344,5.132812,7.984375,-0.734375,-0.732422,0.990234,0.40979,0.132141,0.268188,0.861816,down
334535,-0.863281,5.054687,8.066406,-0.724609,-0.816406,1.011719,0.399292,0.141174,0.249451,0.870911,down
334540,-0.75,4.75,8.144531,-0.724609,-0.816406,1.011719,0.399292,0.141174,0.249451,0.870911,down
334545,-0.75,4.75,8.144531,-0.792969,-0.962891,1.048828,0.397827,0.143066,0.246521,0.87207,down
334550,-0.671875,4.671875,8.144531,-0.792969,-0.962891,1.048828,0.396423,0.145142,0.243286,0.873291,down
334555,-0.519531,4.328125,8.144531,-0.859375,-1.078125,1.109375,0.394958,0.147278,0.240051,0.874451,down
334560,-0.519531,4.328125,8.144531,-0.859375,-1.078125,1.109375,0.394958,0.147278,0.240051,0.874451,down
334565,-0.519531,4.328125,8.144531,-0.875,-1.126953,1.128906,0.391968,0.151855,0.233154,0.876892,down
334570,-0.136719,4.019531,7.988281,-0.875,-1.126953,1.128906,0.388855,0.156738,0.22644,0.87915,down
334575,-0.023437,4.058594,8.0625,-0.875,-1.126953,1.128906,0.387268,0.159485,0.223083,0.880249,down
334580,0.207031,4.136719,8.066406,-0.875,-1.126953,1.128906,0.387268,0.159485,0.223083,0.880249,down
334585,0.398438,4.136719,8.101563,-0.535156,-1.353516,1.191406,0.387268,0.159485,0.223083,0.880249,down
334590,0.550781,4.441406,8.027344,-0.535156,-1.353516,1.191406,0.383911,0.165588,0.216736,0.882141,down
334596,0.667969,4.671875,8.140625,-0.425781,-1.398438,1.208984,0.380371,0.172363,0.211121,0.883789,down
334601,0.707031,4.941406,8.296875,-0.246094,-1.589844,1.300781,0.380371,0.172363,0.211121,0.883789,down
334606,0.742187,5.015625,8.371094,-0.246094,-1.589844,1.300781,0.376526,0.179993,0.206055,0.885071,down
334611,0.707031,4.710937,8.257813,-0.246094,-1.589844,1.300781,0.374268,0.184387,0.20343,0.885742,down
334616,0.628906,4.632812,8.101563,-0.142578,-1.707031,1.558594,0.374268,0.184387,0.20343,0.885742,down
334621,0.707031,4.480469,7.914062,-0.189453,-1.71875,1.652344,0.371643,0.189209,0.200562,0.886475,down
334626,0.859375,4.175781,7.683594,-0.189453,-1.71875,1.652344,0.369202,0.193298,0.19812,0.887207,down
334632,1.089844,3.90625,7.605469,-0.189453,-1.71875,1.652344,0.363464,0.202271,0.1922,0.888855,down
334637,1.242188,3.714844,7.457031,-0.310547,-1.732422,1.880859,0.360352,0.206726,0.189087,0.889771,down
334642,1.472656,3.484375,7.378906,-0.361328,-1.648438,1.910156,0.357117,0.21106,0.185852,0.890686,down
334648,1.894531,3.023438,7.21875,-0.361328,-1.648438,1.910156,0.35376,0.215332,0.182495,0.891724,down
334654,1.96875,2.871094,7.152344,-0.416016,-1.570313,1.923828,0.35376,0.215332,0.182495,0.891724,down
334659,2.046875,2.910156,7.074219,-0.398438,-1.517578,1.888672,0.35376,0.215332,0.182495,0.891724,down
334664,2.046875,2.910156,7.074219,-0.341797,-1.470703,1.863281,0.343689,0.227173,0.172668,0.894653,down
334669,2.3125,3.179688,7.335937,-0.341797,-1.470703,1.863281,0.343689,0.227173,0.172668,0.894653,down
334674,2.429688,2.988281,7.601562,-0.234375,-1.496094,1.816406,0.337036,0.235046,0.166992,0.89624,down
334679,2.429688,2.988281,7.601562,-0.234375,-1.496094,1.816406,0.337036,0.235046,0.166992,0.89624,down
334684,2.660156,3.023438,7.644531,0.060547,-1.427734,1.695313,0.330627,0.24292,0.162903,0.897278,down
334690,2.542969,2.949219,7.5625,0.060547,-1.427734,1.695313,0.330627,0.24292,0.162903,0.897278,down
334695,2.660156,3.179688,7.453125,0.5,-1.408203,1.589844,0.330627,0.24292,0.162903,0.897278,down
334700,2.773438,3.101563,7.53125,0.5,-1.408203,1.589844,0.320679,0.255127,0.158875,0.898254,down
334706,2.925781,3.40625,7.640625,0.5,-1.408203,1.589844,0.313965,0.263794,0.157043,0.898437,down
334711,3.042969,3.332031,7.679687,0.539062,-1.416016,1.601563,0.313965,0.263794,0.157043,0.898437,down
334716,3.082031,3.445313,7.722656,0.539062,-1.416016,1.601563,0.310303,0.268372,0.156067,0.898499,down
334721,3.234375,3.371094,7.644531,0.539062,-1.416016,1.601563,0.303772,0.276367,0.154175,0.898682,down
334726,3.347656,3.292969,7.640625,0.503906,-1.373047,1.609375,0.303772,0.276367,0.154175,0.898682,down
334731,3.5,3.292969,7.53125,0.503906,-1.373047,1.609375,0.296509,0.285034,0.152039,0.898743,down
334736,3.65625,3.179688,7.535156,0.503906,-1.373047,1.609375,0.296509,0.285034,0.152039,0.898743,down
334741,3.695313,3.371094,7.496094,0.503906,-1.373047,1.609375,0.29303,0.289124,0.15094,0.898743,down
334746,3.695313,3.371094,7.496094,0.451172,-1.341797,1.568359,0.290039,0.292603,0.149963,0.898743,down
334751,3.808594,3.292969,7.53125,0.429687,-1.328125,1.546875,0.290039,0.292603,0.149963,0.898743,down
334756,3.886719,3.214844,7.496094,0.394531,-1.322266,1.511719,0.290039,0.292603,0.149963,0.898743,down
334761,3.886719,3.214844,7.496094,0.402344,-1.333984,1.490234,0.290039,0.292603,0.149963,0.898743,down
334767,3.886719,3.179688,7.53125,0.402344,-1.333984,1.490234,0.273987,0.312134,0.144226,0.898193,down
334773,4.078125,3.101563,7.5625,0.402344,-1.333984,1.490234,0.270935,0.316162,0.143066,0.897888,down
334779,4.269531,3.214844,7.53125,0.402344,-1.333984,1.490234,0.270935,0.316162,0.143066,0.897888,down
334784,4.421875,3.179688,7.601562,0.488281,-1.494141,1.425781,0.270935,0.316162,0.143066,0.897888,down
334790,4.765625,3.023438,7.644531,0.548828,-1.525391,1.410156,0.270935,0.316162,0.143066,0.897888,down
334795,4.84375,3.0625,7.644531,0.548828,-1.525391,1.410156,0.258606,0.333069,0.138916,0.896057,down
334801,4.917969,3.179688,7.640625,0.675781,-1.525391,1.388672,0.258606,0.333069,0.138916,0.896057,down
334806,4.996094,3.023438,7.605469,0.708984,-1.525391,1.380859,0.258606,0.333069,0.138916,0.896057,down
334811,4.996094,3.023438,7.605469,0.708984,-1.525391,1.380859,0.245972,0.350586,0.136597,0.89325,down
334816,5.1875,3.0625,7.601562,0.708984,-1.525391,1.380859,0.245972,0.350586,0.136597,0.89325,down
334821,5.300781,2.988281,7.535156,0.828125,-1.621094,1.382813,0.245972,0.350586,0.136597,0.89325,down
334826,5.492187,2.71875,7.152344,0.873047,-1.607422,1.373047,0.245972,0.350586,0.136597,0.89325,down
334831,5.53125,2.832031,7.035156,0.873047,-1.607422,1.373047,0.232361,0.369324,0.135681,0.889465,down
334836,5.609375,2.832031,6.996094,0.873047,-1.607422,1.373047,0.232361,0.369324,0.135681,0.889465,down
334841,5.648437,2.949219,6.765625,1.119141,-1.591797,1.361328,0.232361,0.369324,0.135681,0.889465,down
334846,5.875,3.214844,6.613281,1.119141,-1.591797,1.361328,0.225586,0.378174,0.135986,0.887451,down
334851,5.914062,3.292969,6.570312,1.185547,-1.623047,1.330078,0.222107,0.382813,0.136353,0.886292,down
334856,5.914062,3.292969,6.570312,1.185547,-1.650391,1.285156,0.218689,0.387451,0.13678,0.885071,down
334861,5.914062,3.292969,6.570312,1.185547,-1.650391,1.285156,0.212036,0.397095,0.137878,0.882263,down
334866,6.183594,3.714844,6.457031,1.185547,-1.650391,1.285156,0.212036,0.397095,0.137878,0.882263,down
334872,6.222656,3.753906,6.375,1.097656,-1.658203,1.107422,0.212036,0.397095,0.137878,0.882263,down
334877,6.261719,3.90625,6.226562,1.097656,-1.658203,1.107422,0.202576,0.411743,0.139282,0.877502,down
334883,6.523437,3.523438,5.882812,1.097656,-1.658203,1.107422,0.200256,0.415405,0.139404,0.876282,down
334888,6.605469,3.484375,5.960937,1.097656,-1.658203,1.107422,0.197571,0.419678,0.139221,0.874878,down
334893,6.722656,3.332031,5.921875,0.650391,-1.572266,1.097656,0.197571,0.419678,0.139221,0.874878,down
334898,6.839844,3.101563,5.921875,0.599609,-1.591797,1.125,0.197571,0.419678,0.139221,0.874878,down
334903,6.871094,2.988281,5.84375,0.568359,-1.585938,1.150391,0.197571,0.419678,0.139221,0.874878,down
334909,7.179687,2.679688,5.578125,0.568359,-1.585938,1.150391,0.197571,0.419678,0.139221,0.874878,down
334915,7.257812,2.601563,5.5,0.617187,-1.503906,1.160156,0.197571,0.419678,0.139221,0.874878,down
334920,7.449219,2.679688,5.308594,0.693359,-1.464844,1.146484,0.197571,0.419678,0.139221,0.874878,down
334926,7.527344,2.757813,5.269531,0.789062,-1.431641,1.115234,0.197571,0.419678,0.139221,0.874878,down
334931,7.605469,2.640625,5.15625,0.917969,-1.412109,1.058594,0.173523,0.455688,0.135559,0.862488,down
334936,8.027344,2.679688,4.925781,0.917969,-1.412109,1.058594,0.170776,0.459229,0.13623,0.861023,down
334941,8.171875,2.679688,4.617187,0.917969,-1.412109,1.058594,0.170776,0.459229,0.13623,0.861023,down
334946,8.171875,2.679688,4.617187,1.220703,-1.15625,0.773437,0.168091,0.462585,0.137329,0.859619,down
334951,8.136719,2.871094,4.503906,1.279297,-1.123047,0.689453,0.168091,0.462585,0.137329,0.859619,down
334956,8.027344,2.949219,4.425781,1.275391,-1.146484,0.619141,0.162964,0.469055,0.140198,0.856628,down
334961,8.027344,2.949219,4.425781,1.275391,-1.146484,0.619141,0.162964,0.469055,0.140198,0.856628,down
334967,8.175781,2.640625,4.082031,1.214844,-1.128906,0.546875,0.156616,0.478027,0.144348,0.852112,down
334972,8.136719,2.910156,3.851563,1.214844,-1.128906,0.546875,0.154785,0.480896,0.145386,0.850647,down
334978,7.984375,3.101563,4.082031,1.214844,-1.128906,0.546875,0.153442,0.483276,0.145874,0.849487,down
334983,7.984375,3.101563,4.082031,0.496094,-1.021484,0.447266,0.1521,0.485962,0.146118,0.848145,down
334988,7.949219,2.988281,4.3125,0.496094,-1.021484,0.447266,0.151062,0.488281,0.146179,0.846985,down
334994,7.675781,3.101563,4.351562,0.496094,-1.021484,0.447266,0.150085,0.490662,0.146057,0.845825,down
334999,7.523437,3.140625,4.425781,0.396484,-1.001953,0.386719,0.150085,0.490662,0.146057,0.845825,down
335004,7.410156,3.214844,4.390625,0.439453,-1.037109,0.373047,0.148193,0.495544,0.145996,0.843262,down
335009,7.332031,3.101563,4.425781,0.476562,-1.085938,0.359375,0.148193,0.495544,0.145996,0.843262,down
335015,7.328125,3.0625,4.464844,0.511719,-1.117188,0.351563,0.148193,0.495544,0.145996,0.843262,down
335021,7.527344,3.140625,4.464844,0.580078,-1.132813,0.355469,0.148193,0.495544,0.145996,0.843262,down
335026,7.984375,3.253906,4.582031,0.580078,-1.132813,0.355469,0.144348,0.506165,0.146851,0.837463,down
335031,8.175781,3.253906,4.617187,0.580078,-1.132813,0.355469,0.14325,0.509033,0.147217,0.835876,down
335037,8.332031,3.214844,4.695312,0.507812,-0.974609,0.34375,0.14325,0.509033,0.147217,0.835876,down
335042,8.449219,3.253906,4.65625,0.507812,-0.974609,0.34375,0.140259,0.516357,0.148071,0.831726,down
335048,8.445313,3.179688,4.65625,0.507812,-0.974609,0.34375,0.139404,0.518372,0.148254,0.830627,down
335053,8.515625,3.140625,4.65625,0.427734,-0.84375,0.326172,0.138489,0.520508,0.148437,0.829407,down
335058,8.449219,3.253906,4.65625,0.408203,-0.808594,0.308594,0.138489,0.520508,0.148437,0.829407,down
335064,8.328125,3.332031,4.617187,0.408203,-0.808594,0.308594,0.13678,0.524353,0.148743,0.827209,down
335070,8.132813,3.523438,4.582031,0.408203,-0.773437,0.251953,0.13678,0.524353,0.148743,0.827209,down
335075,8.097656,3.523438,4.617187,0.425781,-0.8125,0.242187,0.13678,0.524353,0.148743,0.827209,down
335081,8.027344,3.675781,4.617187,0.453125,-0.863281,0.195312,0.13678,0.524353,0.148743,0.827209,down
335087,8.027344,3.675781,4.617187,0.496094,-0.927734,0.15625,0.133911,0.532166,0.149963,0.822388,down
335092,7.910156,3.753906,4.65625,0.537109,-1.011719,0.138672,0.133911,0.532166,0.149963,0.822388,down
335097,7.910156,3.753906,4.65625,0.5625,-1.101563,0.132812,0.13269,0.536865,0.151062,0.819397,down
335102,7.949219,3.753906,4.582031,0.550781,-1.179688,0.123047,0.13269,0.536865,0.151062,0.819397,down
335107,7.949219,3.753906,4.582031,0.541016,-1.265625,0.121094,0.131653,0.542053,0.152222,0.815857,down
335112,8.332031,3.714844,4.042969,0.541016,-1.265625,0.121094,0.130798,0.548157,0.152954,0.811829,down
335117,8.410156,3.675781,3.929688,0.541016,-1.265625,0.121094,0.130493,0.550842,0.153015,0.809998,down
335122,8.632813,3.789063,3.738281,0.294922,-1.324219,0.142578,0.13031,0.554016,0.153015,0.807922,down
335128,8.675781,3.828125,3.738281,0.294922,-1.324219,0.142578,0.130188,0.55658,0.152954,0.806152,down
335133,8.75,3.789063,3.660156,0.265625,-1.314453,0.134766,0.130188,0.55658,0.152954,0.806152,down
335139,8.714844,3.714844,3.507813,0.265625,-1.314453,0.134766,0.129944,0.562195,0.152771,0.802307,down
335144,8.636719,3.753906,3.46875,0.300781,-1.232422,0.078125,0.129944,0.562195,0.152771,0.802307,down
335149,8.671875,3.828125,3.355469,0.330078,-1.232422,0.054687,0.129944,0.562195,0.152771,0.802307,down
335154,8.476563,3.828125,3.238281,0.330078,-1.232422,0.054687,0.1297,0.570007,0.153137,0.796753,down
335160,8.476563,3.789063,3.277344,0.341797,-1.255859,0.019531,0.1297,0.570007,0.153137,0.796753,down
335165,8.515625,3.789063,3.316406,0.345703,-1.3125,0.015625,0.1297,0.575317,0.153564,0.792847,down
335171,8.445313,4.019531,3.316406,0.345703,-1.337891,0.019531,0.1297,0.575317,0.153564,0.792847,down
335176,8.476563,4.019531,3.277344,0.345703,-1.337891,0.019531,0.129639,0.580811,0.153992,0.788757,down
335181,8.554688,4.136719,3.203125,0.335938,-1.404297,0.054687,0.129639,0.580811,0.153992,0.788757,down
335187,8.597656,4.210937,3.046875,0.283203,-1.404297,0.095703,0.129578,0.5896,0.154053,0.782166,down
335192,8.753906,4.402344,2.816406,0.283203,-1.404297,0.095703,0.1297,0.592773,0.153687,0.779846,down
335197,8.832031,4.441406,2.78125,0.283203,-1.404297,0.095703,0.1297,0.592773,0.153687,0.779846,down
335202,8.9375,4.519531,2.664063,-0.152344,-1.400391,0.107422,0.1297,0.592773,0.153687,0.779846,down
335207,9.015625,4.441406,2.359375,-0.152344,-1.400391,0.107422,0.131104,0.600708,0.151428,0.773987,down
335212,8.976563,4.402344,2.242188,-0.152344,-1.400391,0.107422,0.132141,0.603577,0.150024,0.771851,down
335217,8.9375,4.328125,2.28125,-0.529297,-1.330078,0.035156,0.132141,0.603577,0.150024,0.771851,down
335222,8.902344,4.058594,2.28125,-0.529297,-1.330078,0.035156,0.133179,0.605896,0.148682,0.770142,down
335227,9.054688,3.789063,2.167969,-0.634766,-1.302734,0.025391,0.135925,0.610291,0.145386,0.766724,down
335232,9.015625,3.753906,2.050781,-0.789062,-1.199219,0.013672,0.135925,0.610291,0.145386,0.766724,down
335237,9.015625,3.714844,2.015625,-0.789062,-1.199219,0.013672,0.139282,0.614563,0.141357,0.763489,down
335242,9.015625,3.636719,2.015625,-0.839844,-1.109375,0.041016,0.139282,0.614563,0.141357,0.763489,down
335247,8.980469,3.714844,1.898438,-0.839844,-1.109375,0.041016,0.140991,0.616516,0.139221,0.762024,down
335252,8.980469,3.714844,1.898438,-0.818359,-1.076172,0.035156,0.142456,0.618164,0.137329,0.760742,down
335257,8.976563,3.789063,1.898438,-0.818359,-1.076172,0.035156,0.143982,0.619934,0.135437,0.759399,down
335262,8.980469,3.984375,1.820313,-0.722656,-0.996094,0.005859,0.145447,0.621582,0.133606,0.758057,down
335268,8.980469,3.984375,1.820313,-0.677734,-0.949219,-0.021484,0.146912,0.623169,0.131897,0.756714,down
335274,8.941406,3.828125,1.820313,-0.677734,-0.949219,-0.021484,0.149841,0.626038,0.128845,0.754333,down
335279,9.058594,3.675781,1.898438,-0.677734,-0.949219,-0.021484,0.15155,0.627441,0.127319,0.753113,down
335286,9.320313,3.484375,1.898438,-0.677734,-0.949219,-0.021484,0.15155,0.627441,0.127319,0.753113,down
335292,9.320313,3.445313,1.9375,-0.712891,-0.552734,-0.199219,0.156311,0.629761,0.123596,0.750793,down
335297,9.28125,3.445313,1.859375,-0.712891,-0.552734,-0.199219,0.158325,0.630127,0.122192,0.750244,down
335302,9.242188,3.445313,1.898438,-0.96875,-0.326172,-0.300781,0.158325,0.630127,0.122192,0.750244,down
335307,9.210938,3.484375,1.859375,-0.96875,-0.326172,-0.300781,0.160339,0.630371,0.12085,0.749878,down
335312,9.019531,3.40625,1.898438,-1.037109,-0.277344,-0.328125,0.165222,0.630432,0.117615,0.749268,down
335317,8.753906,3.40625,1.9375,-1.037109,-0.277344,-0.328125,0.165222,0.630432,0.117615,0.749268,down
335322,8.554688,3.484375,1.9375,-1.039063,-0.316406,-0.414062,0.167603,0.630371,0.11615,0.749023,down
335327,8.328125,3.523438,2.015625,-1.039063,-0.316406,-0.414062,0.170166,0.630371,0.114685,0.748657,down
335332,8.214844,3.5625,2.359375,-0.988281,-0.412109,-0.431641,0.170166,0.630371,0.114685,0.748657,down
335337,8.214844,3.5625,2.359375,-0.988281,-0.412109,-0.431641,0.17749,0.631226,0.110657,0.746826,down
335342,8.054688,3.714844,2.359375,-0.988281,-0.412109,-0.431641,0.17749,0.631226,0.110657,0.746826,down
335347,8.058594,3.867188,2.359375,-0.767578,-0.662109,-0.447266,0.17749,0.631226,0.110657,0.746826,down
335352,8.058594,4.058594,2.398438,-0.767578,-0.662109,-0.447266,0.182129,0.632507,0.108459,0.744995,down
335357,8.136719,4.136719,2.28125,-0.785156,-0.699219,-0.472656,0.184448,0.633362,0.107361,0.743835,down
335362,8.292969,4.210937,2.167969,-0.785156,-0.699219,-0.472656,0.18689,0.634216,0.106262,0.742676,down
335368,8.597656,4.175781,1.976563,-0.785156,-0.699219,-0.472656,0.191833,0.635803,0.103943,0.740356,down
335374,8.792969,4.058594,1.820313,-0.785156,-0.699219,-0.472656,0.194275,0.636414,0.102783,0.73938,down
335379,8.941406,3.984375,1.785156,-1.097656,-0.609375,-0.535156,0.194275,0.636414,0.102783,0.73938,down
335386,9.054688,3.828125,1.746094,-1.179688,-0.546875,-0.552734,0.194275,0.636414,0.102783,0.73938,down
335391,9.242188,3.5625,1.898438,-1.179688,-0.546875,-0.552734,0.194275,0.636414,0.102783,0.73938,down
335397,9.210938,3.597656,1.9375,-1.195313,-0.275391,-0.636719,0.194275,0.636414,0.102783,0.73938,down
335402,9.171875,3.597656,1.898438,-1.195313,-0.275391,-0.636719,0.212708,0.637085,0.093933,0.734924,down
335407,9.015625,3.675781,1.9375,-1.195313,-0.275391,-0.636719,0.215698,0.636658,0.092896,0.734497,down
335412,8.632813,3.675781,2.050781,-1.195313,-0.275391,-0.636719,0.215698,0.636658,0.092896,0.734497,down
335417,8.480469,3.789063,2.089844,-0.728516,-0.160156,-0.814453,0.215698,0.636658,0.092896,0.734497,down
335422,8.332031,3.828125,2.207031,-0.728516,-0.160156,-0.814453,0.221375,0.635925,0.091858,0.733582,down
335427,8.210938,3.945313,2.089844,-0.728516,-0.160156,-0.814453,0.22406,0.635681,0.091919,0.732971,down
335432,8.171875,4.210937,2.167969,-0.400391,-0.242187,-0.941406,0.226562,0.63562,0.092346,0.732239,down
335437,8.171875,4.210937,2.167969,-0.3125,-0.306641,-0.998047,0.226562,0.63562,0.092346,0.732239,down
335442,8.171875,4.710937,2.089844,-0.3125,-0.306641,-0.998047,0.231384,0.635925,0.093994,0.730225,down
335447,8.171875,4.710937,2.089844,-0.25,-0.414062,-1.076172,0.231384,0.635925,0.093994,0.730225,down
335454,8.210938,5.015625,1.976563,-0.25,-0.414062,-1.076172,0.23938,0.637207,0.096985,0.726135,down
335460,8.449219,5.207031,1.859375,-0.25,-0.414062,-1.076172,0.23938,0.637207,0.096985,0.726135,down
335466,8.515625,5.363281,1.785156,-0.451172,-0.558594,-1.097656,0.23938,0.637207,0.096985,0.726135,down
335471,8.636719,5.476562,1.746094,-0.537109,-0.517578,-1.064453,0.23938,0.637207,0.096985,0.726135,down
335476,8.671875,5.667969,1.785156,-0.537109,-0.517578,-1.064453,0.250549,0.638916,0.099121,0.720581,down
335481,8.597656,5.746094,1.820313,-0.705078,-0.417969,-0.976562,0.250549,0.638916,0.099121,0.720581,down
335487,8.515625,5.78125,1.859375,-0.705078,-0.417969,-0.976562,0.256714,0.639038,0.099182,0.718262,down
335493,8.332031,5.78125,1.898438,-0.833984,-0.279297,-0.900391,0.262695,0.638489,0.098694,0.716614,down
335498,7.984375,5.707031,1.9375,-0.833984,-0.279297,-0.900391,0.265686,0.638062,0.098328,0.716003,down
335503,7.867187,5.707031,1.976563,-0.833984,-0.279297,-0.900391,0.265686,0.638062,0.098328,0.716003,down
335508,7.75,5.589844,2.089844,-0.863281,-0.140625,-0.810547,0.265686,0.638062,0.098328,0.716003,down
335513,7.671875,5.515625,2.320313,-0.863281,-0.140625,-0.810547,0.274475,0.636475,0.09729,0.714233,down
335518,7.644531,5.476562,2.28125,-0.863281,-0.140625,-0.810547,0.2771,0.636047,0.096924,0.713684,down
335523,7.5625,5.4375,2.28125,-0.863281,-0.140625,-0.810547,0.280029,0.635559,0.096497,0.712952,down
335528,7.527344,5.398437,2.320313,-0.855469,-0.291016,-0.832031,0.283142,0.635193,0.096069,0.712158,down
335533,7.644531,5.4375,2.398438,-0.855469,-0.291016,-0.832031,0.286194,0.634949,0.095642,0.711182,down
335538,7.75,5.398437,2.359375,-0.855469,-0.291016,-0.832031,0.288818,0.634827,0.095337,0.710266,down
335543,7.871094,5.515625,2.320313,-0.708984,-0.486328,-0.912109,0.288818,0.634827,0.095337,0.710266,down
335548,8.023438,5.628906,2.28125,-0.708984,-0.486328,-0.912109,0.291931,0.634888,0.095154,0.708984,down
335554,7.984375,5.746094,2.167969,-0.708984,-0.486328,-0.912109,0.297546,0.635376,0.094849,0.706238,down
335559,7.945312,5.78125,2.128906,-0.625,-0.632812,-0.988281,0.300415,0.635742,0.094788,0.704712,down
335564,7.988281,5.859375,2.128906,-0.623047,-0.652344,-1.011719,0.303406,0.636169,0.094788,0.703003,down
335570,8.097656,5.820312,1.976563,-0.638672,-0.662109,-1.033203,0.303406,0.636169,0.094788,0.703003,down
335576,8.054688,5.859375,1.898438,-0.654297,-0.646484,-1.058594,0.303406,0.636169,0.094788,0.703003,down
335581,8.058594,5.859375,1.785156,-0.691406,-0.626953,-1.078125,0.303406,0.636169,0.094788,0.703003,down
335586,8.058594,5.859375,1.785156,-0.728516,-0.601562,-1.087891,0.315735,0.637634,0.094788,0.696289,down
335591,8.054688,5.707031,1.707031,-0.728516,-0.601562,-1.087891,0.315735,0.637634,0.094788,0.696289,down
335596,8.054688,5.707031,1.707031,-0.708984,-0.533203,-1.099609,0.322205,0.637878,0.094849,0.693054,down
335601,7.945312,5.820312,1.859375,-0.708984,-0.533203,-1.099609,0.322205,0.637878,0.094849,0.693054,down
335606,7.945312,5.820312,1.859375,-0.640625,-0.507812,-1.083984,0.328247,0.638123,0.095215,0.689941,down
335611,7.644531,6.089844,2.050781,-0.640625,-0.507812,-1.083984,0.328247,0.638123,0.095215,0.689941,down
335617,7.566406,6.28125,2.015625,-0.318359,-0.488281,-0.964844,0.328247,0.638123,0.095215,0.689941,down
335622,7.328125,6.703125,1.898438,-0.203125,-0.492187,-0.929687,0.328247,0.638123,0.095215,0.689941,down
335628,7.257812,6.96875,1.785156,-0.103516,-0.507812,-0.888672,0.339355,0.640198,0.098389,0.682129,down
335633,7.21875,7.160156,1.746094,0.001953,-0.560547,-0.839844,0.339355,0.640198,0.098389,0.682129,down
335638,7.179687,7.273437,1.707031,-0.017578,-0.576172,-0.822266,0.341003,0.640869,0.099243,0.680542,down
335643,7.179687,7.429687,1.628906,-0.017578,-0.576172,-0.822266,0.344116,0.642395,0.100708,0.677368,down
335648,7.140625,7.472656,1.667969,-0.017578,-0.576172,-0.822266,0.345886,0.643066,0.101196,0.67572,down
335653,7.179687,7.351562,1.554688,-0.349609,-0.619141,-0.785156,0.345886,0.643066,0.101196,0.67572,down
335658,7.410156,7.160156,1.628906,-0.349609,-0.619141,-0.785156,0.348022,0.643677,0.101501,0.67395,down
335663,7.675781,7.007812,1.515625,-0.349609,-0.619141,-0.785156,0.352356,0.644531,0.101135,0.671021,down
335668,7.753906,6.933594,1.476563,-0.349609,-0.619141,-0.785156,0.355103,0.644714,0.100464,0.669495,down
335673,7.792969,6.855469,1.515625,-0.996094,-0.599609,-0.738281,0.355103,0.644714,0.100464,0.669495,down
335678,7.828125,6.703125,1.515625,-1.095703,-0.589844,-0.742187,0.358215,0.644714,0.099487,0.667969,down
335684,7.832031,6.625,1.59375,-1.095703,-0.589844,-0.742187,0.364624,0.644348,0.097107,0.665161,down
335689,7.714844,6.433594,1.59375,-1.095703,-0.589844,-0.742187,0.367493,0.644043,0.096069,0.664001,down
335694,7.675781,6.320312,1.628906,-1.076172,-0.511719,-0.763672,0.367493,0.644043,0.096069,0.664001,down
335700,7.640625,6.242187,1.515625,-1.076172,-0.511719,-0.763672,0.367493,0.644043,0.096069,0.664001,down
335705,7.601562,6.320312,1.515625,-0.871094,-0.519531,-0.779297,0.367493,0.644043,0.096069,0.664001,down
335711,7.566406,6.394531,1.515625,-0.757812,-0.537109,-0.775391,0.367493,0.644043,0.096069,0.664001,down
335717,7.527344,6.550781,1.476563,-0.757812,-0.537109,-0.775391,0.367493,0.644043,0.096069,0.664001,down
335722,7.488281,6.625,1.4375,-0.640625,-0.542969,-0.757812,0.367493,0.644043,0.096069,0.664001,down
335728,7.445312,6.742187,1.4375,-0.560547,-0.498047,-0.748047,0.367493,0.644043,0.096069,0.664001,down
335733,7.410156,6.894531,1.4375,-0.560547,-0.498047,-0.748047,0.391479,0.643555,0.090881,0.651367,down
335738,7.371094,7.007812,1.402344,-0.560547,-0.498047,-0.748047,0.393921,0.643616,0.090637,0.649841,down
335743,7.332031,7.007812,1.476563,-0.560547,-0.498047,-0.748047,0.393921,0.643616,0.090637,0.649841,down
335748,7.332031,7.007812,1.476563,-0.673828,-0.492187,-0.755859,0.396179,0.643677,0.090393,0.648499,down
335753,7.292969,6.703125,1.746094,-0.785156,-0.464844,-0.763672,0.398682,0.643555,0.089905,0.647156,down
335758,7.292969,6.703125,1.746094,-0.853516,-0.427734,-0.755859,0.401306,0.64325,0.089355,0.645874,down
335763,7.261719,6.511719,1.746094,-0.853516,-0.427734,-0.755859,0.404114,0.642883,0.088745,0.644653,down
335769,7.261719,6.511719,1.746094,-0.953125,-0.332031,-0.761719,0.406921,0.642334,0.088074,0.643494,down
335774,7.292969,6.433594,1.785156,-0.953125,-0.332031,-0.761719,0.41272,0.640991,0.086731,0.641357,down
335779,7.292969,6.472656,1.859375,-0.953125,-0.332031,-0.761719,0.415527,0.640259,0.086121,0.64032,down
335785,7.257812,6.433594,1.9375,-0.953125,-0.332031,-0.761719,0.418335,0.639526,0.085571,0.639282,down
335790,7.21875,6.625,1.9375,-0.953125,-0.332031,-0.761719,0.421204,0.638794,0.085083,0.638184,down
335797,7.179687,6.664062,2.050781,-0.833984,-0.310547,-0.810547,0.421204,0.638794,0.085083,0.638184,down
335803,7.0625,6.742187,2.167969,-0.800781,-0.361328,-0.820312,0.421204,0.638794,0.085083,0.638184,down
335808,6.871094,6.742187,2.320313,-0.777344,-0.408203,-0.830078,0.432007,0.636963,0.083557,0.632996,down
335813,6.796875,6.742187,2.433594,-0.777344,-0.408203,-0.830078,0.432007,0.636963,0.083557,0.632996,down
335818,6.757812,6.777344,2.511719,-0.800781,-0.560547,-0.847656,0.432007,0.636963,0.083557,0.632996,down
335823,6.796875,6.742187,2.550781,-0.800781,-0.560547,-0.847656,0.440247,0.636353,0.082031,0.628113,down
335828,6.679687,6.703125,2.550781,-0.800781,-0.560547,-0.847656,0.440247,0.636353,0.082031,0.628113,down
335833,6.683594,6.664062,2.472656,-0.949219,-0.632812,-0.871094,0.443542,0.636108,0.081238,0.626099,down
335838,6.796875,6.625,2.28125,-0.949219,-0.632812,-0.871094,0.44635,0.635925,0.080505,0.62439,down
335843,6.835937,6.625,2.089844,-0.949219,-0.632812,-0.871094,0.449402,0.635681,0.079651,0.62262,down
335848,6.945312,6.585937,1.9375,-0.96875,-0.628906,-0.90625,0.455261,0.635132,0.078186,0.61908,down
335853,6.945312,6.625,1.785156,-0.96875,-0.628906,-0.90625,0.455261,0.635132,0.078186,0.61908,down
335858,7.023437,6.855469,1.628906,-0.855469,-0.583984,-0.947266,0.455261,0.635132,0.078186,0.61908,down
335863,6.988281,7.007812,1.59375,-0.855469,-0.583984,-0.947266,0.461304,0.634583,0.077148,0.615295,down
335868,6.988281,7.046875,1.554688,-0.636719,-0.441406,-0.96875,0.46405,0.634338,0.076904,0.613464,down
335873,6.988281,7.15625,1.515625,-0.636719,-0.441406,-0.96875,0.466919,0.634094,0.076843,0.611572,down
335879,6.910156,7.472656,1.554688,-0.636719,-0.441406,-0.96875,0.47168,0.633545,0.077148,0.608459,down
335884,6.835937,7.507812,1.628906,-0.544922,-0.298828,-0.945312,0.474304,0.633179,0.077454,0.60675,down
335889,6.605469,7.65625,1.820313,-0.544922,-0.298828,-0.945312,0.476501,0.632751,0.077698,0.605408,down
335894,6.453125,7.695312,1.9375,-0.648437,-0.25,-0.910156,0.476501,0.632751,0.077698,0.605408,down
335900,6.261719,7.773437,2.207031,-0.648437,-0.25,-0.910156,0.476501,0.632751,0.077698,0.605408,down
335905,6.144531,7.816406,2.242188,-0.888672,-0.224609,-0.869141,0.476501,0.632751,0.077698,0.605408,down
335911,6.070312,7.773437,2.320313,-1.029297,-0.230469,-0.851562,0.476501,0.632751,0.077698,0.605408,down
335916,6.144531,7.621094,2.472656,-1.029297,-0.230469,-0.851562,0.490173,0.628601,0.076782,0.598938,down
335921,6.261719,7.511719,2.511719,-1.320313,-0.287109,-0.832031,0.490173,0.628601,0.076782,0.598938,down
335926,6.261719,7.511719,2.511719,-1.431641,-0.308594,-0.832031,0.496826,0.625916,0.074768,0.596436,down
335931,6.644531,7.195312,2.589844,-1.505859,-0.316406,-0.845703,0.500549,0.62439,0.073425,0.595154,down
335936,6.644531,7.195312,2.589844,-1.505859,-0.316406,-0.845703,0.500549,0.62439,0.073425,0.595154,down
335941,6.910156,6.933594,2.589844,-1.537109,-0.310547,-0.857422,0.500549,0.62439,0.073425,0.595154,down
335946,6.910156,6.933594,2.589844,-1.453125,-0.304688,-0.917969,0.511719,0.619568,0.06958,0.591187,down
335951,7.105469,6.742187,2.664063,-1.453125,-0.304688,-0.917969,0.51532,0.618042,0.068542,0.589722,down
335957,7.0625,6.816406,2.742188,-1.242188,-0.292969,-0.988281,0.51532,0.618042,0.068542,0.589722,down
335962,6.90625,6.894531,2.742188,-1.105469,-0.291016,-1.017578,0.51532,0.618042,0.068542,0.589722,down
335967,6.757812,7.046875,2.78125,-0.921875,-0.304688,-1.041016,0.51532,0.618042,0.068542,0.589722,down
335972,6.605469,7.238281,2.78125,-0.921875,-0.304688,-1.041016,0.51532,0.618042,0.068542,0.589722,down
335977,6.453125,7.46875,2.816406,-0.921875,-0.304688,-1.041016,0.530945,0.612854,0.066895,0.581421,down
335982,6.375,7.699219,2.78125,-0.496094,-0.369141,-1.0625,0.530945,0.612854,0.066895,0.581421,down
335988,6.144531,8.042969,2.742188,-0.435547,-0.388672,-1.058594,0.530945,0.612854,0.066895,0.581421,down
335993,6.070312,8.15625,2.742188,-0.435547,-0.388672,-1.058594,0.538025,0.612,0.068115,0.575623,down
335999,5.992187,8.277344,2.664063,-0.527344,-0.408203,-1.003906,0.538025,0.612,0.068115,0.575623,down
336004,5.914062,8.3125,2.625,-0.527344,-0.408203,-1.003906,0.545227,0.611145,0.068909,0.569702,down
336010,5.953125,8.3125,2.664063,-0.527344,-0.408203,-1.003906,0.547546,0.610657,0.068848,0.567932,down
336015,5.953125,8.277344,2.625,-0.824219,-0.378906,-0.921875,0.55011,0.609985,0.068665,0.566162,down
336022,5.875,8.238281,2.550781,-0.945312,-0.347656,-0.908203,0.55011,0.609985,0.068665,0.566162,down
336028,5.914062,8.003906,2.550781,-0.945312,-0.347656,-0.908203,0.555786,0.608093,0.067749,0.562866,down
336033,5.953125,7.890625,2.625,-1.126953,-0.298828,-0.910156,0.555786,0.608093,0.067749,0.562866,down
336038,5.953125,7.734375,2.664063,-1.126953,-0.298828,-0.910156,0.56189,0.60553,0.066467,0.559631,down
336044,5.992187,7.621094,2.589844,-1.048828,-0.294922,-0.949219,0.56189,0.60553,0.066467,0.559631,down
336049,5.914062,7.578125,2.625,-1.048828,-0.294922,-0.949219,0.56781,0.602966,0.065369,0.556519,down
336054,5.953125,7.511719,2.664063,-0.982422,-0.308594,-0.966797,0.573792,0.600647,0.064636,0.552979,down
336059,5.875,7.617187,2.625,-0.982422,-0.308594,-0.966797,0.576477,0.599731,0.064453,0.551147,down
336064,5.839844,7.699219,2.511719,-0.982422,-0.308594,-0.966797,0.576477,0.599731,0.064453,0.551147,down
336069,5.839844,7.699219,2.511719,-0.714844,-0.417969,-1.001953,0.579041,0.598999,0.064331,0.549316,down
336074,5.761719,7.851562,2.550781,-0.714844,-0.417969,-1.001953,0.579041,0.598999,0.064331,0.549316,down
336079,5.609375,8.238281,2.398438,-0.710937,-0.417969,-0.998047,0.584045,0.597717,0.064209,0.545471,down
336084,5.609375,8.238281,2.398438,-0.710937,-0.417969,-0.998047,0.584045,0.597717,0.064209,0.545471,down
336089,5.570312,8.382813,2.28125,-0.748047,-0.435547,-0.980469,0.591858,0.59552,0.063293,0.53949,down
336094,5.570312,8.621094,2.167969,-1.076172,-0.425781,-0.892578,0.591858,0.59552,0.063293,0.53949,down
336099,5.648437,8.539063,2.167969,-1.076172,-0.425781,-0.892578,0.5979,0.593079,0.061707,0.535706,down
336104,5.722656,8.460938,2.242188,-1.076172,-0.425781,-0.892578,0.600769,0.591614,0.060669,0.534241,down
336109,5.800781,8.273438,2.320313,-1.576172,-0.302734,-0.773437,0.600769,0.591614,0.060669,0.534241,down
336114,5.761719,7.851562,2.550781,-1.576172,-0.302734,-0.773437,0.607544,0.587463,0.057861,0.531433,down
336119,5.683594,7.65625,2.742188,-1.792969,-0.189453,-0.753906,0.607544,0.587463,0.057861,0.531433,down
336124,5.609375,7.355469,2.742188,-1.833984,-0.148437,-0.761719,0.611511,0.584717,0.056152,0.53009,down
336129,5.609375,7.355469,2.742188,-1.810547,-0.154297,-0.78125,0.618591,0.57959,0.053162,0.527832,down
336135,5.265625,7.128906,3.007813,-1.810547,-0.154297,-0.78125,0.622742,0.576599,0.051514,0.526428,down
336141,5.1875,7.085937,3.203125,-1.810547,-0.154297,-0.78125,0.625854,0.574402,0.050293,0.525208,down
336147,5.148437,7.125,3.316406,-1.474609,-0.228516,-0.859375,0.629395,0.572021,0.049072,0.523682,down
336153,5.148437,7.316406,3.238281,-1.474609,-0.228516,-0.859375,0.629395,0.572021,0.049072,0.523682,down
336159,5.109375,7.394531,3.316406,-0.978516,-0.322266,-0.955078,0.629395,0.572021,0.049072,0.523682,down
336164,5.148437,7.472656,3.394531,-0.978516,-0.322266,-0.955078,0.640808,0.565918,0.046448,0.516724,down
336169,5.109375,7.511719,3.394531,-0.978516,-0.322266,-0.955078,0.64325,0.564941,0.046265,0.514771,down
336174,5.035156,7.734375,3.355469,-0.978516,-0.322266,-0.955078,0.64325,0.564941,0.046265,0.514771,down
336179,4.957031,7.816406,3.316406,-0.712891,-0.267578,-1.001953,0.64325,0.564941,0.046265,0.514771,down
336184,4.957031,7.933594,3.46875,-0.712891,-0.267578,-1.001953,0.650391,0.562073,0.046326,0.50885,down
336189,4.765625,8.15625,3.546875,-0.712891,-0.267578,-1.001953,0.650391,0.562073,0.046326,0.50885,down
336194,4.765625,8.15625,3.546875,-0.806641,-0.179687,-0.980469,0.652771,0.560913,0.046387,0.50708,down
336199,4.6875,8.238281,3.546875,-0.806641,-0.179687,-0.980469,0.655151,0.559692,0.046387,0.505371,down
336204,4.460937,8.425781,3.660156,-0.921875,-0.128906,-0.957031,0.657715,0.558228,0.046387,0.503662,down
336209,4.460937,8.425781,3.660156,-0.917969,-0.125,-0.951172,0.660217,0.556763,0.046326,0.502014,down
336214,4.460937,8.425781,3.660156,-0.917969,-0.125,-0.951172,0.665161,0.553894,0.046265,0.498657,down
336219,4.34375,8.5,3.8125,-0.917969,-0.125,-0.951172,0.665161,0.553894,0.046265,0.498657,down
336224,4.304687,8.464844,3.777344,-0.740234,-0.154297,-0.939453,0.667725,0.552429,0.046326,0.496826,down
336230,4.382812,8.617188,3.851563,-0.740234,-0.154297,-0.939453,0.671997,0.550171,0.046509,0.49353,down
336235,4.421875,8.660156,3.851563,-0.664062,-0.195312,-0.902344,0.671997,0.550171,0.046509,0.49353,down
336240,4.460937,8.738281,3.890625,-0.664062,-0.195312,-0.902344,0.676147,0.548157,0.046692,0.490051,down
336245,4.460937,8.734375,3.851563,-0.664062,-0.195312,-0.902344,0.678162,0.54718,0.046692,0.488342,down
336250,4.421875,8.804688,3.851563,-0.751953,-0.173828,-0.859375,0.680542,0.545898,0.046631,0.486511,down
336256,4.460937,8.699219,3.96875,-0.751953,-0.173828,-0.859375,0.682434,0.5448,0.04657,0.485107,down
336261,4.382812,8.617188,4.121094,-0.751953,-0.173828,-0.859375,0.682434,0.5448,0.04657,0.485107,down
336267,4.34375,8.5,4.160156,-0.9375,-0.085937,-0.832031,0.68689,0.541931,0.046326,0.482056,down
336273,4.269531,8.34375,4.3125,-0.988281,-0.060547,-0.835937,0.68689,0.541931,0.046326,0.482056,down
336279,4.152344,8.121094,4.390625,-1.003906,-0.037109,-0.859375,0.694031,0.536682,0.045959,0.477722,down
336284,4.113281,8.039063,4.542969,-1.003906,-0.037109,-0.859375,0.694031,0.536682,0.045959,0.477722,down
336289,4.078125,7.964844,4.582031,-0.775391,-0.037109,-0.912109,0.694031,0.536682,0.045959,0.477722,down
336295,4.0,8.082031,4.773437,-0.775391,-0.037109,-0.912109,0.700623,0.532166,0.046448,0.473022,down
336301,3.847656,8.34375,4.773437,-0.775391,-0.037109,-0.912109,0.702576,0.531067,0.046997,0.471252,down
336306,3.847656,8.5,4.773437,-0.3125,-0.082031,-0.919922,0.704102,0.530457,0.047546,0.469727,down
336312,3.769531,8.964844,4.617187,-0.175781,-0.121094,-0.921875,0.704102,0.530457,0.047546,0.469727,down
336318,3.769531,9.1875,4.542969,-0.101563,-0.150391,-0.910156,0.704102,0.530457,0.047546,0.469727,down
336324,3.769531,9.382813,4.464844,-0.080078,-0.189453,-0.884766,0.704102,0.530457,0.047546,0.469727,down
336329,3.808594,9.609375,4.390625,-0.105469,-0.222656,-0.875,0.704102,0.530457,0.047546,0.469727,down
336334,3.886719,9.652344,4.390625,-0.105469,-0.222656,-0.875,0.710449,0.529602,0.051086,0.460632,down
336339,3.886719,9.652344,4.390625,-0.478516,-0.199219,-0.763672,0.711914,0.529297,0.051514,0.45874,down
336344,3.886719,9.570313,4.425781,-0.478516,-0.199219,-0.763672,0.713318,0.528687,0.051697,0.457092,down
336349,3.960938,9.265625,4.617187,-0.478516,-0.199219,-0.763672,0.714905,0.527832,0.051697,0.455627,down
336354,3.960938,9.265625,4.617187,-0.851562,-0.125,-0.691406,0.716675,0.526611,0.051514,0.454346,down
336359,4.0,9.078125,4.695312,-0.851562,-0.125,-0.691406,0.716675,0.526611,0.051514,0.454346,down
336364,3.960938,8.886719,4.773437,-1.003906,-0.072266,-0.662109,0.716675,0.526611,0.051514,0.454346,down
336369,3.960938,8.886719,4.773437,-1.126953,-0.021484,-0.650391,0.723022,0.520996,0.050293,0.450867,down
336375,3.808594,8.464844,5.039062,-1.126953,-0.021484,-0.650391,0.727356,0.516907,0.049438,0.448608,down
336380,3.695313,8.382813,5.078125,-0.912109,-0.037109,-0.691406,0.729614,0.514893,0.049133,0.447327,down
336386,3.65625,8.347656,5.117187,-0.765625,-0.056641,-0.708984,0.731323,0.513489,0.049011,0.446167,down
336391,3.5,8.386719,5.15625,-0.765625,-0.056641,-0.708984,0.733032,0.512268,0.049011,0.444885,down
336396,3.5,8.386719,5.15625,-0.433594,-0.099609,-0.732422,0.733032,0.512268,0.049011,0.444885,down
336403,3.5,8.460938,5.191406,-0.333984,-0.117188,-0.722656,0.733032,0.512268,0.049011,0.444885,down
336409,3.578125,8.582031,5.078125,-0.333984,-0.117188,-0.722656,0.737061,0.510071,0.049805,0.440552,down
336414,3.617188,8.582031,5.117187,-0.306641,-0.150391,-0.666016,0.737061,0.510071,0.049805,0.440552,down
336419,3.695313,8.539063,5.078125,-0.306641,-0.150391,-0.666016,0.73938,0.509155,0.050415,0.437622,down
336424,3.695313,8.460938,5.117187,-0.306641,-0.150391,-0.666016,0.740662,0.508545,0.050598,0.436096,down
336429,3.695313,8.425781,5.078125,-0.306641,-0.150391,-0.666016,0.741821,0.507996,0.050781,0.434875,down
336435,3.695313,8.34375,5.078125,-0.480469,-0.107422,-0.640625,0.744507,0.506226,0.050964,0.432251,down
336440,3.695313,8.117188,5.15625,-0.480469,-0.107422,-0.640625,0.745972,0.505188,0.050964,0.430969,down
336445,3.65625,8.039063,5.191406,-0.480469,-0.107422,-0.640625,0.745972,0.505188,0.050964,0.430969,down
336450,3.617188,7.960937,5.15625,-0.585937,-0.072266,-0.691406,0.745972,0.505188,0.050964,0.430969,down
336455,3.5,8.003906,5.15625,-0.585937,-0.072266,-0.691406,0.750488,0.501831,0.051208,0.426941,down
336460,3.386719,8.117188,5.15625,-0.585937,-0.072266,-0.691406,0.751831,0.500977,0.051331,0.425659,down
336465,3.308594,8.238281,5.117187,-0.585937,-0.072266,-0.691406,0.753174,0.500122,0.051514,0.424194,down
336470,3.234375,8.464844,5.0,-0.433594,-0.171875,-0.71875,0.754639,0.499268,0.051636,0.422546,down
336475,3.082031,8.804688,4.964844,-0.433594,-0.171875,-0.71875,0.754639,0.499268,0.051636,0.422546,down
336480,3.082031,8.921875,4.964844,-0.433594,-0.171875,-0.71875,0.757385,0.497864,0.051575,0.419373,down
336485,3.082031,9.039063,5.039062,-0.433594,-0.171875,-0.71875,0.757385,0.497864,0.051575,0.419373,down
336490,3.117188,9.121094,5.0,-0.53125,-0.292969,-0.640625,0.760193,0.496216,0.050903,0.41626,down
336496,3.15625,9.082031,5.117187,-0.53125,-0.292969,-0.640625,0.761536,0.495239,0.050415,0.415039,down
336501,3.117188,9.0,5.191406,-0.941406,-0.267578,-0.496094,0.763184,0.493835,0.049622,0.413757,down
336506,3.117188,8.886719,5.269531,-1.109375,-0.255859,-0.441406,0.764954,0.492065,0.048584,0.412659,down
336511,3.15625,8.695313,5.308594,-1.109375,-0.255859,-0.441406,0.767151,0.489685,0.047241,0.41156,down
336516,3.308594,8.34375,5.347656,-1.109375,-0.255859,-0.441406,0.767151,0.489685,0.047241,0.41156,down
336522,3.347656,8.160156,5.421875,-1.509766,-0.232422,-0.322266,0.767151,0.489685,0.047241,0.41156,down
336527,3.425781,7.929687,5.460937,-1.552734,-0.246094,-0.3125,0.767151,0.489685,0.047241,0.41156,down
336532,3.578125,7.578125,5.5,-1.552734,-0.246094,-0.3125,0.767151,0.489685,0.047241,0.41156,down
336538,3.578125,7.429687,5.5,-1.513672,-0.212891,-0.369141,0.767151,0.489685,0.047241,0.41156,down
336543,3.617188,7.316406,5.5,-1.398438,-0.205078,-0.423828,0.767151,0.489685,0.047241,0.41156,down
336549,3.617188,7.199219,5.539062,-1.253906,-0.212891,-0.490234,0.767151,0.489685,0.047241,0.41156,down
336554,3.578125,7.199219,5.539062,-1.083984,-0.203125,-0.537109,0.783997,0.46936,0.035889,0.404602,down
336559,3.578125,7.199219,5.539062,-1.083984,-0.203125,-0.537109,0.783997,0.46936,0.035889,0.404602,down
336564,3.539063,7.234375,5.613281,-0.751953,-0.179687,-0.607422,0.783997,0.46936,0.035889,0.404602,down
336569,3.425781,7.546875,5.539062,-0.632812,-0.167969,-0.621094,0.788879,0.464783,0.034241,0.400574,down
336574,3.308594,7.773437,5.5,-0.632812,-0.167969,-0.621094,0.790222,0.463745,0.034058,0.399231,down
336579,3.308594,8.003906,5.5,-0.632812,-0.167969,-0.621094,0.791443,0.46283,0.033936,0.397888,down
336585,3.308594,8.277344,5.460937,-0.458984,-0.123047,-0.591797,0.791443,0.46283,0.033936,0.397888,down
336590,3.234375,8.386719,5.460937,-0.458984,-0.103516,-0.572266,0.794861,0.460205,0.033875,0.394043,down
336595,3.234375,8.542969,5.460937,-0.458984,-0.103516,-0.572266,0.794861,0.460205,0.033875,0.394043,down
336600,3.117188,8.695313,5.5,-0.550781,-0.056641,-0.525391,0.794861,0.460205,0.033875,0.394043,down
336605,3.082031,8.734375,5.613281,-0.550781,-0.056641,-0.525391,0.798462,0.456665,0.033569,0.390869,down
336610,3.003906,8.65625,5.84375,-0.755859,-0.035156,-0.466797,0.798462,0.456665,0.033569,0.390869,down
336615,3.117188,8.464844,5.769531,-0.833984,0.037109,-0.458984,0.799866,0.455078,0.033325,0.389832,down
336621,2.8125,8.5,5.652344,-0.833984,0.037109,-0.458984,0.802673,0.45166,0.032837,0.388184,down
336626,2.964844,8.273438,6.1875,-0.833984,0.037109,-0.458984,0.804016,0.449951,0.032471,0.387329,down
336632,2.964844,8.117188,6.1875,-0.884766,-0.035156,-0.457031,0.805481,0.448181,0.032104,0.386475,down
336638,2.925781,8.042969,5.996094,-0.884766,-0.035156,-0.457031,0.807007,0.446228,0.031677,0.385437,down
336644,2.925781,8.082031,6.113281,-0.791016,-0.042969,-0.46875,0.807007,0.446228,0.031677,0.385437,down
336649,2.964844,8.078125,6.1875,-0.708984,-0.058594,-0.472656,0.807007,0.446228,0.031677,0.385437,down
