timestamp,ax,ay,az,gx,gy,gz,qw,qx,qy,qz,label
20553,8.601563,5.386719,0.683594,-0.076172,-0.080078,-0.330078,0.318787,0.678345,0.022278,0.661621,down
20558,8.683594,5.347656,0.644531,-0.132812,-0.021484,-0.322266,0.319458,0.678406,0.022766,0.661194,down
20563,8.683594,5.347656,0.644531,-0.132812,-0.021484,-0.322266,0.320862,0.678223,0.023437,0.660645,down
20568,8.335938,5.386719,0.644531,-0.132812,-0.021484,-0.322266,0.321777,0.677979,0.023682,0.660522,down
20573,8.261719,5.269531,0.644531,-0.318359,0.027344,-0.335938,0.321777,0.677979,0.023682,0.660522,down
20578,8.179688,5.15625,0.683594,-0.382813,-0.009766,-0.324219,0.322876,0.677612,0.023865,0.660339,down
20583,8.074219,5.039062,0.796875,-0.382813,-0.009766,-0.324219,0.323914,0.677307,0.023865,0.660156,down
20588,8.074219,5.039062,0.796875,-0.382813,-0.009766,-0.324219,0.326355,0.676636,0.023621,0.659607,down
20593,7.953125,5.0,0.988281,-0.382813,-0.009766,-0.324219,0.326355,0.676636,0.023621,0.659607,down
20598,7.914062,4.964844,1.105469,-0.392578,-0.009766,-0.3125,0.326355,0.676636,0.023621,0.659607,down
20603,7.878906,4.886719,1.144531,-0.384766,0.009766,-0.320313,0.326355,0.676636,0.023621,0.659607,down
20608,7.835937,4.847656,1.179688,-0.349609,0.101563,-0.347656,0.329834,0.675598,0.023437,0.658936,down
20613,7.765625,4.808594,1.21875,-0.349609,0.101563,-0.347656,0.331055,0.67511,0.023499,0.658813,down
20618,7.691406,4.808594,1.257813,-0.328125,0.222656,-0.398438,0.332275,0.674561,0.023743,0.658752,down
20624,7.453125,4.773437,1.410156,-0.328125,0.222656,-0.398438,0.334473,0.67334,0.024353,0.658875,down
20629,7.378906,4.773437,1.449219,-0.3125,0.269531,-0.466797,0.335876,0.672546,0.024902,0.658997,down
20634,7.347656,4.734375,1.488281,-0.316406,0.294922,-0.501953,0.337219,0.671753,0.025513,0.659119,down
20639,7.226562,4.734375,1.640625,-0.316406,0.294922,-0.501953,0.338379,0.671021,0.026062,0.65918,down
20644,7.191406,4.773437,1.757813,-0.316406,0.294922,-0.501953,0.339844,0.670105,0.026794,0.659363,down
20649,7.148437,4.808594,1.871094,-0.349609,0.431641,-0.648437,0.341614,0.668945,0.02771,0.659546,down
20655,6.996094,4.808594,1.984375,-0.349609,0.431641,-0.648437,0.343079,0.667969,0.028564,0.65979,down
20661,6.652344,4.695312,2.0625,-0.382813,0.513672,-0.726562,0.343079,0.667969,0.028564,0.65979,down
20666,6.570312,4.617187,2.140625,-0.392578,0.525391,-0.753906,0.343079,0.667969,0.028564,0.65979,down
20672,6.570312,4.582031,2.332031,-0.392578,0.525391,-0.753906,0.348694,0.664124,0.031799,0.660583,down
20677,6.613281,4.582031,2.292969,-0.435547,0.484375,-0.771484,0.348694,0.664124,0.031799,0.660583,down
20682,6.613281,4.582031,2.292969,-0.435547,0.484375,-0.771484,0.3526,0.66156,0.033875,0.66095,down
20687,6.613281,4.582031,2.292969,-0.507812,0.431641,-0.767578,0.354431,0.660461,0.034668,0.661011,down
20692,6.804687,4.582031,2.367188,-0.507812,0.431641,-0.767578,0.356506,0.659241,0.035461,0.661072,down
20697,6.992187,4.617187,2.332031,-0.507812,0.431641,-0.767578,0.356506,0.659241,0.035461,0.661072,down
20702,6.992187,4.617187,2.332031,-0.591797,0.339844,-0.769531,0.360962,0.65686,0.036682,0.66095,down
20709,7.191406,4.695312,2.367188,-0.591797,0.339844,-0.769531,0.36554,0.654846,0.037842,0.6604,down
20715,7.109375,4.773437,2.253906,-0.591797,0.339844,-0.769531,0.367554,0.654053,0.038513,0.659973,down
20720,7.074219,4.808594,2.253906,-0.402344,0.068359,-0.839844,0.369629,0.653442,0.039246,0.659424,down
20725,6.925781,4.886719,2.214844,-0.347656,0.033203,-0.851562,0.371643,0.652893,0.0401,0.658752,down
20730,6.886719,4.964844,2.175781,-0.347656,0.033203,-0.851562,0.373718,0.652466,0.041077,0.657959,down
20735,6.542969,5.117187,2.101563,-0.347656,0.033203,-0.851562,0.373718,0.652466,0.041077,0.657959,down
20740,6.386719,5.191406,2.023438,-0.183594,-0.082031,-0.900391,0.373718,0.652466,0.041077,0.657959,down
20745,6.226562,5.269531,1.984375,-0.138672,-0.103516,-0.910156,0.373718,0.652466,0.041077,0.657959,down
20751,5.847656,5.386719,1.949219,-0.138672,-0.103516,-0.910156,0.380676,0.651794,0.045471,0.654297,down
20756,5.695312,5.308594,1.910156,-0.066406,-0.121094,-0.923828,0.380676,0.651794,0.045471,0.654297,down
20761,5.617187,5.230469,1.832031,-0.021484,-0.144531,-0.914062,0.380676,0.651794,0.045471,0.654297,down
20766,5.464844,5.117187,1.910156,0.015625,-0.195312,-0.910156,0.380676,0.651794,0.045471,0.654297,down
20772,5.355469,5.117187,1.949219,0.042969,-0.25,-0.90625,0.380676,0.651794,0.045471,0.654297,down
20777,5.273437,5.191406,1.910156,0.074219,-0.291016,-0.908203,0.380676,0.651794,0.045471,0.654297,down
20783,5.425781,5.269531,2.023438,0.115234,-0.339844,-0.908203,0.380676,0.651794,0.045471,0.654297,down
20788,5.542969,5.386719,2.023438,0.191406,-0.367188,-0.902344,0.39093,0.653687,0.054932,0.64563,down
20793,5.503906,5.542969,2.023438,0.191406,-0.367188,-0.902344,0.392273,0.654358,0.056458,0.644043,down
20798,5.425781,5.648437,2.101563,0.191406,-0.367188,-0.902344,0.393372,0.654968,0.057983,0.642578,down
20803,5.195312,5.6875,2.214844,0.263672,-0.351563,-0.896484,0.395386,0.656311,0.061035,0.639709,down
20808,4.96875,5.691406,2.40625,0.263672,-0.351563,-0.896484,0.395386,0.656311,0.061035,0.639709,down
20813,4.660156,5.691406,2.40625,0.398438,-0.617187,-0.90625,0.395386,0.656311,0.061035,0.639709,down
20818,4.546875,5.648437,2.292969,0.398438,-0.617187,-0.90625,0.397217,0.658203,0.06427,0.636292,down
20823,4.277344,5.539062,2.0625,0.386719,-0.794922,-0.917969,0.39917,0.661072,0.067017,0.631775,down
20828,4.125,5.5,2.0625,0.386719,-0.794922,-0.917969,0.39917,0.661072,0.067017,0.631775,down
20833,4.007812,5.421875,2.140625,0.154297,-1.175781,-0.919922,0.39917,0.661072,0.067017,0.631775,down
20838,3.894531,5.121094,2.40625,0.154297,-1.175781,-0.919922,0.401672,0.66449,0.068787,0.626343,down
20844,4.007812,4.847656,2.367188,0.097656,-1.306641,-0.914062,0.404663,0.668518,0.06958,0.620117,down
20849,4.085937,4.578125,2.292969,0.054687,-1.603516,-0.900391,0.406311,0.670959,0.069641,0.616333,down
20854,4.164062,4.421875,2.023438,0.054687,-1.603516,-0.900391,0.406311,0.670959,0.069641,0.616333,down
20859,4.164062,4.421875,2.023438,0.029297,-1.886719,-0.90625,0.409363,0.675781,0.069336,0.60907,down
20864,4.164062,4.421875,2.023438,0.029297,-1.886719,-0.90625,0.409363,0.675781,0.069336,0.60907,down
20869,4.617187,4.351562,1.910156,0.052734,-2.007813,-0.914062,0.409363,0.675781,0.069336,0.60907,down
20874,5.078125,4.695312,1.871094,0.099609,-2.087891,-0.929687,0.412659,0.68158,0.068604,0.600342,down
20879,5.078125,4.695312,1.871094,0.099609,-2.087891,-0.929687,0.412659,0.68158,0.068604,0.600342,down
20884,5.078125,4.695312,1.871094,0.3125,-2.220703,-0.976562,0.415527,0.688171,0.068054,0.590881,down
20889,4.894531,4.808594,1.335938,0.3125,-2.220703,-0.976562,0.417908,0.695618,0.068054,0.580383,down
20895,4.316406,4.886719,1.027344,0.3125,-2.220703,-0.976562,0.418701,0.699158,0.068298,0.575439,down
20900,4.164062,4.925781,0.875,0.736328,-2.525391,-1.158203,0.419495,0.703186,0.068665,0.569885,down
20905,3.972656,4.964844,0.644531,0.785156,-2.601563,-1.212891,0.419495,0.703186,0.068665,0.569885,down
20910,3.625,5.078125,0.375,0.832031,-2.654297,-1.273438,0.419495,0.703186,0.068665,0.569885,down
20915,3.167969,5.421875,0.109375,0.832031,-2.654297,-1.273438,0.419495,0.703186,0.068665,0.569885,down
20920,3.167969,5.421875,0.109375,0.863281,-2.826172,-1.384766,0.422668,0.720642,0.071228,0.544922,down
20926,3.433594,5.652344,-0.160156,0.863281,-2.826172,-1.384766,0.422668,0.720642,0.071228,0.544922,down
20931,3.894531,5.726562,-0.8125,0.863281,-2.826172,-1.384766,0.424438,0.729675,0.072876,0.531128,down
20936,4.007812,5.84375,-1.195313,0.763672,-2.988281,-1.632813,0.424438,0.729675,0.072876,0.531128,down
20942,4.046875,6.269531,-1.460938,0.693359,-2.994141,-1.669922,0.424438,0.729675,0.072876,0.531128,down
20948,4.277344,7.414062,-2.035156,0.705078,-2.966797,-1.736328,0.424438,0.729675,0.072876,0.531128,down
20953,4.277344,7.953125,-2.152344,0.703125,-2.951172,-1.785156,0.424438,0.729675,0.072876,0.531128,down
20958,4.238281,8.335938,-2.265625,0.720703,-2.927734,-1.835938,0.424438,0.729675,0.072876,0.531128,down
20963,4.238281,8.335938,-2.265625,0.699219,-2.884766,-1.882813,0.432922,0.754883,0.078979,0.486267,down
20968,4.199219,8.5625,-2.457031,0.699219,-2.884766,-1.882813,0.432922,0.754883,0.078979,0.486267,down
20973,4.085937,8.5625,-2.574219,0.650391,-2.871094,-1.921875,0.436279,0.762451,0.081543,0.470825,down
20978,4.085937,8.5625,-2.574219,0.650391,-2.871094,-1.921875,0.436279,0.762451,0.081543,0.470825,down
20983,3.664063,9.105469,-2.839844,0.226562,-2.9375,-1.931641,0.436279,0.762451,0.081543,0.470825,down
20989,3.433594,9.371094,-2.800781,-0.148437,-2.955078,-1.892578,0.436279,0.762451,0.081543,0.470825,down
20994,3.207031,9.59375,-2.992188,-0.148437,-2.955078,-1.892578,0.445923,0.775146,0.084656,0.439453,down
20999,2.976563,9.671875,-3.222656,-0.707031,-3.03125,-1.800781,0.445923,0.775146,0.084656,0.439453,down
21004,2.59375,9.554688,-3.378906,-0.707031,-3.03125,-1.800781,0.45697,0.781677,0.083435,0.416199,down
21009,2.4375,9.445313,-3.378906,-1.337891,-3.183594,-1.681641,0.45697,0.781677,0.083435,0.416199,down
21014,2.285156,9.328125,-3.414063,-1.521484,-3.208984,-1.65625,0.462219,0.783325,0.081787,0.407532,down
21019,2.285156,9.292969,-3.570313,-1.521484,-3.208984,-1.65625,0.472412,0.7854,0.078064,0.392273,down
21024,2.402344,9.105469,-3.683594,-1.521484,-3.208984,-1.65625,0.477722,0.786316,0.07605,0.384338,down
21029,2.898438,9.210938,-3.761719,-1.521484,-3.208984,-1.65625,0.477722,0.786316,0.07605,0.384338,down
21034,3.089844,9.253906,-3.761719,-1.333984,-3.177734,-1.830078,0.477722,0.786316,0.07605,0.384338,down
21039,3.242188,9.144531,-3.835938,-1.333984,-3.177734,-1.830078,0.492737,0.789062,0.071289,0.359924,down
21044,3.242188,9.144531,-3.835938,-1.333984,-3.177734,-1.830078,0.492737,0.789062,0.071289,0.359924,down
21049,3.167969,9.066406,-3.914063,-1.005859,-3.164063,-1.951172,0.492737,0.789062,0.071289,0.359924,down
21054,3.167969,9.066406,-3.914063,-0.826172,-3.177734,-1.998047,0.501282,0.791382,0.069397,0.342896,down
21059,3.050781,9.210938,-4.066406,-0.826172,-3.177734,-1.998047,0.501282,0.791382,0.069397,0.342896,down
21064,2.859375,9.328125,-4.105469,-0.330078,-3.220703,-2.164063,0.508484,0.794373,0.068481,0.325195,down
21070,2.859375,9.328125,-4.105469,-0.226562,-3.230469,-2.197266,0.514343,0.797729,0.068359,0.307251,down
21076,2.515625,9.488281,-4.527344,-0.226562,-3.230469,-2.197266,0.516968,0.799622,0.068481,0.297729,down
21081,2.246094,9.714844,-4.566406,-0.033203,-3.240234,-2.183594,0.519348,0.801453,0.068665,0.288574,down
21087,1.980469,9.9375,-4.640625,0.089844,-3.228516,-2.173828,0.519348,0.801453,0.068665,0.288574,down
21092,1.632813,10.558594,-4.601562,0.175781,-3.251953,-2.179688,0.519348,0.801453,0.068665,0.288574,down
21097,1.558594,10.746094,-4.527344,0.189453,-3.310547,-2.183594,0.519348,0.801453,0.068665,0.288574,down
21102,1.441406,11.09375,-4.640625,0.113281,-3.357422,-2.169922,0.519348,0.801453,0.068665,0.288574,down
21107,1.367188,11.167969,-4.71875,-0.041016,-3.439453,-2.150391,0.519348,0.801453,0.068665,0.288574,down
21113,1.367188,11.320313,-4.410156,-0.041016,-3.439453,-2.150391,0.519348,0.801453,0.068665,0.288574,down
21118,1.25,11.515625,-4.449219,-0.558594,-3.560547,-1.986328,0.519348,0.801453,0.068665,0.288574,down
21123,1.25,11.515625,-4.449219,-0.660156,-3.550781,-1.896484,0.536377,0.81427,0.067322,0.211609,down
21128,1.023438,11.863281,-4.335937,-0.789062,-3.587891,-1.832031,0.536377,0.81427,0.067322,0.211609,down
21133,1.023438,11.863281,-4.335937,-0.96875,-3.615234,-1.791016,0.542786,0.815063,0.064392,0.192261,down
21138,0.675781,11.972656,-4.257812,-0.96875,-3.615234,-1.791016,0.546326,0.815002,0.062622,0.182739,down
21143,0.675781,11.972656,-4.257812,-1.457031,-3.732422,-1.773438,0.550476,0.814514,0.060547,0.172729,down
21148,0.445312,11.546875,-4.296875,-1.457031,-3.732422,-1.773438,0.554993,0.813599,0.058411,0.163025,down
21153,0.484375,11.167969,-4.527344,-1.457031,-3.732422,-1.773438,0.554993,0.813599,0.058411,0.163025,down
21158,0.601562,11.136719,-4.375,-2.414063,-3.808594,-1.830078,0.554993,0.813599,0.058411,0.163025,down
21164,0.832031,10.898438,-4.527344,-2.771484,-3.748047,-1.835938,0.554993,0.813599,0.058411,0.163025,down
21169,0.984375,10.714844,-4.449219,-3.292969,-3.460938,-1.810547,0.579285,0.80426,0.048706,0.123474,down
21174,0.945312,10.554688,-4.335937,-3.292969,-3.460938,-1.810547,0.58728,0.80011,0.046082,0.113342,down
21179,0.945312,10.402344,-4.179687,-3.572266,-3.119141,-1.685547,0.594788,0.795837,0.043762,0.104431,down
21185,0.714844,10.328125,-3.761719,-3.572266,-3.119141,-1.685547,0.602417,0.79126,0.041626,0.09613,down
21190,0.523437,10.441406,-3.570313,-3.640625,-2.964844,-1.59375,0.609863,0.78656,0.039551,0.08844,down
21195,0.523437,10.441406,-3.570313,-3.640625,-2.964844,-1.59375,0.617554,0.781433,0.037415,0.080811,down
21200,-0.050781,10.714844,-2.574219,-3.585938,-2.755859,-1.433594,0.625366,0.776123,0.035217,0.073242,down
21205,-0.050781,10.714844,-2.574219,-3.478516,-2.714844,-1.373047,0.632629,0.770935,0.033081,0.066162,down
21211,-0.894531,11.203125,-2.304688,-3.390625,-2.701172,-1.328125,0.632629,0.770935,0.033081,0.066162,down
21217,-1.007813,11.324219,-2.074219,-3.386719,-2.833984,-1.267578,0.632629,0.770935,0.033081,0.066162,down
21222,-1.277344,11.746094,-1.652344,-3.386719,-2.833984,-1.267578,0.660034,0.749878,0.023437,0.037781,down
21227,-1.390625,11.898438,-1.652344,-3.556641,-3.066406,-1.291016,0.660034,0.749878,0.023437,0.037781,down
21232,-1.46875,12.007813,-1.691406,-3.761719,-3.166016,-1.324219,0.660034,0.749878,0.023437,0.037781,down
21238,-1.429688,11.78125,-1.613281,-3.761719,-3.166016,-1.324219,0.68158,0.731445,0.014404,0.01416,down
21243,-1.429688,11.78125,-1.613281,-4.226562,-3.351563,-1.466797,0.689148,0.724487,0.011292,0.00592,down
21248,-1.429688,11.78125,-1.613281,-4.384766,-3.398438,-1.560547,0.69696,0.717041,0.00824,-0.002502,down
21253,-1.199219,11.625,-1.539063,-4.404297,-3.398438,-1.644531,0.705078,0.709045,0.005188,-0.011536,down
21258,-0.625,10.363281,-1.15625,-4.404297,-3.398438,-1.644531,0.705078,0.709045,0.005188,-0.011536,down
21263,-0.625,10.363281,-1.15625,-4.214844,-3.353516,-1.738281,0.720032,0.693359,-0.000366,-0.029175,down
21268,-0.550781,8.828125,-0.773437,-3.9375,-3.259766,-1.703125,0.720032,0.693359,-0.000366,-0.029175,down
21274,-0.511719,8.75,-0.503906,-3.609375,-3.152344,-1.642578,0.720032,0.693359,-0.000366,-0.029175,down
21279,-0.550781,8.984375,0.070312,-3.242188,-3.068359,-1.5625,0.720032,0.693359,-0.000366,-0.029175,down
21284,-0.703125,9.367188,0.722656,-2.191406,-2.964844,-1.423828,0.720032,0.693359,-0.000366,-0.029175,down
21290,-1.160156,10.136719,1.335938,-1.802734,-2.982422,-1.357422,0.747437,0.6604,-0.013428,-0.070496,down
21295,-1.351563,10.597656,1.144531,-1.802734,-2.982422,-1.357422,0.753174,0.651794,-0.019775,-0.086426,down
21300,-1.546875,11.058594,1.027344,-1.802734,-2.982422,-1.357422,0.753174,0.651794,-0.019775,-0.086426,down
21305,-1.546875,11.058594,1.027344,-1.435547,-3.142578,-1.232422,0.755005,0.648743,-0.022766,-0.092957,down
21310,-1.699219,11.898438,0.761719,-1.386719,-3.226563,-1.210938,0.755005,0.648743,-0.022766,-0.092957,down
21315,-1.429688,12.777344,0.796875,-1.400391,-3.292969,-1.189453,0.758606,0.641785,-0.030273,-0.108154,down
21321,-1.429688,12.777344,0.796875,-1.513672,-3.314453,-1.185547,0.760376,0.638184,-0.03418,-0.115662,down
21327,-0.359375,12.894531,0.644531,-1.513672,-3.314453,-1.185547,0.762268,0.634277,-0.038025,-0.123169,down
21332,-0.203125,12.734375,0.570312,-2.431641,-3.037109,-0.931641,0.762268,0.634277,-0.038025,-0.123169,down
21337,-0.128906,12.507813,0.722656,-2.826172,-2.863281,-0.791016,0.762268,0.634277,-0.038025,-0.123169,down
21342,-0.128906,12.324219,0.722656,-3.222656,-2.701172,-0.638672,0.762268,0.634277,-0.038025,-0.123169,down
21347,-0.320313,11.746094,0.988281,-3.222656,-2.701172,-0.638672,0.762268,0.634277,-0.038025,-0.123169,down
21352,-0.320313,11.285156,1.371094,-3.898438,-2.417969,-0.375,0.762268,0.634277,-0.038025,-0.123169,down
21357,-0.320313,10.785156,1.601563,-4.097656,-2.320313,-0.294922,0.762268,0.634277,-0.038025,-0.123169,down
21362,-0.320313,10.785156,1.601563,-4.212891,-2.195313,-0.244141,0.796143,0.577454,-0.062317,-0.169739,down
21367,-0.472656,10.09375,1.792969,-4.212891,-2.195313,-0.244141,0.796143,0.577454,-0.062317,-0.169739,down
21372,-0.742187,9.75,2.023438,-4.082031,-2.005859,-0.232422,0.80719,0.558838,-0.066406,-0.177979,down
21377,-0.742187,9.75,2.023438,-4.082031,-2.005859,-0.232422,0.80719,0.558838,-0.066406,-0.177979,down
21382,-1.390625,9.367188,2.636719,-3.505859,-1.978516,-0.248047,0.812256,0.549988,-0.068298,-0.181824,down
21387,-1.390625,9.367188,2.636719,-3.505859,-1.978516,-0.248047,0.820984,0.533752,-0.072388,-0.189392,down
21392,-1.46875,10.175781,3.59375,-3.505859,-1.978516,-0.248047,0.820984,0.533752,-0.072388,-0.189392,down
21398,-1.390625,10.253906,3.785156,-3.505859,-1.978516,-0.248047,0.827454,0.520081,-0.077576,-0.196899,down
21404,-0.933594,10.363281,3.976563,-3.505859,-1.978516,-0.248047,0.830078,0.513977,-0.080444,-0.200745,down
21409,-0.742187,10.363281,4.132812,-3.505859,-1.978516,-0.248047,0.832458,0.508179,-0.083313,-0.204651,down
21415,-0.472656,10.4375,4.054687,-2.203125,-2.191406,-0.419922,0.832458,0.508179,-0.083313,-0.204651,down
21420,-0.472656,10.328125,4.015625,-2.203125,-2.191406,-0.419922,0.838745,0.490906,-0.091553,-0.216919,down
21425,-0.394531,10.097656,4.054687,-2.179688,-2.005859,-0.615234,0.838745,0.490906,-0.091553,-0.216919,down
21430,-0.394531,9.871094,4.015625,-2.179688,-2.005859,-0.615234,0.842651,0.479309,-0.096191,-0.225647,down
21435,-0.242187,9.636719,4.015625,-2.179688,-2.005859,-0.615234,0.844238,0.474304,-0.098022,-0.229492,down
21441,-0.050781,9.410156,4.359375,-2.179688,-2.005859,-0.615234,0.846008,0.468628,-0.099915,-0.233948,down
21446,-0.050781,9.410156,4.359375,-2.179688,-2.005859,-0.615234,0.846008,0.468628,-0.099915,-0.233948,down
21451,-0.011719,9.332031,4.4375,-1.990234,-1.707031,-0.820312,0.846008,0.468628,-0.099915,-0.233948,down
21456,-0.011719,9.332031,4.4375,-1.865234,-1.617188,-0.878906,0.848694,0.458801,-0.102722,-0.242065,down
21461,-0.164062,8.90625,4.628906,-1.865234,-1.617188,-0.878906,0.849854,0.454224,-0.104004,-0.246338,down
21466,-0.164062,8.90625,4.628906,-1.455078,-1.445313,-0.933594,0.851196,0.446594,-0.106262,-0.254395,down
21472,-0.664062,9.371094,4.859375,-1.455078,-1.445313,-0.933594,0.851562,0.44342,-0.107422,-0.258179,down
21477,-0.625,9.554688,4.933594,-0.988281,-1.40625,-0.935547,0.851562,0.44342,-0.107422,-0.258179,down
21483,-0.511719,9.636719,5.011719,-0.980469,-1.384766,-0.919922,0.851562,0.44342,-0.107422,-0.258179,down
21488,-0.433594,9.636719,5.242187,-1.044922,-1.351563,-0.884766,0.851562,0.44342,-0.107422,-0.258179,down
21494,-0.320313,9.488281,5.355469,-1.126953,-1.322266,-0.822266,0.851562,0.44342,-0.107422,-0.258179,down
21499,-0.164062,9.328125,5.511719,-1.185547,-1.291016,-0.746094,0.851562,0.44342,-0.107422,-0.258179,down
21505,-0.128906,9.101563,5.511719,-1.234375,-1.259766,-0.669922,0.853699,0.421936,-0.115662,-0.282471,down
21510,-0.011719,8.949219,5.394531,-1.234375,-1.259766,-0.669922,0.854492,0.417969,-0.11676,-0.285522,down
21515,0.101563,8.867188,5.511719,-1.234375,-1.259766,-0.669922,0.854492,0.417969,-0.11676,-0.285522,down
21520,0.21875,8.722656,5.511719,-1.490234,-1.070313,-0.404297,0.854492,0.417969,-0.11676,-0.285522,down
21525,0.179687,8.339844,5.664062,-1.490234,-1.070313,-0.404297,0.857178,0.406616,-0.119202,-0.292725,down
21530,0.101563,8.21875,5.703125,-1.439453,-0.927734,-0.398438,0.857178,0.406616,-0.119202,-0.292725,down
21535,0.027344,8.101563,5.738281,-1.439453,-0.927734,-0.398438,0.859009,0.398987,-0.1203,-0.297302,down
21540,-0.089844,7.914062,5.777344,-1.439453,-0.927734,-0.398438,0.859009,0.398987,-0.1203,-0.297302,down
21545,-0.128906,7.722656,5.816406,-1.332031,-0.84375,-0.484375,0.860413,0.392456,-0.120911,-0.301697,down
21550,-0.242187,7.683594,5.929687,-1.332031,-0.84375,-0.484375,0.860413,0.392456,-0.120911,-0.301697,down
21555,-0.320313,7.492187,5.96875,-1.048828,-0.712891,-0.681641,0.860413,0.392456,-0.120911,-0.301697,down
21560,-0.359375,7.296875,6.160156,-1.048828,-0.712891,-0.681641,0.861572,0.383972,-0.121277,-0.309082,down
21565,-0.320313,7.296875,6.316406,-1.048828,-0.712891,-0.681641,0.861633,0.381897,-0.121338,-0.311523,down
21570,-0.320313,7.417969,6.390625,-1.048828,-0.712891,-0.681641,0.861633,0.381897,-0.121338,-0.311523,down
21575,-0.320313,7.496094,6.429687,-0.646484,-0.654297,-0.800781,0.861633,0.381897,-0.121338,-0.311523,down
21580,-0.242187,7.535156,6.46875,-0.646484,-0.654297,-0.800781,0.861145,0.376526,-0.121704,-0.319153,down
21585,-0.050781,7.605469,6.621094,-0.646484,-0.654297,-0.800781,0.861145,0.376526,-0.121704,-0.319153,down
21590,0.0625,7.640625,6.660156,-0.482422,-0.611328,-0.773437,0.86084,0.374817,-0.121887,-0.32196,down
21595,0.0625,7.605469,6.582031,-0.482422,-0.611328,-0.773437,0.860535,0.373413,-0.12207,-0.32428,down
21600,0.0625,7.757812,6.429687,-0.363281,-0.529297,-0.693359,0.860168,0.372131,-0.122253,-0.326599,down
21605,0.0625,7.796875,6.277344,-0.363281,-0.529297,-0.693359,0.859741,0.371033,-0.122437,-0.328857,down
21610,0.0625,7.796875,6.277344,-0.302734,-0.46875,-0.683594,0.859009,0.369446,-0.122681,-0.332581,down
21615,-0.011719,7.835937,6.121094,-0.302734,-0.46875,-0.683594,0.859009,0.369446,-0.122681,-0.332581,down
21620,-0.128906,7.835937,5.96875,-0.302734,-0.46875,-0.683594,0.859009,0.369446,-0.122681,-0.332581,down
21625,-0.128906,7.835937,5.96875,-0.173828,-0.322266,-0.671875,0.858032,0.368286,-0.122681,-0.336365,down
21630,-0.625,8.0625,6.007812,-0.173828,-0.322266,-0.671875,0.857056,0.367554,-0.122375,-0.339783,down
21635,-0.816406,8.183594,5.929687,-0.173828,-0.322266,-0.671875,0.856567,0.367188,-0.12207,-0.341431,down
21640,-1.007813,8.40625,5.929687,-0.173828,-0.322266,-0.671875,0.856567,0.367188,-0.12207,-0.341431,down
21645,-1.007813,8.605469,6.046875,-0.351563,-0.261719,-0.5625,0.856567,0.367188,-0.12207,-0.341431,down
21650,-1.046875,8.367188,6.507812,-0.351563,-0.261719,-0.5625,0.855896,0.365967,-0.121582,-0.344604,down
21655,-0.96875,8.0625,6.621094,-0.351563,-0.261719,-0.5625,0.855652,0.36499,-0.121399,-0.346252,down
21660,-0.96875,7.761719,6.621094,-0.439453,-0.34375,-0.457031,0.855652,0.36499,-0.121399,-0.346252,down
21666,-1.007813,7.605469,6.542969,-0.335938,-0.390625,-0.308594,0.855652,0.36499,-0.121399,-0.346252,down
21672,-0.855469,7.875,6.621094,-0.335938,-0.390625,-0.308594,0.855286,0.360779,-0.121704,-0.351379,down
21677,-0.777344,7.957031,6.542969,-0.236328,-0.392578,-0.181641,0.855286,0.360779,-0.121704,-0.351379,down
21682,-0.625,8.101563,6.46875,-0.21875,-0.371094,-0.146484,0.855286,0.360779,-0.121704,-0.351379,down
21688,-0.359375,8.300781,6.277344,-0.207031,-0.355469,-0.117188,0.855286,0.360779,-0.121704,-0.351379,down
21694,-0.242187,8.335938,6.160156,-0.197266,-0.296875,-0.113281,0.855286,0.360779,-0.121704,-0.351379,down
21699,-0.203125,8.335938,6.007812,-0.185547,-0.224609,-0.103516,0.855286,0.360779,-0.121704,-0.351379,down
21704,-0.203125,8.300781,5.96875,-0.158203,-0.148437,-0.101563,0.855286,0.360779,-0.121704,-0.351379,down
21709,-0.320313,8.296875,5.96875,-0.158203,-0.148437,-0.101563,0.855286,0.360779,-0.121704,-0.351379,down
21714,-0.433594,8.410156,5.96875,-0.158203,-0.148437,-0.101563,0.855164,0.355835,-0.12384,-0.356079,down
21719,-0.625,8.410156,5.96875,-0.115234,0.085937,-0.0625,0.855164,0.355835,-0.12384,-0.356079,down
21725,-0.894531,8.371094,5.96875,-0.166016,0.138672,-0.050781,0.855469,0.355103,-0.122681,-0.356384,down
21730,-1.046875,8.222656,5.894531,-0.166016,0.138672,-0.050781,0.855469,0.355103,-0.122681,-0.356384,down
21735,-1.085938,8.027344,5.96875,-0.421875,0.103516,0.001953,0.855469,0.355103,-0.122681,-0.356384,down
21740,-1.085938,7.878906,6.085937,-0.488281,0.060547,0.005859,0.85614,0.353882,-0.121521,-0.356445,down
21746,-0.894531,7.5625,6.429687,-0.488281,0.060547,0.005859,0.857056,0.351807,-0.120361,-0.35675,down
21751,-0.816406,7.453125,6.582031,-0.625,0.009766,-0.021484,0.857544,0.350464,-0.119751,-0.356995,down
21756,-0.777344,7.261719,6.8125,-0.625,0.009766,-0.021484,0.857544,0.350464,-0.119751,-0.356995,down
21761,-0.777344,7.261719,6.8125,-0.566406,-0.080078,-0.066406,0.858459,0.347839,-0.118774,-0.357666,down
21767,-0.472656,7.148437,7.277344,-0.566406,-0.080078,-0.066406,0.858826,0.346619,-0.118408,-0.358093,down
21772,-0.511719,7.222656,7.273437,-0.419922,-0.103516,-0.152344,0.858826,0.346619,-0.118408,-0.358093,down
21777,-0.550781,7.335937,7.273437,-0.292969,-0.107422,-0.199219,0.858826,0.346619,-0.118408,-0.358093,down
21782,-0.742187,7.453125,7.234375,-0.292969,-0.107422,-0.199219,0.859131,0.344177,-0.117737,-0.359985,down
21787,-1.046875,7.601562,7.195312,-0.292969,-0.107422,-0.199219,0.858887,0.343994,-0.117737,-0.360779,down
21792,-1.085938,7.757812,7.234375,0.087891,-0.185547,-0.382813,0.858887,0.343994,-0.117737,-0.360779,down
21797,-1.125,7.914062,7.234375,0.087891,-0.185547,-0.382813,0.858887,0.343994,-0.117737,-0.360779,down
21803,-1.160156,7.917969,7.195312,0.087891,-0.185547,-0.382813,0.857239,0.34436,-0.118286,-0.364075,down
21808,-1.160156,7.953125,7.117187,0.087891,-0.185547,-0.382813,0.856628,0.344604,-0.118591,-0.365234,down
21814,-1.160156,7.796875,6.964844,0.087891,-0.185547,-0.382813,0.855713,0.34491,-0.119019,-0.366821,down
21819,-1.199219,7.640625,6.925781,0.273438,-0.347656,-0.601562,0.855713,0.34491,-0.119019,-0.366821,down
21824,-1.199219,7.640625,6.925781,0.322266,-0.351563,-0.611328,0.853882,0.345825,-0.120056,-0.369995,down
21830,-1.429688,7.457031,6.734375,0.402344,-0.335938,-0.607422,0.851929,0.347168,-0.121155,-0.372803,down
21835,-1.316406,7.957031,6.925781,0.402344,-0.335938,-0.607422,0.851929,0.347168,-0.121155,-0.372803,down
21840,-1.277344,8.21875,7.042969,0.402344,-0.335938,-0.607422,0.850769,0.348083,-0.121887,-0.374329,down
21846,-1.238281,8.484375,7.117187,0.443359,-0.302734,-0.470703,0.850769,0.348083,-0.121887,-0.374329,down
21851,-1.046875,9.027344,7.273437,0.443359,-0.302734,-0.470703,0.847961,0.350403,-0.123901,-0.377991,down
21856,-0.96875,9.140625,7.425781,0.216797,-0.216797,-0.339844,0.847961,0.350403,-0.123901,-0.377991,down
21861,-0.894531,9.144531,7.503906,0.033203,-0.167969,-0.289063,0.847168,0.350952,-0.12439,-0.379089,down
21866,-0.894531,9.144531,7.503906,-0.142578,-0.130859,-0.240234,0.846436,0.350891,-0.124695,-0.380615,down
21871,-1.007813,8.90625,7.539062,-0.142578,-0.130859,-0.240234,0.846375,0.350342,-0.124573,-0.381348,down
21876,-1.238281,8.449219,7.617187,-0.492187,-0.115234,-0.183594,0.846375,0.350342,-0.124573,-0.381348,down
21881,-1.316406,8.183594,7.617187,-0.492187,-0.115234,-0.183594,0.84668,0.348206,-0.12384,-0.382813,down
21886,-1.46875,7.71875,7.617187,-0.492187,-0.115234,-0.183594,0.847046,0.346558,-0.123352,-0.383667,down
21891,-1.582031,7.535156,7.464844,-0.492187,-0.115234,-0.183594,0.847412,0.34491,-0.122864,-0.384583,down
21896,-1.699219,7.339844,7.382812,-0.492187,-0.115234,-0.183594,0.847412,0.34491,-0.122864,-0.384583,down
21902,-1.8125,7.148437,7.425781,-0.59375,-0.324219,-0.402344,0.847778,0.341553,-0.122131,-0.386902,down
21907,-1.929688,6.957031,7.539062,-0.59375,-0.324219,-0.402344,0.847595,0.34021,-0.122009,-0.388428,down
21912,-1.929688,6.957031,7.539062,-0.320313,-0.496094,-0.648437,0.847229,0.339172,-0.122131,-0.390259,down
21917,-1.929688,6.800781,7.386719,-0.164062,-0.572266,-0.767578,0.846497,0.338257,-0.122498,-0.392517,down
21922,-1.738281,6.609375,7.15625,-0.164062,-0.572266,-0.767578,0.845581,0.337769,-0.122986,-0.394653,down
21928,-1.507813,6.648437,6.960937,-0.164062,-0.572266,-0.767578,0.84436,0.337646,-0.123779,-0.397156,down
21934,-1.160156,6.648437,7.117187,0.3125,-0.792969,-1.009766,0.84436,0.337646,-0.123779,-0.397156,down
21940,-0.777344,6.6875,7.238281,0.392578,-0.822266,-1.03125,0.84436,0.337646,-0.123779,-0.397156,down
21945,-0.394531,6.800781,7.578125,0.392578,-0.822266,-1.03125,0.84436,0.337646,-0.123779,-0.397156,down
21951,-0.320313,6.917969,7.578125,0.492187,-0.615234,-0.974609,0.84436,0.337646,-0.123779,-0.397156,down
21956,-0.320313,7.375,7.765625,0.492187,-0.615234,-0.974609,0.836182,0.339478,-0.129578,-0.410767,down
21961,-0.472656,7.53125,7.847656,0.492187,-0.615234,-0.974609,0.834473,0.340271,-0.130554,-0.41333,down
21967,-0.472656,7.53125,7.847656,0.482422,-0.445312,-0.859375,0.833069,0.341003,-0.131287,-0.415283,down
21972,-0.625,7.644531,7.882812,0.458984,-0.376953,-0.791016,0.833069,0.341003,-0.131287,-0.415283,down
21977,-1.199219,7.988281,8.039063,0.433594,-0.351563,-0.728516,0.830322,0.342651,-0.132507,-0.419006,down
21982,-1.199219,7.988281,8.039063,0.4375,-0.355469,-0.675781,0.829102,0.343445,-0.133118,-0.420654,down
21987,-1.199219,7.988281,8.039063,0.4375,-0.355469,-0.675781,0.826721,0.344727,-0.13446,-0.423828,down
21994,-1.238281,7.261719,8.113281,0.4375,-0.355469,-0.675781,0.826721,0.344727,-0.13446,-0.423828,down
21999,-1.160156,7.070312,7.964844,0.185547,-0.564453,-0.681641,0.824463,0.345215,-0.136047,-0.427368,down
22005,-1.160156,6.957031,7.964844,0.138672,-0.599609,-0.726562,0.824463,0.345215,-0.136047,-0.427368,down
22011,-1.199219,6.839844,7.65625,0.107422,-0.625,-0.785156,0.824463,0.345215,-0.136047,-0.427368,down
22016,-1.160156,6.648437,7.539062,0.107422,-0.625,-0.785156,0.820923,0.344788,-0.138367,-0.433716,down
22021,-1.199219,6.609375,7.503906,0.126953,-0.658203,-0.896484,0.820923,0.344788,-0.138367,-0.433716,down
22026,-1.238281,6.648437,7.425781,0.181641,-0.701172,-0.974609,0.820923,0.344788,-0.138367,-0.433716,down
22032,-1.238281,6.648437,7.425781,0.220703,-0.722656,-0.992187,0.815369,0.344421,-0.141357,-0.443298,down
22038,-1.085938,6.726562,7.160156,0.220703,-0.722656,-0.992187,0.813782,0.344421,-0.142273,-0.445984,down
22043,-0.894531,6.648437,7.0,0.271484,-0.791016,-0.992187,0.812195,0.344421,-0.14325,-0.448608,down
22048,-0.742187,6.574219,6.960937,0.271484,-0.791016,-0.992187,0.810364,0.344421,-0.14447,-0.451477,down
22053,-0.511719,6.34375,6.734375,0.271484,-0.791016,-0.992187,0.810364,0.344421,-0.14447,-0.451477,down
22058,-0.359375,6.34375,6.507812,0.337891,-0.794922,-0.992187,0.810364,0.344421,-0.14447,-0.451477,down
22063,-0.320313,6.304687,6.46875,0.367188,-0.755859,-0.984375,0.810364,0.344421,-0.14447,-0.451477,down
22069,-0.359375,6.417969,6.507812,0.367188,-0.755859,-0.984375,0.803589,0.345093,-0.148865,-0.461548,down
22075,-0.359375,6.570312,6.542969,0.429687,-0.652344,-0.966797,0.803589,0.345093,-0.148865,-0.461548,down
22081,-0.394531,6.574219,6.578125,0.412109,-0.589844,-0.958984,0.803589,0.345093,-0.148865,-0.461548,down
22086,-0.394531,6.914062,6.429687,0.367188,-0.552734,-0.958984,0.803589,0.345093,-0.148865,-0.461548,down
22091,-0.359375,7.070312,6.351562,0.242187,-0.503906,-0.912109,0.796753,0.346863,-0.152222,-0.470886,down
22096,-0.359375,7.074219,6.390625,0.242187,-0.503906,-0.912109,0.795044,0.347229,-0.152832,-0.473328,down
22101,-0.320313,7.070312,6.429687,0.066406,-0.476562,-0.859375,0.793579,0.347351,-0.153259,-0.475525,down
22107,-0.242187,7.070312,6.582031,0.066406,-0.476562,-0.859375,0.791016,0.347168,-0.15387,-0.479675,down
22112,-0.164062,7.035156,6.542969,-0.152344,-0.513672,-0.775391,0.789856,0.346619,-0.154114,-0.481934,down
22117,-0.203125,6.917969,6.621094,-0.28125,-0.517578,-0.724609,0.788879,0.345825,-0.154236,-0.48407,down
22123,-0.089844,6.574219,6.660156,-0.28125,-0.517578,-0.724609,0.788147,0.34491,-0.154236,-0.48584,down
22129,-0.089844,6.457031,6.65625,-0.480469,-0.488281,-0.693359,0.788147,0.34491,-0.154236,-0.48584,down
22134,-0.089844,6.304687,6.582031,-0.511719,-0.474609,-0.683594,0.788147,0.34491,-0.154236,-0.48584,down
22139,-0.089844,6.152344,6.472656,-0.515625,-0.447266,-0.708984,0.788147,0.34491,-0.154236,-0.48584,down
22146,-0.394531,5.921875,6.699219,-0.515625,-0.447266,-0.708984,0.788147,0.34491,-0.154236,-0.48584,down
22151,-0.433594,6.035156,6.894531,-0.394531,-0.431641,-0.857422,0.788147,0.34491,-0.154236,-0.48584,down
22156,-0.585937,6.152344,6.8125,-0.394531,-0.431641,-0.857422,0.784058,0.337646,-0.152344,-0.497986,down
22161,-0.703125,6.152344,6.695312,-0.394531,-0.431641,-0.857422,0.78302,0.33667,-0.152039,-0.500427,down
22166,-0.703125,6.152344,6.695312,-0.394531,-0.431641,-0.857422,0.781982,0.335938,-0.151855,-0.502563,down
22171,-0.777344,6.1875,6.660156,-0.1875,-0.529297,-0.992187,0.781982,0.335938,-0.151855,-0.502563,down
22176,-0.777344,6.1875,6.660156,-0.103516,-0.556641,-1.001953,0.779358,0.334656,-0.151794,-0.507507,down
22181,-0.585937,6.535156,6.851562,-0.103516,-0.556641,-1.001953,0.779358,0.334656,-0.151794,-0.507507,down
22186,-0.585937,6.535156,6.851562,-0.013672,-0.605469,-0.996094,0.776367,0.333801,-0.152405,-0.512512,down
22192,-0.703125,6.839844,6.8125,-0.033203,-0.595703,-0.910156,0.776367,0.333801,-0.152405,-0.512512,down
22197,-0.703125,6.839844,6.8125,-0.033203,-0.595703,-0.910156,0.772156,0.332336,-0.153381,-0.51947,down
22202,-0.894531,7.261719,6.582031,-0.183594,-0.691406,-0.798828,0.772156,0.332336,-0.153381,-0.51947,down
22207,-0.894531,7.261719,6.582031,-0.302734,-0.736328,-0.755859,0.769775,0.330444,-0.154236,-0.523926,down
22213,-0.433594,7.035156,6.507812,-0.302734,-0.736328,-0.755859,0.768738,0.329041,-0.154663,-0.526184,down
22219,-0.394531,6.914062,6.316406,-0.478516,-0.78125,-0.685547,0.768738,0.329041,-0.154663,-0.526184,down
22224,-0.433594,6.769531,6.238281,-0.480469,-0.75,-0.65625,0.768738,0.329041,-0.154663,-0.526184,down
22229,-0.855469,6.730469,6.507812,-0.445312,-0.693359,-0.648437,0.768738,0.329041,-0.154663,-0.526184,down
22234,-1.007813,6.769531,6.582031,-0.392578,-0.626953,-0.660156,0.768738,0.329041,-0.154663,-0.526184,down
22239,-1.046875,6.730469,6.507812,-0.384766,-0.613281,-0.675781,0.768738,0.329041,-0.154663,-0.526184,down
22244,-1.046875,6.648437,6.238281,-0.330078,-0.607422,-0.691406,0.768738,0.329041,-0.154663,-0.526184,down
22249,-1.125,6.765625,6.199219,-0.330078,-0.607422,-0.691406,0.768738,0.329041,-0.154663,-0.526184,down
22255,-1.199219,6.917969,6.390625,-0.330078,-0.607422,-0.691406,0.761963,0.317932,-0.156189,-0.542175,down
22261,-1.238281,6.878906,6.542969,-0.277344,-0.525391,-0.628906,0.761963,0.317932,-0.156189,-0.542175,down
22266,-1.160156,6.796875,6.582031,-0.277344,-0.525391,-0.628906,0.759338,0.314697,-0.156433,-0.547607,down
22271,-1.199219,6.648437,6.777344,-0.277344,-0.525391,-0.628906,0.759338,0.314697,-0.156433,-0.547607,down
22276,-1.277344,6.648437,6.855469,-0.277344,-0.525391,-0.628906,0.758545,0.313721,-0.156433,-0.549316,down
22282,-1.390625,6.6875,6.925781,-0.34375,-0.439453,-0.400391,0.758545,0.313721,-0.156433,-0.549316,down
22287,-1.507813,6.535156,7.003906,-0.34375,-0.439453,-0.400391,0.757019,0.310669,-0.156494,-0.553162,down
22292,-1.429688,6.378906,7.039062,-0.425781,-0.529297,-0.294922,0.757019,0.310669,-0.156494,-0.553162,down
22297,-1.199219,6.226562,7.117187,-0.425781,-0.529297,-0.294922,0.756348,0.307739,-0.15686,-0.555542,down
22302,-0.933594,5.882812,6.921875,-0.425781,-0.529297,-0.294922,0.756348,0.307739,-0.15686,-0.555542,down
22308,-0.933594,5.882812,6.921875,-0.367188,-0.494141,-0.216797,0.75592,0.30481,-0.15741,-0.557617,down
22313,-0.703125,5.5,7.347656,-0.273438,-0.433594,-0.228516,0.755615,0.303589,-0.157654,-0.558594,down
22318,-0.625,5.613281,7.503906,-0.273438,-0.433594,-0.228516,0.755371,0.302856,-0.157898,-0.559326,down
22323,-0.550781,5.652344,7.503906,-0.273438,-0.433594,-0.228516,0.754883,0.302124,-0.158142,-0.560181,down
22328,-0.703125,5.960937,7.503906,-0.273438,-0.433594,-0.228516,0.754395,0.301636,-0.158386,-0.561096,down
22333,-0.742187,6.113281,7.304687,-0.072266,-0.302734,-0.376953,0.754395,0.301636,-0.158386,-0.561096,down
22338,-0.742187,6.226562,7.386719,-0.072266,-0.302734,-0.376953,0.754395,0.301636,-0.158386,-0.561096,down
22343,-0.742187,6.226562,7.386719,-0.072266,-0.302734,-0.376953,0.752747,0.30011,-0.158813,-0.564026,down
22350,-0.816406,5.84375,7.617187,-0.072266,-0.302734,-0.376953,0.752747,0.30011,-0.158813,-0.564026,down
22355,-0.933594,5.769531,7.542969,-0.392578,-0.326172,-0.294922,0.752747,0.30011,-0.158813,-0.564026,down
22360,-1.160156,5.730469,7.34375,-0.392578,-0.326172,-0.294922,0.752747,0.30011,-0.158813,-0.564026,down
22366,-1.238281,5.691406,7.308594,-0.392578,-0.326172,-0.294922,0.751587,0.295898,-0.158264,-0.567871,down
22372,-1.125,5.578125,7.421875,-0.498047,-0.341797,-0.195312,0.751587,0.295898,-0.158264,-0.567871,down
22378,-0.855469,5.421875,7.421875,-0.498047,-0.341797,-0.195312,0.751404,0.291992,-0.157593,-0.570374,down
22383,-0.855469,5.421875,7.421875,-0.371094,-0.251953,-0.205078,0.751282,0.290894,-0.15741,-0.571106,down
22388,-0.933594,5.347656,7.382812,-0.371094,-0.251953,-0.205078,0.751099,0.2901,-0.157227,-0.571777,down
22393,-1.160156,5.230469,7.699219,-0.371094,-0.251953,-0.205078,0.751099,0.2901,-0.157227,-0.571777,down
22398,-1.46875,5.347656,7.84375,0.060547,-0.0625,-0.21875,0.751099,0.2901,-0.157227,-0.571777,down
22403,-1.46875,5.347656,7.84375,0.154297,-0.064453,-0.205078,0.750122,0.289795,-0.157104,-0.573303,down
22408,-1.582031,5.769531,8.613281,0.154297,-0.064453,-0.205078,0.749573,0.290039,-0.157471,-0.57373,down
22415,-1.738281,6.34375,8.882813,0.154297,-0.064453,-0.205078,0.749207,0.289917,-0.157959,-0.574219,down
22421,-1.621094,6.574219,8.886719,-0.080078,-0.458984,-0.169922,0.749207,0.289917,-0.157959,-0.574219,down
22426,-1.46875,6.609375,8.804688,-0.203125,-0.566406,-0.109375,0.749207,0.289917,-0.157959,-0.574219,down
22431,-0.96875,6.378906,8.5,-0.203125,-0.566406,-0.109375,0.749207,0.289917,-0.157959,-0.574219,down
22436,-0.816406,6.226562,8.230469,-0.203125,-0.566406,-0.109375,0.74823,0.285278,-0.160706,-0.577026,down
22441,-0.625,6.113281,7.964844,-0.501953,-0.646484,0.0625,0.74823,0.285278,-0.160706,-0.577026,down
22446,-0.664062,6.113281,8.0,-0.560547,-0.578125,0.146484,0.748596,0.281616,-0.161743,-0.578064,down
22451,-0.664062,6.113281,8.0,-0.552734,-0.554687,0.238281,0.748962,0.279846,-0.162109,-0.578308,down
22457,-0.703125,6.1875,8.152344,-0.552734,-0.554687,0.238281,0.749451,0.277954,-0.162598,-0.57843,down
22462,-0.703125,6.1875,8.152344,-0.398438,-0.533203,0.314453,0.75,0.276245,-0.163208,-0.57843,down
22467,-0.96875,6.417969,8.425781,-0.398438,-0.533203,0.314453,0.750488,0.274719,-0.163879,-0.578369,down
22472,-1.085938,6.800781,8.886719,-0.398438,-0.533203,0.314453,0.750854,0.273376,-0.164673,-0.578247,down
22477,-1.199219,6.800781,9.113281,-0.046875,-0.535156,0.291016,0.75116,0.272278,-0.165649,-0.578064,down
22483,-1.085938,6.6875,9.070313,-0.046875,-0.535156,0.291016,0.751648,0.270264,-0.167847,-0.577759,down
22488,-0.625,6.535156,8.917969,-0.046875,-0.535156,0.291016,0.751831,0.269348,-0.169189,-0.577515,down
22493,-0.550781,6.417969,8.882813,-0.052734,-0.613281,0.429687,0.751831,0.269348,-0.169189,-0.577515,down
22498,-0.242187,5.996094,8.957031,-0.115234,-0.626953,0.482422,0.751831,0.269348,-0.169189,-0.577515,down
22503,-0.011719,6.035156,8.648438,-0.115234,-0.626953,0.482422,0.751831,0.269348,-0.169189,-0.577515,down
22509,-0.011719,6.035156,8.648438,-0.332031,-0.523437,0.566406,0.754028,0.263794,-0.174316,-0.575684,down
22514,-0.050781,5.578125,8.460938,-0.332031,-0.523437,0.566406,0.754761,0.26239,-0.174988,-0.575195,down
22520,-0.164062,5.539062,8.382813,-0.496094,-0.523437,0.59375,0.754761,0.26239,-0.174988,-0.575195,down
22526,-0.433594,5.386719,8.503906,-0.525391,-0.464844,0.554687,0.754761,0.26239,-0.174988,-0.575195,down
22532,-0.550781,5.039062,8.957031,-0.443359,-0.587891,0.494141,0.754761,0.26239,-0.174988,-0.575195,down
22538,-0.28125,5.191406,9.074219,-0.443359,-0.587891,0.494141,0.758972,0.252869,-0.178406,-0.572876,down
22543,-0.433594,5.039062,8.078125,-0.443359,-0.587891,0.494141,0.75946,0.251282,-0.179626,-0.572571,down
22549,-0.359375,4.925781,7.730469,-0.007813,-0.705078,0.451172,0.759827,0.25,-0.181091,-0.572205,down
22554,-0.203125,4.847656,7.5,0.123047,-0.722656,0.472656,0.760132,0.24884,-0.182922,-0.571716,down
22559,0.0625,5.539062,7.660156,0.123047,-0.722656,0.472656,0.760315,0.247925,-0.184814,-0.571167,down
22564,0.027344,5.996094,7.886719,0.361328,-0.734375,0.570312,0.760559,0.247253,-0.186951,-0.570496,down
22570,-0.011719,6.417969,7.925781,0.462891,-0.71875,0.626953,0.760559,0.247253,-0.186951,-0.570496,down
22575,-0.128906,6.878906,7.925781,0.462891,-0.71875,0.626953,0.761047,0.246338,-0.191772,-0.568604,down
22581,-0.089844,6.648437,8.0,0.513672,-0.609375,0.664062,0.761047,0.246338,-0.191772,-0.568604,down
22586,0.027344,6.6875,8.078125,0.396484,-0.529297,0.650391,0.761719,0.245911,-0.196289,-0.566345,down
22592,0.5625,6.457031,7.964844,0.232422,-0.546875,0.679687,0.762817,0.244629,-0.199829,-0.564209,down
22597,0.332031,6.1875,7.730469,0.232422,-0.546875,0.679687,0.762817,0.244629,-0.199829,-0.564209,down
22602,0.101563,5.960937,7.730469,0.041016,-0.455078,0.769531,0.762817,0.244629,-0.199829,-0.564209,down
22607,0.523437,5.804687,7.886719,0.019531,-0.482422,0.839844,0.762817,0.244629,-0.199829,-0.564209,down
22613,0.410156,5.613281,8.269531,0.019531,-0.482422,0.839844,0.766357,0.240479,-0.205811,-0.559021,down
22618,0.371094,5.578125,8.226563,-0.039063,-0.396484,0.939453,0.767456,0.23938,-0.207153,-0.557495,down
22624,0.101563,5.460937,8.152344,-0.039063,-0.396484,0.939453,0.768494,0.238342,-0.208252,-0.556091,down
22629,0.0625,5.578125,8.152344,-0.039063,-0.396484,0.939453,0.769653,0.237122,-0.209412,-0.554565,down
22634,0.292969,5.730469,8.003906,-0.083984,-0.447266,0.955078,0.769653,0.237122,-0.209412,-0.554565,down
22639,0.292969,5.730469,7.925781,-0.052734,-0.447266,0.945312,0.769653,0.237122,-0.209412,-0.554565,down
22644,0.253906,5.578125,8.0,-0.058594,-0.441406,0.927734,0.77301,0.233337,-0.213257,-0.549988,down
22650,0.714844,5.386719,8.109375,-0.058594,-0.441406,0.927734,0.774048,0.232117,-0.2146,-0.548523,down
22656,0.753906,5.5,7.847656,0.037109,-0.400391,0.871094,0.774048,0.232117,-0.2146,-0.548523,down
22662,0.601562,5.460937,7.542969,0.087891,-0.277344,0.875,0.774048,0.232117,-0.2146,-0.548523,down
22668,0.253906,5.347656,7.65625,0.271484,-0.105469,0.902344,0.774048,0.232117,-0.2146,-0.548523,down
22673,0.179687,5.652344,7.84375,0.271484,-0.105469,0.902344,0.779053,0.229431,-0.220581,-0.540161,down
22678,-0.050781,5.804687,8.148438,0.271484,-0.105469,0.902344,0.780029,0.229431,-0.221802,-0.538208,down
22683,0.0625,5.84375,8.1875,0.271484,-0.105469,0.902344,0.780029,0.229431,-0.221802,-0.538208,down
22688,0.0625,5.84375,8.1875,0.275391,-0.099609,0.917969,0.780884,0.22937,-0.222839,-0.53656,down
22693,-0.050781,5.613281,8.1875,0.275391,-0.099609,0.917969,0.781921,0.229248,-0.223877,-0.534729,down
22698,-0.050781,5.613281,8.1875,0.191406,-0.023437,0.927734,0.784119,0.229065,-0.225525,-0.530884,down
22703,0.140625,5.5,8.082031,0.191406,-0.023437,0.927734,0.784119,0.229065,-0.225525,-0.530884,down
22708,0.140625,5.5,8.082031,0.308594,0.171875,0.941406,0.785278,0.229187,-0.226135,-0.528809,down
22713,0.140625,5.769531,7.726562,0.308594,0.171875,0.941406,0.787537,0.229675,-0.227905,-0.524414,down
22719,0.523437,6.1875,6.429687,0.308594,0.171875,0.941406,0.788635,0.22998,-0.228455,-0.522461,down
22724,0.523437,6.152344,6.578125,0.289063,0.3125,1.011719,0.789978,0.230408,-0.228821,-0.520142,down
22729,0.714844,6.304687,6.773437,0.304688,0.296875,1.027344,0.789978,0.230408,-0.228821,-0.520142,down
22736,0.675781,6.226562,6.925781,0.359375,0.337891,1.033203,0.789978,0.230408,-0.228821,-0.520142,down
22741,0.675781,6.765625,6.542969,0.359375,0.337891,1.033203,0.789978,0.230408,-0.228821,-0.520142,down
22747,0.445312,7.03125,6.773437,0.40625,0.466797,1.054688,0.789978,0.230408,-0.228821,-0.520142,down
22752,1.175781,7.109375,7.304687,0.367188,0.453125,1.048828,0.789978,0.230408,-0.228821,-0.520142,down
22757,1.214844,7.03125,7.578125,0.367188,0.453125,1.048828,0.798035,0.23407,-0.230347,-0.505249,down
22762,1.175781,7.148437,7.765625,0.367188,0.453125,1.048828,0.799561,0.234375,-0.230286,-0.502747,down
22768,1.214844,7.070312,7.804687,0.005859,0.417969,1.068359,0.802612,0.234314,-0.229858,-0.498108,down
22773,0.867187,6.6875,7.699219,0.005859,0.417969,1.068359,0.804138,0.234375,-0.229614,-0.495728,down
22778,0.945312,6.496094,8.226563,0.123047,0.308594,1.070313,0.805786,0.234436,-0.229492,-0.493042,down
22783,1.328125,6.765625,9.035156,0.123047,0.308594,1.070313,0.805786,0.234436,-0.229492,-0.493042,down
22788,1.671875,6.457031,8.808594,0.201172,0.205078,1.052734,0.805786,0.234436,-0.229492,-0.493042,down
22794,1.480469,6.800781,8.347656,0.201172,0.205078,1.052734,0.80957,0.235168,-0.230042,-0.486145,down
22799,1.519531,6.535156,8.804688,0.417969,0.488281,1.039063,0.80957,0.235168,-0.230042,-0.486145,down
22804,1.519531,6.535156,8.804688,0.535156,0.509766,1.023438,0.812134,0.236877,-0.230225,-0.480896,down
22810,1.175781,6.992187,8.152344,0.535156,0.509766,1.023438,0.813354,0.238159,-0.230347,-0.47821,down
22816,0.292969,7.492187,7.617187,0.660156,0.814453,0.988281,0.813354,0.238159,-0.230347,-0.47821,down
22821,0.5625,6.6875,7.847656,0.59375,0.830078,0.994141,0.813354,0.238159,-0.230347,-0.47821,down
22826,0.253906,5.730469,9.074219,0.339844,0.703125,0.835937,0.813354,0.238159,-0.230347,-0.47821,down
22832,0.5625,5.996094,8.078125,0.185547,0.525391,0.708984,0.813354,0.238159,-0.230347,-0.47821,down
22838,0.675781,5.460937,7.617187,0.113281,0.667969,0.462891,0.813354,0.238159,-0.230347,-0.47821,down
22843,0.445312,5.117187,7.660156,0.113281,0.667969,0.462891,0.819946,0.245117,-0.227722,-0.464478,down
22848,0.179687,5.039062,7.769531,0.083984,0.568359,0.351563,0.821289,0.24646,-0.226013,-0.46228,down
22853,0.101563,5.191406,7.578125,0.078125,0.492187,0.240234,0.821289,0.24646,-0.226013,-0.46228,down
22858,-0.203125,5.230469,7.539062,0.050781,0.441406,0.263672,0.821838,0.247192,-0.225098,-0.461304,down
22863,-0.28125,5.460937,7.503906,0.050781,0.441406,0.263672,0.822754,0.248108,-0.223877,-0.459778,down
22868,-0.359375,5.613281,7.582031,0.050781,0.441406,0.263672,0.823242,0.248535,-0.22345,-0.458862,down
22873,-0.28125,5.578125,7.695312,0.207031,0.291016,0.363281,0.823242,0.248535,-0.22345,-0.458862,down
22878,-0.128906,5.539062,7.726562,0.207031,0.291016,0.363281,0.82373,0.249084,-0.223206,-0.457764,down
22883,-0.050781,5.421875,7.617187,0.207031,0.291016,0.363281,0.824585,0.250427,-0.223083,-0.455627,down
22888,0.101563,5.347656,7.5,0.207031,0.291016,0.363281,0.824585,0.250427,-0.223083,-0.455627,down
22893,0.101563,5.347656,7.5,0.275391,0.310547,0.427734,0.825012,0.25116,-0.223083,-0.454468,down
22898,0.101563,5.269531,7.621094,0.275391,0.310547,0.427734,0.8255,0.251831,-0.222961,-0.453247,down
22903,0.179687,5.269531,7.769531,0.275391,0.310547,0.427734,0.8255,0.251831,-0.222961,-0.453247,down
22908,0.179687,5.269531,7.769531,0.203125,0.345703,0.453125,0.826599,0.253113,-0.222473,-0.450684,down
22913,0.445312,5.421875,7.925781,0.203125,0.345703,0.453125,0.82782,0.25415,-0.222046,-0.448181,down
22918,0.484375,5.613281,7.699219,0.203125,0.345703,0.453125,0.828369,0.254395,-0.221863,-0.447021,down
22923,0.714844,6.1875,7.660156,0.019531,0.195312,0.472656,0.828979,0.254517,-0.22168,-0.445923,down
22928,0.636719,6.304687,7.84375,-0.054687,0.146484,0.470703,0.828979,0.254517,-0.22168,-0.445923,down
22933,0.984375,6.304687,7.621094,-0.054687,0.146484,0.470703,0.82959,0.254395,-0.221619,-0.444885,down
22939,0.984375,6.304687,7.621094,-0.181641,0.107422,0.453125,0.830872,0.253723,-0.221375,-0.442993,down
22944,1.175781,6.226562,7.617187,-0.197266,0.021484,0.451172,0.831604,0.253113,-0.221313,-0.442078,down
22949,1.441406,6.1875,7.660156,-0.197266,0.021484,0.451172,0.832153,0.252502,-0.221313,-0.441345,down
22955,1.480469,6.035156,7.847656,-0.197266,0.021484,0.451172,0.832703,0.251953,-0.221375,-0.440552,down
22960,1.597656,5.996094,8.0,-0.121094,-0.044922,0.394531,0.833252,0.251404,-0.221558,-0.439819,down
22965,1.441406,5.960937,8.039063,-0.080078,-0.021484,0.367188,0.833679,0.250916,-0.221741,-0.439148,down
22970,1.597656,5.996094,7.964844,-0.080078,-0.021484,0.367188,0.834106,0.25061,-0.221924,-0.438354,down
22975,1.597656,6.035156,8.113281,-0.080078,-0.021484,0.367188,0.834106,0.25061,-0.221924,-0.438354,down
22980,1.367188,5.996094,8.191406,0.054687,0.095703,0.316406,0.834106,0.25061,-0.221924,-0.438354,down
22986,1.40625,6.074219,8.1875,0.103516,0.130859,0.314453,0.834106,0.25061,-0.221924,-0.438354,down
22991,1.175781,6.035156,8.230469,0.103516,0.130859,0.314453,0.834106,0.25061,-0.221924,-0.438354,down
22997,1.175781,5.882812,8.191406,0.177734,0.191406,0.310547,0.834106,0.25061,-0.221924,-0.438354,down
23003,1.175781,5.882812,8.042969,0.173828,0.251953,0.316406,0.834106,0.25061,-0.221924,-0.438354,down
23009,0.984375,5.804687,7.730469,0.173828,0.251953,0.316406,0.836853,0.252441,-0.221924,-0.432068,down
23014,1.058594,5.84375,7.65625,0.121094,0.222656,0.332031,0.83728,0.252869,-0.221741,-0.431091,down
23019,1.058594,5.769531,7.578125,0.101563,0.210937,0.341797,0.837708,0.253113,-0.221619,-0.430176,down
23025,1.058594,5.84375,7.382812,0.101563,0.210937,0.341797,0.838074,0.253357,-0.221558,-0.429382,down
23030,1.136719,5.882812,7.386719,0.101563,0.210937,0.341797,0.838501,0.25354,-0.221375,-0.428528,down
23035,1.289063,5.921875,7.347656,0.048828,0.205078,0.339844,0.838501,0.25354,-0.221375,-0.428528,down
23041,1.40625,5.769531,7.34375,0.044922,0.208984,0.320313,0.838501,0.25354,-0.221375,-0.428528,down
23046,1.632813,5.960937,7.273437,0.044922,0.208984,0.320313,0.839783,0.253967,-0.220886,-0.426025,down
23052,1.632813,6.035156,7.34375,0.087891,0.216797,0.255859,0.839783,0.253967,-0.220886,-0.426025,down
23057,1.863281,6.226562,7.425781,0.150391,0.205078,0.193359,0.839783,0.253967,-0.220886,-0.426025,down
23062,1.902344,6.496094,7.5,0.150391,0.205078,0.193359,0.840515,0.255066,-0.220459,-0.424072,down
23068,2.363281,6.417969,7.234375,0.363281,0.113281,0.068359,0.840515,0.255066,-0.220459,-0.424072,down
23073,2.628906,6.457031,6.890625,0.363281,0.113281,0.068359,0.840454,0.25647,-0.220703,-0.423218,down
23078,2.820313,6.53125,6.507812,0.416016,0.091797,0.054687,0.840454,0.25647,-0.220703,-0.423218,down
23083,3.011719,6.6875,6.316406,0.416016,0.091797,0.054687,0.840088,0.258423,-0.221313,-0.422424,down
23088,2.9375,6.835937,6.277344,0.416016,0.091797,0.054687,0.839844,0.259399,-0.221802,-0.422058,down
23094,2.9375,7.148437,6.277344,0.619141,-0.011719,0.193359,0.839844,0.259399,-0.221802,-0.422058,down
23099,2.9375,7.148437,6.277344,0.539062,0.009766,0.251953,0.839172,0.262878,-0.223938,-0.420166,down
23105,3.589844,6.992187,6.46875,0.539062,0.009766,0.251953,0.839172,0.263794,-0.224548,-0.419312,down
23110,3.511719,6.726562,6.316406,0.226562,0.132812,0.390625,0.839355,0.264343,-0.224854,-0.418396,down
23115,3.398438,6.347656,6.316406,0.072266,0.162109,0.457031,0.839783,0.264587,-0.225037,-0.417297,down
23121,3.398438,6.113281,6.695312,0.072266,0.162109,0.457031,0.840332,0.264526,-0.225037,-0.416199,down
23126,3.398438,6.074219,6.960937,-0.068359,0.128906,0.539062,0.840942,0.264282,-0.225037,-0.4151,down
23131,3.433594,6.074219,7.039062,-0.117188,0.191406,0.546875,0.840942,0.264282,-0.225037,-0.4151,down
23138,3.207031,6.1875,6.925781,-0.117188,0.191406,0.546875,0.840942,0.264282,-0.225037,-0.4151,down
23143,3.089844,6.417969,7.078125,-0.169922,0.236328,0.462891,0.840942,0.264282,-0.225037,-0.4151,down
23148,2.859375,6.648437,7.308594,-0.123047,0.189453,0.306641,0.840942,0.264282,-0.225037,-0.4151,down
23153,2.515625,7.03125,7.5,-0.123047,0.189453,0.306641,0.84436,0.262573,-0.223694,-0.409912,down
23158,2.554688,7.070312,7.503906,-0.123047,0.189453,0.306641,0.844788,0.26239,-0.223389,-0.409363,down
23163,2.324219,7.03125,7.65625,-0.154297,0.046875,0.0,0.844788,0.26239,-0.223389,-0.409363,down
23168,2.4375,6.957031,7.769531,-0.154297,0.046875,0.0,0.845215,0.262085,-0.222717,-0.408997,down
23174,2.515625,6.34375,7.964844,-0.154297,0.046875,0.0,0.845276,0.261292,-0.222412,-0.409546,down
23179,2.628906,6.113281,7.726562,-0.158203,-0.105469,-0.171875,0.845276,0.261292,-0.222412,-0.409546,down
23184,2.476563,5.730469,7.621094,-0.158203,-0.105469,-0.171875,0.845032,0.260559,-0.22229,-0.410583,down
23189,2.554688,5.5,7.421875,-0.158203,-0.105469,-0.171875,0.844788,0.260254,-0.222473,-0.411194,down
23194,2.476563,5.460937,7.65625,-0.072266,-0.28125,-0.191406,0.844788,0.260254,-0.222473,-0.411194,down
23199,2.667969,5.691406,7.660156,-0.072266,-0.28125,-0.191406,0.844177,0.259521,-0.223206,-0.412537,down
23204,2.554688,5.84375,7.695312,-0.179687,-0.308594,-0.257813,0.843811,0.259033,-0.223572,-0.413391,down
23209,2.4375,6.035156,7.699219,-0.179687,-0.308594,-0.257813,0.843506,0.258484,-0.223694,-0.414246,down
23214,2.324219,5.960937,7.238281,-0.308594,-0.207031,-0.417969,0.84314,0.257813,-0.223633,-0.415466,down
23219,2.210938,5.960937,7.0,-0.28125,-0.226562,-0.5,0.84314,0.257813,-0.223633,-0.415466,down
23224,2.132813,6.035156,6.855469,-0.28125,-0.226562,-0.5,0.842224,0.256775,-0.223389,-0.418091,down
23230,1.980469,6.453125,6.316406,-0.28125,-0.226562,-0.5,0.841614,0.256409,-0.22345,-0.419556,down
23235,1.863281,6.570312,6.316406,-0.101563,-0.255859,-0.619141,0.841614,0.256409,-0.22345,-0.419556,down
23240,1.671875,6.769531,6.46875,-0.123047,-0.203125,-0.621094,0.841614,0.256409,-0.22345,-0.419556,down
23246,1.519531,7.035156,6.773437,-0.123047,-0.203125,-0.621094,0.839478,0.255859,-0.223267,-0.424255,down
23251,1.367188,6.992187,6.964844,-0.361328,-0.091797,-0.601562,0.839478,0.255859,-0.223267,-0.424255,down
23256,1.175781,6.800781,7.082031,-0.519531,-0.009766,-0.613281,0.839478,0.255859,-0.223267,-0.424255,down
23261,0.945312,6.378906,6.8125,-0.519531,-0.009766,-0.613281,0.838257,0.253967,-0.221008,-0.428955,down
23266,0.832031,6.152344,6.8125,-0.734375,0.052734,-0.642578,0.838013,0.25293,-0.219788,-0.430664,down
23272,0.601562,6.113281,6.851562,-0.742187,0.021484,-0.611328,0.838013,0.25293,-0.219788,-0.430664,down
23277,0.332031,5.84375,7.277344,-0.677734,-0.033203,-0.5625,0.838013,0.25293,-0.219788,-0.430664,down
23283,0.332031,5.769531,7.804687,-0.677734,-0.033203,-0.5625,0.838013,0.25293,-0.219788,-0.430664,down
23289,0.484375,5.882812,7.84375,-0.177734,-0.285156,-0.326172,0.838013,0.25293,-0.219788,-0.430664,down
23295,0.484375,6.226562,7.425781,-0.177734,-0.285156,-0.326172,0.836121,0.247742,-0.216675,-0.438904,down
23301,0.753906,6.609375,7.273437,-0.177734,-0.285156,-0.326172,0.835632,0.24762,-0.217163,-0.439575,down
23306,0.792969,6.800781,7.34375,0.134766,-0.386719,-0.236328,0.835083,0.24762,-0.217896,-0.440247,down
23312,0.675781,6.992187,7.464844,0.166016,-0.404297,-0.21875,0.835083,0.24762,-0.217896,-0.440247,down
23318,0.867187,7.070312,7.539062,0.166016,-0.404297,-0.21875,0.835083,0.24762,-0.217896,-0.440247,down
23323,1.097656,6.839844,7.582031,0.029297,-0.359375,-0.207031,0.835083,0.24762,-0.217896,-0.440247,down
23329,1.214844,6.535156,7.503906,-0.148437,-0.339844,-0.191406,0.832764,0.246399,-0.221252,-0.443604,down
23334,1.214844,5.84375,7.386719,-0.148437,-0.339844,-0.191406,0.832703,0.245361,-0.221436,-0.444336,down
23339,1.175781,5.652344,7.34375,-0.509766,-0.220703,-0.115234,0.832703,0.245361,-0.221436,-0.444336,down
23344,0.945312,5.691406,7.460937,-0.509766,-0.220703,-0.115234,0.832703,0.24292,-0.22113,-0.44574,down
23349,0.792969,5.578125,7.730469,-0.443359,-0.140625,-0.115234,0.832703,0.24292,-0.22113,-0.44574,down
23354,0.792969,5.578125,7.730469,-0.443359,-0.140625,-0.115234,0.832764,0.240906,-0.220703,-0.446899,down
23359,0.675781,5.769531,8.042969,-0.443359,-0.140625,-0.115234,0.832764,0.240906,-0.220703,-0.446899,down
23364,0.484375,5.960937,8.082031,-0.279297,-0.150391,-0.113281,0.832764,0.240906,-0.220703,-0.446899,down
23369,0.332031,5.804687,8.265625,-0.230469,-0.191406,-0.101563,0.832764,0.240906,-0.220703,-0.446899,down
23374,0.371094,5.386719,8.191406,-0.072266,-0.294922,-0.09375,0.83252,0.238953,-0.220825,-0.448364,down
23379,0.371094,5.308594,7.964844,-0.072266,-0.294922,-0.09375,0.832031,0.238037,-0.221863,-0.449219,down
23384,0.484375,5.269531,7.808594,-0.072266,-0.294922,-0.09375,0.831787,0.237671,-0.222534,-0.449585,down
23389,0.636719,5.191406,7.699219,-0.072266,-0.294922,-0.09375,0.831482,0.237122,-0.223511,-0.449951,down
23394,0.675781,5.230469,7.621094,-0.072266,-0.294922,-0.09375,0.831482,0.237122,-0.223511,-0.449951,down
23399,0.714844,5.308594,7.542969,-0.158203,-0.445312,0.007813,0.831482,0.237122,-0.223511,-0.449951,down
23404,0.714844,5.386719,7.539062,-0.158203,-0.445312,0.007813,0.830933,0.234924,-0.225769,-0.450989,down
23409,0.792969,5.347656,7.5,-0.158203,-0.445312,0.007813,0.830811,0.234009,-0.226379,-0.451355,down
23414,1.097656,5.460937,7.347656,-0.158203,-0.445312,0.007813,0.830811,0.234009,-0.226379,-0.451355,down
23419,1.136719,5.613281,7.503906,-0.291016,-0.439453,0.056641,0.830811,0.234009,-0.226379,-0.451355,down
23424,1.214844,5.691406,7.539062,-0.291016,-0.439453,0.056641,0.830688,0.230652,-0.22821,-0.452393,down
23429,1.441406,5.691406,7.5,-0.291016,-0.439453,0.056641,0.830811,0.229553,-0.228638,-0.452576,down
23434,1.632813,5.730469,7.503906,-0.291016,-0.439453,0.056641,0.830811,0.229553,-0.228638,-0.452576,down
23439,1.519531,5.804687,7.804687,-0.349609,-0.246094,0.132812,0.830811,0.229553,-0.228638,-0.452576,down
23445,1.328125,5.730469,8.039063,-0.349609,-0.246094,0.132812,0.831177,0.227356,-0.229065,-0.452759,down
23450,1.328125,5.730469,8.039063,-0.369141,-0.191406,0.214844,0.831482,0.226318,-0.229126,-0.452698,down
23455,1.175781,5.652344,8.464844,-0.380859,-0.248047,0.251953,0.831482,0.226318,-0.229126,-0.452698,down
23460,1.214844,5.5,9.457031,-0.359375,-0.257813,0.261719,0.832153,0.223938,-0.229553,-0.452393,down
23465,1.214844,5.5,9.457031,-0.359375,-0.257813,0.261719,0.832153,0.223938,-0.229553,-0.452393,down
23471,1.367188,5.730469,9.761719,-0.134766,-0.314453,0.259766,0.832825,0.221375,-0.231262,-0.451599,down
23477,1.863281,6.074219,8.84375,-0.134766,-0.314453,0.259766,0.832825,0.221375,-0.231262,-0.451599,down
23482,1.941406,6.113281,8.425781,0.441406,-0.486328,0.148437,0.832825,0.221375,-0.231262,-0.451599,down
23487,1.941406,5.84375,8.078125,0.460937,-0.476562,0.09375,0.832825,0.221375,-0.231262,-0.451599,down
23493,1.824219,5.769531,7.804687,0.449219,-0.441406,0.056641,0.832825,0.221375,-0.231262,-0.451599,down
23498,1.558594,5.578125,7.382812,0.449219,-0.441406,0.056641,0.832825,0.221375,-0.231262,-0.451599,down
23503,1.597656,5.578125,7.238281,0.449219,-0.441406,0.056641,0.830627,0.222778,-0.239807,-0.450439,down
23509,1.558594,5.460937,7.234375,0.271484,-0.326172,0.082031,0.830627,0.222778,-0.239807,-0.450439,down
23514,1.558594,5.769531,7.15625,0.177734,-0.320313,0.113281,0.830627,0.222778,-0.239807,-0.450439,down
23519,1.632813,5.804687,7.042969,-0.046875,-0.296875,0.181641,0.830017,0.222839,-0.242676,-0.450012,down
23524,1.597656,5.769531,7.238281,-0.046875,-0.296875,0.181641,0.830017,0.222412,-0.243469,-0.449768,down
23529,1.597656,6.1875,7.421875,-0.046875,-0.296875,0.181641,0.830078,0.221802,-0.24408,-0.449646,down
23535,1.558594,6.535156,7.382812,-0.099609,-0.390625,0.214844,0.830078,0.221802,-0.24408,-0.449646,down
23540,1.632813,6.535156,7.578125,-0.099609,-0.390625,0.214844,0.830322,0.21936,-0.24646,-0.449158,down
23545,1.75,6.457031,7.84375,-0.027344,-0.4375,0.21875,0.830322,0.21936,-0.24646,-0.449158,down
23550,1.902344,6.496094,7.617187,-0.027344,-0.4375,0.21875,0.830261,0.21814,-0.248291,-0.448792,down
23555,1.75,6.839844,7.382812,0.085937,-0.439453,0.257813,0.830261,0.21814,-0.248291,-0.448792,down
23560,1.789063,6.839844,7.578125,0.085937,-0.439453,0.257813,0.8302,0.217163,-0.250732,-0.44812,down
23565,1.789063,6.765625,7.804687,0.195312,-0.474609,0.330078,0.830139,0.216797,-0.252014,-0.447632,down
23571,2.59375,6.152344,7.5,0.195312,-0.474609,0.330078,0.830139,0.216553,-0.253174,-0.447083,down
23576,2.019531,5.613281,7.308594,0.095703,-0.085937,0.353516,0.830322,0.21637,-0.254028,-0.44635,down
23582,1.632813,5.691406,7.238281,-0.029297,-0.044922,0.371094,0.830322,0.21637,-0.254028,-0.44635,down
23588,2.09375,5.460937,7.726562,-0.029297,-0.044922,0.371094,0.831055,0.215698,-0.254639,-0.444946,down
23593,2.285156,5.308594,8.003906,-0.166016,-0.117188,0.392578,0.831055,0.215698,-0.254639,-0.444946,down
23598,2.285156,5.191406,7.695312,-0.203125,-0.060547,0.341797,0.831055,0.215698,-0.254639,-0.444946,down
23604,2.171875,4.773437,7.386719,-0.236328,-0.003906,0.287109,0.831055,0.215698,-0.254639,-0.444946,down
23610,2.132813,4.886719,7.421875,-0.265625,-0.03125,0.240234,0.831055,0.215698,-0.254639,-0.444946,down
23615,2.246094,4.847656,7.660156,-0.189453,-0.082031,0.146484,0.831055,0.215698,-0.254639,-0.444946,down
23620,2.4375,5.039062,7.460937,-0.189453,-0.082031,0.146484,0.833557,0.21106,-0.255005,-0.442322,down
23625,2.324219,5.191406,7.578125,-0.189453,-0.082031,0.146484,0.833618,0.210754,-0.255127,-0.442261,down
23630,2.476563,5.308594,7.808594,0.03125,-0.117188,0.056641,0.833618,0.210632,-0.255371,-0.442139,down
23635,2.554688,5.578125,7.765625,0.058594,-0.09375,0.050781,0.833618,0.210632,-0.255371,-0.442139,down
23640,2.59375,5.804687,7.660156,0.058594,-0.09375,0.050781,0.833557,0.21051,-0.255981,-0.442017,down
23645,2.59375,5.882812,7.769531,0.027344,-0.109375,0.054687,0.833557,0.21051,-0.255981,-0.442017,down
23650,2.59375,5.960937,7.882812,0.027344,-0.109375,0.054687,0.833496,0.210388,-0.25647,-0.441895,down
23655,2.554688,5.730469,7.617187,0.027344,-0.109375,0.054687,0.833557,0.210266,-0.256592,-0.441772,down
23660,2.4375,5.804687,7.464844,0.027344,-0.109375,0.054687,0.833679,0.210144,-0.256531,-0.44165,down
23665,2.324219,5.730469,7.460937,0.027344,-0.109375,0.054687,0.833801,0.2099,-0.256409,-0.441528,down
23670,2.402344,5.691406,7.464844,-0.158203,0.046875,0.083984,0.833801,0.2099,-0.256409,-0.441528,down
23675,2.363281,5.578125,7.308594,-0.158203,0.046875,0.083984,0.834229,0.20929,-0.255981,-0.441345,down
23680,2.363281,5.460937,7.382812,-0.158203,0.046875,0.083984,0.834351,0.208984,-0.255737,-0.441345,down
23685,2.402344,5.230469,7.421875,-0.105469,0.037109,0.013672,0.834351,0.208984,-0.255737,-0.441345,down
23690,2.402344,5.347656,7.421875,-0.105469,0.037109,0.013672,0.834473,0.208679,-0.255554,-0.441345,down
23696,2.363281,5.578125,7.699219,-0.105469,0.037109,0.013672,0.834534,0.208618,-0.255249,-0.441467,down
23701,2.324219,5.613281,7.804687,0.076172,0.025391,-0.060547,0.834473,0.208801,-0.255249,-0.441528,down
23706,2.324219,5.539062,7.921875,0.125,0.019531,-0.068359,0.834351,0.209045,-0.255249,-0.441589,down
23711,2.285156,5.539062,7.84375,0.173828,0.027344,-0.068359,0.834167,0.209473,-0.25531,-0.44165,down
23717,2.246094,5.539062,7.699219,0.173828,0.027344,-0.068359,0.834045,0.209961,-0.255432,-0.44165,down
23723,2.210938,5.578125,7.699219,0.214844,0.044922,-0.042969,0.834045,0.209961,-0.255432,-0.44165,down
23728,2.324219,5.652344,7.695312,0.224609,0.025391,-0.027344,0.834045,0.209961,-0.255432,-0.44165,down
23734,2.210938,5.730469,7.730469,0.224609,0.025391,-0.027344,0.834045,0.209961,-0.255432,-0.44165,down
23740,2.285156,5.730469,7.730469,0.148437,0.035156,0.001953,0.834045,0.209961,-0.255432,-0.44165,down
23745,2.171875,5.804687,7.65625,0.097656,0.058594,0.019531,0.834045,0.209961,-0.255432,-0.44165,down
23750,2.132813,5.84375,7.617187,0.097656,0.058594,0.019531,0.833435,0.212708,-0.256104,-0.44104,down
23755,2.171875,5.921875,7.617187,0.095703,0.054687,0.017578,0.833435,0.212708,-0.256104,-0.44104,down
23760,2.09375,5.921875,7.582031,0.095703,0.054687,0.017578,0.833435,0.213196,-0.256042,-0.440857,down
23765,1.980469,5.996094,7.695312,0.095703,0.054687,0.017578,0.833435,0.213196,-0.256042,-0.440857,down
23770,1.941406,5.996094,7.730469,0.097656,0.105469,-0.029297,0.833435,0.213501,-0.255981,-0.440796,down
23775,1.710938,5.996094,7.726562,0.097656,0.105469,-0.029297,0.833374,0.214172,-0.255737,-0.440674,down
23780,1.824219,5.84375,7.542969,0.097656,0.105469,-0.029297,0.833374,0.214172,-0.255737,-0.440674,down
23785,1.824219,5.84375,7.542969,0.083984,0.109375,-0.035156,0.833313,0.214844,-0.255493,-0.440674,down
23790,1.632813,5.730469,7.421875,0.083984,0.109375,-0.035156,0.833252,0.215149,-0.255371,-0.440613,down
23795,1.632813,5.84375,7.460937,0.083984,0.109375,-0.035156,0.833252,0.215149,-0.255371,-0.440613,down
23800,1.710938,5.730469,7.421875,0.087891,0.021484,-0.021484,0.833252,0.215149,-0.255371,-0.440613,down
23805,1.75,5.769531,7.273437,0.087891,0.021484,-0.021484,0.833069,0.21582,-0.255493,-0.440613,down
23810,1.824219,5.84375,7.304687,0.087891,0.021484,-0.021484,0.833069,0.21582,-0.255493,-0.440613,down
23815,1.863281,5.960937,7.34375,0.087891,-0.005859,-0.007813,0.832947,0.216187,-0.255676,-0.440613,down
23820,1.824219,6.304687,7.5,0.087891,-0.005859,-0.007813,0.832947,0.216187,-0.255676,-0.440613,down
23825,1.863281,6.304687,7.582031,0.087891,-0.005859,-0.007813,0.832886,0.216431,-0.255798,-0.440552,down
23830,1.902344,6.265625,7.542969,0.107422,0.042969,0.078125,0.832886,0.216431,-0.255798,-0.440552,down
23835,1.789063,6.265625,7.421875,0.095703,0.058594,0.105469,0.832825,0.216858,-0.256104,-0.440186,down
23840,1.710938,6.113281,7.578125,0.095703,0.058594,0.105469,0.833008,0.217285,-0.256165,-0.439636,down
23845,1.824219,6.304687,7.460937,0.095703,0.058594,0.105469,0.833008,0.217285,-0.256165,-0.439636,down
23850,1.632813,6.1875,7.65625,0.060547,0.132812,0.1875,0.833008,0.217285,-0.256165,-0.439636,down
23855,1.671875,5.960937,7.660156,0.060547,0.132812,0.1875,0.833435,0.217651,-0.255981,-0.438782,down
23860,1.632813,6.074219,7.582031,0.044922,0.1875,0.238281,0.833679,0.217773,-0.255859,-0.438232,down
23865,1.597656,5.996094,7.542969,0.044922,0.1875,0.238281,0.834351,0.218079,-0.255432,-0.437073,down
23870,1.632813,6.074219,7.503906,0.044922,0.1875,0.238281,0.834351,0.218079,-0.255432,-0.437073,down
23875,1.632813,5.960937,7.425781,0.0625,0.205078,0.261719,0.834351,0.218079,-0.255432,-0.437073,down
35731,5.617187,1.132813,8.003906,0.115234,-0.267578,0.382813,0.368835,0.292542,-0.083191,0.878296,down
35736,5.65625,1.09375,8.082031,0.123047,-0.238281,0.371094,0.365845,0.294373,-0.083923,0.878906,down
35741,5.65625,0.941406,8.152344,0.123047,-0.238281,0.371094,0.365845,0.294373,-0.083923,0.878906,down
35746,5.65625,0.902344,8.265625,0.115234,-0.257813,0.355469,0.364746,0.295044,-0.084167,0.879089,down
35751,5.695312,0.902344,8.34375,0.115234,-0.257813,0.355469,0.362915,0.296265,-0.084595,0.879395,down
35756,5.695312,0.902344,8.34375,0.115234,-0.257813,0.355469,0.362,0.296814,-0.0849,0.879578,down
35761,5.65625,0.902344,8.265625,0.115234,-0.257813,0.355469,0.362,0.296814,-0.0849,0.879578,down
35766,5.617187,0.902344,8.265625,-0.105469,-0.355469,0.378906,0.362,0.296814,-0.0849,0.879578,down
35771,5.542969,0.902344,8.269531,-0.105469,-0.355469,0.378906,0.359375,0.298645,-0.086975,0.879822,down
35776,5.503906,0.902344,8.1875,-0.105469,-0.355469,0.378906,0.358459,0.299316,-0.088013,0.879883,down
35781,5.386719,0.671875,8.148438,-0.105469,-0.355469,0.378906,0.358459,0.299316,-0.088013,0.879883,down
35786,5.351562,0.558594,8.152344,-0.175781,-0.490234,0.451172,0.358459,0.299316,-0.088013,0.879883,down
35791,5.351562,0.519531,8.1875,-0.175781,-0.490234,0.451172,0.35553,0.301697,-0.09137,0.879883,down
35796,5.351562,0.367188,8.152344,-0.175781,-0.490234,0.451172,0.354431,0.302673,-0.092407,0.879883,down
35801,5.234375,0.367188,8.109375,-0.175781,-0.490234,0.451172,0.354431,0.302673,-0.092407,0.879883,down
35806,5.195312,0.441406,8.421875,0.027344,-0.564453,0.513672,0.354431,0.302673,-0.092407,0.879883,down
35811,5.195312,0.558594,8.382813,0.027344,-0.564453,0.513672,0.350281,0.306458,-0.094482,0.880066,down
35816,5.195312,0.597656,8.347656,0.388672,-0.683594,0.583984,0.350281,0.306458,-0.094482,0.880066,down
35821,5.195312,0.558594,8.34375,0.388672,-0.683594,0.583984,0.348389,0.308228,-0.094788,0.880127,down
35826,5.234375,0.632812,8.347656,0.486328,-0.736328,0.589844,0.348389,0.308228,-0.094788,0.880127,down
35831,5.273437,0.632812,8.304688,0.59375,-0.857422,0.591797,0.344788,0.311829,-0.094788,0.880249,down
35836,5.234375,0.671875,8.269531,0.59375,-0.857422,0.591797,0.340881,0.316284,-0.094604,0.880249,down
35841,5.195312,0.710937,8.078125,0.59375,-0.857422,0.591797,0.340881,0.316284,-0.094604,0.880249,down
35846,5.195312,0.671875,7.960937,0.59375,-0.857422,0.591797,0.336975,0.32135,-0.094604,0.879883,down
35851,5.160156,0.710937,7.886719,0.59375,-0.857422,0.591797,0.336975,0.32135,-0.094604,0.879883,down
35856,5.160156,0.710937,7.886719,0.402344,-1.087891,0.539062,0.335022,0.324158,-0.094971,0.879578,down
35861,5.273437,0.710937,7.578125,0.359375,-1.126953,0.535156,0.333374,0.326538,-0.095398,0.879272,down
35866,5.273437,0.710937,7.578125,0.267578,-1.15625,0.537109,0.331604,0.329285,-0.096069,0.878845,down
35871,5.195312,0.632812,7.503906,0.267578,-1.15625,0.537109,0.329956,0.331848,-0.096985,0.878418,down
35876,5.195312,0.632812,7.503906,0.113281,-1.232422,0.576172,0.328247,0.334595,-0.098145,0.877869,down
35882,5.386719,-0.054687,7.382812,0.113281,-1.232422,0.576172,0.324951,0.339966,-0.100891,0.876709,down
35887,5.386719,-0.246094,7.386719,0.113281,-1.232422,0.576172,0.323242,0.342896,-0.102478,0.876038,down
35892,5.464844,-0.324219,7.460937,0.113281,-1.232422,0.576172,0.321594,0.345886,-0.103943,0.875305,down
35897,5.503906,-0.398438,7.460937,0.175781,-1.470703,0.539062,0.321594,0.345886,-0.103943,0.875305,down
35903,5.542969,-0.4375,7.542969,0.175781,-1.470703,0.539062,0.318115,0.352356,-0.106445,0.873657,down
35909,5.464844,-0.4375,7.421875,0.449219,-1.525391,0.464844,0.318115,0.352356,-0.106445,0.873657,down
35914,5.351562,-0.324219,7.425781,0.634766,-1.576172,0.443359,0.318115,0.352356,-0.106445,0.873657,down
35919,5.386719,-0.054687,7.726562,0.634766,-1.576172,0.443359,0.312317,0.363525,-0.107666,0.871033,down
35925,5.464844,-0.015625,7.726562,0.957031,-1.761719,0.400391,0.312317,0.363525,-0.107666,0.871033,down
35930,5.464844,0.058594,7.660156,1.087891,-1.863281,0.375,0.312317,0.363525,-0.107666,0.871033,down
35935,5.464844,0.214844,7.578125,1.177734,-1.998047,0.357422,0.312317,0.363525,-0.107666,0.871033,down
35941,5.503906,0.40625,7.464844,1.216797,-2.335938,0.300781,0.312317,0.363525,-0.107666,0.871033,down
35946,5.503906,0.40625,7.386719,1.216797,-2.335938,0.300781,0.300537,0.388611,-0.104919,0.864685,down
35951,5.425781,0.214844,7.238281,1.162109,-2.527344,0.255859,0.300537,0.388611,-0.104919,0.864685,down
35957,5.425781,0.175781,7.117187,1.105469,-2.710938,0.205078,0.293579,0.407898,-0.104004,0.858276,down
35962,5.503906,0.214844,6.925781,0.882812,-3.080078,0.101563,0.291443,0.415466,-0.104309,0.855347,down
35967,5.65625,0.25,6.773437,0.751953,-3.255859,0.039063,0.289551,0.422974,-0.104919,0.852234,down
35972,5.925781,0.023437,6.617187,0.751953,-3.255859,0.039063,0.289551,0.422974,-0.104919,0.852234,down
35977,5.925781,0.023437,6.617187,0.642578,-3.416016,-0.017578,0.288025,0.429932,-0.105774,0.849121,down
35982,6.15625,-0.132812,6.511719,0.642578,-3.416016,-0.017578,0.28656,0.437622,-0.106934,0.84552,down
35988,6.15625,-0.132812,6.511719,0.501953,-3.59375,-0.210937,0.283997,0.453613,-0.109619,0.837585,down
35993,6.15625,-0.132812,6.511719,0.501953,-3.59375,-0.210937,0.283997,0.453613,-0.109619,0.837585,down
35999,6.308594,-1.089844,5.355469,0.576172,-3.529297,-0.294922,0.281921,0.469421,-0.11145,0.829285,down
36004,6.308594,-1.050781,5.28125,0.832031,-3.460938,-0.443359,0.281921,0.469421,-0.11145,0.829285,down
36009,6.382812,-0.972656,5.355469,0.832031,-3.460938,-0.443359,0.279724,0.485168,-0.111694,0.820862,down
36015,6.347656,-0.628906,5.96875,0.832031,-3.460938,-0.443359,0.278442,0.493225,-0.111023,0.81665,down
36020,6.265625,-0.4375,6.160156,1.638672,-3.523438,-0.652344,0.278442,0.493225,-0.111023,0.81665,down
36025,6.230469,-0.054687,5.855469,1.638672,-3.523438,-0.652344,0.274841,0.510925,-0.1073,0.807434,down
36030,5.773437,0.480469,4.859375,1.638672,-3.523438,-0.652344,0.274841,0.510925,-0.1073,0.807434,down
36035,5.65625,0.597656,4.515625,2.527344,-3.599609,-0.833984,0.274841,0.510925,-0.1073,0.807434,down
36040,5.660156,0.789062,4.550781,2.666016,-3.742188,-0.849609,0.274841,0.510925,-0.1073,0.807434,down
36046,6.304687,1.246094,4.859375,2.666016,-3.742188,-0.849609,0.264709,0.547058,-0.093201,0.788635,down
36051,6.539062,1.476563,4.4375,2.666016,-3.742188,-0.849609,0.26178,0.556946,-0.089172,0.783142,down
36056,6.539062,1.476563,4.4375,2.699219,-4.089844,-0.947266,0.25885,0.566833,-0.085205,0.777466,down
36061,6.996094,0.863281,3.058594,2.492188,-4.0625,-1.011719,0.256104,0.576843,-0.081238,0.771423,down
36066,6.996094,0.863281,3.058594,2.222656,-4.039062,-1.080078,0.256104,0.576843,-0.081238,0.771423,down
36072,6.996094,0.863281,3.058594,2.222656,-4.039062,-1.080078,0.252197,0.595337,-0.074707,0.759216,down
36077,6.996094,0.863281,3.058594,1.451172,-3.683594,-1.394531,0.250549,0.612488,-0.069214,0.746521,down
36082,7.414062,0.175781,2.445313,1.451172,-3.683594,-1.394531,0.250549,0.620422,-0.066589,0.740173,down
36087,7.304687,0.289063,2.214844,1.009766,-3.222656,-1.630859,0.250549,0.620422,-0.066589,0.740173,down
36092,7.070312,0.441406,1.910156,1.009766,-3.222656,-1.630859,0.252197,0.633972,-0.061707,0.728516,down
36097,6.769531,0.789062,1.179688,1.009766,-3.222656,-1.630859,0.253784,0.640198,-0.05896,0.722656,down
36102,6.765625,1.019531,0.953125,1.009766,-3.222656,-1.630859,0.255676,0.646667,-0.055786,0.716431,down
36107,6.808594,1.324219,0.835937,0.943359,-2.857422,-2.125,0.255676,0.646667,-0.055786,0.716431,down
36112,6.804687,1.59375,0.953125,0.943359,-2.857422,-2.125,0.259216,0.658386,-0.049133,0.704895,down
36117,6.882812,2.28125,1.335938,0.943359,-2.857422,-2.125,0.259216,0.658386,-0.049133,0.704895,down
36122,6.882812,2.28125,1.335938,1.318359,-2.908203,-2.294922,0.260742,0.664246,-0.045288,0.699097,down
36127,6.925781,2.550781,1.410156,1.318359,-2.908203,-2.294922,0.262085,0.67041,-0.040833,0.692993,down
36132,7.074219,2.855469,1.027344,1.603516,-2.839844,-2.429688,0.263306,0.676514,-0.036072,0.686768,down
36137,7.074219,2.855469,1.027344,1.603516,-2.763672,-2.492188,0.264587,0.682739,-0.030823,0.680359,down
36143,6.921875,3.085938,0.605469,1.603516,-2.763672,-2.492188,0.2677,0.693909,-0.02063,0.668152,down
36149,6.730469,3.046875,0.53125,1.603516,-2.763672,-2.492188,0.2677,0.693909,-0.02063,0.668152,down
36154,6.421875,2.816406,0.414062,1.603516,-2.763672,-2.492188,0.272705,0.703918,-0.011047,0.655762,down
36160,6.308594,2.742188,0.453125,0.498047,-2.294922,-2.814453,0.272705,0.703918,-0.011047,0.655762,down
36165,6.1875,2.703125,0.53125,0.195312,-2.181641,-2.916016,0.272705,0.703918,-0.011047,0.655762,down
36170,6.078125,2.625,0.53125,-0.039063,-2.058594,-2.988281,0.272705,0.703918,-0.011047,0.655762,down
36175,6.078125,2.625,0.53125,-0.183594,-1.919922,-3.076172,0.289734,0.71875,0.005432,0.632019,down
36180,6.078125,2.625,0.53125,-0.246094,-1.755859,-3.154297,0.294983,0.721375,0.009399,0.626526,down
36185,6.117187,2.550781,0.492187,-0.208984,-1.615234,-3.21875,0.294983,0.721375,0.009399,0.626526,down
36190,5.503906,3.316406,0.375,-0.208984,-1.615234,-3.21875,0.300354,0.723694,0.01355,0.621155,down
36195,5.503906,3.316406,0.375,0.001953,-1.572266,-3.300781,0.310974,0.728149,0.022705,0.610413,down
36200,4.851562,4.390625,0.414062,0.001953,-1.572266,-3.300781,0.310974,0.728149,0.022705,0.610413,down
36206,4.394531,5.117187,0.375,0.001953,-1.572266,-3.300781,0.320801,0.732971,0.033142,0.598999,down
36211,4.238281,5.503906,0.261719,0.001953,-1.572266,-3.300781,0.324951,0.735352,0.038208,0.593445,down
36216,4.125,5.808594,0.109375,0.527344,-1.832031,-3.304688,0.324951,0.735352,0.038208,0.593445,down
36222,4.046875,5.964844,-0.042969,0.548828,-1.943359,-3.269531,0.337219,0.743713,0.054138,0.574646,down
36227,4.046875,6.113281,-0.390625,0.548828,-1.943359,-3.269531,0.341797,0.746826,0.059265,0.567383,down
36232,4.125,6.1875,-0.464844,0.548828,-1.943359,-3.269531,0.345825,0.749329,0.063171,0.561157,down
36237,4.277344,6.34375,-0.582031,0.548828,-1.943359,-3.269531,0.345825,0.749329,0.063171,0.561157,down
36242,4.507812,6.109375,-0.65625,-0.082031,-2.183594,-3.015625,0.345825,0.749329,0.063171,0.561157,down
36247,4.46875,6.109375,-0.925781,-0.486328,-1.820313,-2.943359,0.355286,0.754211,0.070679,0.547668,down
36252,4.316406,6.1875,-1.117188,-0.673828,-1.599609,-2.935547,0.360718,0.756042,0.07428,0.541077,down
36257,4.316406,6.1875,-1.117188,-0.673828,-1.599609,-2.935547,0.365601,0.757141,0.077271,0.535767,down
36262,4.238281,6.304687,-1.5,-0.808594,-1.382813,-2.974609,0.365601,0.757141,0.077271,0.535767,down
36267,4.238281,6.304687,-1.5,-0.927734,-1.171875,-3.056641,0.377197,0.758118,0.084045,0.525269,down
36272,4.238281,6.535156,-1.730469,-0.927734,-1.171875,-3.056641,0.383301,0.757874,0.087646,0.520569,down
36277,3.28125,7.21875,-1.960938,-1.171875,-0.75,-3.28125,0.389954,0.757141,0.091614,0.515991,down
36282,2.976563,7.261719,-1.613281,-1.263672,-0.65625,-3.380859,0.403503,0.754761,0.099792,0.507446,down
36287,2.707031,7.414062,-1.386719,-1.320313,-0.648437,-3.472656,0.403503,0.754761,0.099792,0.507446,down
36292,2.4375,7.605469,-1.269531,-1.320313,-0.648437,-3.472656,0.417664,0.751892,0.108337,0.498474,down
36297,2.09375,7.5625,-0.8125,-1.265625,-0.863281,-3.398438,0.417664,0.751892,0.108337,0.498474,down
36302,2.09375,7.601562,-0.542969,-1.265625,-0.863281,-3.398438,0.4245,0.750549,0.112366,0.493835,down
36307,2.09375,7.71875,-0.3125,-1.207031,-1.171875,-3.220703,0.4245,0.750549,0.112366,0.493835,down
36312,2.09375,7.796875,-0.234375,-1.207031,-1.171875,-3.220703,0.438354,0.748291,0.119934,0.483215,down
36317,1.941406,7.984375,-0.503906,-1.207031,-1.171875,-3.220703,0.450623,0.746826,0.125916,0.472534,down
36322,1.710938,8.105469,-0.8125,-1.207031,-1.171875,-3.220703,0.450623,0.746826,0.125916,0.472534,down
36327,1.671875,8.261719,-1.078125,-1.121094,-1.556641,-2.835938,0.450623,0.746826,0.125916,0.472534,down
36332,1.671875,8.5625,-1.230469,-1.121094,-1.556641,-2.835938,0.468445,0.7453,0.133118,0.455322,down
36337,1.902344,9.292969,-1.5,-1.121094,-1.556641,-2.835938,0.468445,0.7453,0.133118,0.455322,down
36342,2.054688,9.632813,-1.652344,-1.326172,-1.642578,-2.8125,0.475098,0.744812,0.135437,0.448608,down
36347,2.285156,9.976563,-1.921875,-1.326172,-1.642578,-2.8125,0.480591,0.744202,0.137207,0.443176,down
36352,2.324219,9.976563,-2.0,-1.326172,-1.642578,-2.8125,0.487061,0.743225,0.139038,0.437134,down
36357,2.324219,9.976563,-2.0,-1.791016,-1.466797,-2.921875,0.493286,0.741882,0.140625,0.431885,down
36362,2.324219,9.832031,-1.921875,-1.791016,-1.466797,-2.921875,0.500671,0.739929,0.142334,0.426086,down
36367,2.324219,8.566406,-1.15625,-2.277344,-1.277344,-3.056641,0.50824,0.737549,0.143982,0.420715,down
36372,2.324219,8.566406,-1.15625,-2.277344,-1.277344,-3.056641,0.50824,0.737549,0.143982,0.420715,down
36377,1.710938,7.800781,-0.847656,-2.511719,-1.128906,-3.144531,0.524902,0.731079,0.147461,0.410217,down
36383,1.519531,7.375,-0.695312,-2.792969,-0.902344,-3.25,0.542053,0.723145,0.151245,0.400513,down
36389,1.097656,7.03125,-0.425781,-2.792969,-0.902344,-3.25,0.550781,0.718933,0.15332,0.395325,down
36394,0.984375,7.261719,-0.390625,-2.462891,-0.992187,-3.310547,0.55896,0.715027,0.155396,0.390137,down
36399,0.867187,7.796875,-0.425781,-2.121094,-1.029297,-3.326172,0.55896,0.715027,0.155396,0.390137,down
36404,0.753906,8.445313,-0.582031,-1.716797,-1.03125,-3.357422,0.55896,0.715027,0.155396,0.390137,down
36409,0.445312,9.710938,-1.078125,-1.716797,-1.03125,-3.357422,0.55896,0.715027,0.155396,0.390137,down
36414,0.445312,9.710938,-1.078125,-0.771484,-1.078125,-3.443359,0.58551,0.703674,0.167175,0.36615,down
36419,0.445312,9.710938,-1.078125,-0.316406,-1.101563,-3.460938,0.590027,0.702332,0.171204,0.359497,down
36424,0.253906,10.25,-1.269531,-0.316406,-1.101563,-3.460938,0.590027,0.702332,0.171204,0.359497,down
36429,-0.164062,11.972656,-1.578125,0.050781,-1.103516,-3.472656,0.590027,0.702332,0.171204,0.359497,down
36434,-0.164062,11.972656,-1.578125,0.392578,-1.128906,-3.40625,0.599915,0.701172,0.184875,0.338135,down
36441,-0.203125,13.472656,-1.613281,0.392578,-1.128906,-3.40625,0.599915,0.701172,0.184875,0.338135,down
36446,-0.242187,13.578125,-1.5,-0.021484,-1.121094,-3.285156,0.599915,0.701172,0.184875,0.338135,down
36452,-0.320313,13.621094,-1.269531,-0.550781,-1.113281,-3.240234,0.599915,0.701172,0.184875,0.338135,down
36457,-0.28125,13.195313,-1.421875,-1.195313,-1.105469,-3.242188,0.599915,0.701172,0.184875,0.338135,down
36462,-0.164062,12.734375,-1.613281,-1.195313,-1.105469,-3.242188,0.619873,0.693909,0.203674,0.304504,down
36467,0.0625,12.007813,-1.691406,-1.195313,-1.105469,-3.242188,0.627625,0.688965,0.206238,0.298096,down
36473,0.253906,11.589844,-1.578125,-3.857422,-1.09375,-3.5625,0.627625,0.688965,0.206238,0.298096,down
36478,-0.089844,10.820313,-0.503906,-3.857422,-1.09375,-3.5625,0.644714,0.676697,0.209656,0.287231,down
36484,-0.164062,10.480469,-0.007813,-4.060547,-1.095703,-3.636719,0.654053,0.669434,0.211121,0.281921,down
36489,-0.164062,10.480469,-0.007813,-3.978516,-1.058594,-3.683594,0.67334,0.65387,0.214417,0.270386,down
36494,-0.511719,10.359375,0.722656,-3.216797,-1.021484,-3.644531,0.67334,0.65387,0.214417,0.270386,down
36499,-1.007813,10.863281,1.179688,-3.216797,-1.021484,-3.644531,0.67334,0.65387,0.214417,0.270386,down
36505,-1.582031,11.902344,1.066406,-2.701172,-1.007813,-3.601563,0.696289,0.634827,0.221008,0.251709,down
36510,-1.773438,12.246094,1.027344,-1.503906,-1.005859,-3.519531,0.696289,0.634827,0.221008,0.251709,down
36515,-2.042969,12.96875,0.953125,-1.503906,-1.005859,-3.519531,0.706604,0.626648,0.226868,0.237854,down
36520,-2.15625,13.355469,0.875,-0.484375,-1.009766,-3.460938,0.706604,0.626648,0.226868,0.237854,down
36526,-2.234375,13.734375,0.875,-0.169922,-1.021484,-3.427734,0.706604,0.626648,0.226868,0.237854,down
36531,-2.425781,14.078125,0.914062,-0.169922,-1.021484,-3.427734,0.716248,0.620117,0.237305,0.214783,down
36538,-2.539063,14.539063,0.683594,-0.169922,-1.021484,-3.427734,0.721008,0.617004,0.243835,0.200012,down
36543,-2.539063,14.699219,0.492187,-0.5625,-1.005859,-3.302734,0.721008,0.617004,0.243835,0.200012,down
36548,-2.578125,14.542969,0.261719,-1.082031,-0.970703,-3.279297,0.72406,0.614624,0.247131,0.192261,down
36554,-2.578125,14.542969,0.261719,-1.679688,-0.939453,-3.269531,0.731384,0.607605,0.252563,0.179199,down
36559,-2.578125,14.542969,0.261719,-1.679688,-0.939453,-3.269531,0.731384,0.607605,0.252563,0.179199,down
36564,-2.578125,14.234375,-0.007813,-2.289063,-0.912109,-3.277344,0.731384,0.607605,0.252563,0.179199,down
36569,-2.464844,13.085938,0.148437,-2.820313,-0.851562,-3.298828,0.742371,0.595642,0.257263,0.167297,down
36574,-2.464844,13.085938,0.148437,-2.820313,-0.851562,-3.298828,0.742371,0.595642,0.257263,0.167297,down
36580,-2.617188,12.589844,0.988281,-3.443359,-0.638672,-3.339844,0.762024,0.571411,0.264099,0.151917,down
36586,-2.808594,12.324219,1.640625,-3.402344,-0.423828,-3.359375,0.762024,0.571411,0.264099,0.151917,down
36591,-2.925781,11.972656,1.792969,-3.326172,-0.328125,-3.375,0.762024,0.571411,0.264099,0.151917,down
36596,-3.152344,11.859375,1.984375,-3.017578,-0.216797,-3.394531,0.762024,0.571411,0.264099,0.151917,down
36601,-3.5,11.96875,2.175781,-2.595703,-0.177734,-3.386719,0.762024,0.571411,0.264099,0.151917,down
36607,-3.882813,12.433594,2.828125,-2.595703,-0.177734,-3.386719,0.79364,0.524719,0.282715,0.121887,down
36612,-4.035156,12.550781,2.828125,-2.595703,-0.177734,-3.386719,0.79364,0.524719,0.282715,0.121887,down
36618,-4.609375,13.199219,2.675781,-1.46875,-0.320313,-3.394531,0.79364,0.524719,0.282715,0.121887,down
36623,-4.609375,13.199219,2.675781,-1.46875,-0.320313,-3.394531,0.803162,0.508728,0.29248,0.103088,down
36628,-4.878906,13.8125,2.675781,-1.5,-0.806641,-3.269531,0.806519,0.503235,0.294983,0.096252,down
36633,-4.992187,14.003906,2.636719,-1.5,-0.806641,-3.269531,0.806519,0.503235,0.294983,0.096252,down
36638,-4.992187,14.003906,2.636719,-1.789063,-0.970703,-3.210938,0.809692,0.498108,0.296753,0.090393,down
36643,-4.992187,14.082031,2.636719,-2.230469,-1.091797,-3.150391,0.809692,0.498108,0.296753,0.090393,down
36648,-4.992187,14.082031,2.636719,-2.755859,-1.193359,-3.076172,0.818298,0.484497,0.299255,0.078247,down
36653,-4.839844,13.433594,2.828125,-2.755859,-1.193359,-3.076172,0.823364,0.476257,0.299866,0.072937,down
36658,-4.839844,11.972656,3.136719,-3.863281,-1.263672,-2.912109,0.829224,0.466614,0.30011,0.067932,down
36663,-4.839844,11.4375,3.441406,-4.292969,-1.259766,-2.818359,0.841797,0.444763,0.300049,0.059692,down
36668,-4.800781,11.019531,3.632813,-4.685547,-1.197266,-2.625,0.841797,0.444763,0.300049,0.059692,down
36673,-4.878906,10.480469,3.976563,-4.685547,-1.197266,-2.625,0.854309,0.421509,0.299438,0.053101,down
36679,-5.109375,9.328125,5.089844,-4.685547,-1.197266,-2.625,0.860535,0.409302,0.299072,0.05011,down
36684,-5.375,9.171875,5.585937,-4.373047,-1.091797,-2.337891,0.86615,0.397949,0.298584,0.047302,down
36689,-5.71875,9.140625,5.929687,-3.964844,-1.175781,-2.251953,0.86615,0.397949,0.298584,0.047302,down
36694,-6.027344,9.101563,6.085937,-3.964844,-1.175781,-2.251953,0.86615,0.397949,0.298584,0.047302,down
36699,-6.027344,9.101563,6.085937,-3.486328,-1.289063,-2.203125,0.87616,0.37738,0.296997,0.041138,down
36704,-6.105469,9.140625,6.160156,-3.486328,-1.289063,-2.203125,0.880371,0.368896,0.295776,0.037537,down
36710,-6.105469,9.140625,6.160156,-2.447266,-1.632813,-2.121094,0.887634,0.354919,0.291992,0.02887,down
36715,-6.21875,9.367188,6.390625,-2.447266,-1.632813,-2.121094,0.887634,0.354919,0.291992,0.02887,down
36721,-6.179687,9.410156,6.429687,-1.791016,-1.986328,-2.001953,0.893982,0.344055,0.286438,0.019104,down
36726,-5.949219,9.523438,6.46875,-1.556641,-2.294922,-1.794922,0.893982,0.344055,0.286438,0.019104,down
36731,-5.796875,9.25,6.351562,-1.556641,-2.294922,-1.794922,0.893982,0.344055,0.286438,0.019104,down
36736,-5.683594,9.023438,6.390625,-1.738281,-2.462891,-1.537109,0.893982,0.344055,0.286438,0.019104,down
36742,-5.453125,8.871094,6.351562,-1.929688,-2.511719,-1.402344,0.893982,0.344055,0.286438,0.019104,down
36747,-5.261719,8.144531,6.390625,-1.929688,-2.511719,-1.402344,0.910156,0.318115,0.265442,-0.003052,down
36752,-5.183594,7.957031,6.507812,-2.287109,-2.525391,-1.128906,0.910156,0.318115,0.265442,-0.003052,down
36757,-5.070312,7.605469,6.699219,-2.355469,-2.484375,-1.019531,0.910156,0.318115,0.265442,-0.003052,down
36762,-5.03125,7.339844,7.042969,-2.328125,-2.419922,-0.914062,0.910156,0.318115,0.265442,-0.003052,down
36767,-5.375,7.496094,7.195312,-2.328125,-2.419922,-0.914062,0.92334,0.294189,0.24646,-0.013794,down
36772,-5.71875,7.761719,6.8125,-1.988281,-2.285156,-0.757812,0.92334,0.294189,0.24646,-0.013794,down
36777,-5.71875,7.761719,6.8125,-1.818359,-2.308594,-0.693359,0.928833,0.283997,0.237305,-0.018005,down
36782,-5.71875,7.761719,6.8125,-1.71875,-2.371094,-0.658203,0.931335,0.27948,0.232666,-0.020081,down
36787,-5.527344,7.5625,7.15625,-1.71875,-2.371094,-0.658203,0.931335,0.27948,0.232666,-0.020081,down
36792,-5.453125,7.417969,7.347656,-1.628906,-2.390625,-0.613281,0.931335,0.27948,0.232666,-0.020081,down
36798,-5.453125,7.417969,7.347656,-1.421875,-2.525391,-0.388672,0.938599,0.266846,0.217163,-0.026306,down
36804,-4.609375,6.648437,7.578125,-1.421875,-2.525391,-0.388672,0.943115,0.259216,0.205933,-0.029907,down
36809,-4.417969,6.34375,7.65625,-1.445313,-2.570313,-0.162109,0.945618,0.254944,0.199402,-0.031494,down
36814,-4.1875,6.074219,7.695312,-1.445313,-2.570313,-0.162109,0.947571,0.251587,0.194275,-0.032471,down
36819,-3.765625,5.5,7.921875,-1.445313,-2.570313,-0.162109,0.94989,0.24762,0.187988,-0.033325,down
36826,-3.535156,4.886719,8.039063,-1.445313,-2.570313,-0.162109,0.951843,0.24408,0.182434,-0.033875,down
36831,-3.382813,4.65625,8.082031,-1.316406,-2.431641,0.224609,0.951843,0.24408,0.182434,-0.033875,down
36837,-3.191406,4.425781,8.078125,-1.125,-2.357422,0.287109,0.951843,0.24408,0.182434,-0.033875,down
36842,-3.117188,4.351562,8.308594,-0.955078,-2.273438,0.333984,0.951843,0.24408,0.182434,-0.033875,down
36847,-3.152344,4.503906,8.34375,-0.955078,-2.273438,0.333984,0.958679,0.232849,0.159851,-0.034607,down
36853,-3.269531,4.65625,8.148438,-0.166016,-2.105469,0.388672,0.958679,0.232849,0.159851,-0.034607,down
36858,-3.269531,4.65625,8.191406,-0.166016,-2.105469,0.388672,0.960937,0.230652,0.149109,-0.034851,down
36863,-2.808594,4.617187,8.503906,0.054687,-2.085938,0.400391,0.961731,0.230408,0.143921,-0.035034,down
36868,-2.808594,4.617187,8.503906,0.054687,-2.085938,0.400391,0.961731,0.230408,0.143921,-0.035034,down
36873,-2.847656,4.65625,8.382813,0.314453,-1.974609,0.431641,0.961731,0.230408,0.143921,-0.035034,down
36878,-2.734375,4.65625,8.347656,0.394531,-1.933594,0.441406,0.963501,0.231934,0.128723,-0.035522,down
36883,-2.539063,4.65625,8.265625,0.394531,-1.933594,0.441406,0.963928,0.23291,0.123718,-0.035645,down
36888,-2.464844,4.542969,8.230469,0.394531,-1.933594,0.441406,0.964294,0.233887,0.118958,-0.035706,down
36893,-2.273438,4.503906,8.1875,0.394531,-1.933594,0.441406,0.964661,0.234924,0.113831,-0.035645,down
36899,-2.121094,4.464844,8.191406,0.328125,-1.806641,0.560547,0.965393,0.236328,0.104736,-0.035095,down
36904,-2.003906,4.390625,8.078125,0.25,-1.738281,0.65625,0.965759,0.237,0.099792,-0.034607,down
36909,-1.890625,4.3125,8.113281,0.25,-1.738281,0.65625,0.966064,0.237549,0.095642,-0.034058,down
36914,-1.621094,4.234375,8.1875,0.25,-1.738281,0.65625,0.966064,0.237549,0.095642,-0.034058,down
36919,-1.546875,4.160156,8.1875,0.408203,-1.550781,0.720703,0.966064,0.237549,0.095642,-0.034058,down
36924,-1.546875,4.195312,8.1875,0.408203,-1.550781,0.720703,0.966675,0.240356,0.082214,-0.031677,down
36929,-1.507813,4.195312,8.265625,0.408203,-1.550781,0.720703,0.966675,0.241577,0.078735,-0.030945,down
36934,-1.351563,4.160156,8.386719,0.755859,-1.300781,0.703125,0.966553,0.243408,0.074707,-0.030029,down
36939,-1.277344,4.234375,8.425781,0.755859,-1.300781,0.703125,0.96637,0.245117,0.071594,-0.029297,down
36944,-1.238281,4.273437,8.570313,0.988281,-1.140625,0.662109,0.96637,0.245117,0.071594,-0.029297,down
36949,-1.046875,4.234375,8.53125,0.988281,-1.140625,0.662109,0.965637,0.25,0.065002,-0.027649,down
36954,-1.007813,4.273437,8.425781,1.121094,-0.957031,0.619141,0.96521,0.252625,0.062195,-0.026917,down
36959,-1.007813,4.3125,8.386719,1.160156,-0.878906,0.599609,0.96521,0.252625,0.062195,-0.026917,down
36964,-0.96875,4.351562,8.347656,1.160156,-0.878906,0.599609,0.96405,0.258362,0.056885,-0.02533,down
