timestamp,ax,ay,az,gx,gy,gz,qw,qx,qy,qz,label
129553,8.640625,4.964844,0.070312,-0.423828,-0.115234,-0.089844,0.298096,0.701599,0.011414,0.647095,down
129558,8.640625,4.734375,0.109375,-0.488281,-0.138672,-0.076172,0.298096,0.701599,0.011414,0.647095,down
129563,8.71875,4.582031,0.148437,-0.488281,-0.138672,-0.076172,0.300964,0.701172,0.009399,0.64624,down
129568,8.835938,4.425781,0.222656,-0.488281,-0.138672,-0.076172,0.302185,0.70105,0.008362,0.645874,down
129574,8.953125,4.351562,0.300781,-0.554687,-0.232422,-0.070312,0.302185,0.70105,0.008362,0.645874,down
129579,8.953125,4.351562,0.300781,-0.474609,-0.208984,-0.089844,0.305481,0.700806,0.005615,0.644592,down
129584,9.066406,4.042969,0.222656,-0.373047,-0.191406,-0.111328,0.305481,0.700806,0.005615,0.644592,down
129589,9.027344,4.003906,0.148437,-0.373047,-0.191406,-0.111328,0.30719,0.700806,0.004517,0.643799,down
129594,9.0625,4.042969,0.148437,-0.373047,-0.191406,-0.111328,0.307861,0.700867,0.004272,0.643433,down
129599,9.027344,4.121094,0.109375,-0.373047,-0.191406,-0.111328,0.308289,0.700989,0.004333,0.643127,down
129604,8.988281,4.121094,0.109375,0.009766,-0.076172,-0.181641,0.308655,0.701111,0.004517,0.642822,down
129610,8.953125,4.195312,0.109375,0.009766,-0.076172,-0.181641,0.308838,0.701233,0.004883,0.642578,down
129616,8.953125,4.3125,0.148437,0.009766,-0.076172,-0.181641,0.309021,0.701355,0.005432,0.642334,down
129621,8.953125,4.3125,0.183594,0.009766,-0.076172,-0.181641,0.309143,0.701477,0.006042,0.642151,down
129626,8.953125,4.3125,0.148437,0.203125,0.027344,-0.269531,0.309143,0.701477,0.006042,0.642151,down
129631,8.835938,4.390625,0.070312,0.216797,0.058594,-0.275391,0.309143,0.701477,0.006042,0.642151,down
129636,8.796875,4.425781,0.03125,0.189453,0.074219,-0.283203,0.309143,0.701477,0.006042,0.642151,down
129642,8.800781,4.503906,-0.042969,0.160156,0.076172,-0.269531,0.309143,0.701477,0.006042,0.642151,down
129647,8.757813,4.582031,-0.121094,0.09375,0.080078,-0.257813,0.309143,0.701477,0.006042,0.642151,down
129653,8.683594,4.695312,-0.082031,0.027344,0.074219,-0.246094,0.309143,0.701477,0.006042,0.642151,down
129658,8.640625,4.734375,-0.042969,-0.039063,0.058594,-0.224609,0.309143,0.701477,0.006042,0.642151,down
129663,8.566406,4.734375,-0.007813,-0.154297,0.041016,-0.224609,0.309143,0.701477,0.006042,0.642151,down
129668,8.535156,4.734375,-0.007813,-0.154297,0.041016,-0.224609,0.311523,0.70105,0.011841,0.641357,down
129674,8.492188,4.695312,-0.042969,-0.154297,0.041016,-0.224609,0.312927,0.700684,0.012085,0.641113,down
129679,8.535156,4.734375,-0.042969,-0.21875,-0.029297,-0.220703,0.312927,0.700684,0.012085,0.641113,down
129684,8.640625,4.734375,0.03125,-0.230469,-0.052734,-0.201172,0.313721,0.7005,0.012146,0.640869,down
129689,8.71875,4.734375,0.070312,-0.230469,-0.052734,-0.201172,0.315125,0.700256,0.012146,0.640442,down
129694,8.835938,4.695312,0.148437,-0.230469,-0.052734,-0.201172,0.315857,0.700134,0.012085,0.640259,down
129699,8.917969,4.65625,0.109375,-0.189453,-0.017578,-0.191406,0.315857,0.700134,0.012085,0.640259,down
129704,8.953125,4.542969,0.183594,-0.189453,-0.017578,-0.191406,0.317139,0.699829,0.012146,0.639893,down
129709,8.953125,4.542969,0.109375,-0.189453,-0.017578,-0.191406,0.317688,0.699707,0.012329,0.639832,down
129714,8.914063,4.542969,0.148437,-0.189453,-0.017578,-0.191406,0.317688,0.699707,0.012329,0.639832,down
129719,8.914063,4.582031,0.148437,-0.078125,0.0625,-0.222656,0.318726,0.69928,0.013,0.639709,down
129724,8.839844,4.65625,0.148437,-0.078125,0.0625,-0.222656,0.319153,0.699097,0.013428,0.639709,down
129729,8.796875,4.734375,0.148437,0.003906,0.134766,-0.224609,0.319153,0.699097,0.013428,0.639709,down
129734,8.722656,4.773437,0.148437,0.003906,0.134766,-0.224609,0.319519,0.698853,0.013916,0.639771,down
129739,8.644531,4.847656,0.109375,0.039063,0.150391,-0.234375,0.319519,0.698853,0.013916,0.639771,down
129745,8.601563,4.964844,0.148437,0.039063,0.150391,-0.234375,0.320374,0.698181,0.015808,0.640076,down
129750,8.601563,4.964844,0.148437,0.083984,0.15625,-0.230469,0.320557,0.697998,0.016479,0.640137,down
129755,8.566406,5.078125,0.183594,0.083984,0.15625,-0.230469,0.32074,0.697754,0.017151,0.640259,down
129760,8.496094,5.117187,0.183594,0.083984,0.15625,-0.230469,0.320923,0.697632,0.017822,0.64032,down
129765,8.457031,5.078125,0.148437,0.083984,0.15625,-0.230469,0.320923,0.697632,0.017822,0.64032,down
129770,8.457031,5.0,0.148437,0.021484,0.125,-0.169922,0.320923,0.697632,0.017822,0.64032,down
129775,8.453125,4.964844,0.148437,-0.019531,0.097656,-0.134766,0.320923,0.697632,0.017822,0.64032,down
129781,8.53125,4.886719,0.300781,-0.019531,0.097656,-0.134766,0.321899,0.696838,0.019531,0.640625,down
129786,8.566406,4.847656,0.339844,-0.109375,0.058594,-0.103516,0.321899,0.696838,0.019531,0.640625,down
129792,8.640625,4.808594,0.375,-0.136719,0.0625,-0.095703,0.321899,0.696838,0.019531,0.640625,down
129797,8.679688,4.734375,0.53125,-0.136719,0.0625,-0.095703,0.322937,0.696228,0.019714,0.640808,down
129802,8.757813,4.695312,0.453125,-0.128906,0.089844,-0.089844,0.322937,0.696228,0.019714,0.640808,down
129807,8.796875,4.734375,0.453125,-0.101563,0.115234,-0.089844,0.322937,0.696228,0.019714,0.640808,down
129812,8.796875,4.734375,0.492187,-0.060547,0.138672,-0.099609,0.322937,0.696228,0.019714,0.640808,down
129818,8.761719,4.773437,0.453125,-0.060547,0.138672,-0.099609,0.322937,0.696228,0.019714,0.640808,down
129824,8.722656,4.808594,0.492187,0.115234,0.189453,-0.111328,0.322937,0.696228,0.019714,0.640808,down
129829,8.722656,4.925781,0.492187,0.115234,0.189453,-0.111328,0.32428,0.694397,0.021729,0.642029,down
129834,8.640625,5.0,0.492187,0.115234,0.189453,-0.111328,0.324158,0.694153,0.022461,0.642334,down
129839,8.535156,5.117187,0.414062,0.115234,0.189453,-0.111328,0.324158,0.694153,0.022461,0.642334,down
129844,8.414063,5.15625,0.339844,0.214844,0.222656,-0.146484,0.324158,0.694153,0.022461,0.642334,down
129849,8.417969,5.15625,0.300781,0.214844,0.222656,-0.146484,0.323853,0.693726,0.024109,0.642883,down
129854,8.417969,5.191406,0.339844,0.181641,0.193359,-0.148437,0.32373,0.693359,0.025574,0.643311,down
129859,8.492188,5.191406,0.375,0.181641,0.193359,-0.148437,0.32373,0.693359,0.025574,0.643311,down
129864,8.601563,5.191406,0.453125,0.029297,0.115234,-0.140625,0.32373,0.693359,0.025574,0.643311,down
129869,8.683594,5.078125,0.570312,0.029297,0.115234,-0.140625,0.323853,0.692993,0.026611,0.643555,down
129874,8.683594,5.078125,0.570312,-0.068359,0.150391,-0.125,0.324097,0.69281,0.026978,0.643616,down
129879,8.683594,5.078125,0.570312,-0.068359,0.150391,-0.125,0.324341,0.692505,0.027283,0.643799,down
129884,8.679688,4.964844,0.570312,-0.115234,0.175781,-0.125,0.324341,0.692505,0.027283,0.643799,down
129889,8.679688,4.964844,0.570312,-0.189453,0.199219,-0.105469,0.325134,0.691711,0.02771,0.644226,down
129894,8.683594,4.925781,0.570312,-0.189453,0.199219,-0.105469,0.325562,0.691284,0.027771,0.644531,down
129899,8.71875,4.925781,0.605469,-0.230469,0.189453,-0.09375,0.325562,0.691284,0.027771,0.644531,down
129904,8.71875,4.847656,0.683594,-0.230469,0.189453,-0.09375,0.32666,0.690247,0.027832,0.645081,down
129909,8.722656,4.847656,0.722656,-0.230469,0.189453,-0.09375,0.327148,0.689697,0.027771,0.645386,down
129914,8.761719,4.847656,0.761719,-0.126953,0.228516,-0.09375,0.327148,0.689697,0.027771,0.645386,down
129919,8.683594,4.886719,0.835937,-0.126953,0.228516,-0.09375,0.328003,0.688721,0.027954,0.645996,down
129924,8.683594,4.886719,0.835937,-0.126953,0.228516,-0.09375,0.328552,0.687744,0.028564,0.646729,down
129929,8.644531,4.925781,0.796875,-0.126953,0.228516,-0.09375,0.328552,0.687744,0.028564,0.646729,down
129934,8.566406,5.039062,0.875,0.09375,0.294922,-0.126953,0.328552,0.687744,0.028564,0.646729,down
129939,8.496094,5.117187,0.835937,0.09375,0.294922,-0.126953,0.328735,0.68689,0.029663,0.647522,down
129944,8.414063,5.15625,0.796875,0.148437,0.289063,-0.150391,0.328735,0.686462,0.030334,0.647888,down
129949,8.335938,5.117187,0.796875,0.148437,0.289063,-0.150391,0.328674,0.686035,0.031067,0.648315,down
129954,8.296875,5.191406,0.796875,0.132812,0.251953,-0.164062,0.328674,0.686035,0.031067,0.648315,down
129959,8.296875,5.191406,0.761719,0.132812,0.251953,-0.164062,0.328674,0.685364,0.032593,0.648987,down
129964,8.21875,5.191406,0.835937,0.132812,0.251953,-0.164062,0.328735,0.685059,0.033325,0.649292,down
129969,8.257813,5.269531,0.796875,0.064453,0.173828,-0.160156,0.328735,0.685059,0.033325,0.649292,down
129975,8.335938,5.230469,0.953125,0.015625,0.140625,-0.160156,0.328735,0.685059,0.033325,0.649292,down
129981,8.378906,5.15625,0.988281,0.015625,0.140625,-0.160156,0.329529,0.684021,0.035095,0.649841,down
129986,8.417969,5.15625,0.953125,-0.119141,0.113281,-0.138672,0.329956,0.683716,0.035278,0.649963,down
129992,8.378906,5.117187,0.914062,-0.152344,0.126953,-0.132812,0.329956,0.683716,0.035278,0.649963,down
129997,8.378906,5.078125,0.914062,-0.152344,0.126953,-0.132812,0.330872,0.682983,0.035522,0.650208,down
130003,8.339844,5.078125,0.914062,-0.171875,0.138672,-0.109375,0.330872,0.682983,0.035522,0.650208,down
130009,8.296875,5.078125,0.914062,-0.128906,0.162109,-0.09375,0.330872,0.682983,0.035522,0.650208,down
130015,8.261719,5.15625,0.835937,-0.128906,0.162109,-0.09375,0.332458,0.681458,0.035889,0.651001,down
130020,8.261719,5.117187,0.835937,-0.060547,0.169922,-0.080078,0.332703,0.68103,0.036133,0.651306,down
130025,8.257813,5.117187,0.796875,-0.017578,0.150391,-0.083984,0.332703,0.68103,0.036133,0.651306,down
130030,8.339844,5.117187,0.835937,-0.017578,0.150391,-0.083984,0.333008,0.680481,0.036621,0.651672,down
130036,8.378906,5.15625,0.835937,-0.017578,0.150391,-0.083984,0.333069,0.680298,0.036987,0.651855,down
130041,8.375,5.191406,0.835937,0.068359,0.138672,-0.089844,0.33313,0.680054,0.037354,0.652039,down
130046,8.378906,5.191406,0.796875,0.089844,0.146484,-0.097656,0.33313,0.680054,0.037354,0.652039,down
130051,8.375,5.15625,0.761719,0.089844,0.146484,-0.097656,0.33313,0.680054,0.037354,0.652039,down
130056,8.335938,5.15625,0.761719,0.085937,0.144531,-0.091797,0.333069,0.679687,0.038269,0.652405,down
130061,8.335938,5.15625,0.761719,0.085937,0.144531,-0.091797,0.333069,0.679504,0.038696,0.652588,down
130067,8.339844,5.191406,0.761719,-0.003906,0.164062,-0.099609,0.333069,0.679504,0.038696,0.652588,down
130072,8.339844,5.191406,0.761719,-0.046875,0.169922,-0.095703,0.333435,0.67865,0.039734,0.653198,down
130078,8.257813,5.15625,0.761719,-0.046875,0.169922,-0.095703,0.333435,0.67865,0.039734,0.653198,down
130084,8.300781,5.15625,0.761719,-0.046875,0.169922,-0.095703,0.334045,0.677856,0.040161,0.653687,down
130090,8.296875,5.117187,0.683594,-0.152344,0.169922,-0.125,0.334045,0.677856,0.040161,0.653687,down
130095,8.375,5.117187,0.761719,-0.152344,0.169922,-0.125,0.335266,0.676575,0.040588,0.654358,down
130100,8.375,5.078125,0.761719,-0.162109,0.183594,-0.140625,0.335266,0.676575,0.040588,0.654358,down
130105,8.296875,5.039062,0.835937,-0.162109,0.183594,-0.140625,0.336182,0.675659,0.040894,0.654785,down
130110,8.375,5.0,0.796875,-0.142578,0.214844,-0.154297,0.336182,0.675659,0.040894,0.654785,down
130115,8.335938,5.0,0.796875,-0.142578,0.214844,-0.154297,0.33667,0.675171,0.041138,0.65509,down
130120,8.335938,5.0,0.796875,-0.101563,0.230469,-0.152344,0.33667,0.675171,0.041138,0.65509,down
130126,8.339844,5.0,0.914062,-0.101563,0.230469,-0.152344,0.33783,0.673706,0.042175,0.655945,down
130131,8.339844,5.0,0.914062,-0.033203,0.255859,-0.177734,0.338135,0.673218,0.042664,0.65625,down
130136,8.296875,5.039062,0.988281,-0.023437,0.287109,-0.181641,0.338501,0.672668,0.043213,0.656555,down
130142,8.21875,4.964844,0.953125,-0.023437,0.287109,-0.181641,0.338745,0.67218,0.043701,0.65686,down
130148,8.148438,4.964844,0.953125,-0.003906,0.320313,-0.191406,0.338745,0.67218,0.043701,0.65686,down
130153,8.183594,4.964844,0.953125,0.005859,0.320313,-0.191406,0.338745,0.67218,0.043701,0.65686,down
130158,8.179688,5.039062,1.027344,0.005859,0.322266,-0.193359,0.338745,0.67218,0.043701,0.65686,down
130163,8.113281,5.078125,1.144531,-0.005859,0.322266,-0.191406,0.338745,0.67218,0.043701,0.65686,down
130168,8.03125,5.191406,1.21875,-0.021484,0.337891,-0.199219,0.338745,0.67218,0.043701,0.65686,down
130173,7.996094,5.230469,1.257813,-0.029297,0.373047,-0.205078,0.338745,0.67218,0.043701,0.65686,down
130178,7.917969,5.191406,1.21875,-0.029297,0.373047,-0.205078,0.338745,0.67218,0.043701,0.65686,down
130184,7.953125,5.15625,1.21875,-0.029297,0.373047,-0.205078,0.341248,0.667175,0.048828,0.660339,down
130190,7.917969,5.230469,1.257813,-0.125,0.314453,-0.25,0.341248,0.667175,0.048828,0.660339,down
130195,8.074219,5.230469,1.371094,-0.125,0.314453,-0.25,0.342896,0.6651,0.050476,0.661438,down
130200,8.148438,5.191406,1.488281,-0.1875,0.279297,-0.287109,0.342896,0.6651,0.050476,0.661438,down
130205,8.183594,5.191406,1.488281,-0.1875,0.279297,-0.287109,0.343628,0.664368,0.050964,0.661743,down
130210,8.257813,5.15625,1.566406,-0.207031,0.3125,-0.345703,0.343628,0.664368,0.050964,0.661743,down
130215,8.339844,5.117187,1.601563,-0.207031,0.3125,-0.345703,0.346069,0.66217,0.05249,0.662537,down
130220,8.335938,5.15625,1.566406,-0.222656,0.394531,-0.388672,0.346069,0.66217,0.05249,0.662537,down
130225,8.339844,5.15625,1.601563,-0.253906,0.433594,-0.414062,0.347107,0.661255,0.053162,0.662903,down
130230,8.296875,5.191406,1.566406,-0.253906,0.433594,-0.414062,0.349121,0.659302,0.054443,0.663696,down
130235,8.296875,5.230469,1.566406,-0.253906,0.433594,-0.414062,0.35022,0.658203,0.055115,0.664124,down
130240,8.414063,5.230469,1.601563,-0.253906,0.433594,-0.414062,0.35022,0.658203,0.055115,0.664124,down
130245,8.414063,5.269531,1.640625,-0.316406,0.511719,-0.53125,0.35022,0.658203,0.055115,0.664124,down
130250,8.457031,5.308594,1.757813,-0.316406,0.511719,-0.53125,0.354065,0.654602,0.057556,0.665405,down
130255,8.453125,5.347656,1.792969,-0.316406,0.511719,-0.53125,0.354065,0.654602,0.057556,0.665405,down
130260,8.453125,5.386719,1.832031,-0.277344,0.591797,-0.615234,0.356934,0.651917,0.059814,0.666382,down
130265,8.414063,5.421875,1.910156,-0.277344,0.591797,-0.615234,0.358398,0.650391,0.061218,0.666931,down
130270,8.339844,5.460937,1.910156,-0.277344,0.591797,-0.615234,0.359802,0.648865,0.062683,0.667542,down
130275,8.296875,5.460937,1.910156,-0.224609,0.828125,-0.820312,0.359802,0.648865,0.062683,0.667542,down
130280,8.261719,5.613281,1.910156,-0.224609,0.828125,-0.820312,0.361328,0.647156,0.064331,0.668152,down
130285,8.179688,5.804687,2.023438,-0.246094,0.863281,-0.871094,0.361328,0.647156,0.064331,0.668152,down
130290,8.179688,5.960937,2.0625,-0.304688,0.935547,-0.96875,0.364746,0.643555,0.067932,0.669495,down
130295,7.996094,6.074219,2.101563,-0.304688,0.935547,-0.96875,0.368591,0.639465,0.071838,0.670837,down
130300,7.800781,6.1875,2.214844,-0.304688,0.935547,-0.96875,0.368591,0.639465,0.071838,0.670837,down
130305,7.6875,6.265625,2.214844,-0.304688,0.935547,-0.96875,0.373047,0.635071,0.075562,0.672119,down
130310,7.609375,6.34375,2.214844,-0.304688,0.935547,-0.96875,0.373047,0.635071,0.075562,0.672119,down
130315,7.574219,6.378906,2.253906,-0.550781,0.857422,-1.089844,0.373047,0.635071,0.075562,0.672119,down
130321,7.648437,6.457031,2.445313,-0.550781,0.857422,-1.089844,0.380615,0.628357,0.080688,0.673645,down
130327,7.839844,6.496094,2.523438,-0.550781,0.857422,-1.089844,0.383057,0.626343,0.082153,0.67395,down
130332,7.878906,6.457031,2.558594,-0.638672,0.740234,-1.148438,0.385986,0.624146,0.08374,0.674133,down
130339,7.953125,6.496094,2.597656,-0.699219,0.751953,-1.146484,0.385986,0.624146,0.08374,0.674133,down
130344,8.03125,6.417969,2.558594,-0.699219,0.751953,-1.146484,0.385986,0.624146,0.08374,0.674133,down
130349,7.996094,6.417969,2.523438,-0.791016,0.863281,-1.1875,0.385986,0.624146,0.08374,0.674133,down
130354,7.996094,6.417969,2.523438,-0.833984,0.914062,-1.220703,0.397644,0.614746,0.089233,0.675293,down
130359,7.917969,6.535156,2.484375,-0.833984,0.914062,-1.220703,0.397644,0.614746,0.089233,0.675293,down
130364,7.917969,6.535156,2.484375,-0.916016,0.986328,-1.283203,0.404114,0.609131,0.092102,0.676147,down
130369,7.648437,6.574219,2.523438,-0.916016,0.986328,-1.283203,0.404114,0.609131,0.092102,0.676147,down
130374,7.648437,6.574219,2.523438,-0.945312,0.976562,-1.300781,0.410828,0.603333,0.094849,0.67688,down
130380,7.34375,6.878906,2.558594,-0.945312,0.976562,-1.300781,0.410828,0.603333,0.094849,0.67688,down
130385,7.308594,6.917969,2.675781,-0.960937,0.962891,-1.4375,0.410828,0.603333,0.094849,0.67688,down
130390,7.230469,6.957031,2.753906,-0.960937,0.962891,-1.4375,0.421753,0.594055,0.099426,0.677734,down
130395,7.265625,7.109375,2.789063,-0.960937,0.962891,-1.4375,0.428711,0.588196,0.1026,0.677979,down
130400,7.304687,7.148437,2.828125,-0.960937,0.962891,-1.4375,0.428711,0.588196,0.1026,0.677979,down
130405,7.304687,7.148437,2.867188,-0.910156,1.048828,-1.492188,0.428711,0.588196,0.1026,0.677979,down
130411,7.375,7.183594,2.789063,-0.910156,1.048828,-1.492188,0.439514,0.578674,0.107971,0.678467,down
130417,7.152344,7.453125,2.753906,-0.910156,1.048828,-1.492188,0.442993,0.575378,0.109863,0.678711,down
130423,7.035156,7.53125,2.636719,-0.958984,1.244141,-1.513672,0.442993,0.575378,0.109863,0.678711,down
130428,6.960937,7.5625,2.636719,-1.029297,1.296875,-1.521484,0.442993,0.575378,0.109863,0.678711,down
130433,6.882812,7.679687,2.558594,-1.029297,1.296875,-1.521484,0.453857,0.564209,0.115601,0.679932,down
130438,6.652344,8.21875,2.675781,-1.029297,1.296875,-1.521484,0.457764,0.56012,0.117371,0.68042,down
130444,6.460937,8.527344,2.828125,-1.201172,1.230469,-1.466797,0.457764,0.56012,0.117371,0.68042,down
130450,6.191406,8.789063,3.519531,-1.205078,1.080078,-1.402344,0.457764,0.56012,0.117371,0.68042,down
130455,6.0,8.753906,3.746094,-1.203125,0.992187,-1.341797,0.457764,0.56012,0.117371,0.68042,down
130460,5.964844,8.867188,3.863281,-1.285156,0.992187,-1.1875,0.457764,0.56012,0.117371,0.68042,down
130465,5.925781,8.832031,3.976563,-1.285156,0.992187,-1.1875,0.476074,0.541565,0.122925,0.681824,down
130470,5.808594,8.789063,3.941406,-1.421875,0.984375,-0.978516,0.479431,0.537964,0.123474,0.682251,down
130475,5.773437,8.789063,3.941406,-1.421875,0.984375,-0.978516,0.485901,0.53064,0.123657,0.683411,down
130480,5.734375,8.722656,4.015625,-1.421875,0.984375,-0.978516,0.485901,0.53064,0.123657,0.683411,down
130485,5.773437,8.566406,4.054687,-1.630859,0.794922,-0.742187,0.48938,0.526611,0.123047,0.684143,down
130490,5.925781,8.371094,4.09375,-1.630859,0.794922,-0.742187,0.49231,0.523315,0.12207,0.684753,down
130495,5.925781,8.371094,4.09375,-1.865234,0.632812,-0.566406,0.495544,0.519653,0.120544,0.685425,down
130500,5.925781,8.371094,4.09375,-1.962891,0.632812,-0.507812,0.498718,0.516052,0.118835,0.686218,down
130505,5.925781,7.757812,4.054687,-1.962891,0.632812,-0.507812,0.498718,0.516052,0.118835,0.686218,down
130510,6.0,7.257812,4.054687,-2.056641,0.613281,-0.445312,0.505066,0.508606,0.114563,0.687866,down
130515,6.0,7.257812,4.054687,-2.056641,0.613281,-0.445312,0.505066,0.508606,0.114563,0.687866,down
130520,6.0,6.6875,4.207031,-2.132813,0.589844,-0.380859,0.505066,0.508606,0.114563,0.687866,down
130525,6.039062,6.496094,4.167969,-1.958984,0.697266,-0.412109,0.514587,0.496948,0.107361,0.69043,down
130530,6.039062,6.457031,4.167969,-1.958984,0.697266,-0.412109,0.517822,0.492798,0.105164,0.691345,down
130535,6.0,6.417969,4.167969,-1.679688,0.748047,-0.441406,0.520508,0.489197,0.103394,0.692139,down
130541,6.0,6.492187,4.359375,-1.679688,0.748047,-0.441406,0.52594,0.481567,0.100586,0.693787,down
130546,5.964844,6.53125,4.476562,-1.679688,0.748047,-0.441406,0.52594,0.481567,0.100586,0.693787,down
130551,5.886719,6.496094,4.550781,-1.207031,0.935547,-0.53125,0.52594,0.481567,0.100586,0.693787,down
130556,5.773437,6.648437,4.550781,-1.083984,1.033203,-0.566406,0.530396,0.474854,0.099426,0.695251,down
130562,5.617187,6.996094,4.628906,-1.083984,1.033203,-0.566406,0.53418,0.468262,0.099792,0.696716,down
130567,5.503906,7.074219,4.707031,-0.826172,1.117188,-0.589844,0.53595,0.465027,0.100464,0.697449,down
130572,5.464844,7.152344,4.859375,-0.753906,1.123047,-0.582031,0.537598,0.461731,0.101318,0.698181,down
130578,5.351562,7.375,5.128906,-0.753906,1.123047,-0.582031,0.539124,0.458679,0.102234,0.698914,down
130583,5.351562,7.414062,5.320312,-0.697266,1.103516,-0.525391,0.539124,0.458679,0.102234,0.698914,down
130588,5.234375,7.453125,5.394531,-0.746094,1.101563,-0.466797,0.541992,0.452576,0.104004,0.700439,down
130593,5.003906,7.535156,5.433594,-0.746094,1.101563,-0.466797,0.543274,0.449402,0.104675,0.701355,down
130598,4.96875,7.492187,5.472656,-0.962891,1.123047,-0.273438,0.543274,0.449402,0.104675,0.701355,down
130604,4.96875,7.414062,5.511719,-1.128906,1.070313,-0.138672,0.543274,0.449402,0.104675,0.701355,down
130610,4.929687,7.339844,5.546875,-1.318359,0.994141,0.005859,0.543274,0.449402,0.104675,0.701355,down
130615,4.929687,7.335937,5.433594,-1.519531,0.958984,0.136719,0.543274,0.449402,0.104675,0.701355,down
130621,4.8125,7.261719,5.394531,-1.904297,0.902344,0.365234,0.543274,0.449402,0.104675,0.701355,down
130627,4.738281,7.03125,5.355469,-1.904297,0.902344,0.365234,0.551575,0.422974,0.096191,0.712463,down
130632,4.699219,6.839844,5.355469,-1.904297,0.902344,0.365234,0.552612,0.419006,0.093445,0.714355,down
130637,4.699219,6.839844,5.355469,-1.904297,0.902344,0.365234,0.552612,0.419006,0.093445,0.714355,down
130642,4.660156,6.730469,5.472656,-2.216797,0.869141,0.541016,0.552612,0.419006,0.093445,0.714355,down
130647,4.46875,6.457031,5.585937,-2.259766,0.912109,0.552734,0.554871,0.409912,0.086853,0.71875,down
130652,4.46875,6.457031,5.585937,-2.259766,0.912109,0.552734,0.554871,0.409912,0.086853,0.71875,down
130657,4.316406,6.152344,5.929687,-2.253906,0.941406,0.550781,0.557007,0.400574,0.080322,0.723083,down
130663,4.199219,5.960937,6.011719,-2.253906,0.941406,0.550781,0.559021,0.390869,0.073547,0.727539,down
130668,4.085937,5.652344,5.894531,-2.253906,0.941406,0.550781,0.559753,0.386719,0.07074,0.729492,down
130673,4.046875,5.613281,5.855469,-1.990234,0.876953,0.634766,0.559753,0.386719,0.07074,0.729492,down
130678,4.007812,5.652344,5.933594,-1.943359,0.804687,0.708984,0.559753,0.386719,0.07074,0.729492,down
130684,3.78125,5.769531,6.277344,-1.886719,0.689453,0.800781,0.559753,0.386719,0.07074,0.729492,down
130689,3.703125,5.769531,6.394531,-1.853516,0.574219,0.882812,0.559753,0.386719,0.07074,0.729492,down
130695,3.589844,5.613281,6.390625,-1.830078,0.480469,0.978516,0.559753,0.386719,0.07074,0.729492,down
130700,3.589844,5.347656,6.3125,-1.8125,0.392578,1.058594,0.559753,0.386719,0.07074,0.729492,down
130705,3.550781,5.15625,6.3125,-1.8125,0.392578,1.058594,0.560242,0.360596,0.04718,0.744202,down
130711,3.511719,5.0,6.316406,-1.861328,0.234375,1.228516,0.560242,0.360596,0.04718,0.744202,down
130716,3.472656,5.0,6.390625,-1.878906,0.171875,1.3125,0.557922,0.351929,0.034241,0.750793,down
130721,3.550781,4.734375,6.433594,-1.878906,0.171875,1.3125,0.557007,0.349182,0.029419,0.752991,down
130726,3.625,4.464844,6.390625,-1.878906,0.171875,1.3125,0.557007,0.349182,0.029419,0.752991,down
130731,3.625,4.234375,6.277344,-2.226563,-0.037109,1.462891,0.557007,0.349182,0.029419,0.752991,down
130736,3.625,4.234375,6.277344,-2.40625,-0.113281,1.472656,0.555298,0.343201,0.018372,0.757324,down
130741,3.742188,3.507813,6.199219,-2.40625,-0.113281,1.472656,0.555298,0.343201,0.018372,0.757324,down
130746,3.703125,2.816406,6.3125,-2.654297,-0.244141,1.529297,0.553894,0.336975,0.005798,0.761292,down
130751,3.703125,2.816406,6.3125,-2.671875,-0.298828,1.566406,0.553162,0.33374,-0.001038,0.763306,down
130756,3.550781,2.398438,6.734375,-2.671875,-0.298828,1.566406,0.552246,0.33075,-0.007751,0.765198,down
130761,3.550781,2.28125,6.960937,-2.189453,-0.550781,1.748047,0.551086,0.328003,-0.014343,0.76709,down
130766,3.550781,1.976563,7.082031,-2.189453,-0.550781,1.748047,0.549438,0.325439,-0.021667,0.769226,down
130771,3.589844,1.515625,7.238281,-1.738281,-0.746094,1.880859,0.547668,0.323608,-0.027832,0.771057,down
130777,3.589844,1.515625,7.238281,-1.40625,-0.880859,1.953125,0.543152,0.321655,-0.03894,0.774597,down
130782,3.625,0.632812,7.886719,-1.074219,-1.039063,2.007813,0.539856,0.321594,-0.044739,0.776611,down
130788,3.550781,0.136719,8.042969,-1.074219,-1.039063,2.007813,0.536865,0.322144,-0.04895,0.778198,down
130793,3.550781,0.25,7.804687,-0.375,-1.189453,2.105469,0.536865,0.322144,-0.04895,0.778198,down
130798,3.589844,-0.246094,7.460937,-0.375,-1.189453,2.105469,0.52887,0.325195,-0.057068,0.78186,down
130804,3.703125,-0.476562,7.386719,0.154297,-1.355469,2.199219,0.52887,0.325195,-0.057068,0.78186,down
130809,3.625,-0.246094,7.160156,0.404297,-1.425781,2.287109,0.52887,0.325195,-0.057068,0.78186,down
130815,3.589844,-0.285156,7.078125,0.671875,-1.433594,2.376953,0.52887,0.325195,-0.057068,0.78186,down
130821,3.589844,-0.207031,7.199219,0.908203,-1.492188,2.464844,0.52887,0.325195,-0.057068,0.78186,down
130826,3.703125,-0.132812,7.695312,1.140625,-1.623047,2.617188,0.52887,0.325195,-0.057068,0.78186,down
130831,3.664063,-0.398438,7.769531,1.140625,-1.623047,2.617188,0.495361,0.345215,-0.072632,0.793823,down
130836,3.664063,-0.398438,7.769531,1.472656,-1.820313,2.923828,0.488159,0.349854,-0.074463,0.796082,down
130841,3.933594,-0.359375,7.539062,1.472656,-1.820313,2.923828,0.48053,0.354858,-0.076111,0.79834,down
130846,4.199219,0.058594,7.234375,1.791016,-2.046875,3.068359,0.472351,0.360474,-0.077759,0.800598,down
130851,4.199219,0.058594,7.234375,1.791016,-2.046875,3.068359,0.472351,0.360474,-0.077759,0.800598,down
130856,4.316406,0.058594,7.078125,1.783203,-2.195313,3.113281,0.455505,0.372375,-0.081177,0.804565,down
130861,4.316406,0.058594,7.078125,2.251953,-2.658203,3.199219,0.446777,0.378845,-0.082581,0.806274,down
130866,4.621094,0.058594,6.851562,2.423828,-2.798828,3.226563,0.446777,0.378845,-0.082581,0.806274,down
130871,4.8125,-0.207031,6.582031,2.423828,-2.798828,3.226563,0.428162,0.39325,-0.085266,0.809143,down
130876,4.929687,-0.359375,6.394531,2.617188,-3.072266,3.166016,0.428162,0.39325,-0.085266,0.809143,down
130881,5.464844,-0.398438,6.089844,2.617188,-3.072266,3.166016,0.407898,0.40979,-0.087524,0.811157,down
130886,5.542969,-0.324219,6.011719,2.705078,-3.373047,2.884766,0.398621,0.417786,-0.08844,0.811646,down
130891,5.734375,-0.554687,5.851562,2.705078,-3.373047,2.884766,0.388733,0.426636,-0.089355,0.811707,down
130896,5.734375,-0.554687,5.851562,2.689453,-3.429688,2.701172,0.379456,0.435425,-0.090088,0.81134,down
130901,6.039062,-0.78125,5.585937,2.652344,-3.404297,2.546875,0.379456,0.435425,-0.090088,0.81134,down
130907,6.304687,-0.746094,5.703125,2.587891,-3.40625,2.404297,0.353577,0.461304,-0.091675,0.808594,down
130913,6.613281,-0.78125,5.585937,2.587891,-3.40625,2.404297,0.345642,0.469666,-0.09198,0.807129,down
130920,6.230469,-0.476562,5.703125,2.453125,-3.292969,1.814453,0.345642,0.469666,-0.09198,0.807129,down
130925,6.160156,-0.515625,5.855469,2.421875,-3.326172,1.625,0.345642,0.469666,-0.09198,0.807129,down
130930,6.039062,-0.476562,5.855469,2.386719,-3.382813,1.447266,0.345642,0.469666,-0.09198,0.807129,down
130936,6.078125,-0.476562,5.816406,2.324219,-3.429688,1.287109,0.345642,0.469666,-0.09198,0.807129,down
130941,6.117187,-0.4375,5.855469,2.324219,-3.429688,1.287109,0.31134,0.511536,-0.091003,0.795715,down
130946,6.15625,-0.359375,5.777344,2.123047,-3.677734,0.755859,0.31134,0.511536,-0.091003,0.795715,down
130951,6.117187,-0.398438,5.664062,2.123047,-3.677734,0.755859,0.299988,0.528992,-0.09021,0.788696,down
130957,6.230469,-0.820312,5.394531,2.123047,-3.677734,0.755859,0.290649,0.546204,-0.089111,0.780518,down
130962,6.421875,-1.050781,5.089844,1.888672,-3.804688,0.1875,0.286316,0.555481,-0.088379,0.775696,down
130967,6.503906,-1.164063,4.820312,1.841797,-3.791016,-0.013672,0.286316,0.555481,-0.088379,0.775696,down
130972,6.726562,-1.242188,4.550781,1.841797,-3.791016,-0.013672,0.279602,0.572144,-0.086548,0.766174,down
130978,6.964844,-0.589844,3.824219,1.841797,-3.791016,-0.013672,0.276733,0.580444,-0.085205,0.761047,down
130983,7.070312,-0.285156,3.59375,1.792969,-3.619141,-0.566406,0.274292,0.588623,-0.083557,0.755859,down
130988,7.152344,0.023437,3.402344,1.808594,-3.558594,-0.740234,0.274292,0.588623,-0.083557,0.755859,down
130993,7.226562,0.25,3.058594,1.808594,-3.558594,-0.740234,0.274292,0.588623,-0.083557,0.755859,down
130998,7.304687,0.671875,2.90625,1.849609,-3.494141,-0.910156,0.270081,0.604858,-0.079285,0.744934,down
131003,7.304687,0.671875,2.90625,1.849609,-3.494141,-0.910156,0.268372,0.612671,-0.076599,0.739441,down
131009,7.375,0.941406,2.675781,1.892578,-3.458984,-1.220703,0.265625,0.628418,-0.070435,0.727722,down
131014,7.648437,1.898438,2.523438,1.892578,-3.458984,-1.220703,0.264587,0.636414,-0.066956,0.721436,down
131020,7.570312,2.472656,2.40625,1.892578,-3.458984,-1.220703,0.263794,0.643982,-0.063538,0.715332,down
131025,7.492187,2.320313,2.214844,1.591797,-3.398438,-1.644531,0.263794,0.643982,-0.063538,0.715332,down
131030,7.308594,2.320313,2.023438,1.376953,-3.390625,-1.738281,0.263794,0.643982,-0.063538,0.715332,down
131035,7.191406,2.589844,1.871094,1.376953,-3.390625,-1.738281,0.263855,0.66571,-0.053955,0.695923,down
131040,7.152344,2.550781,1.792969,0.865234,-3.425781,-1.832031,0.263855,0.66571,-0.053955,0.695923,down
131045,7.226562,2.433594,1.832031,0.865234,-3.425781,-1.832031,0.266357,0.679138,-0.049194,0.68219,down
131050,7.34375,2.703125,1.757813,0.865234,-3.425781,-1.832031,0.266357,0.679138,-0.049194,0.68219,down
131055,7.34375,2.703125,1.757813,0.054687,-3.214844,-1.974609,0.271118,0.691162,-0.046021,0.668335,down
131060,7.414062,2.703125,1.679688,-0.080078,-3.056641,-2.048828,0.274048,0.696533,-0.044678,0.661621,down
131065,7.414062,2.703125,1.679688,-0.080078,-3.056641,-2.048828,0.274048,0.696533,-0.044678,0.661621,down
131071,7.453125,3.277344,1.179688,-0.173828,-2.904297,-2.121094,0.280945,0.70636,-0.041687,0.648376,down
131076,7.496094,3.621094,0.988281,-0.158203,-2.710938,-2.287109,0.280945,0.70636,-0.041687,0.648376,down
131082,7.375,4.082031,0.761719,0.019531,-2.583984,-2.492188,0.280945,0.70636,-0.041687,0.648376,down
131087,7.109375,4.464844,0.339844,0.019531,-2.583984,-2.492188,0.295898,0.724304,-0.032166,0.621887,down
131092,6.882812,4.695312,0.109375,0.265625,-2.541016,-2.664063,0.295898,0.724304,-0.032166,0.621887,down
131097,6.570312,5.386719,-0.160156,0.265625,-2.541016,-2.664063,0.299072,0.728271,-0.029236,0.615906,down
131102,6.570312,5.386719,-0.160156,0.320313,-2.490234,-2.826172,0.305908,0.736633,-0.021973,0.602722,down
131107,6.425781,5.578125,-0.425781,0.234375,-2.521484,-2.886719,0.305908,0.736633,-0.021973,0.602722,down
131112,6.160156,5.613281,-0.582031,0.234375,-2.521484,-2.886719,0.309875,0.74115,-0.017822,0.595276,down
131117,5.773437,5.769531,-0.617187,0.080078,-2.599609,-2.933594,0.313416,0.744812,-0.014404,0.588867,down
131122,5.773437,5.769531,-0.617187,0.080078,-2.599609,-2.933594,0.313416,0.744812,-0.014404,0.588867,down
131127,5.617187,5.765625,-0.695312,-0.101563,-2.673828,-2.972656,0.313416,0.744812,-0.014404,0.588867,down
131132,5.617187,5.613281,-0.734375,-0.521484,-2.712891,-3.171875,0.333374,0.759521,-0.001465,0.558594,down
131137,5.84375,5.347656,-1.003906,-0.521484,-2.712891,-3.171875,0.339417,0.762451,0.001526,0.550842,down
131142,6.003906,5.15625,-1.347656,-0.521484,-2.712891,-3.171875,0.345764,0.765137,0.004578,0.543152,down
131147,6.15625,5.039062,-1.539063,-1.046875,-2.382813,-3.523438,0.345764,0.765137,0.004578,0.543152,down
131152,6.460937,5.15625,-1.960938,-1.046875,-2.382813,-3.523438,0.353333,0.767761,0.00824,0.534424,down
131158,6.609375,5.882812,-1.691406,-1.046875,-2.382813,-3.523438,0.365845,0.771423,0.014771,0.520447,down
131163,6.503906,6.34375,-1.691406,-0.826172,-1.988281,-3.533203,0.372437,0.773132,0.018738,0.513062,down
131168,6.347656,6.878906,-1.730469,-0.587891,-1.779297,-3.535156,0.372437,0.773132,0.018738,0.513062,down
131173,6.15625,7.414062,-1.804688,-0.587891,-1.779297,-3.535156,0.372437,0.773132,0.018738,0.513062,down
131179,5.617187,8.101563,-2.0,-0.587891,-1.779297,-3.535156,0.389343,0.777466,0.03302,0.492798,down
131184,5.273437,8.144531,-2.0,-0.203125,-1.351563,-3.550781,0.389343,0.777466,0.03302,0.492798,down
131190,4.8125,7.914062,-1.882813,-0.232422,-1.294922,-3.548828,0.389343,0.777466,0.03302,0.492798,down
131195,4.8125,7.914062,-1.882813,-0.242187,-1.201172,-3.517578,0.403625,0.780396,0.048706,0.475098,down
131200,4.8125,7.914062,-1.882813,-0.232422,-1.058594,-3.449219,0.408264,0.781006,0.054077,0.469543,down
131205,4.585937,8.105469,-1.882813,-0.232422,-1.058594,-3.449219,0.408264,0.781006,0.054077,0.469543,down
131210,3.664063,8.945313,-1.730469,-0.292969,-0.921875,-3.371094,0.408264,0.781006,0.054077,0.469543,down
131216,3.28125,9.523438,-1.613281,-0.433594,-0.828125,-3.25,0.422424,0.78125,0.069458,0.454346,down
131221,3.128906,9.910156,-1.613281,-0.433594,-0.828125,-3.25,0.427673,0.78064,0.073914,0.449768,down
131227,2.976563,10.59375,-1.691406,-1.214844,-0.625,-2.816406,0.427673,0.78064,0.073914,0.449768,down
131232,2.976563,10.898438,-1.84375,-1.828125,-0.564453,-2.568359,0.438843,0.778259,0.080872,0.441833,down
131237,2.898438,10.898438,-2.074219,-1.828125,-0.564453,-2.568359,0.451904,0.774292,0.085754,0.434631,down
131242,2.898438,10.742188,-2.265625,-1.828125,-0.564453,-2.568359,0.451904,0.774292,0.085754,0.434631,down
131247,3.011719,10.636719,-2.226563,-1.828125,-0.564453,-2.568359,0.467468,0.768738,0.088379,0.42749,down
131252,3.128906,10.476563,-2.074219,-1.828125,-0.564453,-2.568359,0.467468,0.768738,0.088379,0.42749,down
131257,3.359375,10.25,-1.84375,-2.935547,-0.890625,-2.216797,0.467468,0.768738,0.088379,0.42749,down
131263,3.855469,9.632813,-1.386719,-2.935547,-0.890625,-2.216797,0.491272,0.759583,0.089233,0.416809,down
131269,4.007812,9.488281,-1.195313,-2.935547,-0.890625,-2.216797,0.499207,0.756226,0.089355,0.413452,down
131275,4.007812,9.488281,-1.195313,-3.107422,-0.544922,-2.3125,0.507751,0.752319,0.089783,0.410034,down
131280,4.007812,9.488281,-1.195313,-3.105469,-0.396484,-2.386719,0.515686,0.748474,0.090393,0.407043,down
131285,3.855469,9.410156,-1.117188,-3.105469,-0.396484,-2.386719,0.515686,0.748474,0.090393,0.407043,down
131290,3.703125,9.371094,-0.964844,-3.080078,-0.277344,-2.490234,0.53241,0.739746,0.092834,0.40094,down
131295,3.28125,9.527344,-0.695312,-2.935547,-0.019531,-2.666016,0.53241,0.739746,0.092834,0.40094,down
131300,2.859375,9.144531,-0.3125,-2.935547,-0.019531,-2.666016,0.53241,0.739746,0.092834,0.40094,down
131306,2.898438,8.988281,-0.121094,-2.935547,-0.019531,-2.666016,0.556458,0.725647,0.099182,0.392334,down
131312,3.089844,9.023438,-0.082031,-2.863281,0.349609,-2.777344,0.556458,0.725647,0.099182,0.392334,down
131318,2.976563,8.832031,0.261719,-2.863281,0.349609,-2.777344,0.579834,0.710266,0.1073,0.38446,down
131323,2.820313,8.867188,0.453125,-2.927734,0.296875,-2.582031,0.588196,0.704407,0.109863,0.381714,down
131328,2.707031,9.171875,0.570312,-2.976563,0.265625,-2.423828,0.595642,0.699097,0.111877,0.379395,down
131334,2.515625,9.671875,0.644531,-2.976563,0.265625,-2.423828,0.602356,0.694153,0.113403,0.37738,down
131339,2.707031,10.09375,0.414062,-2.976563,0.265625,-2.423828,0.609863,0.688538,0.114624,0.375244,down
131345,2.785156,10.292969,0.261719,-3.138672,0.095703,-2.023438,0.609863,0.688538,0.114624,0.375244,down
131350,2.785156,10.558594,0.109375,-3.173828,0.056641,-1.994141,0.625244,0.676758,0.11615,0.370911,down
131355,2.746094,10.898438,0.070312,-3.173828,0.056641,-1.994141,0.625244,0.676758,0.11615,0.370911,down
131360,2.785156,11.207031,0.109375,-3.169922,-0.033203,-1.998047,0.625244,0.676758,0.11615,0.370911,down
131365,2.785156,11.207031,0.109375,-3.160156,-0.115234,-2.041016,0.645813,0.660767,0.117371,0.364075,down
131371,2.476563,11.628906,0.414062,-3.162109,-0.025391,-2.255859,0.645813,0.660767,0.117371,0.364075,down
131377,2.171875,11.742188,0.414062,-3.458984,0.183594,-2.458984,0.645813,0.660767,0.117371,0.364075,down
131382,1.824219,11.859375,0.300781,-3.458984,0.183594,-2.458984,0.667847,0.642639,0.120117,0.355835,down
131387,1.367188,11.707031,-0.007813,-3.708984,0.300781,-2.556641,0.667847,0.642639,0.120117,0.355835,down
131392,1.214844,11.515625,0.03125,-3.708984,0.300781,-2.556641,0.684631,0.627319,0.122742,0.35022,down
131397,1.097656,11.359375,0.300781,-3.708984,0.300781,-2.556641,0.693054,0.619324,0.123718,0.347595,down
131403,1.058594,11.015625,0.796875,-4.748047,0.146484,-2.646484,0.71228,0.600342,0.124268,0.341675,down
131408,1.136719,10.332031,2.0625,-4.748047,0.146484,-2.646484,0.722046,0.590332,0.123779,0.338928,down
131413,1.097656,10.25,2.523438,-4.748047,0.146484,-2.646484,0.722046,0.590332,0.123779,0.338928,down
131418,1.097656,10.25,2.523438,-5.310547,0.230469,-2.34375,0.741272,0.569275,0.122375,0.333862,down
131423,1.097656,10.09375,2.789063,-5.310547,0.230469,-2.34375,0.741272,0.569275,0.122375,0.333862,down
131428,0.945312,9.105469,3.632813,-5.222656,0.294922,-2.289063,0.750488,0.558594,0.121765,0.331604,down
131433,0.753906,8.984375,3.902344,-4.847656,0.298828,-2.189453,0.750488,0.558594,0.121765,0.331604,down
131438,0.675781,8.910156,4.132812,-4.847656,0.298828,-2.189453,0.776672,0.526367,0.120422,0.324402,down
131444,0.523437,8.5625,4.972656,-4.847656,0.298828,-2.189453,0.783447,0.5177,0.120361,0.322083,down
131449,0.484375,8.566406,5.203125,-3.751953,0.240234,-2.251953,0.783447,0.5177,0.120361,0.322083,down
131455,0.484375,8.605469,5.433594,-3.28125,0.203125,-2.302734,0.796326,0.501282,0.121094,0.316223,down
131461,0.523437,8.71875,5.816406,-3.28125,0.203125,-2.302734,0.802429,0.49353,0.12207,0.312439,down
131466,0.484375,8.832031,5.855469,-2.419922,0.164062,-2.441406,0.802429,0.49353,0.12207,0.312439,down
131471,0.371094,9.027344,5.777344,-2.066406,0.175781,-2.511719,0.802429,0.49353,0.12207,0.312439,down
131477,0.371094,9.027344,5.777344,-1.779297,0.171875,-2.578125,0.815918,0.477356,0.126892,0.300537,down
131482,0.0625,9.371094,5.703125,-1.779297,0.171875,-2.578125,0.815918,0.477356,0.126892,0.300537,down
131487,0.140625,9.636719,5.511719,-1.638672,0.177734,-2.640625,0.82373,0.468445,0.131409,0.291138,down
131492,0.140625,9.636719,5.511719,-1.746094,0.259766,-2.726563,0.827515,0.463928,0.13385,0.286499,down
131498,-0.203125,9.976563,5.320312,-2.189453,0.242187,-2.705078,0.827515,0.463928,0.13385,0.286499,down
131503,-0.742187,10.054688,5.433594,-2.189453,0.242187,-2.705078,0.840576,0.446838,0.140503,0.272156,down
131508,-0.855469,10.058594,5.625,-2.810547,0.166016,-2.570313,0.840576,0.446838,0.140503,0.272156,down
131513,-0.933594,10.054688,5.777344,-2.810547,0.166016,-2.570313,0.849792,0.433228,0.143127,0.263977,down
131518,-1.007813,9.832031,5.664062,-2.810547,0.166016,-2.570313,0.854736,0.425354,0.144165,0.260193,down
131523,-1.046875,9.59375,5.703125,-2.810547,0.166016,-2.570313,0.859863,0.416992,0.144897,0.256531,down
131528,-1.085938,9.328125,5.816406,-3.730469,0.050781,-2.375,0.859863,0.416992,0.144897,0.256531,down
131533,-1.085938,9.144531,6.085937,-3.730469,0.050781,-2.375,0.870422,0.398926,0.145325,0.249084,down
131539,-0.816406,8.71875,6.890625,-3.730469,0.050781,-2.375,0.87561,0.389954,0.145325,0.2453,down
131544,-0.855469,8.527344,6.925781,-3.611328,-0.003906,-2.4375,0.87561,0.389954,0.145325,0.2453,down
131549,-0.894531,8.40625,6.925781,-3.441406,0.025391,-2.498047,0.87561,0.389954,0.145325,0.2453,down
131554,-0.96875,8.261719,6.925781,-3.441406,0.025391,-2.498047,0.87561,0.389954,0.145325,0.2453,down
131559,-1.085938,8.144531,7.042969,-3.291016,0.027344,-2.537109,0.890015,0.363708,0.145996,0.23291,down
131564,-1.085938,8.144531,7.042969,-3.291016,0.027344,-2.537109,0.894531,0.355286,0.146545,0.228333,down
131570,-1.085938,8.023438,6.890625,-3.115234,0.072266,-2.640625,0.902771,0.339294,0.14801,0.219055,down
131575,-1.125,7.722656,6.964844,-3.115234,0.072266,-2.640625,0.906982,0.330688,0.148987,0.21405,down
131580,-1.160156,7.644531,6.925781,-3.449219,0.369141,-2.828125,0.906982,0.330688,0.148987,0.21405,down
131586,-1.316406,7.605469,6.890625,-3.646484,0.490234,-2.876953,0.906982,0.330688,0.148987,0.21405,down
131591,-1.621094,7.03125,7.34375,-3.646484,0.490234,-2.876953,0.906982,0.330688,0.148987,0.21405,down
131596,-1.660156,6.726562,7.621094,-3.646484,0.490234,-2.876953,0.923462,0.291992,0.154602,0.195068,down
131601,-1.738281,6.496094,7.921875,-4.138672,0.628906,-2.824219,0.923462,0.291992,0.154602,0.195068,down
131606,-1.8125,6.304687,8.042969,-4.138672,0.628906,-2.824219,0.931824,0.268982,0.157776,0.18573,down
131611,-2.121094,6.074219,8.347656,-4.138672,0.628906,-2.824219,0.931824,0.268982,0.157776,0.18573,down
131616,-2.195313,5.882812,8.613281,-4.154297,0.777344,-2.716797,0.931824,0.268982,0.157776,0.18573,down
131621,-2.234375,5.730469,8.84375,-4.060547,0.689453,-2.695313,0.931824,0.268982,0.157776,0.18573,down
131626,-2.425781,5.613281,9.453125,-4.060547,0.689453,-2.695313,0.931824,0.268982,0.157776,0.18573,down
131632,-2.503906,5.5,9.652344,-4.060547,0.689453,-2.695313,0.948547,0.214233,0.165222,0.164673,down
131637,-2.503906,5.5,9.652344,-3.677734,0.439453,-2.689453,0.951416,0.203918,0.166199,0.160095,down
131642,-2.808594,5.539062,9.691406,-3.507813,0.34375,-2.742188,0.954041,0.194153,0.167114,0.155396,down
131647,-2.808594,5.539062,9.691406,-3.40625,0.210937,-2.806641,0.956604,0.184631,0.167725,0.150452,down
131652,-2.886719,5.386719,9.757813,-3.40625,0.210937,-2.806641,0.959229,0.174988,0.168152,0.14502,down
131657,-2.925781,5.039062,9.914063,-3.359375,-0.042969,-2.910156,0.959229,0.174988,0.168152,0.14502,down
131662,-3.039063,4.464844,10.035156,-3.365234,-0.113281,-2.939453,0.959229,0.174988,0.168152,0.14502,down
131667,-3.0,4.503906,9.957031,-3.365234,-0.113281,-2.939453,0.96637,0.146912,0.167725,0.128113,down
131673,-3.0,4.503906,9.878906,-3.505859,-0.255859,-2.960938,0.96637,0.146912,0.167725,0.128113,down
131678,-3.0,4.503906,9.878906,-3.505859,-0.255859,-2.960938,0.970764,0.127808,0.166565,0.116516,down
131683,-3.0,4.195312,9.839844,-3.505859,-0.255859,-2.960938,0.970764,0.127808,0.166565,0.116516,down
131688,-2.886719,4.082031,10.03125,-3.650391,-0.322266,-2.955078,0.976685,0.096985,0.163635,0.099304,down
131693,-2.734375,4.121094,10.179688,-3.650391,-0.322266,-2.955078,0.978455,0.086243,0.162659,0.093628,down
131699,-2.808594,3.238281,10.457031,-3.650391,-0.322266,-2.955078,0.980103,0.075012,0.161682,0.087646,down
131704,-2.925781,2.972656,10.800781,-3.9375,-0.269531,-3.060547,0.981628,0.063354,0.160706,0.08136,down
131709,-2.960938,2.933594,10.949219,-3.871094,-0.255859,-3.113281,0.98291,0.052246,0.159729,0.075134,down
131714,-3.34375,2.972656,11.0625,-3.871094,-0.255859,-3.113281,0.98291,0.052246,0.159729,0.075134,down
131719,-3.34375,2.972656,11.0625,-3.775391,-0.285156,-3.212891,0.983948,0.04248,0.158813,0.069397,down
131724,-3.574219,2.855469,11.066406,-3.775391,-0.285156,-3.212891,0.984985,0.032104,0.157654,0.062927,down
131730,-3.574219,2.855469,11.066406,-3.751953,-0.802734,-3.455078,0.986816,0.010986,0.153992,0.04895,down
131735,-4.035156,1.09375,12.480469,-3.751953,-0.802734,-3.455078,0.987549,0.000732,0.151489,0.04187,down
131742,-4.265625,0.441406,12.832031,-3.751953,-0.802734,-3.455078,0.987549,0.000732,0.151489,0.04187,down
131748,-4.378906,0.328125,13.015625,-2.990234,-1.435547,-3.578125,0.987549,0.000732,0.151489,0.04187,down
131753,-4.839844,-0.015625,13.4375,-2.767578,-1.669922,-3.617188,0.989319,-0.027893,0.141724,0.019287,down
131758,-4.839844,-0.015625,13.4375,-2.767578,-1.669922,-3.617188,0.989807,-0.036438,0.13739,0.011292,down
131763,-5.183594,0.597656,13.554688,-2.570313,-1.894531,-3.677734,0.990173,-0.04425,0.132568,0.003479,down
131768,-5.183594,0.597656,13.554688,-2.570313,-1.894531,-3.677734,0.99054,-0.051514,0.127258,-0.004578,down
131773,-5.261719,1.09375,13.703125,-2.570313,-1.894531,-3.677734,0.99054,-0.051514,0.127258,-0.004578,down
131778,-5.070312,1.285156,13.742188,-2.140625,-2.341797,-3.791016,0.991089,-0.064697,0.114624,-0.021423,down
131784,-4.914062,1.363281,13.4375,-1.724609,-2.677734,-3.787109,0.991333,-0.075745,0.10022,-0.038391,down
131790,-4.339844,1.246094,12.410156,-1.724609,-2.677734,-3.787109,0.991333,-0.080261,0.092834,-0.046631,down
131795,-4.035156,1.171875,12.175781,-1.037109,-2.882813,-3.548828,0.991272,-0.084167,0.085266,-0.054626,down
131800,-3.765625,0.863281,12.023438,-0.921875,-2.923828,-3.376953,0.991272,-0.084167,0.085266,-0.054626,down
131806,-3.230469,-0.167969,11.867188,-0.921875,-2.923828,-3.376953,0.990967,-0.091125,0.069458,-0.069763,down
131812,-2.886719,-0.476562,11.828125,-0.703125,-2.964844,-2.943359,0.990967,-0.091125,0.069458,-0.069763,down
131817,-2.886719,-0.476562,11.828125,-0.515625,-2.923828,-2.695313,0.990417,-0.096741,0.05365,-0.082825,down
131823,-2.734375,-0.746094,11.601563,-0.277344,-2.863281,-2.445313,0.990112,-0.098694,0.046021,-0.088318,down
131828,-2.734375,-0.746094,11.601563,0.017578,-2.84375,-2.208984,0.989868,-0.099976,0.038208,-0.093506,down
131834,-2.273438,-0.398438,10.679688,0.017578,-2.84375,-2.208984,0.989624,-0.100403,0.03064,-0.0979,down
131839,-2.273438,-0.398438,10.679688,0.974609,-3.214844,-1.535156,0.989441,-0.098816,0.014099,-0.105164,down
131844,-1.621094,-0.167969,10.261719,0.974609,-3.214844,-1.535156,0.98938,-0.096924,0.005554,-0.107971,down
131849,-0.550781,-0.554687,10.527344,2.207031,-3.271484,-1.294922,0.989502,-0.09314,-0.00415,-0.110657,down
131854,-0.011719,-0.09375,9.914063,2.207031,-3.271484,-1.294922,0.989563,-0.089172,-0.012268,-0.112488,down
131859,0.636719,0.75,10.878906,2.207031,-3.271484,-1.294922,0.989685,-0.084473,-0.020813,-0.114014,down
131864,0.675781,0.289063,10.144531,2.990234,-2.792969,-0.777344,0.989685,-0.084473,-0.020813,-0.114014,down
131869,1.097656,0.214844,9.492188,2.990234,-2.792969,-0.777344,0.989929,-0.071655,-0.036926,-0.116272,down
131874,1.367188,0.519531,9.335938,3.3125,-2.507813,-0.453125,0.989929,-0.071655,-0.036926,-0.116272,down
131879,1.597656,1.324219,9.074219,3.3125,-2.507813,-0.453125,0.990051,-0.064392,-0.044312,-0.11676,down
131884,1.710938,1.59375,8.464844,3.4375,-2.369141,-0.408203,0.990173,-0.057129,-0.051025,-0.117004,down
131889,1.710938,1.59375,8.464844,2.691406,-2.324219,-0.363281,0.990173,-0.050293,-0.057678,-0.117249,down
131894,2.402344,0.75,8.886719,2.691406,-2.324219,-0.363281,0.990051,-0.044983,-0.063721,-0.117371,down
131899,2.246094,0.828125,8.464844,2.691406,-2.324219,-0.363281,0.990051,-0.044983,-0.063721,-0.117371,down
131904,2.210938,0.710937,8.148438,1.886719,-1.636719,-0.111328,0.989563,-0.03186,-0.078369,-0.116821,down
131910,1.863281,0.632812,7.960937,1.886719,-1.636719,-0.111328,0.98938,-0.027283,-0.082275,-0.116455,down
131915,1.632813,0.863281,8.003906,2.074219,-1.089844,-0.013672,0.989319,-0.02301,-0.085449,-0.116028,down
131921,1.632813,0.902344,8.082031,2.074219,-1.089844,-0.013672,0.989197,-0.018005,-0.088684,-0.11554,down
131927,1.632813,0.863281,8.109375,2.220703,-0.896484,-0.009766,0.989197,-0.018005,-0.088684,-0.11554,down
131932,1.558594,0.863281,8.304688,2.304688,-0.830078,-0.023437,0.989197,-0.018005,-0.088684,-0.11554,down
131938,1.519531,0.828125,8.265625,2.642578,-0.673828,-0.080078,0.989197,-0.018005,-0.088684,-0.11554,down
131943,1.558594,0.828125,8.230469,2.642578,-0.673828,-0.080078,0.988525,0.004028,-0.099426,-0.113586,down
131949,1.632813,0.980469,8.308594,2.777344,-0.601562,-0.099609,0.988525,0.004028,-0.099426,-0.113586,down
131954,1.710938,1.285156,8.347656,2.777344,-0.601562,-0.099609,0.988037,0.0177,-0.104065,-0.112671,down
131959,1.710938,1.285156,8.347656,2.730469,-0.521484,-0.066406,0.987366,0.030457,-0.108032,-0.111633,down
131964,1.75,1.402344,8.304688,2.730469,-0.521484,-0.066406,0.987366,0.030457,-0.108032,-0.111633,down
131969,1.671875,1.667969,8.425781,2.457031,-0.412109,-0.003906,0.987061,0.036743,-0.109802,-0.111023,down
131974,1.671875,1.667969,8.425781,2.457031,-0.412109,-0.003906,0.987061,0.036743,-0.109802,-0.111023,down
