timestamp,ax,ay,az,gx,gy,gz,qw,qx,qy,qz,label
302852,8.476563,5.171875,-0.972656,0.039063,0.082031,-0.255859,0.316467,0.742126,0.051147,0.588623,down
302857,8.476563,5.324219,-1.089844,0.039063,0.082031,-0.255859,0.316772,0.742004,0.051758,0.588501,down
302863,8.40625,5.398437,-1.089844,0.039063,0.082031,-0.255859,0.317017,0.741943,0.052429,0.588379,down
302868,8.445313,5.476562,-1.089844,0.166016,0.072266,-0.304688,0.317017,0.741943,0.052429,0.588379,down
302874,8.449219,5.515625,-1.128906,0.179687,0.068359,-0.304688,0.317017,0.741943,0.052429,0.588379,down
302880,8.40625,5.554687,-1.089844,0.179687,0.068359,-0.304688,0.317017,0.741943,0.052429,0.588379,down
302885,8.292969,5.589844,-1.128906,0.152344,0.087891,-0.302734,0.317017,0.741943,0.052429,0.588379,down
302891,8.328125,5.589844,-1.050781,0.068359,0.101563,-0.28125,0.317017,0.741943,0.052429,0.588379,down
302896,8.214844,5.589844,-1.089844,0.068359,0.101563,-0.28125,0.318542,0.741577,0.057739,0.587585,down
302901,8.175781,5.589844,-1.050781,-0.021484,0.107422,-0.248047,0.318542,0.741577,0.057739,0.587585,down
302906,8.136719,5.628906,-1.011719,-0.021484,0.107422,-0.248047,0.319031,0.741333,0.058289,0.587585,down
302911,8.136719,5.589844,-0.972656,-0.095703,0.09375,-0.222656,0.319031,0.741333,0.058289,0.587585,down
302916,8.175781,5.589844,-1.050781,-0.095703,0.09375,-0.222656,0.320496,0.740662,0.059326,0.587585,down
302921,8.175781,5.554687,-0.9375,-0.126953,0.068359,-0.207031,0.320496,0.740662,0.059326,0.587585,down
302926,8.214844,5.554687,-0.859375,-0.111328,0.0625,-0.189453,0.321045,0.740417,0.05957,0.587524,down
302931,8.214844,5.554687,-0.898437,-0.111328,0.0625,-0.189453,0.322083,0.73999,0.059937,0.587463,down
302936,8.175781,5.515625,-0.972656,-0.111328,0.0625,-0.189453,0.32251,0.739807,0.060181,0.587402,down
302941,8.292969,5.476562,-0.9375,-0.111328,0.0625,-0.189453,0.32251,0.739807,0.060181,0.587402,down
302946,8.289063,5.4375,-0.898437,-0.042969,0.0625,-0.1875,0.323303,0.739502,0.06073,0.58728,down
302951,8.332031,5.398437,-0.859375,-0.042969,0.0625,-0.1875,0.323669,0.73938,0.061035,0.587219,down
302956,8.328125,5.398437,-0.820312,-0.042969,0.0625,-0.1875,0.323669,0.73938,0.061035,0.587219,down
302961,8.367188,5.476562,-0.859375,0.007813,0.042969,-0.193359,0.32428,0.739197,0.061829,0.586975,down
302966,8.332031,5.515625,-0.898437,0.007813,0.042969,-0.193359,0.324524,0.739136,0.062256,0.586914,down
302971,8.367188,5.589844,-0.898437,0.007813,0.042969,-0.193359,0.324524,0.739136,0.062256,0.586914,down
302976,8.367188,5.589844,-0.898437,0.078125,0.058594,-0.208984,0.324707,0.739075,0.062683,0.586853,down
302981,8.367188,5.628906,-0.859375,0.101563,0.068359,-0.228516,0.324707,0.739075,0.062683,0.586853,down
302986,8.25,5.746094,-0.859375,0.109375,0.064453,-0.224609,0.325012,0.738953,0.063843,0.58667,down
302991,8.25,5.746094,-0.859375,0.109375,0.064453,-0.224609,0.325012,0.738953,0.063843,0.58667,down
302996,8.25,5.746094,-0.859375,0.117188,0.076172,-0.234375,0.325439,0.738831,0.065796,0.586426,down
303001,8.175781,5.820312,-0.859375,0.117188,0.076172,-0.234375,0.325439,0.738831,0.065796,0.586426,down
303006,8.132813,5.78125,-0.9375,0.117188,0.076172,-0.234375,0.325806,0.738647,0.067017,0.586304,down
303011,8.132813,5.820312,-0.859375,0.117188,0.076172,-0.234375,0.325806,0.738647,0.067017,0.586304,down
303016,8.09375,5.78125,-0.820312,0.035156,0.050781,-0.207031,0.325806,0.738647,0.067017,0.586304,down
303021,8.027344,5.78125,-0.859375,0.011719,0.037109,-0.191406,0.326233,0.738525,0.067932,0.586121,down
303026,7.988281,5.820312,-0.859375,0.011719,0.037109,-0.191406,0.326538,0.738464,0.068298,0.585999,down
303031,7.988281,5.78125,-0.820312,0.011719,0.037109,-0.191406,0.326843,0.738342,0.068665,0.585876,down
303036,8.054688,5.820312,-0.820312,-0.03125,0.003906,-0.160156,0.326843,0.738342,0.068665,0.585876,down
303041,8.054688,5.820312,-0.820312,-0.03125,0.003906,-0.160156,0.32782,0.73822,0.069214,0.585449,down
303046,8.09375,5.78125,-0.820312,-0.03125,0.003906,-0.160156,0.32782,0.73822,0.069214,0.585449,down
303051,8.097656,5.820312,-0.820312,-0.037109,-0.03125,-0.140625,0.32782,0.73822,0.069214,0.585449,down
303056,8.214844,5.78125,-0.859375,-0.011719,-0.042969,-0.138672,0.32782,0.73822,0.069214,0.585449,down
303061,8.292969,5.78125,-0.859375,-0.011719,-0.042969,-0.138672,0.328735,0.73822,0.069702,0.5849,down
303066,8.328125,5.746094,-0.859375,0.035156,-0.029297,-0.154297,0.328735,0.73822,0.069702,0.5849,down
303071,8.332031,5.78125,-0.898437,0.035156,-0.029297,-0.154297,0.329163,0.738342,0.07019,0.584412,down
303077,8.292969,5.820312,-0.972656,0.035156,-0.029297,-0.154297,0.329529,0.738403,0.07074,0.584106,down
303082,8.292969,5.820312,-0.972656,0.064453,0.009766,-0.185547,0.329712,0.738403,0.071167,0.583923,down
303088,8.253906,5.9375,-0.9375,0.064453,0.009766,-0.185547,0.329895,0.738403,0.071533,0.583801,down
303093,8.175781,5.898437,-0.9375,0.060547,0.027344,-0.189453,0.329895,0.738403,0.071533,0.583801,down
303098,8.171875,5.9375,-0.972656,0.060547,0.027344,-0.189453,0.330261,0.738342,0.072388,0.583496,down
303105,8.171875,5.972656,-0.9375,0.046875,0.033203,-0.193359,0.330261,0.738342,0.072388,0.583496,down
303110,8.171875,6.011719,-0.9375,0.035156,0.035156,-0.195312,0.330261,0.738342,0.072388,0.583496,down
303115,8.132813,6.050781,-1.011719,0.035156,0.035156,-0.195312,0.330261,0.738342,0.072388,0.583496,down
303121,8.136719,6.089844,-0.972656,0.005859,0.037109,-0.183594,0.330261,0.738342,0.072388,0.583496,down
303126,8.058594,6.089844,-0.898437,0.005859,0.037109,-0.183594,0.331482,0.738037,0.074341,0.583008,down
303131,8.136719,6.089844,-0.9375,0.005859,0.037109,-0.183594,0.331787,0.737915,0.074707,0.582886,down
303137,8.097656,6.128906,-0.972656,-0.046875,0.023437,-0.160156,0.332092,0.737854,0.074951,0.582825,down
303142,8.132813,6.050781,-0.9375,-0.046875,0.023437,-0.160156,0.332825,0.73761,0.075378,0.582642,down
303147,8.171875,6.011719,-0.9375,-0.046875,0.023437,-0.160156,0.333191,0.737488,0.075562,0.58252,down
303152,8.214844,5.972656,-0.9375,-0.046875,0.023437,-0.160156,0.333557,0.737427,0.075745,0.582458,down
303157,8.136719,6.011719,-0.972656,-0.070312,0.029297,-0.169922,0.334045,0.737244,0.075928,0.582336,down
303162,8.136719,6.011719,-0.9375,-0.0625,0.035156,-0.181641,0.334412,0.737122,0.076172,0.582275,down
303167,8.132813,6.011719,-0.859375,-0.0625,0.035156,-0.181641,0.334778,0.737,0.076355,0.582153,down
303172,8.132813,5.972656,-0.898437,-0.044922,0.050781,-0.183594,0.335205,0.736816,0.07666,0.582092,down
303178,8.09375,6.011719,-0.859375,-0.044922,0.050781,-0.183594,0.33551,0.736694,0.076904,0.582031,down
303183,8.054688,6.011719,-0.820312,-0.044922,0.050781,-0.183594,0.335876,0.736572,0.077271,0.58197,down
303188,7.988281,5.972656,-0.78125,-0.044922,0.050781,-0.183594,0.335876,0.736572,0.077271,0.58197,down
303193,7.949219,5.972656,-0.746094,-0.025391,0.082031,-0.214844,0.335876,0.736572,0.077271,0.58197,down
303198,7.90625,5.972656,-0.746094,-0.015625,0.076172,-0.210937,0.335876,0.736572,0.077271,0.58197,down
303204,7.90625,5.972656,-0.667969,-0.015625,0.076172,-0.210937,0.337341,0.73584,0.078735,0.581848,down
303210,7.90625,6.011719,-0.707031,-0.025391,0.064453,-0.216797,0.337341,0.73584,0.078735,0.581848,down
303215,7.949219,6.011719,-0.707031,-0.025391,0.056641,-0.216797,0.337341,0.73584,0.078735,0.581848,down
303221,7.867187,6.089844,-0.667969,-0.033203,0.035156,-0.210937,0.338867,0.735291,0.0802,0.581482,down
303226,7.90625,6.089844,-0.667969,-0.033203,0.035156,-0.210937,0.338867,0.735291,0.0802,0.581482,down
303231,7.90625,6.089844,-0.667969,-0.025391,-0.019531,-0.191406,0.338867,0.735291,0.0802,0.581482,down
303236,7.945312,6.164062,-0.746094,-0.025391,-0.042969,-0.169922,0.339844,0.735229,0.080933,0.580872,down
303241,8.027344,6.242187,-0.78125,-0.025391,-0.042969,-0.169922,0.339844,0.735229,0.080933,0.580872,down
303246,8.023438,6.28125,-0.707031,-0.025391,-0.042969,-0.169922,0.34021,0.735229,0.081116,0.580566,down
303252,8.058594,6.28125,-0.746094,-0.017578,-0.078125,-0.125,0.34021,0.735229,0.081116,0.580566,down
303257,8.027344,6.28125,-0.78125,-0.017578,-0.078125,-0.125,0.341003,0.735413,0.081482,0.579895,down
303262,8.027344,6.320312,-0.820312,-0.017578,-0.078125,-0.125,0.341248,0.735474,0.081604,0.57959,down
303267,8.023438,6.320312,-0.78125,-0.015625,-0.068359,-0.130859,0.341248,0.735474,0.081604,0.57959,down
303272,7.988281,6.359375,-0.820312,-0.015625,-0.068359,-0.130859,0.341736,0.735596,0.081848,0.579163,down
303278,7.984375,6.359375,-0.78125,-0.015625,-0.068359,-0.130859,0.342041,0.735596,0.081909,0.578918,down
303283,8.027344,6.28125,-0.78125,-0.080078,-0.046875,-0.128906,0.342041,0.735596,0.081909,0.578918,down
303288,8.027344,6.242187,-0.78125,-0.101563,-0.035156,-0.134766,0.342041,0.735596,0.081909,0.578918,down
303293,8.023438,6.203125,-0.820312,-0.101563,-0.035156,-0.134766,0.343201,0.735535,0.082092,0.578369,down
303299,8.097656,6.128906,-0.820312,-0.101563,-0.035156,-0.134766,0.343628,0.735413,0.082092,0.578186,down
303306,8.097656,6.128906,-0.820312,-0.121094,-0.035156,-0.125,0.343628,0.735413,0.082092,0.578186,down
303311,8.097656,6.164062,-0.898437,-0.126953,-0.025391,-0.128906,0.343628,0.735413,0.082092,0.578186,down
303316,8.023438,6.128906,-0.859375,-0.126953,-0.025391,-0.128906,0.345337,0.735107,0.082092,0.577576,down
303321,8.054688,6.128906,-0.9375,-0.126953,-0.025391,-0.128906,0.345337,0.735107,0.082092,0.577576,down
303327,8.023438,6.164062,-1.011719,-0.082031,-0.046875,-0.111328,0.346069,0.735046,0.082153,0.577271,down
303332,8.023438,6.203125,-1.011719,-0.082031,-0.046875,-0.111328,0.346069,0.735046,0.082153,0.577271,down
303337,8.058594,6.164062,-0.972656,0.009766,-0.083984,-0.115234,0.346069,0.735046,0.082153,0.577271,down
303342,8.027344,6.242187,-1.050781,0.009766,-0.083984,-0.115234,0.346741,0.735291,0.08252,0.576477,down
303347,7.984375,6.242187,-1.050781,0.009766,-0.083984,-0.115234,0.346802,0.735413,0.082703,0.576233,down
303352,7.949219,6.359375,-1.050781,0.009766,-0.083984,-0.115234,0.346863,0.735596,0.082947,0.575989,down
303357,7.945312,6.359375,-1.089844,0.009766,-0.083984,-0.115234,0.346863,0.735596,0.082947,0.575989,down
303362,7.945312,6.394531,-1.128906,0.087891,-0.066406,-0.115234,0.346985,0.73584,0.083435,0.5755,down
303368,7.871094,6.511719,-1.050781,0.087891,-0.066406,-0.115234,0.347046,0.735962,0.083679,0.575256,down
303374,7.828125,6.511719,-1.128906,0.017578,-0.046875,-0.101563,0.347168,0.736023,0.083801,0.575073,down
303381,7.75,6.472656,-1.128906,-0.027344,-0.03125,-0.097656,0.347168,0.736023,0.083801,0.575073,down
303386,7.789062,6.472656,-1.128906,-0.115234,-0.027344,-0.076172,0.347168,0.736023,0.083801,0.575073,down
303391,7.832031,6.433594,-1.128906,-0.115234,-0.027344,-0.076172,0.3479,0.735962,0.083984,0.574646,down
303397,7.792969,6.394531,-1.089844,-0.189453,-0.025391,-0.048828,0.3479,0.735962,0.083984,0.574646,down
303402,7.753906,6.203125,-1.011719,-0.189453,-0.025391,-0.048828,0.349121,0.735657,0.083435,0.574463,down
303407,7.753906,6.164062,-1.011719,-0.189453,-0.025391,-0.048828,0.349609,0.735474,0.08313,0.574402,down
303412,7.75,6.128906,-1.011719,-0.189453,-0.025391,-0.048828,0.349609,0.735474,0.08313,0.574402,down
303417,7.753906,6.089844,-1.050781,-0.193359,-0.007813,-0.015625,0.350342,0.735168,0.082581,0.574402,down
303422,7.714844,6.050781,-0.972656,-0.193359,-0.007813,-0.015625,0.350342,0.735168,0.082581,0.574402,down
303427,7.710937,6.011719,-0.9375,-0.101563,-0.015625,-0.017578,0.350708,0.735046,0.082336,0.574402,down
303432,7.710937,5.972656,-0.972656,-0.101563,-0.015625,-0.017578,0.351013,0.734985,0.082153,0.574341,down
303438,7.714844,5.898437,-0.9375,-0.101563,-0.015625,-0.017578,0.351379,0.734863,0.08197,0.57428,down
303444,7.75,5.859375,-0.898437,-0.101563,-0.015625,-0.017578,0.35144,0.734924,0.082031,0.574158,down
303451,7.710937,5.898437,-0.898437,0.052734,-0.015625,-0.074219,0.35144,0.734924,0.082031,0.574158,down
303456,7.671875,5.972656,-0.898437,0.074219,-0.007813,-0.087891,0.35144,0.734924,0.082031,0.574158,down
303461,7.671875,5.972656,-0.859375,0.085937,-0.007813,-0.101563,0.35144,0.734924,0.082031,0.574158,down
303466,7.640625,6.011719,-0.9375,0.085937,-0.007813,-0.101563,0.351501,0.735107,0.082886,0.57373,down
303472,7.640625,6.011719,-0.9375,0.060547,-0.011719,-0.101563,0.351501,0.735107,0.082886,0.57373,down
303477,7.671875,6.050781,-0.972656,0.060547,-0.011719,-0.101563,0.351685,0.735291,0.083679,0.573303,down
303482,7.601562,6.050781,-0.9375,-0.001953,-0.027344,-0.119141,0.351685,0.735291,0.083679,0.573303,down
303487,7.671875,6.050781,-0.9375,-0.033203,-0.03125,-0.119141,0.351868,0.735291,0.083862,0.57312,down
303492,7.601562,6.050781,-0.9375,-0.033203,-0.03125,-0.119141,0.352112,0.735291,0.084045,0.572998,down
303498,7.644531,5.972656,-0.898437,-0.033203,-0.03125,-0.119141,0.352722,0.735229,0.084229,0.572632,down
303503,7.714844,5.972656,-0.898437,-0.072266,-0.027344,-0.136719,0.353088,0.735168,0.084351,0.572449,down
303508,7.671875,5.972656,-0.859375,-0.072266,-0.027344,-0.136719,0.353394,0.735107,0.084473,0.572327,down
303514,7.714844,5.9375,-0.898437,-0.072266,-0.027344,-0.136719,0.35376,0.735046,0.084534,0.572144,down
303519,7.675781,6.011719,-0.820312,-0.0625,-0.023437,-0.146484,0.354126,0.734985,0.084717,0.572021,down
303525,7.644531,6.011719,-0.859375,-0.048828,-0.025391,-0.146484,0.354126,0.734985,0.084717,0.572021,down
303530,7.605469,6.089844,-0.820312,-0.048828,-0.025391,-0.146484,0.354797,0.734924,0.085022,0.571655,down
303536,7.644531,6.050781,-0.820312,-0.021484,-0.042969,-0.160156,0.354797,0.734924,0.085022,0.571655,down
303541,7.640625,6.089844,-0.820312,-0.007813,-0.064453,-0.158203,0.354797,0.734924,0.085022,0.571655,down
303547,7.640625,6.128906,-0.820312,0.005859,-0.080078,-0.146484,0.354797,0.734924,0.085022,0.571655,down
303552,7.644531,6.164062,-0.820312,0.023437,-0.09375,-0.138672,0.355896,0.735107,0.085754,0.570618,down
303557,7.675781,6.164062,-0.859375,0.023437,-0.09375,-0.138672,0.356079,0.735229,0.085999,0.570312,down
303563,7.675781,6.203125,-0.859375,-0.005859,-0.087891,-0.132812,0.356079,0.735229,0.085999,0.570312,down
303569,7.75,6.242187,-0.859375,-0.005859,-0.087891,-0.132812,0.35675,0.735535,0.086365,0.569458,down
303574,7.75,6.242187,-0.859375,-0.021484,-0.082031,-0.134766,0.356995,0.735596,0.086487,0.569153,down
303579,7.714844,6.28125,-0.9375,-0.021484,-0.082031,-0.134766,0.3573,0.735657,0.086609,0.568909,down
303584,7.75,6.320312,-0.972656,-0.021484,-0.082031,-0.134766,0.3573,0.735657,0.086609,0.568909,down
303589,7.792969,6.359375,-0.972656,-0.029297,-0.080078,-0.158203,0.3573,0.735657,0.086609,0.568909,down
303594,7.792969,6.359375,-0.972656,-0.019531,-0.078125,-0.164062,0.358215,0.73584,0.087097,0.568054,down
303600,7.75,6.320312,-0.9375,-0.019531,-0.078125,-0.164062,0.358215,0.73584,0.087097,0.568054,down
303606,7.710937,6.320312,-0.9375,-0.015625,-0.074219,-0.177734,0.358215,0.73584,0.087097,0.568054,down
303612,7.671875,6.359375,-0.972656,-0.013672,-0.070312,-0.189453,0.358215,0.73584,0.087097,0.568054,down
303617,7.675781,6.320312,-0.972656,-0.021484,-0.060547,-0.203125,0.358215,0.73584,0.087097,0.568054,down
303622,7.644531,6.394531,-0.972656,-0.021484,-0.060547,-0.203125,0.359863,0.736023,0.088318,0.566528,down
303628,7.644531,6.359375,-0.9375,-0.044922,-0.052734,-0.210937,0.359863,0.736023,0.088318,0.566528,down
303633,7.5625,6.394531,-0.9375,-0.044922,-0.052734,-0.210937,0.361084,0.735962,0.089111,0.565674,down
303638,7.5625,6.433594,-1.011719,-0.044922,-0.052734,-0.210937,0.36145,0.735962,0.089355,0.56543,down
303643,7.5625,6.550781,-1.011719,-0.044922,-0.052734,-0.210937,0.361816,0.736023,0.089661,0.565125,down
303648,7.601562,6.550781,-1.011719,-0.005859,-0.054687,-0.185547,0.362122,0.736023,0.089905,0.564819,down
303653,7.5625,6.585937,-0.972656,-0.005859,-0.054687,-0.185547,0.362427,0.736023,0.090149,0.564575,down
303658,7.5625,6.625,-1.011719,-0.005859,-0.054687,-0.185547,0.362671,0.736145,0.090454,0.56427,down
303663,7.5625,6.585937,-1.011719,0.023437,-0.072266,-0.160156,0.362671,0.736145,0.090454,0.56427,down
303668,7.527344,6.585937,-0.972656,0.023437,-0.072266,-0.160156,0.363098,0.736267,0.090942,0.563721,down
303673,7.527344,6.585937,-0.972656,0.019531,-0.078125,-0.148437,0.363342,0.736389,0.091125,0.563416,down
303678,7.5625,6.625,-0.972656,0.019531,-0.078125,-0.148437,0.363525,0.73645,0.091309,0.563171,down
303683,7.527344,6.585937,-0.9375,-0.021484,-0.068359,-0.140625,0.36377,0.736511,0.091492,0.562866,down
303688,7.523437,6.585937,-0.859375,-0.052734,-0.0625,-0.138672,0.364075,0.736511,0.091675,0.562622,down
303693,7.566406,6.550781,-0.898437,-0.052734,-0.0625,-0.138672,0.36438,0.736511,0.091736,0.562439,down
303698,7.488281,6.550781,-0.820312,-0.085937,-0.050781,-0.138672,0.364807,0.736511,0.091797,0.562195,down
303704,7.566406,6.511719,-0.820312,-0.101563,-0.042969,-0.144531,0.365173,0.73645,0.091919,0.562012,down
303709,7.601562,6.472656,-0.859375,-0.101563,-0.042969,-0.144531,0.365601,0.736328,0.09198,0.561829,down
303715,7.601562,6.433594,-0.820312,-0.101563,-0.042969,-0.144531,0.366028,0.736267,0.092041,0.561646,down
303721,7.605469,6.394531,-0.859375,-0.117188,-0.027344,-0.160156,0.366028,0.736267,0.092041,0.561646,down
303727,7.605469,6.433594,-0.859375,-0.119141,-0.029297,-0.160156,0.366028,0.736267,0.092041,0.561646,down
303732,7.605469,6.433594,-0.859375,-0.101563,-0.044922,-0.171875,0.366028,0.736267,0.092041,0.561646,down
303737,7.5625,6.359375,-0.820312,-0.056641,-0.054687,-0.177734,0.366028,0.736267,0.092041,0.561646,down
303742,7.605469,6.359375,-0.859375,-0.056641,-0.054687,-0.177734,0.368286,0.735901,0.09259,0.560608,down
303747,7.566406,6.433594,-0.859375,-0.056641,-0.054687,-0.177734,0.368652,0.735901,0.092834,0.560303,down
303752,7.484375,6.472656,-0.972656,-0.056641,-0.054687,-0.177734,0.368958,0.735901,0.093018,0.560059,down
303758,7.488281,6.511719,-0.898437,0.013672,-0.0625,-0.1875,0.368958,0.735901,0.093018,0.560059,down
303764,7.449219,6.585937,-0.898437,0.013672,-0.0625,-0.1875,0.369812,0.736023,0.093933,0.559143,down
303770,7.410156,6.664062,-0.9375,0.013672,-0.0625,-0.1875,0.370056,0.736084,0.094238,0.558899,down
303775,7.445312,6.703125,-0.972656,0.037109,-0.058594,-0.197266,0.3703,0.736145,0.094543,0.558594,down
303781,7.445312,6.703125,-0.972656,0.027344,-0.0625,-0.205078,0.3703,0.736145,0.094543,0.558594,down
303787,7.445312,6.742187,-0.972656,0.027344,-0.0625,-0.205078,0.3703,0.736145,0.094543,0.558594,down
303792,7.488281,6.703125,-0.972656,-0.013672,-0.046875,-0.228516,0.3703,0.736145,0.094543,0.558594,down
303798,7.523437,6.664062,-1.050781,-0.035156,-0.037109,-0.236328,0.3703,0.736145,0.094543,0.558594,down
303803,7.527344,6.664062,-1.011719,-0.035156,-0.037109,-0.236328,0.37262,0.736084,0.096619,0.556763,down
303808,7.527344,6.625,-0.972656,-0.035156,-0.037109,-0.236328,0.37262,0.736084,0.096619,0.556763,down
303813,7.488281,6.585937,-0.972656,-0.158203,-0.033203,-0.271484,0.37262,0.736084,0.096619,0.556763,down
303819,7.445312,6.472656,-0.898437,-0.158203,-0.033203,-0.271484,0.374512,0.735657,0.097351,0.555908,down
303824,7.367187,6.394531,-0.898437,-0.158203,-0.033203,-0.271484,0.375305,0.735474,0.097656,0.555603,down
303830,7.367187,6.394531,-0.898437,-0.132812,-0.044922,-0.255859,0.375305,0.735474,0.097656,0.555603,down
303835,7.367187,6.359375,-0.898437,-0.095703,-0.050781,-0.248047,0.375305,0.735474,0.097656,0.555603,down
303840,7.332031,6.433594,-0.9375,-0.095703,-0.050781,-0.248047,0.376953,0.735168,0.098328,0.554749,down
303846,7.328125,6.472656,-0.9375,0.003906,-0.058594,-0.230469,0.376953,0.735168,0.098328,0.554749,down
303852,7.292969,6.625,-1.011719,0.066406,-0.076172,-0.230469,0.376953,0.735168,0.098328,0.554749,down
303858,7.371094,6.777344,-1.128906,0.121094,-0.080078,-0.234375,0.37793,0.735596,0.100098,0.553223,down
303863,7.410156,6.816406,-1.164063,0.121094,-0.080078,-0.234375,0.37793,0.735596,0.100098,0.553223,down
303868,7.371094,6.855469,-1.164063,0.228516,-0.072266,-0.248047,0.37793,0.735596,0.100098,0.553223,down
303873,7.367187,6.894531,-1.164063,0.228516,-0.072266,-0.248047,0.377869,0.736328,0.102051,0.551941,down
303878,7.289062,6.894531,-1.203125,0.228516,-0.072266,-0.248047,0.377869,0.736328,0.102051,0.551941,down
303883,7.367187,6.894531,-1.164063,0.128906,-0.011719,-0.257813,0.377869,0.736511,0.102844,0.551514,down
303889,7.257812,6.816406,-1.203125,0.128906,-0.011719,-0.257813,0.378174,0.736633,0.104065,0.550903,down
303895,7.222656,6.664062,-1.164063,0.128906,-0.011719,-0.257813,0.378479,0.736572,0.104553,0.55072,down
303900,7.179687,6.585937,-1.050781,-0.091797,0.046875,-0.277344,0.378967,0.736389,0.105042,0.550537,down
303905,7.21875,6.511719,-1.050781,-0.154297,0.068359,-0.292969,0.378967,0.736389,0.105042,0.550537,down
303910,7.140625,6.242187,-1.050781,-0.154297,0.068359,-0.292969,0.378967,0.736389,0.105042,0.550537,down
303915,7.140625,6.242187,-1.050781,-0.207031,0.076172,-0.306641,0.378967,0.736389,0.105042,0.550537,down
303920,7.023437,6.089844,-0.9375,-0.207031,0.076172,-0.306641,0.378967,0.736389,0.105042,0.550537,down
303926,7.0625,6.011719,-0.898437,-0.136719,0.072266,-0.298828,0.378967,0.736389,0.105042,0.550537,down
303932,6.988281,6.011719,-0.859375,-0.136719,0.072266,-0.298828,0.378967,0.736389,0.105042,0.550537,down
303938,7.027344,6.089844,-0.898437,0.042969,0.111328,-0.263672,0.378967,0.736389,0.105042,0.550537,down
303943,7.101562,6.128906,-0.898437,0.132812,0.123047,-0.244141,0.383667,0.733948,0.109375,0.549622,down
303949,7.140625,6.242187,-0.898437,0.132812,0.123047,-0.244141,0.383423,0.733948,0.110413,0.549622,down
303954,7.105469,6.511719,-1.128906,0.132812,0.123047,-0.244141,0.382996,0.733948,0.11145,0.549683,down
303959,7.066406,6.550781,-1.164063,0.472656,0.261719,-0.21875,0.382996,0.733948,0.11145,0.549683,down
303964,7.023437,6.625,-1.164063,0.472656,0.261719,-0.21875,0.381775,0.734009,0.114014,0.549988,down
303969,7.027344,6.625,-1.128906,0.472656,0.261719,-0.21875,0.381165,0.734009,0.115479,0.55011,down
303975,6.988281,6.816406,-1.203125,0.472656,0.261719,-0.21875,0.380615,0.734009,0.117004,0.550232,down
303982,6.988281,6.816406,-1.203125,0.490234,0.314453,-0.380859,0.380615,0.734009,0.117004,0.550232,down
303987,7.023437,6.894531,-1.203125,0.490234,0.314453,-0.380859,0.380615,0.734009,0.117004,0.550232,down
303993,6.988281,6.855469,-1.164063,0.400391,0.298828,-0.46875,0.380615,0.734009,0.117004,0.550232,down
303998,6.988281,6.855469,-1.164063,0.34375,0.289063,-0.498047,0.379395,0.733459,0.123657,0.550293,down
304003,6.910156,6.855469,-1.203125,0.34375,0.289063,-0.498047,0.379395,0.733459,0.123657,0.550293,down
304008,6.910156,6.816406,-1.164063,0.263672,0.287109,-0.523437,0.379639,0.732849,0.126892,0.550171,down
304013,6.910156,6.816406,-1.164063,0.263672,0.287109,-0.523437,0.379639,0.732849,0.126892,0.550171,down
304018,6.949219,6.625,-1.050781,0.0,0.275391,-0.585937,0.379639,0.732849,0.126892,0.550171,down
304023,6.988281,6.625,-1.011719,-0.177734,0.300781,-0.634766,0.38147,0.731262,0.131042,0.549988,down
304028,6.945312,6.625,-1.011719,-0.177734,0.300781,-0.634766,0.382629,0.730469,0.132385,0.549988,down
304033,7.0625,6.550781,-0.972656,-0.345703,0.351563,-0.710937,0.383789,0.729614,0.133545,0.549988,down
304038,7.183594,6.472656,-0.898437,-0.345703,0.351563,-0.710937,0.385193,0.728638,0.134644,0.550049,down
304043,7.183594,6.472656,-0.859375,-0.433594,0.417969,-0.802734,0.386658,0.7276,0.135803,0.55011,down
304048,7.21875,6.472656,-0.78125,-0.433594,0.417969,-0.802734,0.388489,0.726318,0.137085,0.550232,down
304053,7.222656,6.433594,-0.78125,-0.443359,0.488281,-0.919922,0.39032,0.724976,0.138428,0.550354,down
304058,7.222656,6.433594,-0.78125,-0.412109,0.511719,-0.982422,0.39209,0.723633,0.139832,0.550537,down
304063,7.332031,6.585937,-0.9375,-0.412109,0.511719,-0.982422,0.393921,0.722229,0.141357,0.550598,down
304069,7.410156,6.703125,-0.9375,-0.34375,0.533203,-1.064453,0.397949,0.719238,0.145386,0.550659,down
304074,7.484375,6.816406,-1.011719,-0.205078,0.5625,-1.201172,0.399597,0.717896,0.147522,0.550598,down
304079,7.566406,7.046875,-1.011719,-0.117188,0.585937,-1.251953,0.401611,0.716309,0.150391,0.550415,down
304084,7.601562,7.238281,-1.011719,-0.117188,0.585937,-1.251953,0.403137,0.715088,0.152832,0.550232,down
304089,7.566406,7.546875,-0.972656,-0.117188,0.585937,-1.251953,0.404907,0.713623,0.156067,0.549927,down
304095,7.523437,7.734375,-1.011719,-0.117188,0.585937,-1.251953,0.406372,0.712402,0.158875,0.549683,down
304100,7.523437,7.933594,-1.050781,0.117188,0.638672,-1.402344,0.40802,0.710876,0.162537,0.549316,down
304105,7.601562,8.460938,-1.089844,0.117188,0.638672,-1.402344,0.409302,0.709717,0.165466,0.549011,down
304111,7.410156,8.921875,-1.164063,0.117188,0.638672,-1.402344,0.410828,0.708313,0.168701,0.548706,down
304117,7.21875,9.121094,-1.164063,0.013672,0.693359,-1.40625,0.410828,0.708313,0.168701,0.548706,down
304122,7.0625,9.152344,-1.089844,-0.068359,0.689453,-1.378906,0.410828,0.708313,0.168701,0.548706,down
304128,6.949219,9.460938,-0.898437,-0.152344,0.664062,-1.335938,0.410828,0.708313,0.168701,0.548706,down
304133,6.871094,9.574219,-0.859375,-0.244141,0.634766,-1.285156,0.410828,0.708313,0.168701,0.548706,down
304138,6.871094,9.726563,-0.820312,-0.441406,0.574219,-1.177734,0.410828,0.708313,0.168701,0.548706,down
304143,6.949219,9.886719,-0.707031,-0.441406,0.574219,-1.177734,0.421753,0.698425,0.185364,0.547729,down
304148,6.949219,9.886719,-0.707031,-0.441406,0.574219,-1.177734,0.426208,0.694763,0.188965,0.547668,down
304153,7.027344,10.035156,-0.667969,-0.441406,0.574219,-1.177734,0.426208,0.694763,0.188965,0.547668,down
304158,7.027344,10.113281,-0.667969,-0.771484,0.458984,-1.013672,0.426208,0.694763,0.188965,0.547668,down
304163,6.988281,10.113281,-0.589844,-0.771484,0.458984,-1.013672,0.431091,0.690979,0.19165,0.547729,down
304168,6.988281,10.113281,-0.628906,-0.771484,0.458984,-1.013672,0.433655,0.688965,0.19281,0.547791,down
304173,6.988281,10.113281,-0.667969,-0.847656,0.492187,-0.994141,0.433655,0.688965,0.19281,0.547791,down
304178,6.988281,10.113281,-0.667969,-0.892578,0.519531,-1.023438,0.438904,0.684814,0.194946,0.548096,down
304183,6.988281,9.992188,-0.554687,-0.947266,0.542969,-1.046875,0.441589,0.682556,0.196045,0.54834,down
304188,6.988281,9.992188,-0.554687,-1.019531,0.568359,-1.09375,0.441589,0.682556,0.196045,0.54834,down
304194,6.871094,9.953125,-0.515625,-1.019531,0.568359,-1.09375,0.44458,0.680115,0.197144,0.548584,down
304199,6.871094,9.953125,-0.515625,-1.205078,0.623047,-1.175781,0.450806,0.674927,0.199219,0.549133,down
304204,6.453125,9.425781,-0.09375,-1.205078,0.623047,-1.175781,0.457764,0.669006,0.201233,0.549866,down
304209,6.375,9.269531,0.058594,-1.382813,0.716797,-1.224609,0.457764,0.669006,0.201233,0.549866,down
304214,6.335937,9.121094,0.136719,-1.382813,0.716797,-1.224609,0.465088,0.662537,0.203186,0.550842,down
304220,6.03125,9.1875,0.289063,-1.382813,0.716797,-1.224609,0.468689,0.659241,0.204102,0.551453,down
304225,5.992187,9.148438,0.441406,-1.498047,0.853516,-1.203125,0.468689,0.659241,0.204102,0.551453,down
304230,5.914062,9.082031,0.480469,-1.517578,0.871094,-1.199219,0.468689,0.659241,0.204102,0.551453,down
304235,5.914062,9.082031,0.480469,-1.501953,0.929687,-1.199219,0.479736,0.648437,0.206848,0.553711,down
304241,5.492187,9.039063,0.558594,-1.501953,0.929687,-1.199219,0.483398,0.644592,0.207947,0.554626,down
304248,5.339844,9.082031,0.558594,-1.394531,1.050781,-1.236328,0.483398,0.644592,0.207947,0.554626,down
304253,5.226562,9.082031,0.519531,-1.232422,1.140625,-1.330078,0.483398,0.644592,0.207947,0.554626,down
304258,5.074219,9.082031,0.597656,-1.232422,1.140625,-1.330078,0.49353,0.633118,0.21228,0.557251,down
304264,4.996094,9.121094,0.632812,-1.099609,1.154297,-1.464844,0.49353,0.633118,0.21228,0.557251,down
304269,4.917969,9.304688,0.789062,-1.03125,1.173828,-1.527344,0.5,0.625427,0.216309,0.558655,down
304275,4.917969,9.304688,0.789062,-0.958984,1.203125,-1.591797,0.506042,0.618042,0.220947,0.55957,down
304280,4.917969,9.304688,0.789062,-0.958984,1.203125,-1.591797,0.506042,0.618042,0.220947,0.55957,down
304285,4.84375,9.464844,0.863281,-0.90625,1.230469,-1.646484,0.506042,0.618042,0.220947,0.55957,down
304290,4.496094,9.804688,1.019531,-0.910156,1.230469,-1.689453,0.512146,0.610413,0.226562,0.560181,down
304295,4.496094,9.804688,1.019531,-0.910156,1.230469,-1.689453,0.512146,0.610413,0.226562,0.560181,down
304300,4.34375,10.03125,1.246094,-1.054688,1.210938,-1.708984,0.521606,0.598572,0.234985,0.56073,down
304306,4.039062,9.996094,1.554688,-1.054688,1.210938,-1.708984,0.525024,0.594299,0.23761,0.560974,down
304311,3.921875,10.109375,1.554688,-1.054688,1.210938,-1.708984,0.52832,0.590088,0.239929,0.56134,down
304317,3.847656,10.109375,1.515625,-1.386719,1.271484,-1.578125,0.52832,0.590088,0.239929,0.56134,down
304322,3.65625,10.03125,1.4375,-1.544922,1.306641,-1.533203,0.52832,0.590088,0.239929,0.56134,down
304327,3.425781,9.886719,1.4375,-1.695313,1.304688,-1.462891,0.52832,0.590088,0.239929,0.56134,down
304332,3.425781,9.765625,1.59375,-1.808594,1.255859,-1.388672,0.52832,0.590088,0.239929,0.56134,down
304337,3.308594,9.804688,1.746094,-1.863281,1.212891,-1.326172,0.54657,0.565735,0.247986,0.56543,down
304342,3.273438,9.730469,1.820313,-1.841797,1.185547,-1.261719,0.54657,0.565735,0.247986,0.56543,down
304347,3.082031,9.6875,2.089844,-1.841797,1.185547,-1.261719,0.54657,0.565735,0.247986,0.56543,down
304352,3.042969,9.613281,2.128906,-1.841797,1.185547,-1.261719,0.55719,0.550903,0.250427,0.568604,down
304357,3.042969,9.5,2.207031,-1.605469,1.164063,-1.09375,0.55719,0.550903,0.250427,0.568604,down
304362,2.964844,9.425781,2.167969,-1.605469,1.164063,-1.09375,0.563354,0.541565,0.252136,0.570801,down
304367,2.734375,9.386719,2.320313,-1.605469,1.164063,-1.09375,0.563354,0.541565,0.252136,0.570801,down
304372,2.734375,9.460938,2.359375,-1.605469,1.164063,-1.09375,0.568481,0.533081,0.254028,0.572815,down
304378,2.734375,9.460938,2.359375,-1.238281,1.095703,-0.943359,0.570862,0.528992,0.255066,0.57373,down
304383,2.660156,9.464844,2.703125,-1.238281,1.095703,-0.943359,0.570862,0.528992,0.255066,0.57373,down
304388,2.660156,9.464844,2.703125,-1.169922,1.013672,-0.904297,0.575195,0.521667,0.257019,0.575317,down
304393,2.660156,9.464844,2.703125,-1.037109,0.921875,-0.808594,0.577209,0.518127,0.257935,0.57605,down
304398,2.46875,9.304688,3.125,-0.984375,0.941406,-0.761719,0.577209,0.518127,0.257935,0.57605,down
304403,2.390625,9.265625,3.046875,-0.984375,0.941406,-0.761719,0.580688,0.511658,0.259705,0.577515,down
304408,2.351563,9.191406,3.164063,-0.945312,0.947266,-0.644531,0.580688,0.511658,0.259705,0.577515,down
304414,2.277344,9.148438,3.203125,-0.976562,0.886719,-0.53125,0.580688,0.511658,0.259705,0.577515,down
304420,2.121094,8.960938,3.429688,-0.976562,0.886719,-0.53125,0.586609,0.499146,0.262512,0.581238,down
304425,2.121094,8.847656,3.507813,-1.019531,0.808594,-0.439453,0.588135,0.49585,0.262817,0.582336,down
304430,2.046875,8.925781,3.585938,-1.03125,0.757812,-0.419922,0.589539,0.492859,0.263062,0.583435,down
304435,2.085938,9.078125,3.699219,-1.03125,0.757812,-0.419922,0.590759,0.490295,0.263062,0.58429,down
304440,2.121094,9.117188,3.890625,-1.03125,0.757812,-0.419922,0.592224,0.487427,0.262939,0.585266,down
304445,2.160156,9.121094,4.082031,-1.083984,0.515625,-0.349609,0.593811,0.484619,0.262634,0.586182,down
304450,2.3125,9.1875,4.234375,-1.083984,0.515625,-0.349609,0.595337,0.481934,0.262146,0.586975,down
304455,2.351563,9.191406,4.3125,-1.083984,0.515625,-0.349609,0.596558,0.479919,0.26178,0.587585,down
304460,2.3125,9.148438,4.3125,-0.875,0.332031,-0.246094,0.597961,0.4776,0.261292,0.588318,down
304465,2.238281,9.230469,4.464844,-0.798828,0.234375,-0.181641,0.599121,0.475769,0.260681,0.588867,down
304470,2.238281,9.191406,4.503906,-0.798828,0.234375,-0.181641,0.600098,0.474182,0.26001,0.589417,down
304475,2.160156,9.082031,4.503906,-0.798828,0.234375,-0.181641,0.600891,0.473083,0.259338,0.589844,down
304480,2.121094,9.308594,4.425781,-0.681641,0.005859,0.056641,0.601746,0.471802,0.258179,0.590454,down
304485,2.046875,9.308594,4.351562,-0.673828,-0.0625,0.126953,0.602417,0.470886,0.25708,0.591003,down
304492,1.929688,9.226563,4.3125,-0.673828,-0.0625,0.126953,0.602966,0.470215,0.255859,0.591492,down
304498,1.894531,9.230469,4.3125,-0.689453,-0.273438,0.265625,0.602966,0.470215,0.255859,0.591492,down
304504,1.894531,9.148438,4.351562,-0.714844,-0.457031,0.384766,0.602966,0.470215,0.255859,0.591492,down
304509,1.929688,9.1875,4.351562,-0.714844,-0.457031,0.384766,0.605286,0.468933,0.247925,0.593567,down
304514,1.929688,9.1875,4.351562,-0.714844,-0.457031,0.384766,0.605286,0.468933,0.247925,0.593567,down
304519,1.96875,9.152344,4.273437,-0.824219,-0.652344,0.476562,0.605286,0.468933,0.247925,0.593567,down
304524,2.085938,9.042969,4.3125,-0.824219,-0.652344,0.476562,0.606506,0.468811,0.242798,0.594482,down
304529,2.199219,9.304688,4.273437,-0.824219,-0.652344,0.476562,0.607178,0.468872,0.239746,0.594971,down
304534,2.160156,8.808594,4.273437,-0.898437,-0.759766,0.523437,0.607178,0.468872,0.239746,0.594971,down
304539,2.160156,8.808594,4.273437,-0.943359,-0.802734,0.535156,0.608643,0.468994,0.233643,0.595825,down
304544,2.351563,8.539063,4.234375,-0.958984,-0.851562,0.570312,0.609375,0.469116,0.230347,0.596252,down
304550,2.351563,8.539063,4.234375,-0.994141,-0.882812,0.601562,0.610168,0.469238,0.226929,0.59668,down
304555,2.390625,8.421875,4.234375,-0.994141,-0.882812,0.601562,0.610901,0.46936,0.223267,0.597168,down
304560,2.390625,8.421875,4.234375,-0.970703,-0.904297,0.693359,0.612305,0.469666,0.216064,0.598145,down
304565,2.621094,7.855469,4.351562,-0.970703,-0.904297,0.693359,0.612793,0.470032,0.212341,0.598694,down
304570,2.660156,7.773437,4.542969,-0.699219,-0.921875,0.787109,0.613098,0.470642,0.208557,0.599243,down
304575,2.773438,7.699219,4.617187,-0.699219,-0.921875,0.787109,0.613098,0.471436,0.205627,0.59967,down
304580,2.890625,7.582031,4.695312,-0.699219,-0.921875,0.787109,0.612793,0.472595,0.202393,0.600159,down
304586,3.15625,7.429687,4.734375,-0.699219,-0.921875,0.787109,0.612122,0.474304,0.199036,0.600586,down
304591,3.234375,7.511719,4.617187,-0.027344,-0.978516,1.035156,0.611328,0.475952,0.196411,0.601013,down
304596,3.273438,7.578125,4.390625,0.144531,-0.923828,1.113281,0.610107,0.477966,0.193787,0.601501,down
304602,3.539063,7.238281,3.851563,0.144531,-0.923828,1.113281,0.608582,0.480103,0.191467,0.602051,down
304608,3.65625,7.316406,3.699219,0.318359,-0.720703,1.179688,0.608582,0.480103,0.191467,0.602051,down
304613,3.695313,7.511719,3.621094,0.427734,-0.707031,1.199219,0.608582,0.480103,0.191467,0.602051,down
304619,3.921875,7.699219,3.660156,0.427734,-0.707031,1.199219,0.602844,0.486755,0.185547,0.604309,down
304624,3.921875,7.816406,3.660156,0.535156,-0.605469,1.171875,0.602844,0.486755,0.185547,0.604309,down
304629,3.960938,7.894531,3.507813,0.535156,-0.605469,1.171875,0.59845,0.491577,0.182129,0.605835,down
304635,4.0,7.933594,3.125,0.513672,-0.53125,1.15625,0.59845,0.491577,0.182129,0.605835,down
304640,4.0,7.964844,3.203125,0.464844,-0.507812,1.087891,0.594238,0.495728,0.17926,0.607483,down
304645,4.152344,8.0,3.238281,0.464844,-0.507812,1.087891,0.590027,0.499817,0.176392,0.60907,down
304650,4.230469,7.964844,3.429688,0.464844,-0.507812,1.087891,0.588196,0.501587,0.175049,0.609741,down
304655,4.460937,7.894531,3.660156,0.464844,-0.507812,1.087891,0.586304,0.503479,0.173523,0.610474,down
304660,4.574219,7.773437,3.738281,0.394531,-0.529297,1.089844,0.586304,0.503479,0.173523,0.610474,down
304665,4.6875,7.773437,3.546875,0.345703,-0.476562,1.119141,0.584167,0.505493,0.171875,0.611267,down
304670,4.882812,7.660156,3.125,0.345703,-0.476562,1.119141,0.580322,0.508911,0.168762,0.612976,down
304675,4.957031,7.660156,3.164063,0.345703,-0.476562,1.119141,0.578369,0.510498,0.167114,0.613953,down
304680,5.148437,7.699219,3.238281,0.300781,-0.542969,1.326172,0.578369,0.510498,0.167114,0.613953,down
304685,5.300781,7.65625,3.277344,0.359375,-0.548828,1.378906,0.57605,0.51239,0.165039,0.615112,down
304691,5.300781,7.65625,3.277344,0.445312,-0.523437,1.431641,0.571472,0.516052,0.161194,0.61731,down
304696,5.648437,7.699219,3.164063,0.529297,-0.515625,1.492188,0.568542,0.518372,0.15918,0.618652,down
304701,5.722656,7.738281,3.125,0.529297,-0.515625,1.492188,0.568542,0.518372,0.15918,0.618652,down
304706,5.722656,7.695312,3.203125,0.773437,-0.572266,1.630859,0.565857,0.520386,0.157532,0.619812,down
304711,5.648437,7.546875,3.277344,0.773437,-0.572266,1.630859,0.565857,0.520386,0.157532,0.619812,down
304716,5.648437,7.546875,3.277344,0.773437,-0.572266,1.630859,0.565857,0.520386,0.157532,0.619812,down
304722,5.457031,7.433594,3.007813,0.998047,-0.621094,1.792969,0.551514,0.531616,0.150696,0.624878,down
304727,5.53125,7.578125,2.933594,0.998047,-0.621094,1.792969,0.54718,0.534973,0.148926,0.626282,down
304733,5.570312,7.695312,2.933594,1.162109,-0.714844,2.039063,0.54718,0.534973,0.148926,0.626282,down
304738,5.648437,7.773437,2.894531,1.152344,-0.757812,2.089844,0.54718,0.534973,0.148926,0.626282,down
304744,5.875,7.433594,2.855469,1.126953,-0.759766,2.140625,0.54718,0.534973,0.148926,0.626282,down
304749,5.914062,7.394531,2.816406,1.083984,-0.736328,2.167969,0.54718,0.534973,0.148926,0.626282,down
304754,5.914062,7.390625,2.78125,1.048828,-0.667969,2.207031,0.54718,0.534973,0.148926,0.626282,down
304760,5.953125,7.277344,2.816406,1.033203,-0.636719,2.236328,0.54718,0.534973,0.148926,0.626282,down
304765,5.914062,7.273437,2.894531,1.033203,-0.636719,2.236328,0.50946,0.561646,0.13147,0.63855,down
304770,6.03125,7.238281,2.972656,0.996094,-0.691406,2.306641,0.50946,0.561646,0.13147,0.63855,down
304775,6.144531,6.972656,3.007813,0.996094,-0.691406,2.306641,0.504578,0.564819,0.128967,0.640137,down
304780,6.335937,6.742187,2.816406,0.957031,-0.660156,2.320313,0.495178,0.570496,0.124023,0.643372,down
304785,6.375,6.667969,2.703125,0.900391,-0.498047,2.355469,0.495178,0.570496,0.124023,0.643372,down
304790,6.335937,6.589844,2.625,0.900391,-0.498047,2.355469,0.489868,0.573425,0.121277,0.645386,down
304795,6.488281,6.472656,2.625,1.023438,-0.445312,2.339844,0.489868,0.573425,0.121277,0.645386,down
304800,6.488281,6.320312,2.742188,1.023438,-0.445312,2.339844,0.480042,0.578491,0.116577,0.649109,down
304805,6.488281,6.320312,2.742188,1.179688,-0.421875,2.318359,0.474854,0.581177,0.114502,0.650879,down
304810,6.527344,6.320312,2.78125,1.179688,-0.421875,2.318359,0.469421,0.583923,0.112793,0.652649,down
304815,6.484375,6.242187,2.78125,1.523438,-0.320313,2.207031,0.469421,0.583923,0.112793,0.652649,down
304820,6.484375,6.242187,2.78125,1.695313,-0.351563,2.140625,0.457886,0.589783,0.110474,0.655945,down
304826,6.722656,6.242187,2.78125,1.695313,-0.351563,2.140625,0.444824,0.597046,0.109558,0.658508,down
304832,6.800781,6.472656,2.742188,1.695313,-0.351563,2.140625,0.439575,0.600037,0.109619,0.659302,down
304837,6.644531,6.667969,2.703125,1.695313,-0.351563,2.140625,0.433105,0.60376,0.109985,0.660095,down
304843,6.527344,6.816406,2.703125,2.34375,-0.496094,1.783203,0.433105,0.60376,0.109985,0.660095,down
304848,6.453125,6.929687,2.742188,2.402344,-0.585937,1.759766,0.433105,0.60376,0.109985,0.660095,down
304854,6.335937,6.667969,2.78125,2.402344,-0.585937,1.759766,0.41394,0.615479,0.111877,0.661316,down
304859,6.375,6.472656,2.664063,2.417969,-0.720703,1.736328,0.41394,0.615479,0.111877,0.661316,down
304864,6.335937,6.429687,2.550781,2.361328,-0.693359,1.751953,0.41394,0.615479,0.111877,0.661316,down
304869,6.261719,6.433594,2.050781,2.244141,-0.648437,1.796875,0.41394,0.615479,0.111877,0.661316,down
304874,6.375,6.46875,1.820313,2.244141,-0.648437,1.796875,0.38855,0.631287,0.113464,0.66156,down
304879,6.375,6.46875,1.820313,1.884766,-0.578125,1.894531,0.382568,0.634644,0.11322,0.661865,down
304885,6.566406,6.472656,1.707031,1.712891,-0.535156,1.90625,0.382568,0.634644,0.11322,0.661865,down
304891,6.988281,6.433594,1.4375,1.5625,-0.470703,1.890625,0.371033,0.640747,0.111816,0.662781,down
304896,6.988281,6.433594,1.4375,1.296875,-0.308594,1.787109,0.371033,0.640747,0.111816,0.662781,down
304901,6.796875,6.011719,1.363281,1.296875,-0.308594,1.787109,0.360474,0.645691,0.109924,0.664124,down
304906,6.683594,5.859375,1.4375,1.296875,-0.308594,1.787109,0.360474,0.645691,0.109924,0.664124,down
304911,6.605469,5.476562,1.667969,1.296875,-0.308594,1.787109,0.360474,0.645691,0.109924,0.664124,down
304916,6.605469,5.476562,1.667969,1.101563,-0.369141,1.451172,0.360474,0.645691,0.109924,0.664124,down
304921,6.605469,5.285156,1.746094,1.101563,-0.369141,1.451172,0.338013,0.655579,0.105286,0.666931,down
304927,6.457031,4.863281,1.820313,1.101563,-0.369141,1.451172,0.334534,0.657349,0.104614,0.667114,down
304932,6.523437,4.75,1.785156,1.029297,-0.492187,1.21875,0.334534,0.657349,0.104614,0.667114,down
304937,6.5625,4.671875,1.785156,0.994141,-0.546875,1.154297,0.334534,0.657349,0.104614,0.667114,down
304942,6.523437,4.558594,1.746094,0.994141,-0.546875,1.154297,0.323914,0.663391,0.102478,0.666687,down
304947,6.605469,4.328125,1.785156,0.994141,-0.546875,1.154297,0.320557,0.665649,0.101807,0.666199,down
304952,6.796875,4.328125,1.707031,0.953125,-0.746094,1.064453,0.320557,0.665649,0.101807,0.666199,down
304957,6.910156,4.25,1.554688,0.947266,-0.757812,1.029297,0.320557,0.665649,0.101807,0.666199,down
304963,7.292969,4.402344,1.171875,0.947266,-0.757812,1.029297,0.320557,0.665649,0.101807,0.666199,down
304969,7.449219,4.519531,1.019531,0.935547,-0.742187,0.982422,0.320557,0.665649,0.101807,0.666199,down
304975,7.601562,4.558594,0.941406,0.953125,-0.714844,0.912109,0.320557,0.665649,0.101807,0.666199,down
304980,7.675781,4.519531,0.828125,0.953125,-0.714844,0.912109,0.302002,0.678955,0.097595,0.661987,down
304985,7.710937,4.59375,0.789062,0.998047,-0.664062,0.878906,0.299072,0.68103,0.097168,0.661255,down
304990,7.710937,4.59375,0.789062,0.998047,-0.664062,0.878906,0.299072,0.68103,0.097168,0.661255,down
304995,7.675781,4.632812,0.710937,1.050781,-0.583984,0.794922,0.299072,0.68103,0.097168,0.661255,down
305000,7.566406,4.558594,0.828125,1.054688,-0.595703,0.755859,0.290161,0.686951,0.096802,0.65918,down
305005,7.488281,4.558594,0.941406,1.021484,-0.595703,0.708984,0.284607,0.690735,0.096802,0.657654,down
305010,7.449219,4.558594,1.019531,1.021484,-0.595703,0.708984,0.284607,0.690735,0.096802,0.657654,down
305015,7.179687,4.632812,1.09375,0.908203,-0.587891,0.634766,0.284607,0.690735,0.096802,0.657654,down
305021,7.023437,4.59375,1.132813,0.8125,-0.660156,0.613281,0.284607,0.690735,0.096802,0.657654,down
305026,7.027344,4.402344,1.054688,0.8125,-0.660156,0.613281,0.27478,0.698181,0.096313,0.654053,down
305031,7.144531,4.289062,0.980469,0.8125,-0.660156,0.613281,0.272949,0.699768,0.096008,0.653137,down
305036,7.40625,4.402344,0.75,0.8125,-0.660156,0.613281,0.270752,0.701904,0.09552,0.651855,down
305042,7.949219,4.710937,0.367188,0.8125,-0.660156,0.613281,0.269043,0.703674,0.094971,0.650696,down
305047,8.171875,4.863281,0.175781,0.490234,-0.896484,0.560547,0.269043,0.703674,0.094971,0.650696,down
305052,8.476563,4.976562,-0.015625,0.490234,-0.896484,0.560547,0.26593,0.707458,0.093445,0.648132,down
305058,8.710938,5.171875,-0.246094,0.490234,-0.896484,0.560547,0.264771,0.709229,0.092468,0.64679,down
305065,8.863281,4.785156,-0.054687,0.236328,-0.802734,0.392578,0.264771,0.709229,0.092468,0.64679,down
305070,8.898438,4.632812,0.058594,0.238281,-0.785156,0.326172,0.262939,0.712402,0.090759,0.644287,down
305075,8.832031,4.59375,0.058594,0.238281,-0.785156,0.326172,0.262268,0.713745,0.090149,0.643127,down
305080,8.597656,4.519531,0.023437,0.236328,-0.5,0.179687,0.262268,0.713745,0.090149,0.643127,down
305086,8.289063,4.328125,0.214844,0.236328,-0.5,0.179687,0.260986,0.716125,0.089355,0.641174,down
305091,8.253906,4.328125,0.289063,0.09375,-0.484375,0.164062,0.260437,0.717163,0.088989,0.640259,down
305096,8.214844,4.328125,0.25,0.011719,-0.476562,0.167969,0.26001,0.718079,0.088562,0.639404,down
305102,8.328125,4.289062,0.097656,0.011719,-0.476562,0.167969,0.259705,0.719604,0.087524,0.638,down
305108,8.09375,4.367187,0.136719,0.011719,-0.476562,0.167969,0.259583,0.720398,0.086914,0.637268,down
305113,8.027344,4.289062,0.289063,0.044922,-0.556641,0.146484,0.259583,0.720398,0.086914,0.637268,down
305119,8.171875,4.210937,0.289063,0.111328,-0.642578,0.142578,0.259583,0.720398,0.086914,0.637268,down
305125,8.367188,4.328125,-0.054687,0.111328,-0.642578,0.142578,0.259583,0.720398,0.086914,0.637268,down
305130,8.328125,4.480469,-0.132812,0.111328,-0.642578,0.142578,0.258484,0.724792,0.084839,0.632935,down
305136,8.410156,4.710937,-0.246094,0.230469,-0.695312,0.082031,0.258484,0.724792,0.084839,0.632935,down
305141,8.671875,4.824219,-0.554687,0.230469,-0.695312,0.082031,0.257385,0.728455,0.083984,0.629333,down
305146,8.714844,4.902344,-0.589844,0.230469,-0.695312,0.082031,0.25708,0.729736,0.083923,0.627991,down
305151,8.714844,4.941406,-0.515625,0.230469,-0.695312,0.082031,0.25708,0.729736,0.083923,0.627991,down
305156,8.710938,4.863281,-0.515625,0.244141,-0.533203,-0.160156,0.25708,0.729736,0.083923,0.627991,down
305161,8.753906,4.902344,-0.4375,0.244141,-0.533203,-0.160156,0.256775,0.732605,0.084595,0.624695,down
305166,8.828125,4.863281,-0.398438,0.142578,-0.412109,-0.261719,0.256775,0.732605,0.084595,0.624695,down
305171,8.898438,4.785156,-0.4375,0.050781,-0.345703,-0.283203,0.257019,0.733459,0.085083,0.623535,down
305176,8.898438,4.785156,-0.476562,0.050781,-0.345703,-0.283203,0.257874,0.734436,0.085754,0.621948,down
305181,8.902344,4.785156,-0.554687,0.050781,-0.345703,-0.283203,0.258606,0.734619,0.085815,0.621338,down
305186,8.671875,4.75,-0.4375,0.050781,-0.345703,-0.283203,0.258606,0.734619,0.085815,0.621338,down
305191,8.558594,4.632812,-0.324219,-0.496094,-0.208984,-0.21875,0.258606,0.734619,0.085815,0.621338,down
305196,8.449219,4.441406,-0.4375,-0.496094,-0.208984,-0.21875,0.260864,0.73468,0.085266,0.620422,down
305202,8.449219,4.441406,-0.4375,-0.541016,-0.201172,-0.167969,0.263489,0.734558,0.084106,0.619629,down
305207,8.328125,4.480469,-0.476562,-0.515625,-0.246094,-0.144531,0.264893,0.734497,0.083313,0.619202,down
305212,8.367188,4.519531,-0.398438,-0.515625,-0.246094,-0.144531,0.266113,0.734558,0.082642,0.618713,down
305217,8.445313,4.558594,-0.589844,-0.515625,-0.246094,-0.144531,0.26709,0.734619,0.082092,0.618286,down
305222,8.515625,4.59375,-0.667969,-0.304688,-0.216797,-0.179687,0.268127,0.734741,0.081665,0.617737,down
305228,8.519531,4.824219,-0.667969,-0.304688,-0.216797,-0.179687,0.26886,0.734802,0.081543,0.617371,down
305233,8.410156,4.902344,-0.667969,-0.304688,-0.216797,-0.179687,0.269653,0.734863,0.081604,0.616943,down
305239,8.515625,4.902344,-0.820312,-0.304688,-0.216797,-0.179687,0.269653,0.734863,0.081604,0.616943,down
305244,8.636719,4.863281,-0.820312,-0.056641,0.09375,-0.447266,0.269653,0.734863,0.081604,0.616943,down
305250,8.859375,4.824219,-0.859375,-0.097656,0.21875,-0.533203,0.269653,0.734863,0.081604,0.616943,down
305256,8.9375,4.785156,-0.898437,-0.214844,0.345703,-0.636719,0.269653,0.734863,0.081604,0.616943,down
305261,8.792969,4.710937,-0.746094,-0.576172,0.519531,-0.814453,0.269653,0.734863,0.081604,0.616943,down
305266,8.214844,4.328125,-0.246094,-0.576172,0.519531,-0.814453,0.276672,0.731262,0.086548,0.617432,down
305272,7.710937,4.019531,0.289063,-0.576172,0.519531,-0.814453,0.281738,0.728394,0.088135,0.618347,down
305277,7.710937,4.019531,0.289063,-0.863281,0.361328,-0.863281,0.284546,0.726929,0.088684,0.618652,down
305282,7.605469,3.984375,0.328125,-0.861328,0.263672,-0.808594,0.287598,0.725525,0.089172,0.618835,down
305288,7.484375,4.785156,0.023437,-0.861328,0.263672,-0.808594,0.290039,0.724548,0.089417,0.618774,down
305294,7.640625,5.054687,-0.054687,-0.701172,0.048828,-0.707031,0.290039,0.724548,0.089417,0.618774,down
305299,7.792969,5.398437,-0.09375,-0.570312,-0.027344,-0.677734,0.290039,0.724548,0.089417,0.618774,down
305304,8.136719,5.667969,-0.09375,-0.398438,-0.078125,-0.666016,0.290039,0.724548,0.089417,0.618774,down
305310,8.175781,5.78125,-0.132812,-0.222656,-0.083984,-0.679687,0.290039,0.724548,0.089417,0.618774,down
305315,8.25,5.898437,-0.207031,-0.033203,-0.066406,-0.710937,0.290039,0.724548,0.089417,0.618774,down
305320,8.25,5.898437,-0.207031,0.121094,-0.037109,-0.730469,0.30072,0.722168,0.093323,0.615906,down
305325,8.210938,6.050781,-0.246094,0.121094,-0.037109,-0.730469,0.30072,0.722168,0.093323,0.615906,down
305331,8.210938,6.164062,-0.207031,0.197266,0.042969,-0.791016,0.30072,0.722168,0.093323,0.615906,down
305336,8.210938,6.164062,-0.207031,-0.173828,0.097656,-0.792969,0.30072,0.722168,0.093323,0.615906,down
305341,7.945312,6.203125,0.175781,-0.449219,0.115234,-0.767578,0.304688,0.721558,0.099731,0.613708,down
305346,7.945312,6.050781,0.25,-0.449219,0.115234,-0.767578,0.306519,0.720886,0.100769,0.613342,down
305351,7.988281,5.972656,0.214844,-0.966797,0.126953,-0.732422,0.308899,0.720032,0.101379,0.613098,down
305356,8.023438,5.898437,0.175781,-0.966797,0.126953,-0.732422,0.311523,0.718994,0.101501,0.612976,down
305361,8.097656,5.898437,0.097656,-0.966797,0.126953,-0.732422,0.317383,0.716736,0.100891,0.612732,down
305366,8.09375,5.859375,0.175781,-0.966797,0.126953,-0.732422,0.317383,0.716736,0.100891,0.612732,down
305371,8.054688,5.898437,0.214844,-1.154297,-0.0625,-0.75,0.317383,0.716736,0.100891,0.612732,down
305376,8.054688,5.9375,0.175781,-1.154297,-0.0625,-0.75,0.324036,0.714417,0.099792,0.612122,down
305381,7.871094,6.011719,0.214844,-1.154297,-0.0625,-0.75,0.327271,0.71344,0.099365,0.611572,down
305386,7.90625,5.972656,0.289063,-0.707031,-0.224609,-0.798828,0.330383,0.712646,0.099182,0.610901,down
305391,7.984375,6.011719,0.25,-0.707031,-0.224609,-0.798828,0.333008,0.712097,0.099182,0.610046,down
305396,8.171875,6.28125,0.097656,-0.707031,-0.224609,-0.798828,0.335388,0.711731,0.099487,0.609131,down
305402,8.175781,6.433594,0.023437,-0.357422,-0.263672,-0.832031,0.339233,0.711548,0.10083,0.606995,down
305407,8.292969,6.511719,0.023437,-0.164062,-0.263672,-0.857422,0.341064,0.711548,0.101868,0.605774,down
305412,8.332031,6.816406,-0.132812,-0.164062,-0.263672,-0.857422,0.342773,0.711609,0.102966,0.604614,down
305417,8.410156,6.855469,-0.207031,-0.160156,-0.216797,-0.837891,0.342773,0.711609,0.102966,0.604614,down
305422,8.449219,6.933594,-0.207031,-0.160156,-0.216797,-0.837891,0.346069,0.711487,0.105042,0.602478,down
305427,8.449219,7.007812,-0.246094,-0.332031,-0.169922,-0.791016,0.347778,0.711304,0.105896,0.601562,down
305432,8.328125,7.085937,-0.207031,-0.332031,-0.169922,-0.791016,0.349548,0.71106,0.106445,0.600769,down
305437,8.09375,7.085937,-0.4375,-0.605469,-0.126953,-0.736328,0.351746,0.710571,0.106873,0.599976,down
305443,7.714844,7.085937,-0.363281,-0.605469,-0.126953,-0.736328,0.353882,0.710022,0.107056,0.599304,down
305448,7.566406,7.085937,-0.324219,-0.789062,-0.175781,-0.677734,0.353882,0.710022,0.107056,0.599304,down
305453,7.523437,7.125,-0.324219,-0.789062,-0.175781,-0.677734,0.353882,0.710022,0.107056,0.599304,down
305458,7.484375,7.085937,-0.324219,-0.818359,-0.279297,-0.666016,0.353882,0.710022,0.107056,0.599304,down
305463,7.484375,7.046875,-0.285156,-0.791016,-0.345703,-0.666016,0.353882,0.710022,0.107056,0.599304,down
305469,7.601562,7.007812,-0.285156,-0.791016,-0.345703,-0.666016,0.366333,0.707458,0.105896,0.595032,down
305474,7.675781,7.007812,-0.324219,-0.699219,-0.439453,-0.681641,0.366333,0.707458,0.105896,0.595032,down
305480,7.792969,6.96875,-0.285156,-0.644531,-0.470703,-0.691406,0.366333,0.707458,0.105896,0.595032,down
305485,7.75,7.046875,-0.285156,-0.644531,-0.470703,-0.691406,0.373657,0.707031,0.105225,0.591125,down
305490,7.828125,6.96875,-0.324219,-0.644531,-0.470703,-0.691406,0.373657,0.707031,0.105225,0.591125,down
305495,7.949219,6.96875,-0.324219,-0.644531,-0.470703,-0.691406,0.377563,0.707031,0.105286,0.588562,down
305501,8.027344,7.046875,-0.4375,-0.4375,-0.400391,-0.699219,0.377563,0.707031,0.105286,0.588562,down
305506,8.054688,7.160156,-0.515625,-0.4375,-0.400391,-0.699219,0.383484,0.707092,0.105774,0.584656,down
305511,8.023438,7.277344,-0.476562,-0.4375,-0.400391,-0.699219,0.383484,0.707092,0.105774,0.584656,down
305516,7.910156,7.238281,-0.476562,-0.521484,-0.302734,-0.667969,0.383484,0.707092,0.105774,0.584656,down
305521,7.910156,7.238281,-0.476562,-0.521484,-0.302734,-0.667969,0.38739,0.706787,0.106079,0.582336,down
305526,7.605469,7.160156,-0.515625,-0.521484,-0.302734,-0.667969,0.38739,0.706787,0.106079,0.582336,down
305531,7.523437,7.160156,-0.554687,-0.521484,-0.269531,-0.626953,0.391235,0.706238,0.106262,0.580383,down
305536,7.523437,7.160156,-0.554687,-0.521484,-0.269531,-0.626953,0.391235,0.706238,0.106262,0.580383,down
305541,7.101562,7.511719,-0.554687,-0.496094,-0.310547,-0.548828,0.391235,0.706238,0.106262,0.580383,down
305546,7.140625,7.507812,-0.515625,-0.496094,-0.310547,-0.548828,0.396667,0.705505,0.106384,0.577576,down
305552,7.179687,7.621094,-0.554687,-0.498047,-0.328125,-0.513672,0.396667,0.705505,0.106384,0.577576,down
305557,7.257812,7.617187,-0.554687,-0.498047,-0.328125,-0.513672,0.401978,0.705017,0.106018,0.574585,down
305562,7.257812,7.617187,-0.515625,-0.498047,-0.328125,-0.513672,0.403564,0.704834,0.105896,0.57373,down
305567,7.371094,7.582031,-0.363281,-0.457031,-0.308594,-0.5,0.403564,0.704834,0.105896,0.57373,down
305572,7.371094,7.578125,-0.324219,-0.439453,-0.291016,-0.496094,0.405273,0.704712,0.105774,0.572693,down
305577,7.371094,7.507812,-0.285156,-0.439453,-0.291016,-0.496094,0.408325,0.704346,0.105652,0.570984,down
305582,7.332031,7.550781,-0.285156,-0.474609,-0.226562,-0.492187,0.408325,0.704346,0.105652,0.570984,down
305587,7.257812,7.550781,-0.246094,-0.501953,-0.1875,-0.466797,0.410095,0.704102,0.105591,0.570068,down
305593,7.179687,7.578125,-0.207031,-0.501953,-0.1875,-0.466797,0.413208,0.703369,0.105408,0.568726,down
305598,6.871094,7.578125,-0.015625,-0.501953,-0.1875,-0.466797,0.414734,0.702942,0.105286,0.568176,down
305603,6.71875,7.550781,0.023437,-0.544922,-0.128906,-0.4375,0.414734,0.702942,0.105286,0.568176,down
305608,6.679687,7.511719,0.058594,-0.513672,-0.117188,-0.417969,0.414734,0.702942,0.105286,0.568176,down
305613,6.679687,7.511719,0.023437,-0.513672,-0.117188,-0.417969,0.419495,0.701477,0.104919,0.566528,down
305618,6.605469,7.546875,0.058594,-0.513672,-0.117188,-0.417969,0.420898,0.701111,0.104858,0.565979,down
305624,6.453125,7.550781,0.175781,-0.513672,-0.117188,-0.417969,0.42218,0.700745,0.104858,0.56543,down
305629,6.453125,7.578125,0.214844,-0.408203,-0.175781,-0.388672,0.42218,0.700745,0.104858,0.56543,down
305634,6.414062,7.582031,0.175781,-0.388672,-0.199219,-0.382813,0.42218,0.700745,0.104858,0.56543,down
305640,6.488281,7.582031,0.175781,-0.376953,-0.238281,-0.376953,0.42218,0.700745,0.104858,0.56543,down
305645,6.527344,7.582031,0.175781,-0.369141,-0.271484,-0.380859,0.42218,0.700745,0.104858,0.56543,down
305651,6.679687,7.507812,0.214844,-0.369141,-0.271484,-0.380859,0.42218,0.700745,0.104858,0.56543,down
305656,6.71875,7.511719,0.214844,-0.375,-0.326172,-0.386719,0.42218,0.700745,0.104858,0.56543,down
305661,6.71875,7.511719,0.214844,-0.425781,-0.339844,-0.390625,0.42218,0.700745,0.104858,0.56543,down
305666,6.679687,7.550781,0.214844,-0.425781,-0.339844,-0.390625,0.432556,0.699585,0.103638,0.559265,down
305671,6.605469,7.511719,0.175781,-0.425781,-0.339844,-0.390625,0.434021,0.699402,0.103333,0.55835,down
305677,6.566406,7.433594,0.214844,-0.484375,-0.294922,-0.390625,0.434021,0.699402,0.103333,0.55835,down
305682,6.335937,7.433594,0.25,-0.505859,-0.271484,-0.386719,0.434021,0.699402,0.103333,0.55835,down
305688,6.335937,7.46875,0.289063,-0.505859,-0.271484,-0.386719,0.440125,0.698364,0.10199,0.555115,down
305693,6.296875,7.390625,0.25,-0.513672,-0.271484,-0.373047,0.441589,0.698059,0.101624,0.554382,down
305698,6.375,7.394531,0.25,-0.517578,-0.298828,-0.380859,0.443115,0.697815,0.101257,0.553589,down
305703,6.375,7.433594,0.289063,-0.517578,-0.298828,-0.380859,0.444397,0.697632,0.100891,0.552856,down
305708,6.414062,7.429687,0.214844,-0.517578,-0.298828,-0.380859,0.446106,0.697388,0.100464,0.55188,down
305713,6.414062,7.433594,0.289063,-0.443359,-0.365234,-0.408203,0.44751,0.697205,0.100159,0.550964,down
305719,6.488281,7.433594,0.289063,-0.443359,-0.365234,-0.408203,0.448853,0.697144,0.099915,0.550049,down
305724,6.644531,7.351562,0.289063,-0.443359,-0.365234,-0.408203,0.450256,0.697083,0.09967,0.549011,down
305729,6.71875,7.394531,0.25,-0.40625,-0.404297,-0.451172,0.450256,0.697083,0.09967,0.549011,down
305734,6.757812,7.429687,0.136719,-0.408203,-0.421875,-0.458984,0.450256,0.697083,0.09967,0.549011,down
305740,6.796875,7.433594,0.136719,-0.416016,-0.414062,-0.458984,0.450256,0.697083,0.09967,0.549011,down
305745,6.796875,7.394531,0.136719,-0.4375,-0.40625,-0.478516,0.450256,0.697083,0.09967,0.549011,down
305751,6.71875,7.355469,0.097656,-0.464844,-0.382813,-0.5,0.450256,0.697083,0.09967,0.549011,down
305756,6.605469,7.3125,0.136719,-0.464844,-0.382813,-0.5,0.459412,0.696777,0.098267,0.542053,down
305762,6.335937,7.273437,0.136719,-0.464844,-0.382813,-0.5,0.462463,0.696411,0.097961,0.539978,down
305767,6.183594,7.234375,0.214844,-0.464844,-0.382813,-0.5,0.462463,0.696411,0.097961,0.539978,down
305772,6.105469,7.277344,0.214844,-0.412109,-0.355469,-0.542969,0.465576,0.696106,0.0979,0.537659,down
305777,6.144531,7.3125,0.175781,-0.412109,-0.355469,-0.542969,0.465576,0.696106,0.0979,0.537659,down
305782,6.144531,7.433594,0.175781,-0.296875,-0.419922,-0.533203,0.465576,0.696106,0.0979,0.537659,down
305787,6.183594,7.550781,0.058594,-0.296875,-0.419922,-0.533203,0.468506,0.696167,0.097961,0.535034,down
305792,6.183594,7.65625,0.097656,-0.296875,-0.419922,-0.533203,0.469788,0.696289,0.097961,0.533752,down
305797,6.222656,7.777344,0.097656,-0.296875,-0.419922,-0.533203,0.471069,0.696472,0.098022,0.53241,down
305802,6.222656,7.777344,0.097656,-0.224609,-0.494141,-0.523437,0.472229,0.696716,0.098022,0.531067,down
305807,6.296875,7.816406,0.023437,-0.224609,-0.494141,-0.523437,0.473389,0.69696,0.098083,0.529602,down
305812,6.566406,7.894531,-0.054687,-0.263672,-0.523437,-0.523437,0.47467,0.697205,0.098022,0.528198,down
305817,6.566406,7.894531,-0.054687,-0.263672,-0.523437,-0.523437,0.47467,0.697205,0.098022,0.528198,down
305822,6.605469,7.894531,-0.054687,-0.314453,-0.535156,-0.529297,0.479004,0.697632,0.097473,0.523804,down
305827,6.644531,7.734375,-0.015625,-0.314453,-0.535156,-0.529297,0.479004,0.697632,0.097473,0.523804,down
305832,6.566406,7.699219,0.058594,-0.314453,-0.535156,-0.529297,0.480835,0.697571,0.097107,0.522217,down
305837,6.566406,7.621094,-0.015625,-0.314453,-0.535156,-0.529297,0.482666,0.697388,0.09668,0.520874,down
305843,6.527344,7.511719,-0.015625,-0.623047,-0.433594,-0.537109,0.48645,0.696777,0.095947,0.518372,down
305848,6.414062,7.507812,0.058594,-0.623047,-0.433594,-0.537109,0.488281,0.696411,0.095581,0.517151,down
305853,6.261719,7.433594,0.097656,-0.550781,-0.394531,-0.585937,0.490356,0.696045,0.095337,0.515808,down
305858,6.222656,7.472656,0.175781,-0.550781,-0.394531,-0.585937,0.491882,0.695801,0.095215,0.514648,down
305863,6.03125,7.65625,0.214844,-0.550781,-0.394531,-0.585937,0.49353,0.695679,0.095215,0.513184,down
305870,6.03125,7.777344,0.175781,-0.550781,-0.394531,-0.585937,0.494873,0.69574,0.095276,0.511841,down
305875,6.070312,7.851562,0.214844,-0.210937,-0.480469,-0.585937,0.494873,0.69574,0.095276,0.511841,down
305880,6.105469,7.851562,0.214844,-0.183594,-0.494141,-0.582031,0.494873,0.69574,0.095276,0.511841,down
305885,6.296875,7.933594,0.136719,-0.183594,-0.494141,-0.582031,0.498535,0.696411,0.095703,0.507263,down
305890,6.335937,7.960937,0.136719,-0.164062,-0.521484,-0.572266,0.498535,0.696411,0.095703,0.507263,down
305895,6.375,8.039063,0.058594,-0.199219,-0.527344,-0.5625,0.498535,0.696411,0.095703,0.507263,down
305900,6.414062,8.117188,0.058594,-0.253906,-0.519531,-0.556641,0.498535,0.696411,0.095703,0.507263,down
305905,6.566406,8.042969,0.023437,-0.253906,-0.519531,-0.556641,0.498535,0.696411,0.095703,0.507263,down
305911,6.527344,7.964844,0.058594,-0.445312,-0.472656,-0.554687,0.498535,0.696411,0.095703,0.507263,down
305916,6.527344,8.0,0.058594,-0.53125,-0.429687,-0.556641,0.498535,0.696411,0.095703,0.507263,down
305922,6.375,7.933594,0.058594,-0.566406,-0.416016,-0.560547,0.498535,0.696411,0.095703,0.507263,down
305927,6.375,7.929687,0.136719,-0.566406,-0.416016,-0.560547,0.510193,0.696533,0.095032,0.495483,down
305933,6.335937,7.964844,0.175781,-0.544922,-0.4375,-0.589844,0.510193,0.696533,0.095032,0.495483,down
305938,6.261719,7.929687,0.175781,-0.544922,-0.4375,-0.589844,0.515747,0.695557,0.09436,0.491211,down
305944,6.105469,8.039063,0.097656,-0.544922,-0.4375,-0.589844,0.517334,0.695374,0.094177,0.489807,down
305949,6.105469,8.121094,0.058594,-0.384766,-0.503906,-0.582031,0.517334,0.695374,0.094177,0.489807,down
305954,6.070312,8.199219,0.136719,-0.320313,-0.527344,-0.582031,0.517334,0.695374,0.094177,0.489807,down
305960,6.070312,8.273438,0.097656,-0.320313,-0.527344,-0.582031,0.521729,0.695435,0.093872,0.485107,down
305965,5.992187,8.273438,0.058594,-0.277344,-0.546875,-0.572266,0.521729,0.695435,0.093872,0.485107,down
305970,5.992187,8.277344,0.097656,-0.283203,-0.533203,-0.576172,0.521729,0.695435,0.093872,0.485107,down
305975,5.914062,8.199219,0.175781,-0.283203,-0.533203,-0.576172,0.525879,0.695923,0.093689,0.47998,down
305981,5.800781,8.234375,0.175781,-0.3125,-0.521484,-0.572266,0.525879,0.695923,0.093689,0.47998,down
305986,5.722656,8.238281,0.175781,-0.330078,-0.494141,-0.566406,0.525879,0.695923,0.093689,0.47998,down
305992,5.492187,8.347656,0.214844,-0.373047,-0.478516,-0.576172,0.525879,0.695923,0.093689,0.47998,down
305997,5.417969,8.425781,0.214844,-0.373047,-0.478516,-0.576172,0.531311,0.695923,0.093384,0.473999,down
306003,5.339844,8.382813,0.214844,-0.410156,-0.46875,-0.574219,0.531311,0.695923,0.093384,0.473999,down
306009,5.1875,8.503906,0.175781,-0.410156,-0.46875,-0.574219,0.53595,0.695557,0.093018,0.46936,down
306014,5.265625,8.582031,0.097656,-0.410156,-0.46875,-0.574219,0.537231,0.695496,0.092957,0.468018,down
306019,5.265625,8.582031,0.097656,-0.291016,-0.513672,-0.554687,0.538635,0.695557,0.092834,0.46637,down
306025,5.265625,8.65625,0.058594,-0.291016,-0.513672,-0.554687,0.539734,0.695679,0.092773,0.464905,down
306030,5.300781,8.734375,0.023437,-0.291016,-0.513672,-0.554687,0.540955,0.695862,0.092712,0.463257,down
306035,5.339844,8.769531,-0.015625,-0.199219,-0.544922,-0.525391,0.540955,0.695862,0.092712,0.463257,down
306040,5.339844,8.769531,-0.015625,-0.177734,-0.550781,-0.523437,0.543152,0.696289,0.092651,0.459961,down
306045,5.339844,8.882813,-0.054687,-0.164062,-0.558594,-0.511719,0.544128,0.696594,0.09259,0.458374,down
306050,5.339844,8.882813,-0.054687,-0.164062,-0.558594,-0.511719,0.544128,0.696594,0.09259,0.458374,down
306055,5.1875,8.84375,-0.015625,-0.173828,-0.554687,-0.501953,0.544128,0.696594,0.09259,0.458374,down
306061,5.1875,8.84375,-0.015625,-0.242187,-0.533203,-0.490234,0.547241,0.697327,0.092285,0.453552,down
306067,5.035156,8.765625,0.058594,-0.320313,-0.525391,-0.496094,0.547241,0.697327,0.092285,0.453552,down
306072,4.957031,8.738281,0.058594,-0.320313,-0.525391,-0.496094,0.549622,0.69751,0.091919,0.4505,down
306078,4.882812,8.695313,0.023437,-0.363281,-0.519531,-0.482422,0.549622,0.69751,0.091919,0.4505,down
306083,4.882812,8.582031,0.058594,-0.363281,-0.519531,-0.482422,0.552185,0.69751,0.09137,0.44751,down
306089,4.882812,8.582031,0.058594,-0.347656,-0.515625,-0.480469,0.554749,0.697449,0.09082,0.444519,down
306094,4.84375,8.578125,0.097656,-0.330078,-0.517578,-0.472656,0.556091,0.697449,0.090515,0.442932,down
306099,4.84375,8.695313,0.058594,-0.330078,-0.517578,-0.472656,0.557251,0.697449,0.090271,0.441467,down
306105,4.84375,8.660156,0.058594,-0.330078,-0.517578,-0.472656,0.558411,0.69751,0.090027,0.440002,down
306111,4.882812,8.617188,-0.015625,-0.298828,-0.53125,-0.470703,0.558411,0.69751,0.090027,0.440002,down
306117,4.882812,8.621094,0.023437,-0.294922,-0.529297,-0.484375,0.558411,0.69751,0.090027,0.440002,down
306122,4.917969,8.617188,-0.015625,-0.294922,-0.529297,-0.484375,0.558411,0.69751,0.090027,0.440002,down
306127,4.917969,8.65625,-0.054687,-0.289063,-0.533203,-0.498047,0.558411,0.69751,0.090027,0.440002,down
306133,4.882812,8.65625,-0.015625,-0.308594,-0.535156,-0.5,0.558411,0.69751,0.090027,0.440002,down
306138,4.84375,8.699219,-0.054687,-0.308594,-0.535156,-0.5,0.565491,0.697815,0.088623,0.430603,down
306143,4.882812,8.695313,-0.09375,-0.332031,-0.519531,-0.503906,0.567932,0.697754,0.088196,0.427551,down
306148,4.804687,8.738281,-0.054687,-0.322266,-0.501953,-0.501953,0.567932,0.697754,0.088196,0.427551,down
306153,4.6875,8.765625,0.058594,-0.322266,-0.501953,-0.501953,0.569336,0.697693,0.088013,0.425842,down
306158,4.613281,8.804688,0.023437,-0.322266,-0.501953,-0.501953,0.571533,0.697693,0.087708,0.422913,down
306163,4.574219,8.847656,-0.015625,-0.322266,-0.501953,-0.501953,0.572693,0.697693,0.087585,0.421448,down
306168,4.574219,8.84375,0.023437,-0.322266,-0.501953,-0.501953,0.572693,0.697693,0.087585,0.421448,down
306173,4.535156,8.921875,0.058594,-0.271484,-0.5,-0.503906,0.572693,0.697693,0.087585,0.421448,down
306178,4.496094,8.964844,0.023437,-0.271484,-0.5,-0.503906,0.575989,0.697815,0.087097,0.416809,down
306183,4.496094,9.003906,0.023437,-0.289063,-0.537109,-0.472656,0.575989,0.697815,0.087097,0.416809,down
306188,4.574219,9.0,0.058594,-0.3125,-0.53125,-0.466797,0.577209,0.697815,0.086853,0.4151,down
306193,4.535156,9.0,0.097656,-0.3125,-0.53125,-0.466797,0.579468,0.697815,0.086304,0.412109,down
306198,4.574219,9.042969,0.097656,-0.371094,-0.53125,-0.443359,0.579468,0.697815,0.086304,0.412109,down
306203,4.574219,9.003906,0.136719,-0.371094,-0.53125,-0.443359,0.58075,0.697754,0.085937,0.410522,down
306208,4.460937,8.964844,0.058594,-0.412109,-0.517578,-0.447266,0.58075,0.697754,0.085937,0.410522,down
306213,4.460937,8.921875,0.058594,-0.412109,-0.517578,-0.447266,0.583313,0.697449,0.085144,0.407532,down
306218,4.421875,8.847656,0.136719,-0.412109,-0.517578,-0.447266,0.584778,0.697144,0.084717,0.405945,down
306223,4.382812,8.734375,0.214844,-0.458984,-0.488281,-0.464844,0.587463,0.696655,0.083984,0.403198,down
306228,4.34375,8.699219,0.214844,-0.458984,-0.488281,-0.464844,0.587463,0.696655,0.083984,0.403198,down
306233,4.304687,8.699219,0.25,-0.304688,-0.492187,-0.498047,0.588623,0.696472,0.08374,0.401733,down
306238,4.304687,8.734375,0.328125,-0.304688,-0.492187,-0.498047,0.589844,0.69635,0.083557,0.400208,down
306243,4.269531,8.886719,0.175781,-0.255859,-0.496094,-0.509766,0.589844,0.69635,0.083557,0.400208,down
306248,4.269531,8.886719,0.175781,-0.255859,-0.496094,-0.509766,0.592773,0.696533,0.083374,0.395569,down
306253,4.304687,9.042969,0.214844,-0.255859,-0.496094,-0.509766,0.592773,0.696533,0.083374,0.395569,down
306258,4.269531,9.152344,0.214844,-0.076172,-0.507812,-0.519531,0.592773,0.696533,0.083374,0.395569,down
306263,4.230469,9.269531,0.058594,-0.076172,-0.507812,-0.519531,0.59436,0.697021,0.083496,0.392334,down
306268,4.304687,9.308594,0.058594,-0.076172,-0.507812,-0.519531,0.595215,0.697266,0.083557,0.390564,down
306273,4.230469,9.34375,0.058594,-0.166016,-0.515625,-0.523437,0.595215,0.697266,0.083557,0.390564,down
306278,4.191406,9.425781,0.058594,-0.166016,-0.515625,-0.523437,0.596924,0.697693,0.083618,0.387207,down
306283,4.191406,9.382813,0.023437,-0.166016,-0.515625,-0.523437,0.5979,0.697754,0.083557,0.38562,down
306288,4.191406,9.382813,0.023437,-0.335938,-0.492187,-0.503906,0.598877,0.697693,0.083435,0.384155,down
306293,4.152344,9.347656,0.058594,-0.416016,-0.472656,-0.496094,0.600159,0.69751,0.083191,0.382568,down
306298,4.152344,9.347656,0.058594,-0.509766,-0.466797,-0.476562,0.601501,0.697205,0.082947,0.381165,down
306303,4.152344,9.347656,0.058594,-0.509766,-0.466797,-0.476562,0.602905,0.696777,0.082581,0.3797,down
306308,4.039062,9.117188,0.097656,-0.509766,-0.466797,-0.476562,0.605774,0.695923,0.081848,0.376831,down
306313,4.078125,9.078125,0.136719,-0.509766,-0.466797,-0.476562,0.605774,0.695923,0.081848,0.376831,down
306318,4.191406,9.042969,0.136719,-0.466797,-0.46875,-0.458984,0.605774,0.695923,0.081848,0.376831,down
306323,4.191406,9.003906,0.136719,-0.466797,-0.46875,-0.458984,0.608459,0.69519,0.081177,0.374023,down
306329,4.191406,9.003906,0.136719,-0.253906,-0.482422,-0.490234,0.608459,0.69519,0.081177,0.374023,down
306334,4.230469,9.121094,0.097656,-0.253906,-0.482422,-0.490234,0.611816,0.694824,0.080627,0.369324,down
306339,4.191406,9.152344,0.058594,-0.253906,-0.482422,-0.490234,0.61261,0.694946,0.080627,0.367859,down
306344,4.152344,9.265625,0.058594,-0.091797,-0.470703,-0.515625,0.613403,0.695129,0.080688,0.366089,down
306349,4.078125,9.421875,0.023437,-0.082031,-0.458984,-0.515625,0.614136,0.695312,0.080811,0.364563,down
306354,3.921875,9.609375,-0.015625,-0.082031,-0.458984,-0.515625,0.614929,0.695435,0.080872,0.362915,down
306359,3.847656,9.648438,-0.015625,-0.082031,-0.458984,-0.515625,0.615601,0.695557,0.080994,0.361511,down
306364,3.769531,9.726563,-0.054687,-0.21875,-0.443359,-0.511719,0.616577,0.695557,0.080994,0.359863,down
306370,3.65625,9.769531,-0.015625,-0.21875,-0.443359,-0.511719,0.617615,0.695435,0.080994,0.358337,down
306375,3.617188,9.769531,-0.015625,-0.21875,-0.443359,-0.511719,0.618591,0.695251,0.080872,0.356995,down
306381,3.539063,9.765625,0.023437,-0.21875,-0.443359,-0.511719,0.61969,0.694946,0.080688,0.355591,down
306386,3.578125,9.691406,0.058594,-0.457031,-0.441406,-0.445312,0.61969,0.694946,0.080688,0.355591,down
306391,3.65625,9.535156,0.097656,-0.474609,-0.453125,-0.421875,0.61969,0.694946,0.080688,0.355591,down
306397,3.695313,9.5,0.058594,-0.458984,-0.453125,-0.402344,0.61969,0.694946,0.080688,0.355591,down
306402,3.769531,9.535156,0.097656,-0.431641,-0.451172,-0.390625,0.61969,0.694946,0.080688,0.355591,down
306407,3.769531,9.5,0.097656,-0.388672,-0.445312,-0.386719,0.61969,0.694946,0.080688,0.355591,down
306413,3.769531,9.53125,0.058594,-0.388672,-0.445312,-0.386719,0.627991,0.692566,0.078186,0.346191,down
306418,3.730469,9.5,0.058594,-0.388672,-0.445312,-0.386719,0.627991,0.692566,0.078186,0.346191,down
306423,3.730469,9.535156,0.023437,-0.25,-0.441406,-0.404297,0.627991,0.692566,0.078186,0.346191,down
306428,3.730469,9.652344,0.058594,-0.191406,-0.451172,-0.417969,0.627991,0.692566,0.078186,0.346191,down
306433,3.730469,9.652344,0.058594,-0.191406,-0.451172,-0.417969,0.630493,0.692444,0.077576,0.342041,down
306438,3.695313,9.726563,0.058594,-0.154297,-0.445312,-0.423828,0.630493,0.692444,0.077576,0.342041,down
306444,3.65625,9.769531,-0.015625,-0.173828,-0.445312,-0.425781,0.630493,0.692444,0.077576,0.342041,down
306449,3.617188,9.84375,-0.015625,-0.173828,-0.445312,-0.425781,0.633667,0.692444,0.077087,0.336304,down
306454,3.578125,9.804688,0.023437,-0.273438,-0.404297,-0.402344,0.633667,0.692444,0.077087,0.336304,down
306459,3.539063,9.847656,0.058594,-0.273438,-0.404297,-0.402344,0.635437,0.692078,0.076721,0.33374,down
306464,3.464844,9.808594,0.023437,-0.273438,-0.404297,-0.402344,0.636353,0.691772,0.076477,0.332581,down
306469,3.386719,9.769531,0.175781,-0.273438,-0.404297,-0.402344,0.637512,0.691406,0.076172,0.331299,down
306475,3.308594,9.691406,0.175781,-0.433594,-0.417969,-0.371094,0.638611,0.690979,0.075806,0.330078,down
306480,3.347656,9.574219,0.214844,-0.433594,-0.417969,-0.371094,0.639648,0.690613,0.075439,0.328918,down
306486,3.308594,9.464844,0.25,-0.433594,-0.417969,-0.371094,0.640869,0.690186,0.07489,0.327637,down
306492,3.347656,9.425781,0.25,-0.457031,-0.490234,-0.347656,0.640869,0.690186,0.07489,0.327637,down
306497,3.425781,9.386719,0.25,-0.447266,-0.507812,-0.335938,0.640869,0.690186,0.07489,0.327637,down
306502,3.539063,9.421875,0.25,-0.421875,-0.515625,-0.328125,0.640869,0.690186,0.07489,0.327637,down
306507,3.539063,9.386719,0.289063,-0.421875,-0.515625,-0.328125,0.645386,0.688721,0.072571,0.322327,down
306512,3.539063,9.421875,0.25,-0.361328,-0.482422,-0.337891,0.645386,0.688721,0.072571,0.322327,down
306517,3.578125,9.464844,0.25,-0.324219,-0.460937,-0.335938,0.645386,0.688721,0.072571,0.322327,down
306522,3.425781,9.464844,0.175781,-0.324219,-0.460937,-0.335938,0.645386,0.688721,0.072571,0.322327,down
306528,3.386719,9.503906,0.136719,-0.324219,-0.460937,-0.335938,0.649048,0.687805,0.070862,0.317139,down
306534,3.308594,9.5,0.214844,-0.279297,-0.402344,-0.351563,0.650757,0.687439,0.070312,0.314697,down
306539,3.273438,9.570313,0.214844,-0.279297,-0.402344,-0.351563,0.65155,0.687256,0.070068,0.313477,down
306544,3.273438,9.574219,0.25,-0.265625,-0.388672,-0.355469,0.65155,0.687256,0.070068,0.313477,down
306549,3.273438,9.613281,0.136719,-0.28125,-0.380859,-0.361328,0.652405,0.687012,0.069824,0.312195,down
306555,3.234375,9.53125,0.25,-0.28125,-0.380859,-0.361328,0.654053,0.686584,0.069336,0.309814,down
306560,3.195313,9.460938,0.328125,-0.28125,-0.380859,-0.361328,0.654053,0.686584,0.069336,0.309814,down
306565,3.195313,9.425781,0.289063,-0.300781,-0.369141,-0.347656,0.654907,0.68634,0.069092,0.308716,down
306570,3.195313,9.425781,0.289063,-0.300781,-0.369141,-0.347656,0.655762,0.686096,0.068848,0.307556,down
306575,3.117188,9.382813,0.441406,-0.324219,-0.371094,-0.332031,0.655762,0.686096,0.068848,0.307556,down
306580,3.117188,9.382813,0.441406,-0.335938,-0.378906,-0.328125,0.658386,0.68512,0.067932,0.304138,down
306586,3.082031,9.347656,0.480469,-0.335938,-0.378906,-0.328125,0.659302,0.684814,0.067566,0.302979,down
306591,3.082031,9.421875,0.441406,-0.335938,-0.378906,-0.328125,0.659302,0.684814,0.067566,0.302979,down
306597,3.042969,9.460938,0.40625,-0.384766,-0.414062,-0.324219,0.659302,0.684814,0.067566,0.302979,down
306603,3.082031,9.464844,0.441406,-0.380859,-0.410156,-0.322266,0.659302,0.684814,0.067566,0.302979,down
306608,3.042969,9.53125,0.441406,-0.380859,-0.410156,-0.322266,0.663269,0.683228,0.065918,0.298157,down
306614,3.003906,9.464844,0.441406,-0.380859,-0.380859,-0.337891,0.663269,0.683228,0.065918,0.298157,down
306619,3.003906,9.5,0.519531,-0.375,-0.371094,-0.349609,0.665161,0.682495,0.065186,0.295837,down
306625,3.003906,9.5,0.519531,-0.398438,-0.351563,-0.351563,0.667053,0.681641,0.064636,0.29364,down
306630,2.964844,9.347656,0.480469,-0.398438,-0.351563,-0.351563,0.668213,0.681091,0.064331,0.292297,down
306636,2.964844,9.347656,0.441406,-0.398438,-0.351563,-0.351563,0.669067,0.680725,0.064148,0.291321,down
306641,2.964844,9.265625,0.480469,-0.337891,-0.308594,-0.400391,0.669983,0.680298,0.064026,0.290161,down
306646,2.964844,9.304688,0.480469,-0.337891,-0.308594,-0.400391,0.669983,0.680298,0.064026,0.290161,down
306652,2.964844,9.347656,0.441406,-0.238281,-0.294922,-0.431641,0.669983,0.680298,0.064026,0.290161,down
306657,2.925781,9.425781,0.441406,-0.195312,-0.283203,-0.435547,0.669983,0.680298,0.064026,0.290161,down
306662,2.8125,9.53125,0.480469,-0.152344,-0.285156,-0.453125,0.669983,0.680298,0.064026,0.290161,down
306668,2.734375,9.570313,0.480469,-0.152344,-0.285156,-0.453125,0.673706,0.679138,0.064392,0.28418,down
306673,2.660156,9.691406,0.441406,-0.117188,-0.300781,-0.441406,0.673706,0.679138,0.064392,0.28418,down
306678,2.582031,9.691406,0.441406,-0.134766,-0.306641,-0.431641,0.673706,0.679138,0.064392,0.28418,down
306684,2.582031,9.726563,0.519531,-0.171875,-0.330078,-0.412109,0.676147,0.678711,0.064758,0.279236,down
306689,2.582031,9.769531,0.558594,-0.171875,-0.330078,-0.412109,0.676147,0.678711,0.064758,0.279236,down
306694,2.582031,9.847656,0.480469,-0.410156,-0.367188,-0.359375,0.676147,0.678711,0.064758,0.279236,down
306699,2.621094,9.847656,0.480469,-0.410156,-0.367188,-0.359375,0.678955,0.677429,0.063965,0.275696,down
306704,2.660156,9.808594,0.558594,-0.410156,-0.367188,-0.359375,0.680176,0.676697,0.063599,0.274597,down
306709,2.660156,9.808594,0.558594,-0.410156,-0.367188,-0.359375,0.680176,0.676697,0.063599,0.274597,down
306714,2.734375,9.570313,0.597656,-0.699219,-0.335938,-0.351563,0.683105,0.674683,0.062683,0.272461,down
306719,2.851563,9.1875,0.828125,-0.699219,-0.335938,-0.351563,0.683105,0.674683,0.062683,0.272461,down
306724,2.925781,8.964844,0.789062,-0.726562,-0.320313,-0.371094,0.686157,0.672485,0.06189,0.270325,down
306729,2.964844,8.808594,0.828125,-0.601562,-0.273438,-0.417969,0.686157,0.672485,0.06189,0.270325,down
306734,2.925781,8.769531,0.941406,-0.601562,-0.273438,-0.417969,0.687683,0.671448,0.061646,0.269165,down
306739,2.851563,8.769531,1.019531,-0.601562,-0.273438,-0.417969,0.688904,0.670654,0.061523,0.268066,down
306744,2.773438,8.769531,0.980469,-0.255859,-0.234375,-0.486328,0.689941,0.669983,0.061584,0.266968,down
306749,2.773438,8.808594,0.941406,-0.255859,-0.234375,-0.486328,0.690918,0.669495,0.061768,0.265686,down
306755,2.542969,9.078125,0.828125,-0.255859,-0.234375,-0.486328,0.692078,0.669189,0.062439,0.263306,down
306760,2.390625,9.230469,0.863281,0.109375,-0.269531,-0.529297,0.692383,0.669434,0.062927,0.26178,down
306766,2.351563,9.535156,0.828125,0.109375,-0.269531,-0.529297,0.692505,0.669739,0.063354,0.260498,down
306772,2.3125,9.769531,0.710937,0.191406,-0.314453,-0.521484,0.692505,0.669739,0.063354,0.260498,down
306778,2.277344,9.953125,0.671875,0.171875,-0.335938,-0.507812,0.692505,0.669739,0.063354,0.260498,down
306783,2.277344,10.074219,0.671875,0.105469,-0.333984,-0.5,0.692505,0.669739,0.063354,0.260498,down
306788,2.277344,10.1875,0.632812,0.019531,-0.341797,-0.478516,0.692505,0.669739,0.063354,0.260498,down
306793,2.238281,10.226563,0.632812,-0.099609,-0.322266,-0.466797,0.692505,0.669739,0.063354,0.260498,down
306798,2.277344,10.191406,0.597656,-0.099609,-0.322266,-0.466797,0.694153,0.671143,0.065186,0.252014,down
306804,2.238281,10.230469,0.597656,-0.339844,-0.304688,-0.441406,0.695923,0.670227,0.065186,0.249512,down
306809,2.238281,10.308594,0.632812,-0.339844,-0.304688,-0.441406,0.695923,0.670227,0.065186,0.249512,down
306814,2.238281,10.226563,0.632812,-0.570312,-0.259766,-0.398438,0.697021,0.669495,0.065063,0.248352,down
306819,2.238281,10.148438,0.597656,-0.570312,-0.259766,-0.398438,0.698303,0.668579,0.064941,0.247192,down
306824,2.121094,10.070313,0.632812,-0.570312,-0.259766,-0.398438,0.699524,0.667725,0.064819,0.246216,down
306830,2.238281,9.992188,0.597656,-0.607422,-0.240234,-0.378906,0.702148,0.66571,0.064453,0.244202,down
306835,2.160156,9.957031,0.710937,-0.589844,-0.244141,-0.359375,0.70343,0.664734,0.06427,0.243286,down
306840,2.121094,9.996094,0.789062,-0.552734,-0.234375,-0.353516,0.70343,0.664734,0.06427,0.243286,down
306845,2.085938,9.925781,0.75,-0.552734,-0.234375,-0.353516,0.705688,0.663025,0.063965,0.241516,down
306850,2.046875,9.921875,0.828125,-0.492187,-0.240234,-0.337891,0.705688,0.663025,0.063965,0.241516,down
306855,2.046875,9.953125,0.863281,-0.492187,-0.240234,-0.337891,0.707947,0.661316,0.063599,0.239624,down
306860,2.046875,9.957031,0.980469,-0.470703,-0.242187,-0.3125,0.708923,0.660583,0.063416,0.238708,down
306866,2.046875,9.84375,0.941406,-0.470703,-0.242187,-0.3125,0.708923,0.660583,0.063416,0.238708,down
306871,2.046875,9.84375,0.941406,-0.482422,-0.246094,-0.300781,0.709839,0.659912,0.063232,0.237915,down
306876,2.046875,9.84375,0.941406,-0.482422,-0.246094,-0.300781,0.710937,0.659119,0.062988,0.237061,down
306881,2.085938,9.691406,1.054688,-0.490234,-0.240234,-0.294922,0.710937,0.659119,0.062988,0.237061,down
306886,2.085938,9.691406,1.054688,-0.501953,-0.212891,-0.308594,0.712952,0.657532,0.062561,0.235413,down
306891,2.046875,9.53125,1.09375,-0.445312,-0.189453,-0.335938,0.712952,0.657532,0.062561,0.235413,down
306896,2.046875,9.53125,1.09375,-0.404297,-0.177734,-0.363281,0.712952,0.657532,0.062561,0.235413,down
306901,2.046875,9.570313,1.054688,-0.404297,-0.177734,-0.363281,0.716797,0.654602,0.062439,0.231934,down
306906,2.007813,9.609375,1.054688,-0.404297,-0.177734,-0.363281,0.716797,0.654602,0.062439,0.231934,down
306911,1.96875,9.691406,0.980469,-0.199219,-0.160156,-0.412109,0.716797,0.654602,0.062439,0.231934,down
306917,1.96875,9.765625,0.941406,-0.199219,-0.160156,-0.412109,0.718811,0.653381,0.063171,0.229065,down
306922,1.96875,9.882813,0.902344,-0.199219,-0.160156,-0.412109,0.718811,0.653381,0.063171,0.229065,down
306928,1.929688,9.925781,0.941406,-0.017578,-0.140625,-0.433594,0.718811,0.653381,0.063171,0.229065,down
306933,1.929688,9.957031,0.980469,-0.017578,-0.140625,-0.433594,0.719849,0.653076,0.064453,0.226135,down
306938,1.894531,9.953125,0.941406,-0.017578,-0.140625,-0.433594,0.719849,0.653076,0.064453,0.226135,down
306944,1.894531,9.953125,0.980469,-0.017578,-0.140625,-0.433594,0.720459,0.652954,0.06543,0.224243,down
306950,1.894531,9.886719,1.054688,-0.119141,-0.091797,-0.414062,0.721375,0.652466,0.066345,0.222473,down
306955,1.894531,9.804688,1.054688,-0.119141,-0.091797,-0.414062,0.722046,0.652039,0.066772,0.221558,down
306960,1.894531,9.808594,1.019531,-0.119141,-0.091797,-0.414062,0.722595,0.65155,0.067078,0.220947,down
306965,1.894531,9.726563,1.019531,-0.363281,-0.048828,-0.375,0.722595,0.65155,0.067078,0.220947,down
306970,1.855469,9.652344,1.054688,-0.373047,-0.042969,-0.376953,0.72345,0.650818,0.067444,0.220154,down
306976,1.894531,9.613281,1.09375,-0.373047,-0.042969,-0.376953,0.725098,0.649414,0.068176,0.21875,down
306981,1.855469,9.464844,1.09375,-0.373047,-0.042969,-0.376953,0.725769,0.648865,0.068481,0.21814,down
306987,1.855469,9.503906,1.09375,-0.236328,-0.017578,-0.40625,0.726379,0.648315,0.06897,0.217407,down
306992,1.738281,9.535156,1.246094,-0.236328,-0.017578,-0.40625,0.72699,0.647888,0.069519,0.216614,down
306998,1.738281,9.613281,1.246094,-0.078125,-0.019531,-0.4375,0.72699,0.647888,0.069519,0.216614,down
307003,1.703125,9.648438,1.171875,-0.011719,-0.013672,-0.447266,0.72699,0.647888,0.069519,0.216614,down
307009,1.664063,9.769531,1.363281,0.041016,-0.027344,-0.447266,0.72699,0.647888,0.069519,0.216614,down
307014,1.738281,9.84375,1.363281,0.080078,-0.050781,-0.443359,0.72699,0.647888,0.069519,0.216614,down
307019,1.625,9.925781,1.363281,0.080078,-0.050781,-0.443359,0.72821,0.647522,0.072876,0.212402,down
307025,1.546875,9.992188,1.4375,0.054687,-0.037109,-0.453125,0.72821,0.647522,0.072876,0.212402,down
307030,1.546875,9.992188,1.4375,0.054687,-0.037109,-0.453125,0.728821,0.647522,0.074951,0.209656,down
307035,1.433594,9.996094,1.476563,-0.123047,-0.056641,-0.431641,0.728821,0.647522,0.074951,0.209656,down
307040,1.433594,10.03125,1.515625,-0.123047,-0.056641,-0.431641,0.729675,0.646973,0.075989,0.207947,down
307045,1.433594,10.074219,1.515625,-0.123047,-0.056641,-0.431641,0.730164,0.646606,0.076416,0.207153,down
307050,1.394531,10.191406,1.554688,-0.123047,-0.056641,-0.431641,0.730164,0.646606,0.076416,0.207153,down
307055,1.316406,10.308594,1.554688,-0.324219,-0.050781,-0.357422,0.730164,0.646606,0.076416,0.207153,down
307060,1.28125,10.375,1.515625,-0.324219,-0.050781,-0.357422,0.732239,0.644775,0.077454,0.205017,down
307065,1.164063,10.378906,1.59375,-0.324219,-0.050781,-0.357422,0.732239,0.644775,0.077454,0.205017,down
307070,1.125,10.375,1.554688,-0.314453,-0.044922,-0.310547,0.732971,0.644104,0.077759,0.204407,down
307075,1.050781,10.339844,1.628906,-0.314453,-0.044922,-0.310547,0.733765,0.643433,0.078064,0.203735,down
307080,1.011719,10.265625,1.667969,-0.314453,-0.044922,-0.310547,0.734375,0.642883,0.078308,0.203186,down
307085,1.050781,10.269531,1.667969,-0.248047,-0.066406,-0.287109,0.735474,0.641907,0.078735,0.202026,down
307090,1.089844,10.265625,1.707031,-0.248047,-0.066406,-0.287109,0.735474,0.641907,0.078735,0.202026,down
307095,1.164063,10.1875,1.746094,-0.1875,-0.097656,-0.269531,0.735474,0.641907,0.078735,0.202026,down
307101,1.164063,10.113281,1.707031,-0.1875,-0.097656,-0.269531,0.736816,0.640869,0.079224,0.200195,down
307106,1.203125,10.070313,1.707031,-0.142578,-0.109375,-0.248047,0.737244,0.640564,0.079407,0.199524,down
307111,1.164063,10.070313,1.820313,-0.117188,-0.115234,-0.248047,0.73761,0.640381,0.079529,0.198853,down
307117,1.203125,10.070313,1.820313,-0.117188,-0.115234,-0.248047,0.737915,0.640198,0.079651,0.198303,down
307122,1.203125,10.070313,1.820313,-0.095703,-0.125,-0.238281,0.73822,0.640015,0.079773,0.197632,down
307127,1.164063,10.1875,1.785156,-0.095703,-0.125,-0.238281,0.738525,0.639832,0.079834,0.197083,down
307132,1.164063,10.1875,1.820313,-0.095703,-0.125,-0.238281,0.738831,0.639648,0.079956,0.19635,down
307137,1.164063,10.265625,1.859375,-0.095703,-0.125,-0.238281,0.738831,0.639648,0.079956,0.19635,down
307143,1.203125,10.269531,1.820313,-0.095703,-0.142578,-0.240234,0.738831,0.639648,0.079956,0.19635,down
307148,1.125,10.269531,1.746094,-0.097656,-0.150391,-0.238281,0.738831,0.639648,0.079956,0.19635,down
307154,1.242188,10.226563,1.820313,-0.097656,-0.150391,-0.238281,0.738831,0.639648,0.079956,0.19635,down
307159,1.242188,10.152344,1.820313,-0.097656,-0.150391,-0.238281,0.740356,0.638794,0.080322,0.193115,down
307165,1.203125,10.152344,1.820313,-0.076172,-0.126953,-0.230469,0.740356,0.638794,0.080322,0.193115,down
307170,1.125,10.03125,1.859375,-0.046875,-0.111328,-0.230469,0.740967,0.638489,0.080505,0.191895,down
307175,1.089844,10.035156,1.898438,-0.046875,-0.111328,-0.230469,0.741211,0.638428,0.080627,0.191284,down
307180,1.089844,10.070313,1.898438,-0.046875,-0.111328,-0.230469,0.741394,0.638367,0.08075,0.190674,down
307185,1.050781,10.1875,1.820313,0.041016,-0.126953,-0.226562,0.741394,0.638367,0.08075,0.190674,down
307190,1.050781,10.269531,1.820313,0.041016,-0.126953,-0.226562,0.741516,0.63855,0.081055,0.189392,down
307195,1.089844,10.335938,1.785156,0.173828,-0.177734,-0.208984,0.741394,0.638855,0.081177,0.18866,down
307200,1.125,10.417969,1.628906,0.173828,-0.177734,-0.208984,0.741272,0.63916,0.081299,0.188049,down
307205,1.203125,10.496094,1.667969,0.173828,-0.177734,-0.208984,0.74115,0.639526,0.08136,0.187317,down
307210,1.242188,10.492188,1.554688,0.173828,-0.177734,-0.208984,0.740967,0.639954,0.081421,0.186584,down
307215,1.28125,10.492188,1.554688,0.140625,-0.197266,-0.181641,0.740967,0.639954,0.081421,0.186584,down
307220,1.316406,10.496094,1.554688,0.140625,-0.197266,-0.181641,0.740662,0.640747,0.081421,0.18512,down
307225,1.316406,10.417969,1.515625,0.140625,-0.197266,-0.181641,0.740601,0.640991,0.081421,0.184509,down
307230,1.28125,10.414063,1.515625,-0.064453,-0.136719,-0.146484,0.740601,0.641174,0.08136,0.18396,down
307235,1.28125,10.335938,1.515625,-0.064453,-0.136719,-0.146484,0.740723,0.641174,0.08136,0.183411,down
307240,1.242188,10.265625,1.554688,-0.171875,-0.085937,-0.132812,0.740967,0.640991,0.081299,0.182922,down
307245,1.203125,10.1875,1.476563,-0.171875,-0.085937,-0.132812,0.741272,0.640747,0.081299,0.182556,down
307251,1.242188,10.191406,1.554688,-0.154297,-0.082031,-0.121094,0.741638,0.640442,0.081299,0.182251,down
307256,1.203125,10.152344,1.59375,-0.154297,-0.082031,-0.121094,0.742249,0.639893,0.081238,0.18158,down
307262,1.28125,10.113281,1.628906,-0.154297,-0.082031,-0.121094,0.742493,0.639771,0.081299,0.181213,down
307267,1.203125,10.070313,1.667969,-0.154297,-0.082031,-0.121094,0.742554,0.639709,0.08136,0.180847,down
307273,1.164063,10.113281,1.628906,0.085937,-0.09375,-0.123047,0.742554,0.639832,0.081421,0.180481,down
307278,1.164063,10.113281,1.707031,0.125,-0.101563,-0.113281,0.742554,0.639832,0.081421,0.180481,down
307283,1.203125,10.070313,1.707031,0.125,-0.101563,-0.113281,0.742371,0.64032,0.081543,0.179687,down
307288,1.203125,10.113281,1.628906,0.158203,-0.115234,-0.113281,0.742371,0.64032,0.081543,0.179687,down
307294,1.164063,10.152344,1.628906,0.150391,-0.109375,-0.099609,0.742371,0.64032,0.081543,0.179687,down
307300,1.203125,10.1875,1.59375,0.150391,-0.109375,-0.099609,0.741821,0.641235,0.081665,0.178467,down
307305,1.164063,10.191406,1.554688,0.150391,-0.109375,-0.099609,0.741699,0.641479,0.081665,0.178101,down
307311,1.164063,10.152344,1.59375,0.060547,-0.111328,-0.080078,0.741638,0.641785,0.081543,0.177429,down
307316,1.089844,10.1875,1.554688,0.060547,-0.111328,-0.080078,0.741638,0.641846,0.081482,0.177124,down
307321,1.164063,10.152344,1.476563,0.060547,-0.111328,-0.080078,0.74176,0.641846,0.081421,0.176819,down
307326,1.125,10.1875,1.476563,-0.033203,-0.109375,-0.087891,0.74176,0.641846,0.081421,0.176819,down
307331,1.089844,10.113281,1.554688,-0.033203,-0.109375,-0.087891,0.741882,0.641785,0.08136,0.176453,down
307336,1.125,10.109375,1.515625,-0.033203,-0.109375,-0.087891,0.742065,0.641724,0.081238,0.175781,down
307341,1.089844,10.109375,1.476563,-0.019531,-0.121094,-0.076172,0.742065,0.641724,0.081238,0.175781,down
307346,1.125,10.074219,1.554688,-0.019531,-0.121094,-0.076172,0.742249,0.641785,0.080994,0.17511,down
307351,1.164063,10.035156,1.476563,-0.019531,-0.121094,-0.076172,0.74231,0.641785,0.080872,0.174805,down
307356,1.125,9.992188,1.515625,-0.019531,-0.121094,-0.076172,0.74231,0.641846,0.08075,0.174561,down
