timestamp,ax,ay,az,gx,gy,gz,qw,qx,qy,qz,label
223025,-0.394531,7.875,5.855469,0.759766,0.019531,0.041016,0.863342,0.401367,-0.130188,-0.276733,up
223030,-0.472656,7.875,5.894531,0.683594,0.058594,0.121094,0.863342,0.401367,-0.130188,-0.276733,up
223035,-0.550781,7.988281,5.855469,0.623047,0.054687,0.154297,0.863342,0.401367,-0.130188,-0.276733,up
223040,-0.625,7.988281,5.546875,0.576172,0.064453,0.179687,0.863342,0.401367,-0.130188,-0.276733,up
223045,-0.625,7.839844,5.625,0.576172,0.064453,0.179687,0.861145,0.40686,-0.131958,-0.274658,up
223050,-0.550781,7.796875,5.625,0.490234,0.013672,0.183594,0.861145,0.40686,-0.131958,-0.274658,up
223057,-0.472656,7.796875,5.511719,0.478516,-0.009766,0.169922,0.861145,0.40686,-0.131958,-0.274658,up
223062,-0.433594,7.800781,5.355469,0.457031,-0.023437,0.160156,0.859924,0.409973,-0.133484,-0.273193,up
223068,-0.433594,7.71875,5.320312,0.390625,-0.025391,0.126953,0.859924,0.409973,-0.133484,-0.273193,up
223073,-0.433594,7.683594,5.320312,0.390625,-0.025391,0.126953,0.859192,0.411682,-0.13446,-0.272522,up
223078,-0.394531,7.5625,5.320312,0.392578,-0.013672,0.115234,0.859192,0.411682,-0.13446,-0.272522,up
223083,-0.320313,7.605469,5.320312,0.408203,0.035156,0.113281,0.858459,0.413269,-0.135254,-0.271912,up
223088,-0.28125,7.683594,5.320312,0.408203,0.035156,0.113281,0.857727,0.4151,-0.135864,-0.271179,up
223093,-0.320313,7.800781,5.242187,0.408203,0.035156,0.113281,0.857727,0.4151,-0.135864,-0.271179,up
223098,-0.320313,7.800781,5.242187,0.384766,0.126953,0.144531,0.857117,0.416809,-0.136169,-0.270325,up
223103,-0.472656,7.835937,5.242187,0.384766,0.126953,0.144531,0.857117,0.416809,-0.136169,-0.270325,up
223108,-0.472656,7.835937,5.242187,0.380859,0.126953,0.160156,0.856812,0.417725,-0.136353,-0.269714,up
223113,-0.550781,7.796875,5.28125,0.357422,0.136719,0.177734,0.856384,0.419373,-0.136597,-0.268616,up
223118,-0.511719,7.875,5.28125,0.357422,0.136719,0.177734,0.856384,0.419373,-0.136597,-0.268616,up
223123,-0.511719,7.875,5.28125,0.357422,0.136719,0.177734,0.856384,0.419373,-0.136597,-0.268616,up
223128,-0.394531,7.835937,5.355469,0.335938,0.158203,0.261719,0.855896,0.42157,-0.137024,-0.266357,up
223133,-0.359375,7.800781,5.355469,0.335938,0.158203,0.261719,0.855774,0.422302,-0.137207,-0.265564,up
223138,-0.359375,7.917969,5.28125,0.335938,0.158203,0.261719,0.855591,0.423157,-0.137451,-0.264587,up
223143,-0.359375,7.988281,5.128906,0.34375,0.177734,0.324219,0.855469,0.423889,-0.137634,-0.263733,up
223148,-0.242187,8.0625,5.242187,0.34375,0.177734,0.324219,0.855347,0.424683,-0.137817,-0.262695,up
223153,-0.203125,7.984375,5.164062,0.34375,0.177734,0.324219,0.855286,0.425354,-0.137878,-0.261841,up
223158,-0.203125,8.027344,5.050781,0.34375,0.177734,0.324219,0.855286,0.425354,-0.137878,-0.261841,up
223163,-0.242187,8.066406,5.011719,0.308594,0.228516,0.310547,0.855286,0.425354,-0.137878,-0.261841,up
223168,-0.128906,8.027344,5.128906,0.279297,0.230469,0.292969,0.855286,0.425354,-0.137878,-0.261841,up
223173,-0.089844,8.027344,5.128906,0.238281,0.267578,0.255859,0.855103,0.427429,-0.137939,-0.259033,up
223178,-0.089844,8.0625,4.972656,0.238281,0.267578,0.255859,0.855042,0.428711,-0.137634,-0.257202,up
223183,-0.011719,7.988281,4.933594,0.238281,0.267578,0.255859,0.855042,0.428711,-0.137634,-0.257202,up
223188,0.0625,7.953125,5.089844,0.140625,0.330078,0.228516,0.855225,0.429565,-0.136902,-0.255554,up
223193,0.101563,7.917969,5.203125,0.140625,0.330078,0.228516,0.855225,0.429565,-0.136902,-0.255554,up
223198,0.0625,7.878906,5.242187,0.001953,0.425781,0.205078,0.855225,0.429565,-0.136902,-0.255554,up
223203,0.027344,7.878906,5.203125,0.001953,0.425781,0.205078,0.855896,0.430359,-0.134949,-0.252991,up
223208,-0.011719,7.800781,5.203125,-0.064453,0.480469,0.177734,0.855896,0.430359,-0.134949,-0.252991,up
223213,-0.011719,7.800781,5.394531,-0.064453,0.480469,0.177734,0.856567,0.430664,-0.133118,-0.251282,up
223218,-0.050781,7.683594,5.355469,-0.087891,0.490234,0.138672,0.856567,0.430664,-0.133118,-0.251282,up
223223,-0.164062,7.644531,5.355469,-0.087891,0.490234,0.138672,0.857117,0.430847,-0.131287,-0.249817,up
223228,-0.203125,7.5625,5.511719,-0.087891,0.490234,0.138672,0.857117,0.430847,-0.131287,-0.249817,up
223233,-0.203125,7.5625,5.546875,0.019531,0.470703,0.083984,0.857422,0.43103,-0.130188,-0.249023,up
223239,-0.128906,7.644531,5.585937,0.019531,0.470703,0.083984,0.857788,0.431702,-0.128418,-0.247803,up
223245,-0.089844,7.566406,5.546875,0.019531,0.470703,0.083984,0.857849,0.432129,-0.127563,-0.247253,up
223250,-0.050781,7.601562,5.511719,0.109375,0.435547,0.017578,0.857849,0.432129,-0.127563,-0.247253,up
223257,0.027344,7.605469,5.394531,0.136719,0.433594,-0.003906,0.857849,0.432129,-0.127563,-0.247253,up
223262,0.027344,7.679687,5.394531,0.136719,0.433594,-0.003906,0.857788,0.433777,-0.124939,-0.245789,up
223267,0.027344,7.679687,5.394531,0.173828,0.449219,-0.058594,0.857788,0.433777,-0.124939,-0.245789,up
223273,0.0625,7.71875,5.355469,0.146484,0.474609,-0.115234,0.857788,0.433777,-0.124939,-0.245789,up
223278,0.101563,7.800781,5.320312,0.146484,0.474609,-0.115234,0.857361,0.436462,-0.120972,-0.244507,up
223283,0.101563,7.757812,5.320312,0.146484,0.474609,-0.115234,0.8573,0.437012,-0.119812,-0.244263,up
223288,0.0625,7.800781,5.355469,0.146484,0.474609,-0.115234,0.8573,0.437012,-0.119812,-0.244263,up
223293,-0.050781,7.839844,5.394531,0.007813,0.5,-0.158203,0.8573,0.437012,-0.119812,-0.244263,up
223298,-0.011719,7.839844,5.472656,0.007813,0.5,-0.158203,0.857361,0.438354,-0.115906,-0.243652,up
223303,-0.011719,7.839844,5.511719,-0.056641,0.505859,-0.171875,0.857361,0.438354,-0.115906,-0.243652,up
223308,-0.011719,7.796875,5.511719,-0.056641,0.505859,-0.171875,0.857422,0.438599,-0.114807,-0.24353,up
223313,0.027344,7.722656,5.585937,-0.078125,0.505859,-0.160156,0.857422,0.438599,-0.114807,-0.24353,up
223318,0.027344,7.683594,5.546875,-0.078125,0.505859,-0.160156,0.857605,0.439087,-0.112061,-0.243286,up
223323,-0.050781,7.679687,5.585937,-0.068359,0.517578,-0.167969,0.857605,0.439087,-0.112061,-0.243286,up
223328,-0.050781,7.679687,5.585937,-0.041016,0.517578,-0.169922,0.857788,0.439575,-0.109375,-0.242981,up
223333,-0.128906,7.679687,5.546875,0.013672,0.525391,-0.150391,0.857788,0.439575,-0.109375,-0.242981,up
223338,-0.28125,7.835937,5.472656,0.013672,0.525391,-0.150391,0.857849,0.440247,-0.106812,-0.242615,up
223343,-0.28125,7.835937,5.511719,0.013672,0.525391,-0.150391,0.857849,0.440735,-0.105408,-0.242371,up
223348,-0.28125,7.984375,5.585937,0.058594,0.480469,-0.140625,0.857849,0.440735,-0.105408,-0.242371,up
223353,-0.28125,7.984375,5.585937,0.058594,0.480469,-0.140625,0.857666,0.442139,-0.10199,-0.241821,up
223358,-0.203125,7.988281,5.472656,0.058594,0.480469,-0.140625,0.857666,0.442139,-0.10199,-0.241821,up
223363,-0.164062,7.953125,5.511719,0.035156,0.431641,-0.146484,0.857666,0.442139,-0.10199,-0.241821,up
223368,-0.203125,7.914062,5.472656,0.023437,0.433594,-0.140625,0.857666,0.442139,-0.10199,-0.241821,up
223373,-0.28125,7.957031,5.394531,0.023437,0.433594,-0.140625,0.857544,0.443298,-0.098816,-0.241455,up
223378,-0.242187,7.917969,5.394531,-0.007813,0.4375,-0.134766,0.857544,0.443298,-0.098816,-0.241455,up
223383,-0.28125,7.957031,5.433594,-0.007813,0.4375,-0.134766,0.857544,0.444031,-0.096497,-0.24115,up
223388,-0.242187,7.953125,5.546875,-0.007813,0.4375,-0.134766,0.857544,0.444336,-0.095459,-0.241028,up
223394,-0.203125,7.914062,5.511719,-0.046875,0.423828,-0.121094,0.857605,0.444519,-0.094421,-0.240845,up
223399,-0.203125,7.875,5.472656,-0.046875,0.423828,-0.121094,0.857666,0.445007,-0.092163,-0.24054,up
223404,-0.164062,7.875,5.472656,-0.046875,0.423828,-0.121094,0.857727,0.445251,-0.091187,-0.240356,up
223409,-0.164062,7.878906,5.394531,-0.046875,0.423828,-0.121094,0.857666,0.445557,-0.090027,-0.240234,up
223414,-0.164062,7.878906,5.394531,0.041016,0.488281,-0.167969,0.857666,0.446045,-0.088745,-0.240051,up
223420,-0.242187,8.023438,5.355469,0.041016,0.488281,-0.167969,0.857544,0.446533,-0.087402,-0.239929,up
223425,-0.28125,8.105469,5.355469,0.041016,0.488281,-0.167969,0.857483,0.447021,-0.086304,-0.239746,up
223430,-0.320313,8.183594,5.320312,0.058594,0.558594,-0.191406,0.857483,0.447021,-0.086304,-0.239746,up
223435,-0.320313,8.222656,5.394531,0.046875,0.585937,-0.201172,0.857483,0.447021,-0.086304,-0.239746,up
223441,-0.394531,8.257813,5.394531,0.046875,0.585937,-0.201172,0.857239,0.448608,-0.08197,-0.239197,up
223446,-0.433594,8.335938,5.433594,0.046875,0.585937,-0.201172,0.857239,0.448608,-0.08197,-0.239197,up
223451,-0.472656,8.371094,5.511719,-0.021484,0.660156,-0.216797,0.857239,0.448608,-0.08197,-0.239197,up
223456,-0.625,8.410156,5.585937,-0.037109,0.673828,-0.207031,0.857239,0.448608,-0.08197,-0.239197,up
223461,-0.777344,8.410156,5.625,-0.037109,0.673828,-0.207031,0.857239,0.448608,-0.08197,-0.239197,up
223467,-0.894531,8.40625,5.546875,-0.056641,0.6875,-0.173828,0.857239,0.448608,-0.08197,-0.239197,up
223472,-0.933594,8.488281,5.585937,-0.060547,0.689453,-0.140625,0.857239,0.448608,-0.08197,-0.239197,up
223477,-0.96875,8.488281,5.738281,-0.060547,0.689453,-0.140625,0.857483,0.451233,-0.070312,-0.237061,up
223482,-1.085938,8.566406,5.816406,-0.060547,0.689453,-0.140625,0.857483,0.451233,-0.070312,-0.237061,up
223487,-1.085938,8.527344,5.777344,-0.078125,0.605469,-0.050781,0.857483,0.451233,-0.070312,-0.237061,up
223492,-1.085938,8.527344,5.703125,-0.068359,0.570312,-0.019531,0.857483,0.451233,-0.070312,-0.237061,up
223497,-1.046875,8.449219,5.664062,-0.068359,0.570312,-0.019531,0.857483,0.451233,-0.070312,-0.237061,up
223502,-0.96875,8.410156,5.738281,-0.068359,0.570312,-0.019531,0.858154,0.452393,-0.063416,-0.234375,up
223508,-0.96875,8.410156,5.738281,-0.042969,0.496094,0.017578,0.858276,0.452576,-0.062378,-0.233826,up
223513,-0.855469,8.40625,5.777344,-0.048828,0.472656,0.029297,0.858398,0.45282,-0.06134,-0.233276,up
223518,-0.855469,8.40625,5.777344,-0.074219,0.458984,0.041016,0.858521,0.452942,-0.060303,-0.232666,up
223523,-0.777344,8.335938,5.738281,-0.074219,0.458984,0.041016,0.858704,0.453064,-0.059326,-0.232117,up
223528,-0.777344,8.335938,5.738281,-0.09375,0.458984,0.058594,0.858887,0.453186,-0.05835,-0.231506,up
223533,-0.742187,8.300781,5.738281,-0.09375,0.458984,0.058594,0.85907,0.453247,-0.057434,-0.230835,up
223538,-0.742187,8.21875,5.738281,-0.09375,0.458984,0.058594,0.859253,0.453308,-0.056396,-0.230225,up
223544,-0.742187,8.183594,5.777344,-0.130859,0.488281,0.054687,0.859253,0.453308,-0.056396,-0.230225,up
223549,-0.777344,8.105469,5.816406,-0.130859,0.488281,0.054687,0.859924,0.453369,-0.053223,-0.228394,up
223554,-0.816406,8.0625,5.816406,-0.130859,0.509766,0.042969,0.859924,0.453369,-0.053223,-0.228394,up
223559,-0.894531,8.023438,5.816406,-0.130859,0.509766,0.042969,0.860168,0.453369,-0.052002,-0.227661,up
223564,-0.894531,7.988281,5.816406,-0.113281,0.494141,0.044922,0.860168,0.453369,-0.052002,-0.227661,up
223569,-0.96875,7.988281,5.855469,-0.113281,0.494141,0.044922,0.860718,0.453552,-0.048767,-0.225891,up
223574,-1.007813,7.988281,5.855469,-0.089844,0.474609,0.033203,0.860718,0.453552,-0.048767,-0.225891,up
223579,-1.007813,7.984375,5.894531,-0.089844,0.474609,0.033203,0.860901,0.453674,-0.047668,-0.225281,up
223584,-0.96875,7.988281,5.855469,-0.033203,0.455078,0.029297,0.860901,0.453674,-0.047668,-0.225281,up
223589,-1.085938,8.0625,5.777344,-0.033203,0.455078,0.029297,0.861267,0.454163,-0.044739,-0.223633,up
223594,-1.125,7.984375,5.777344,-0.033203,0.455078,0.029297,0.861267,0.454163,-0.044739,-0.223633,up
223599,-1.085938,8.027344,5.777344,0.023437,0.445312,0.015625,0.861267,0.454163,-0.044739,-0.223633,up
223604,-1.085938,8.027344,5.777344,0.023437,0.445312,0.015625,0.861328,0.455078,-0.041931,-0.222046,up
223610,-1.085938,8.027344,5.738281,0.023437,0.445312,0.015625,0.861328,0.455383,-0.041077,-0.221497,up
223615,-1.085938,8.027344,5.777344,0.027344,0.443359,0.005859,0.861328,0.45575,-0.0401,-0.221008,up
223621,-1.085938,7.984375,5.738281,0.023437,0.453125,0.007813,0.861328,0.456055,-0.039185,-0.22052,up
223626,-1.085938,7.878906,5.738281,0.023437,0.453125,0.007813,0.861328,0.45636,-0.038208,-0.219971,up
223632,-1.160156,7.878906,5.738281,0.011719,0.486328,0.005859,0.861328,0.45636,-0.038208,-0.219971,up
223637,-1.160156,7.917969,5.738281,0.001953,0.494141,0.009766,0.861328,0.45636,-0.038208,-0.219971,up
223642,-1.277344,7.957031,5.777344,0.001953,0.494141,0.009766,0.861389,0.457336,-0.035095,-0.218323,up
223648,-1.351563,7.984375,5.777344,-0.001953,0.517578,0.017578,0.861389,0.457336,-0.035095,-0.218323,up
223654,-1.429688,7.988281,5.777344,-0.013672,0.513672,0.021484,0.861511,0.458191,-0.031799,-0.216492,up
223659,-1.582031,8.027344,5.894531,-0.013672,0.513672,0.021484,0.861572,0.458435,-0.03064,-0.215881,up
223664,-1.738281,8.066406,5.816406,-0.044922,0.470703,-0.007813,0.861572,0.458435,-0.03064,-0.215881,up
223669,-1.8125,7.988281,5.855469,-0.044922,0.470703,-0.007813,0.861633,0.458618,-0.029602,-0.215332,up
223674,-1.773438,7.953125,6.007812,-0.056641,0.419922,-0.019531,0.861633,0.458618,-0.029602,-0.215332,up
223679,-1.738281,7.917969,6.085937,-0.056641,0.419922,-0.019531,0.861755,0.458923,-0.027588,-0.214478,up
223684,-1.621094,7.917969,6.121094,-0.056641,0.419922,-0.019531,0.861816,0.459045,-0.026672,-0.214233,up
223689,-1.582031,7.878906,6.160156,-0.056641,0.25,-0.085937,0.861816,0.459045,-0.026672,-0.214233,up
223695,-1.582031,7.878906,6.160156,-0.052734,0.246094,-0.097656,0.861877,0.459167,-0.024597,-0.213867,up
223701,-1.507813,7.640625,6.007812,-0.052734,0.246094,-0.097656,0.861877,0.459229,-0.023926,-0.213806,up
223707,-1.507813,7.5625,5.929687,-0.041016,0.261719,-0.107422,0.861816,0.459351,-0.023254,-0.213745,up
223712,-1.546875,7.496094,5.855469,-0.029297,0.283203,-0.09375,0.861816,0.459351,-0.023254,-0.213745,up
223718,-1.582031,7.453125,5.816406,-0.029297,0.283203,-0.09375,0.861816,0.459595,-0.021729,-0.213562,up
223724,-1.582031,7.53125,5.855469,0.015625,0.291016,-0.083984,0.861816,0.459595,-0.021729,-0.213562,up
223729,-1.546875,7.496094,5.855469,0.044922,0.287109,-0.078125,0.861816,0.459595,-0.021729,-0.213562,up
223734,-1.507813,7.53125,5.816406,0.044922,0.287109,-0.078125,0.861389,0.460754,-0.018799,-0.213013,up
223739,-1.507813,7.566406,5.777344,0.044922,0.287109,-0.078125,0.861389,0.460754,-0.018799,-0.213013,up
223744,-1.46875,7.566406,5.703125,0.152344,0.378906,-0.126953,0.861389,0.460754,-0.018799,-0.213013,up
223750,-1.46875,7.457031,5.625,0.152344,0.378906,-0.126953,0.860718,0.46228,-0.016357,-0.212585,up
223755,-1.507813,7.453125,5.546875,0.162109,0.451172,-0.15625,0.860413,0.462952,-0.015198,-0.212402,up
223760,-1.507813,7.414062,5.511719,0.15625,0.490234,-0.162109,0.860168,0.463623,-0.014038,-0.212158,up
223766,-1.582031,7.414062,5.472656,0.15625,0.490234,-0.162109,0.859924,0.464172,-0.013,-0.211975,up
223771,-1.8125,7.453125,5.511719,0.15625,0.490234,-0.162109,0.85968,0.464783,-0.011719,-0.211731,up
223776,-1.929688,7.492187,5.433594,0.09375,0.601562,-0.191406,0.85968,0.464783,-0.011719,-0.211731,up
223782,-2.121094,7.492187,5.355469,0.083984,0.623047,-0.199219,0.85968,0.464783,-0.011719,-0.211731,up
223787,-2.273438,7.496094,5.355469,0.083984,0.623047,-0.199219,0.859009,0.466431,-0.007263,-0.210937,up
223792,-2.3125,7.453125,5.320312,0.044922,0.585937,-0.228516,0.859009,0.466431,-0.007263,-0.210937,up
223798,-2.273438,7.492187,5.394531,0.033203,0.560547,-0.246094,0.859009,0.466431,-0.007263,-0.210937,up
223804,-2.3125,7.492187,5.472656,0.023437,0.529297,-0.255859,0.859009,0.466431,-0.007263,-0.210937,up
223809,-2.3125,7.492187,5.472656,0.060547,0.484375,-0.271484,0.858276,0.468079,-0.001404,-0.210449,up
223814,-2.386719,7.496094,5.394531,0.060547,0.484375,-0.271484,0.858032,0.468445,0.000122,-0.21051,up
223820,-2.386719,7.53125,5.355469,0.103516,0.435547,-0.265625,0.857788,0.468933,0.001404,-0.21051,up
223825,-2.386719,7.53125,5.355469,0.097656,0.414062,-0.25,0.857239,0.469849,0.003784,-0.210632,up
223830,-2.3125,7.535156,5.394531,0.087891,0.423828,-0.232422,0.857239,0.469849,0.003784,-0.210632,up
223835,-2.273438,7.535156,5.355469,0.087891,0.423828,-0.232422,0.85675,0.470703,0.006104,-0.210632,up
223841,-2.234375,7.5625,5.28125,0.087891,0.423828,-0.232422,0.856567,0.471069,0.007263,-0.210571,up
223846,-2.3125,7.566406,5.28125,0.03125,0.517578,-0.185547,0.856384,0.471436,0.008545,-0.210388,up
223851,-2.273438,7.601562,5.242187,0.013672,0.564453,-0.175781,0.856384,0.471436,0.008545,-0.210388,up
223856,-2.273438,7.5625,5.242187,0.007813,0.607422,-0.179687,0.856384,0.471436,0.008545,-0.210388,up
223861,-2.425781,7.601562,5.242187,0.007813,0.607422,-0.179687,0.856384,0.471436,0.008545,-0.210388,up
223866,-2.425781,7.601562,5.242187,-0.011719,0.683594,-0.173828,0.856384,0.471436,0.008545,-0.210388,up
223871,-2.503906,7.605469,5.242187,-0.029297,0.730469,-0.177734,0.856384,0.471436,0.008545,-0.210388,up
223877,-2.617188,7.601562,5.164062,-0.029297,0.730469,-0.177734,0.856384,0.471436,0.008545,-0.210388,up
223882,-2.695313,7.5625,5.128906,-0.035156,0.738281,-0.205078,0.856384,0.471436,0.008545,-0.210388,up
223887,-2.695313,7.5625,5.128906,-0.058594,0.732422,-0.234375,0.855408,0.474182,0.021912,-0.207214,up
223892,-2.695313,7.5625,5.128906,-0.078125,0.712891,-0.269531,0.855286,0.474426,0.023743,-0.206909,up
223897,-2.65625,7.417969,5.128906,-0.078125,0.712891,-0.269531,0.855286,0.474426,0.023743,-0.206909,up
223902,-2.617188,7.339844,5.089844,-0.097656,0.716797,-0.292969,0.855286,0.474426,0.023743,-0.206909,up
223907,-2.617188,7.339844,5.089844,-0.150391,0.722656,-0.351563,0.855103,0.474731,0.027649,-0.206482,up
223913,-2.617188,7.339844,5.089844,-0.150391,0.722656,-0.351563,0.85498,0.474854,0.031799,-0.206238,up
223918,-2.734375,7.03125,5.050781,-0.150391,0.722656,-0.351563,0.85498,0.474854,0.031799,-0.206238,up
223923,-2.695313,7.035156,5.050781,-0.216797,0.757812,-0.384766,0.85498,0.474854,0.031799,-0.206238,up
223928,-2.808594,7.035156,5.011719,-0.236328,0.779297,-0.386719,0.85498,0.474854,0.031799,-0.206238,up
223933,-2.734375,6.996094,5.011719,-0.234375,0.806641,-0.375,0.85498,0.474854,0.031799,-0.206238,up
223938,-2.65625,6.996094,5.011719,-0.208984,0.837891,-0.365234,0.85498,0.474854,0.031799,-0.206238,up
223943,-2.65625,7.035156,5.011719,-0.173828,0.900391,-0.351563,0.85498,0.474854,0.031799,-0.206238,up
223949,-2.65625,7.035156,5.011719,-0.126953,0.953125,-0.332031,0.854492,0.474976,0.050354,-0.204407,up
223954,-2.65625,7.03125,4.933594,-0.126953,0.953125,-0.332031,0.854492,0.474976,0.050354,-0.204407,up
223960,-2.695313,7.070312,4.78125,0.044922,1.167969,-0.289063,0.854492,0.474976,0.050354,-0.204407,up
223965,-2.695313,7.070312,4.78125,0.099609,1.232422,-0.285156,0.853516,0.476624,0.058716,-0.202271,up
223970,-2.769531,7.070312,4.707031,0.099609,1.232422,-0.285156,0.852966,0.477539,0.061768,-0.201416,up
223975,-2.925781,7.035156,4.667969,0.144531,1.361328,-0.269531,0.852966,0.477539,0.061768,-0.201416,up
223980,-3.34375,7.03125,4.550781,0.169922,1.408203,-0.263672,0.852417,0.478577,0.065125,-0.200317,up
223985,-3.574219,7.035156,4.515625,0.169922,1.408203,-0.263672,0.851868,0.479553,0.068298,-0.19928,up
223990,-3.84375,6.992187,4.550781,0.201172,1.417969,-0.259766,0.850647,0.481628,0.074463,-0.197144,up
223995,-3.957031,6.957031,4.589844,0.207031,1.351563,-0.246094,0.849915,0.482849,0.077881,-0.195984,up
224000,-4.074219,6.996094,4.78125,0.207031,1.351563,-0.246094,0.849304,0.483887,0.080872,-0.194946,up
224005,-4.1875,7.109375,4.898437,0.207031,1.351563,-0.246094,0.848694,0.484863,0.083496,-0.194031,up
224010,-4.226562,7.152344,4.972656,0.279297,1.160156,-0.238281,0.848694,0.484863,0.083496,-0.194031,up
224015,-4.148437,7.152344,5.050781,0.318359,1.142578,-0.242187,0.847961,0.486084,0.086426,-0.193054,up
224020,-3.921875,7.261719,5.164062,0.318359,1.142578,-0.242187,0.846436,0.488464,0.091553,-0.191406,up
224025,-3.921875,7.257812,5.089844,0.318359,1.142578,-0.242187,0.845642,0.489685,0.093933,-0.190552,up
224030,-3.882813,7.339844,5.128906,0.289063,1.113281,-0.228516,0.845642,0.489685,0.093933,-0.190552,up
224035,-3.804688,7.378906,5.433594,0.289063,1.113281,-0.228516,0.844788,0.490967,0.096619,-0.189636,up
224041,-3.804688,7.378906,5.433594,0.230469,1.070313,-0.230469,0.843384,0.49292,0.101379,-0.18811,up
224046,-3.574219,7.644531,5.511719,0.169922,1.076172,-0.251953,0.842712,0.493896,0.104004,-0.187317,up
224051,-3.726563,7.414062,5.625,0.169922,1.076172,-0.251953,0.842163,0.494568,0.106384,-0.186646,up
224056,-3.726563,7.257812,5.664062,0.169922,1.076172,-0.251953,0.841614,0.495178,0.108948,-0.186035,up
224061,-3.84375,7.148437,5.625,0.169922,1.076172,-0.251953,0.841614,0.495178,0.108948,-0.186035,up
224066,-3.84375,7.148437,5.625,-0.132812,0.814453,-0.390625,0.840881,0.495667,0.113586,-0.185242,up
224071,-3.84375,7.148437,5.625,-0.208984,0.712891,-0.425781,0.840698,0.495605,0.115784,-0.18512,up
224076,-3.804688,7.261719,5.703125,-0.208984,0.712891,-0.425781,0.840698,0.495605,0.115784,-0.18512,up
224081,-3.804688,7.261719,5.703125,-0.257813,0.658203,-0.496094,0.840515,0.4953,0.117859,-0.185181,up
224086,-3.726563,7.03125,5.703125,-0.257813,0.658203,-0.496094,0.840393,0.494873,0.120056,-0.185425,up
224091,-3.726563,6.765625,5.703125,-0.283203,0.576172,-0.617187,0.84021,0.493896,0.124207,-0.186401,up
224097,-3.921875,6.570312,5.433594,-0.283203,0.576172,-0.617187,0.840027,0.493286,0.126404,-0.187134,up
224102,-3.882813,6.53125,5.625,-0.279297,0.482422,-0.71875,0.840027,0.493286,0.126404,-0.187134,up
224108,-3.882813,6.492187,5.664062,-0.21875,0.451172,-0.734375,0.840027,0.493286,0.126404,-0.187134,up
224113,-3.996094,6.609375,5.625,-0.21875,0.451172,-0.734375,0.839417,0.491821,0.132385,-0.189758,up
224119,-4.113281,6.765625,5.894531,0.003906,0.414062,-0.785156,0.839417,0.491821,0.132385,-0.189758,up
224125,-4.074219,6.835937,5.929687,0.392578,0.355469,-0.820312,0.839417,0.491821,0.132385,-0.189758,up
224130,-4.1875,7.03125,5.894531,0.392578,0.355469,-0.820312,0.836243,0.493286,0.13916,-0.194946,up
224135,-4.265625,7.183594,5.855469,0.392578,0.355469,-0.820312,0.836243,0.493286,0.13916,-0.194946,up
224140,-4.304687,7.339844,5.894531,1.021484,0.232422,-0.873047,0.836243,0.493286,0.13916,-0.194946,up
224145,-4.304687,7.375,5.855469,1.021484,0.232422,-0.873047,0.831238,0.498535,0.1427,-0.200378,up
224150,-4.378906,7.417969,5.816406,1.021484,0.232422,-0.873047,0.829163,0.500854,0.143494,-0.202454,up
224155,-4.457031,7.417969,5.546875,1.021484,0.232422,-0.873047,0.829163,0.500854,0.143494,-0.202454,up
224160,-4.570312,7.457031,5.546875,1.349609,-0.046875,-0.880859,0.829163,0.500854,0.143494,-0.202454,up
224165,-4.570312,7.605469,5.546875,1.349609,-0.046875,-0.880859,0.822693,0.508301,0.144836,-0.209412,up
224170,-4.570312,7.722656,5.355469,1.349609,-0.046875,-0.880859,0.822693,0.508301,0.144836,-0.209412,up
224175,-4.53125,7.800781,5.320312,1.375,-0.279297,-0.851562,0.820251,0.511047,0.144897,-0.21228,up
224180,-4.53125,7.917969,5.242187,1.375,-0.279297,-0.851562,0.818237,0.513245,0.144836,-0.214661,up
224185,-4.457031,7.914062,5.242187,1.308594,-0.421875,-0.833984,0.816101,0.515625,0.144531,-0.217346,up
224190,-4.417969,7.957031,5.128906,1.308594,-0.421875,-0.833984,0.814026,0.517883,0.144104,-0.220093,up
224195,-4.417969,7.914062,5.050781,1.25,-0.464844,-0.8125,0.810181,0.521851,0.142944,-0.225464,up
224200,-4.378906,7.914062,5.050781,1.25,-0.464844,-0.8125,0.810181,0.521851,0.142944,-0.225464,up
224205,-4.378906,7.914062,5.050781,1.25,-0.464844,-0.8125,0.808411,0.523621,0.142212,-0.228088,up
224211,-4.339844,7.875,5.050781,1.060547,-0.599609,-0.728516,0.808411,0.523621,0.142212,-0.228088,up
224216,-4.457031,7.875,5.203125,1.060547,-0.599609,-0.728516,0.803345,0.528503,0.139648,-0.236267,up
224221,-4.496094,7.914062,5.242187,1.060547,-0.599609,-0.728516,0.802063,0.529602,0.138794,-0.238586,up
224226,-4.570312,7.839844,5.128906,0.810547,-0.787109,-0.75,0.800598,0.530762,0.137634,-0.241699,up
224232,-4.609375,7.914062,5.011719,0.810547,-0.787109,-0.75,0.7995,0.531494,0.136658,-0.244324,up
224238,-4.457031,7.683594,4.898437,0.810547,-0.787109,-0.75,0.798279,0.532104,0.135376,-0.247498,up
224244,-4.496094,7.605469,4.820312,0.650391,-1.001953,-0.800781,0.798279,0.532104,0.135376,-0.247498,up
224249,-4.417969,7.53125,4.78125,0.640625,-1.052734,-0.810547,0.798279,0.532104,0.135376,-0.247498,up
224254,-4.378906,7.535156,4.667969,0.667969,-1.095703,-0.820312,0.798279,0.532104,0.135376,-0.247498,up
224260,-4.304687,7.492187,4.707031,0.748047,-1.123047,-0.8125,0.798279,0.532104,0.135376,-0.247498,up
224265,-4.339844,7.640625,4.589844,0.748047,-1.123047,-0.8125,0.792969,0.534119,0.128235,-0.263489,up
224270,-4.339844,7.640625,4.589844,0.804687,-1.115234,-0.802734,0.791748,0.534668,0.126526,-0.266968,up
224275,-4.417969,7.796875,4.476562,0.884766,-1.111328,-0.791016,0.791748,0.534668,0.126526,-0.266968,up
224280,-4.417969,7.796875,4.476562,0.984375,-1.117188,-0.792969,0.78894,0.536255,0.123047,-0.273682,up
224285,-4.496094,7.957031,4.628906,0.984375,-1.117188,-0.792969,0.787354,0.537292,0.121216,-0.277039,up
224290,-4.496094,7.957031,4.628906,1.15625,-1.138672,-0.785156,0.785645,0.538452,0.119263,-0.280396,up
224295,-4.6875,8.40625,4.515625,1.15625,-1.138672,-0.785156,0.783813,0.539734,0.117249,-0.283875,up
224301,-4.570312,8.488281,4.4375,1.019531,-1.183594,-0.767578,0.783813,0.539734,0.117249,-0.283875,up
224306,-4.570312,8.488281,4.4375,0.912109,-1.195313,-0.757812,0.778809,0.542725,0.111267,-0.294067,up
224312,-4.839844,8.527344,4.09375,0.912109,-1.195313,-0.757812,0.777466,0.543335,0.109314,-0.297363,up
224317,-4.878906,8.523438,4.015625,0.734375,-1.222656,-0.703125,0.776184,0.543701,0.107422,-0.300598,up
224322,-4.878906,8.40625,4.015625,0.722656,-1.242188,-0.673828,0.776184,0.543701,0.107422,-0.300598,up
224328,-4.839844,8.296875,4.015625,0.722656,-1.242188,-0.673828,0.773804,0.544312,0.103271,-0.307007,up
224333,-4.6875,8.449219,4.015625,0.722656,-1.242188,-0.673828,0.772583,0.544678,0.101074,-0.310181,up
224339,-4.570312,8.523438,4.054687,0.832031,-1.28125,-0.570312,0.772583,0.544678,0.101074,-0.310181,up
224344,-4.570312,8.566406,4.054687,0.833984,-1.28125,-0.539062,0.772583,0.544678,0.101074,-0.310181,up
224350,-4.339844,8.605469,3.941406,0.833984,-1.28125,-0.539062,0.772583,0.544678,0.101074,-0.310181,up
224355,-4.417969,8.5625,3.863281,0.876953,-1.226563,-0.447266,0.772583,0.544678,0.101074,-0.310181,up
224360,-4.570312,8.527344,3.785156,0.876953,-1.226563,-0.447266,0.766235,0.54718,0.08905,-0.324951,up
224365,-4.53125,8.566406,3.785156,0.876953,-1.226563,-0.447266,0.764832,0.547852,0.086487,-0.327759,up
224370,-4.53125,8.566406,3.746094,0.876953,-1.226563,-0.447266,0.76355,0.548523,0.084167,-0.3302,up
224376,-4.648437,8.605469,3.632813,0.970703,-1.166016,-0.355469,0.76355,0.548523,0.084167,-0.3302,up
224381,-4.648437,8.601563,3.554688,0.970703,-1.166016,-0.355469,0.759277,0.550903,0.076416,-0.33783,up
224386,-4.53125,8.644531,3.441406,0.970703,-1.166016,-0.355469,0.759277,0.550903,0.076416,-0.33783,up
224391,-4.53125,8.644531,3.441406,0.875,-1.152344,-0.333984,0.758057,0.551575,0.074036,-0.340088,up
224396,-4.53125,8.71875,3.480469,0.875,-1.152344,-0.333984,0.756775,0.552124,0.071594,-0.342529,up
224401,-4.265625,8.644531,3.480469,0.794922,-1.113281,-0.326172,0.755554,0.552673,0.069214,-0.344788,up
224406,-4.265625,8.644531,3.480469,0.746094,-1.056641,-0.335938,0.755554,0.552673,0.069214,-0.344788,up
224411,-4.265625,8.566406,3.25,0.746094,-1.056641,-0.335938,0.753235,0.553528,0.064819,-0.349243,up
224416,-4.265625,8.566406,3.25,0.662109,-0.865234,-0.332031,0.753235,0.553528,0.064819,-0.349243,up
224422,-4.265625,8.601563,3.171875,0.648437,-0.796875,-0.316406,0.749939,0.554871,0.059204,-0.355347,up
224427,-4.265625,8.371094,3.171875,0.648437,-0.796875,-0.316406,0.748962,0.555298,0.0578,-0.356934,up
224432,-4.304687,8.335938,3.171875,0.650391,-0.650391,-0.279297,0.748962,0.555298,0.0578,-0.356934,up
224437,-4.304687,8.335938,3.097656,0.650391,-0.650391,-0.279297,0.748962,0.555298,0.0578,-0.356934,up
224442,-4.304687,8.335938,3.097656,0.644531,-0.529297,-0.236328,0.748962,0.555298,0.0578,-0.356934,up
224447,-4.339844,8.261719,3.136719,0.644531,-0.529297,-0.236328,0.748962,0.555298,0.0578,-0.356934,up
224453,-4.226562,8.261719,3.171875,0.615234,-0.433594,-0.195312,0.748962,0.555298,0.0578,-0.356934,up
224459,-4.226562,8.300781,3.210938,0.619141,-0.390625,-0.1875,0.748962,0.555298,0.0578,-0.356934,up
224464,-4.226562,8.296875,3.136719,0.634766,-0.330078,-0.181641,0.748962,0.555298,0.0578,-0.356934,up
224469,-4.1875,8.335938,3.058594,0.662109,-0.277344,-0.183594,0.748962,0.555298,0.0578,-0.356934,up
224475,-4.226562,8.410156,2.90625,0.662109,-0.277344,-0.183594,0.738525,0.56311,0.046875,-0.367859,up
224480,-4.226562,8.445313,2.90625,0.662109,-0.277344,-0.183594,0.738525,0.56311,0.046875,-0.367859,up
224485,-4.1875,8.5625,2.867188,0.650391,-0.023437,-0.144531,0.738525,0.56311,0.046875,-0.367859,up
224490,-4.226562,8.683594,2.828125,0.650391,-0.023437,-0.144531,0.736389,0.565308,0.045837,-0.368896,up
224496,-4.1875,8.722656,2.980469,0.650391,-0.023437,-0.144531,0.734253,0.56781,0.045166,-0.369385,up
224501,-4.226562,8.71875,2.90625,0.650391,0.230469,-0.080078,0.734253,0.56781,0.045166,-0.369385,up
224506,-4.339844,8.753906,2.789063,0.650391,0.230469,-0.080078,0.732239,0.570557,0.045044,-0.369202,up
224511,-4.53125,8.792969,2.597656,0.650391,0.230469,-0.080078,0.731262,0.572083,0.045105,-0.368774,up
224516,-4.722656,8.753906,2.484375,0.650391,0.230469,-0.080078,0.731262,0.572083,0.045105,-0.368774,up
224521,-4.761719,8.753906,2.40625,0.658203,0.455078,0.103516,0.731262,0.572083,0.045105,-0.368774,up
224526,-4.878906,8.867188,2.445313,0.658203,0.455078,0.103516,0.728455,0.576904,0.045349,-0.366699,up
224531,-4.953125,8.949219,2.367188,0.658203,0.455078,0.103516,0.7276,0.578613,0.045471,-0.365723,up
224536,-5.03125,9.253906,2.292969,0.658203,0.455078,0.103516,0.7276,0.578613,0.045471,-0.365723,up
224541,-5.070312,9.367188,2.253906,0.632812,0.574219,0.246094,0.7276,0.578613,0.045471,-0.365723,up
224546,-5.261719,9.40625,2.214844,0.632812,0.574219,0.246094,0.725952,0.582031,0.045654,-0.363525,up
224551,-5.109375,9.484375,2.175781,0.587891,0.578125,0.263672,0.724609,0.585266,0.045898,-0.361023,up
224556,-5.070312,9.632813,2.214844,0.507812,0.617187,0.324219,0.724609,0.585266,0.045898,-0.361023,up
224561,-5.109375,9.527344,2.292969,0.439453,0.666016,0.337891,0.723938,0.586975,0.046082,-0.359497,up
224566,-5.109375,9.445313,2.292969,0.439453,0.666016,0.337891,0.723206,0.589661,0.046692,-0.356567,up
224571,-5.070312,9.558594,2.214844,0.173828,0.742187,0.378906,0.723206,0.589661,0.046692,-0.356567,up
224576,-5.144531,9.488281,2.253906,0.173828,0.742187,0.378906,0.723083,0.59082,0.047241,-0.354736,up
224581,-5.261719,9.328125,2.253906,0.029297,0.759766,0.386719,0.723083,0.59082,0.047241,-0.354736,up
224586,-5.222656,9.328125,2.214844,-0.253906,0.773437,0.416016,0.72345,0.592346,0.048767,-0.351257,up
224591,-5.300781,9.253906,2.253906,-0.253906,0.773437,0.416016,0.724731,0.592896,0.05072,-0.347412,up
224596,-5.527344,9.066406,2.175781,-0.253906,0.773437,0.416016,0.724731,0.592896,0.05072,-0.347412,up
224601,-5.644531,9.027344,2.0625,-0.550781,0.765625,0.441406,0.725647,0.592896,0.052002,-0.345276,up
224606,-5.605469,9.0625,1.949219,-0.550781,0.765625,0.441406,0.726746,0.592651,0.053223,-0.343201,up
224612,-5.566406,9.105469,2.0625,-0.601562,0.675781,0.470703,0.729065,0.591797,0.055237,-0.339355,up
224618,-4.878906,9.289063,2.636719,-0.601562,0.675781,0.470703,0.730164,0.591248,0.055908,-0.337891,up
224623,-4.761719,9.371094,2.828125,-0.539062,0.423828,0.447266,0.731323,0.590637,0.056519,-0.336304,up
224628,-4.761719,9.371094,2.828125,-0.484375,0.466797,0.421875,0.732361,0.590149,0.057129,-0.334778,up
224633,-4.761719,9.371094,2.828125,-0.46875,0.523437,0.398438,0.733337,0.589783,0.0578,-0.333313,up
224638,-4.53125,9.171875,3.097656,-0.46875,0.523437,0.398438,0.733337,0.589783,0.0578,-0.333313,up
224643,-4.457031,8.984375,3.171875,-0.486328,0.601562,0.359375,0.733337,0.589783,0.0578,-0.333313,up
224648,-4.457031,8.984375,3.171875,-0.574219,0.712891,0.328125,0.736206,0.588684,0.060913,-0.328308,up
224653,-4.378906,8.683594,3.363281,-0.574219,0.712891,0.328125,0.737244,0.588196,0.062317,-0.326538,up
224659,-4.53125,8.484375,3.210938,-0.800781,0.890625,0.292969,0.737244,0.588196,0.062317,-0.326538,up
224664,-4.496094,8.40625,3.097656,-0.939453,0.949219,0.285156,0.737244,0.588196,0.062317,-0.326538,up
224670,-4.457031,8.445313,3.019531,-1.085938,0.960937,0.298828,0.737244,0.588196,0.062317,-0.326538,up
224676,-4.457031,8.261719,3.136719,-1.085938,0.960937,0.298828,0.737244,0.588196,0.062317,-0.326538,up
224681,-4.457031,8.296875,3.171875,-1.347656,0.931641,0.28125,0.737244,0.588196,0.062317,-0.326538,up
224686,-4.339844,8.371094,3.25,-1.347656,0.931641,0.28125,0.747009,0.581116,0.075195,-0.313965,up
224691,-4.417969,8.0625,3.328125,-1.332031,0.949219,0.238281,0.747009,0.581116,0.075195,-0.313965,up
224696,-4.378906,8.0625,3.25,-1.201172,1.025391,0.148437,0.750793,0.57782,0.080017,-0.309937,up
224701,-4.417969,8.105469,3.097656,-1.201172,1.025391,0.148437,0.752625,0.576172,0.082825,-0.307739,up
224706,-4.53125,8.027344,3.097656,-0.970703,1.035156,0.072266,0.754211,0.574768,0.085571,-0.305725,up
224712,-4.648437,7.957031,2.980469,-0.970703,1.035156,0.072266,0.756531,0.572815,0.090454,-0.302246,up
224717,-4.648437,7.984375,2.945313,-0.765625,0.966797,0.007813,0.757568,0.57196,0.09314,-0.300415,up
224722,-4.609375,8.023438,2.90625,-0.765625,0.966797,0.007813,0.758423,0.571289,0.09552,-0.298889,up
224727,-4.6875,8.144531,2.90625,-0.765625,0.966797,0.007813,0.758423,0.571289,0.09552,-0.298889,up
224732,-4.648437,8.144531,2.980469,-0.636719,0.900391,-0.033203,0.759644,0.570251,0.09967,-0.296326,up
224737,-4.648437,8.300781,2.980469,-0.550781,0.806641,-0.046875,0.760254,0.569702,0.101929,-0.294983,up
224742,-4.609375,8.484375,3.210938,-0.550781,0.806641,-0.046875,0.760803,0.569275,0.103821,-0.293823,up
224747,-4.648437,8.679688,3.210938,-0.550781,0.806641,-0.046875,0.76123,0.568848,0.10553,-0.292786,up
224752,-4.6875,8.832031,3.363281,-0.464844,0.75,-0.019531,0.76178,0.568481,0.107544,-0.291565,up
224757,-4.6875,8.945313,3.328125,-0.441406,0.753906,-0.003906,0.762207,0.568176,0.109314,-0.290405,up
224763,-4.839844,9.101563,3.328125,-0.441406,0.753906,-0.003906,0.762573,0.567871,0.11084,-0.289307,up
224768,-4.839844,9.101563,3.328125,-0.433594,0.689453,0.107422,0.763062,0.567627,0.112427,-0.287964,up
224774,-4.914062,9.214844,3.441406,-0.433594,0.689453,0.107422,0.76355,0.567322,0.113708,-0.286743,up
224780,-4.800781,9.410156,3.480469,-0.433594,0.689453,0.107422,0.764221,0.566895,0.115112,-0.285156,up
224785,-4.878906,9.253906,3.59375,-0.46875,0.572266,0.308594,0.764221,0.566895,0.115112,-0.285156,up
224790,-4.6875,9.484375,3.480469,-0.484375,0.535156,0.355469,0.764221,0.566895,0.115112,-0.285156,up
224795,-4.6875,9.675781,3.480469,-0.5,0.476562,0.410156,0.764221,0.566895,0.115112,-0.285156,up
224800,-4.570312,9.445313,3.710938,-0.5,0.476562,0.410156,0.764221,0.566895,0.115112,-0.285156,up
224805,-4.339844,9.40625,3.671875,-0.5,0.476562,0.410156,0.76825,0.564453,0.118652,-0.277588,up
224810,-4.226562,9.253906,3.710938,-0.625,0.363281,0.478516,0.76825,0.564453,0.118652,-0.277588,up
224815,-4.226562,9.171875,3.632813,-0.662109,0.394531,0.482422,0.76825,0.564453,0.118652,-0.277588,up
224820,-4.265625,9.214844,3.441406,-0.662109,0.394531,0.482422,0.76825,0.564453,0.118652,-0.277588,up
224825,-4.378906,9.171875,3.363281,-0.662109,0.394531,0.482422,0.772705,0.561157,0.120728,-0.270996,up
224830,-4.457031,8.984375,3.480469,-0.695312,0.425781,0.472656,0.772705,0.561157,0.120728,-0.270996,up
224836,-4.378906,8.828125,3.441406,-0.708984,0.396484,0.488281,0.776245,0.55835,0.122498,-0.265808,up
224841,-4.378906,8.722656,3.554688,-0.708984,0.396484,0.488281,0.776245,0.55835,0.122498,-0.265808,up
224846,-4.339844,8.644531,3.519531,-0.693359,0.380859,0.511719,0.776245,0.55835,0.122498,-0.265808,up
224851,-4.339844,8.644531,3.519531,-0.654297,0.373047,0.539062,0.778564,0.556519,0.123413,-0.26239,up
224856,-4.226562,8.605469,3.671875,-0.654297,0.373047,0.539062,0.778564,0.556519,0.123413,-0.26239,up
224861,-4.226562,8.605469,3.671875,-0.509766,0.351563,0.580078,0.780762,0.555054,0.124084,-0.25885,up
224866,-4.1875,8.644531,3.863281,-0.509766,0.351563,0.580078,0.781616,0.554565,0.124207,-0.25708,up
224871,-4.074219,8.445313,3.824219,-0.369141,0.333984,0.625,0.782532,0.554138,0.124268,-0.255249,up
224877,-4.074219,8.488281,3.824219,-0.3125,0.314453,0.642578,0.782532,0.554138,0.124268,-0.255249,up
224882,-4.074219,8.488281,3.824219,-0.244141,0.212891,0.697266,0.782532,0.554138,0.124268,-0.255249,up
224887,-3.957031,8.488281,3.902344,-0.244141,0.212891,0.697266,0.785461,0.553467,0.123169,-0.248108,up
224892,-3.957031,8.445313,3.902344,-0.244141,0.212891,0.697266,0.786072,0.553406,0.122559,-0.246582,up
224897,-3.882813,8.367188,3.941406,-0.207031,0.082031,0.742187,0.786072,0.553406,0.122559,-0.246582,up
224902,-3.882813,8.371094,3.863281,-0.216797,0.056641,0.740234,0.786865,0.553284,0.121765,-0.244812,up
224907,-3.84375,8.367188,3.824219,-0.244141,0.027344,0.75,0.787537,0.553162,0.120972,-0.243225,up
224913,-3.84375,8.371094,3.863281,-0.244141,0.027344,0.75,0.789062,0.552673,0.119385,-0.240112,up
224918,-3.804688,8.40625,3.863281,-0.294922,0.011719,0.742187,0.789856,0.552368,0.11853,-0.238586,up
224923,-3.804688,8.445313,3.824219,-0.314453,0.015625,0.724609,0.79071,0.552002,0.117737,-0.237061,up
224929,-3.882813,8.445313,3.863281,-0.314453,0.015625,0.724609,0.791626,0.551575,0.116943,-0.235474,up
224934,-3.882813,8.410156,3.863281,-0.361328,0.050781,0.707031,0.791626,0.551575,0.116943,-0.235474,up
224939,-3.882813,8.40625,3.824219,-0.384766,0.080078,0.716797,0.791626,0.551575,0.116943,-0.235474,up
224945,-3.921875,8.445313,3.824219,-0.384766,0.080078,0.716797,0.794312,0.55011,0.114929,-0.230652,up
224951,-3.921875,8.445313,3.941406,-0.433594,0.115234,0.712891,0.794312,0.55011,0.114929,-0.230652,up
224956,-3.882813,8.449219,3.941406,-0.470703,0.162109,0.720703,0.794312,0.55011,0.114929,-0.230652,up
224961,-3.882813,8.371094,3.902344,-0.470703,0.162109,0.720703,0.797241,0.548279,0.113464,-0.225525,up
224966,-3.921875,8.339844,3.902344,-0.470703,0.162109,0.720703,0.798279,0.547668,0.113037,-0.223694,up
224971,-3.921875,8.257813,3.941406,-0.529297,0.193359,0.728516,0.799377,0.546936,0.112732,-0.221802,up
224976,-3.957031,8.144531,3.902344,-0.529297,0.193359,0.728516,0.800415,0.546204,0.112366,-0.219971,up
224981,-3.921875,8.101563,3.941406,-0.541016,0.181641,0.728516,0.800415,0.546204,0.112366,-0.219971,up
224987,-3.882813,8.023438,3.941406,-0.523437,0.15625,0.732422,0.800415,0.546204,0.112366,-0.219971,up
224992,-3.84375,7.984375,3.976563,-0.472656,0.091797,0.724609,0.800415,0.546204,0.112366,-0.219971,up
224998,-3.726563,7.875,4.015625,-0.472656,0.091797,0.724609,0.805664,0.54248,0.109985,-0.210937,up
225003,-3.613281,7.835937,4.054687,-0.472656,0.091797,0.724609,0.80658,0.54187,0.109314,-0.209412,up
225008,-3.613281,7.835937,4.054687,-0.326172,0.003906,0.714844,0.807373,0.541382,0.108521,-0.207886,up
225013,-3.613281,7.875,4.015625,-0.326172,0.003906,0.714844,0.808228,0.540955,0.107666,-0.206238,up
225019,-3.535156,7.988281,3.941406,-0.326172,0.003906,0.714844,0.808899,0.540588,0.106812,-0.204956,up
225025,-3.535156,8.101563,3.976563,-0.214844,-0.035156,0.683594,0.808899,0.540588,0.106812,-0.204956,up
225030,-3.613281,8.222656,4.015625,-0.183594,-0.029297,0.669922,0.808899,0.540588,0.106812,-0.204956,up
225035,-3.691406,8.339844,4.09375,-0.183594,-0.029297,0.669922,0.810791,0.539856,0.104126,-0.200806,up
225040,-3.726563,8.445313,4.132812,-0.173828,-0.009766,0.642578,0.810791,0.539856,0.104126,-0.200806,up
225045,-3.804688,8.523438,4.132812,-0.179687,0.009766,0.630859,0.810791,0.539856,0.104126,-0.200806,up
225050,-3.882813,8.5625,4.167969,-0.210937,0.025391,0.642578,0.810791,0.539856,0.104126,-0.200806,up
225055,-3.957031,8.753906,4.167969,-0.210937,0.025391,0.642578,0.810791,0.539856,0.104126,-0.200806,up
225061,-4.074219,8.75,4.167969,-0.210937,0.025391,0.642578,0.813721,0.538635,0.100342,-0.193909,up
225067,-4.113281,8.753906,4.132812,-0.40625,0.054687,0.703125,0.813721,0.538635,0.100342,-0.193909,up
225072,-4.148437,8.75,4.246094,-0.40625,0.054687,0.703125,0.816223,0.536926,0.098328,-0.189087,up
225077,-4.1875,8.71875,4.285156,-0.40625,0.054687,0.703125,0.816223,0.536926,0.098328,-0.189087,up
225082,-4.265625,8.683594,4.324219,-0.5625,0.027344,0.755859,0.816223,0.536926,0.098328,-0.189087,up
225087,-4.226562,8.601563,4.285156,-0.5625,0.027344,0.755859,0.819458,0.534241,0.096252,-0.18396,up
225092,-4.1875,8.484375,4.359375,-0.5625,0.027344,0.755859,0.820557,0.533203,0.095459,-0.182312,up
225097,-4.113281,8.335938,4.476562,-0.5625,0.027344,0.755859,0.820557,0.533203,0.095459,-0.182312,up
225102,-4.035156,8.296875,4.515625,-0.539062,-0.097656,0.753906,0.820557,0.533203,0.095459,-0.182312,up
225107,-3.957031,8.179688,4.550781,-0.539062,-0.097656,0.753906,0.822815,0.531189,0.093628,-0.179016,up
225112,-3.957031,8.179688,4.550781,-0.490234,-0.109375,0.736328,0.822815,0.531189,0.093628,-0.179016,up
225117,-3.84375,8.0625,4.589844,-0.490234,-0.109375,0.736328,0.823853,0.530273,0.092651,-0.17749,up
225122,-3.84375,8.0625,4.589844,-0.398438,-0.132812,0.699219,0.825745,0.528625,0.090637,-0.174622,up
225127,-3.613281,7.878906,4.628906,-0.398438,-0.132812,0.699219,0.825745,0.528625,0.090637,-0.174622,up
225132,-3.613281,7.878906,4.628906,-0.332031,-0.128906,0.658203,0.827332,0.527344,0.088562,-0.171997,up
225137,-3.421875,7.722656,4.550781,-0.332031,-0.128906,0.658203,0.828796,0.526245,0.086548,-0.169434,up
225142,-3.230469,7.679687,4.742187,-0.332031,-0.128906,0.658203,0.828796,0.526245,0.086548,-0.169434,up
225147,-3.152344,7.71875,4.78125,-0.234375,-0.107422,0.65625,0.829468,0.525757,0.085449,-0.168152,up
225152,-3.152344,7.800781,4.78125,-0.234375,-0.107422,0.65625,0.830688,0.524963,0.083496,-0.165649,up
225157,-3.0,7.875,4.898437,-0.234375,-0.107422,0.65625,0.830688,0.524963,0.083496,-0.165649,up
225163,-2.960938,7.914062,4.898437,-0.234375,-0.107422,0.65625,0.831787,0.524353,0.081421,-0.162842,up
225168,-2.925781,8.023438,4.898437,-0.150391,-0.0625,0.646484,0.831787,0.524353,0.081421,-0.162842,up
225173,-2.886719,8.0625,4.933594,-0.138672,-0.060547,0.644531,0.832275,0.52417,0.080444,-0.16156,up
225178,-2.734375,8.222656,4.898437,-0.138672,-0.060547,0.644531,0.83313,0.523804,0.078674,-0.159058,up
225183,-2.695313,8.300781,4.859375,-0.138672,-0.060547,0.644531,0.833618,0.523621,0.077759,-0.157776,up
225188,-2.65625,8.410156,4.820312,-0.138672,-0.052734,0.601562,0.834045,0.523437,0.076904,-0.156494,up
225193,-2.503906,8.484375,4.707031,-0.138672,-0.052734,0.601562,0.834534,0.523193,0.075989,-0.155212,up
225198,-2.386719,8.527344,4.742187,-0.138672,-0.052734,0.601562,0.834961,0.522949,0.075195,-0.154053,up
225203,-2.3125,8.640625,4.707031,-0.207031,-0.046875,0.589844,0.835449,0.522644,0.07428,-0.15271,up
225208,-2.234375,8.683594,4.667969,-0.207031,-0.046875,0.589844,0.835937,0.522278,0.073547,-0.15155,up
225213,-2.082031,8.753906,4.515625,-0.207031,-0.046875,0.589844,0.836548,0.521912,0.072754,-0.150208,up
225219,-2.003906,8.90625,4.4375,-0.207031,-0.046875,0.589844,0.837036,0.521484,0.072083,-0.148926,up
225224,-1.964844,9.023438,4.4375,-0.261719,0.035156,0.666016,0.837036,0.521484,0.072083,-0.148926,up
225231,-1.890625,9.105469,4.398437,-0.253906,0.080078,0.703125,0.837036,0.521484,0.072083,-0.148926,up
225237,-1.8125,9.253906,4.324219,-0.253906,0.080078,0.703125,0.837036,0.521484,0.072083,-0.148926,up
225243,-1.738281,9.371094,4.359375,-0.173828,0.271484,0.869141,0.837036,0.521484,0.072083,-0.148926,up
225248,-1.738281,9.527344,4.359375,-0.173828,0.271484,0.869141,0.840332,0.519775,0.06842,-0.137817,up
225254,-1.621094,9.910156,4.398437,-0.173828,0.271484,0.869141,0.840698,0.519836,0.068054,-0.135315,up
225259,-1.507813,9.941406,4.398437,-0.027344,0.560547,1.050781,0.841064,0.520081,0.06781,-0.132507,up
225264,-1.46875,10.015625,4.398437,0.037109,0.677734,1.087891,0.841064,0.520081,0.06781,-0.132507,up
225269,-1.351563,10.097656,4.398437,0.037109,0.677734,1.087891,0.841431,0.521057,0.067749,-0.126038,up
225274,-1.238281,10.480469,4.324219,0.037109,0.677734,1.087891,0.841431,0.521057,0.067749,-0.126038,up
225279,-1.238281,10.59375,4.285156,0.201172,1.072266,1.193359,0.841431,0.521057,0.067749,-0.126038,up
225284,-1.277344,10.78125,4.359375,0.248047,1.201172,1.214844,0.841431,0.521057,0.067749,-0.126038,up
225290,-1.351563,11.015625,4.398437,0.248047,1.201172,1.214844,0.841125,0.52478,0.070251,-0.110352,up
225296,-1.390625,11.207031,4.324219,0.310547,1.458984,1.257813,0.841125,0.52478,0.070251,-0.110352,up
225301,-1.582031,11.703125,4.054687,0.34375,1.582031,1.306641,0.841125,0.52478,0.070251,-0.110352,up
225307,-1.621094,12.011719,3.902344,0.386719,1.707031,1.353516,0.839966,0.528748,0.074463,-0.096375,up
225312,-1.621094,12.011719,3.902344,0.441406,1.832031,1.419922,0.839417,0.530273,0.076233,-0.091187,up
225317,-1.621094,12.011719,3.902344,0.501953,1.964844,1.496094,0.838806,0.531982,0.078125,-0.085754,up
225322,-1.738281,12.390625,3.785156,0.501953,1.964844,1.496094,0.838013,0.533813,0.080322,-0.079712,up
225327,-1.8125,12.773438,3.519531,0.501953,1.964844,1.496094,0.838013,0.533813,0.080322,-0.079712,up
225332,-1.8125,12.773438,3.519531,0.515625,2.447266,1.792969,0.836243,0.537537,0.085266,-0.066589,up
225338,-2.042969,13.121094,3.171875,0.384766,2.714844,1.970703,0.836243,0.537537,0.085266,-0.066589,up
225343,-2.042969,13.121094,3.171875,0.384766,2.714844,1.970703,0.833557,0.542603,0.093811,-0.044006,up
225348,-2.121094,13.355469,3.019531,0.384766,2.714844,1.970703,0.833557,0.542603,0.093811,-0.044006,up
225353,-2.003906,13.390625,3.019531,0.326172,2.916016,2.160156,0.831604,0.545593,0.100281,-0.026428,up
225358,-1.964844,13.539063,3.058594,0.326172,2.916016,2.160156,0.830566,0.546936,0.103516,-0.0177,up
225363,-2.003906,13.511719,3.019531,0.326172,2.916016,2.160156,0.829468,0.548218,0.106628,-0.00946,up
225368,-2.121094,13.542969,3.097656,0.361328,3.271484,2.332031,0.829468,0.548218,0.106628,-0.00946,up
225373,-2.121094,13.542969,3.097656,0.361328,3.271484,2.332031,0.828125,0.549622,0.110229,-6.1e-05,up
225378,-2.234375,13.894531,3.210938,0.425781,3.345703,2.337891,0.826599,0.551025,0.11377,0.009155,up
225384,-2.234375,13.894531,3.210938,0.517578,3.431641,2.355469,0.824951,0.552551,0.117493,0.018433,up
225390,-2.234375,13.894531,3.210938,0.517578,3.431641,2.355469,0.820801,0.55603,0.125488,0.037659,up
225395,-2.386719,13.890625,3.019531,0.755859,3.603516,2.367188,0.81842,0.557861,0.129578,0.047119,up
225402,-2.617188,14.0,2.980469,0.755859,3.603516,2.367188,0.81842,0.557861,0.129578,0.047119,up
225407,-2.65625,13.851563,3.25,0.746094,3.669922,2.380859,0.81842,0.557861,0.129578,0.047119,up
225413,-2.695313,13.734375,3.402344,0.671875,3.675781,2.375,0.81842,0.557861,0.129578,0.047119,up
225418,-2.695313,13.582031,3.441406,0.349609,3.681641,2.369141,0.807739,0.564453,0.146484,0.086426,up
225423,-2.734375,13.390625,3.441406,0.349609,3.681641,2.369141,0.802734,0.565857,0.155029,0.106934,up
225428,-2.734375,13.234375,3.480469,-0.095703,3.650391,2.318359,0.802734,0.565857,0.155029,0.106934,up
225433,-2.769531,12.855469,3.554688,-0.095703,3.650391,2.318359,0.800537,0.565735,0.159119,0.117065,up
225438,-2.769531,12.855469,3.554688,-0.443359,3.537109,2.292969,0.79895,0.565125,0.162598,0.126038,up
225443,-2.503906,12.546875,3.785156,-0.443359,3.537109,2.292969,0.797668,0.56366,0.166138,0.135742,up
225449,-2.769531,11.863281,3.554688,-0.941406,3.429688,2.205078,0.796631,0.561707,0.169495,0.145264,up
225454,-2.769531,11.863281,3.554688,-1.173828,3.326172,2.154297,0.795837,0.559204,0.172852,0.15509,up
225460,-2.847656,11.242188,3.554688,-1.173828,3.326172,2.154297,0.795166,0.552917,0.178589,0.17334,up
225466,-2.925781,11.136719,3.59375,-1.761719,3.017578,1.949219,0.795166,0.552917,0.178589,0.17334,up
225471,-2.886719,10.863281,3.632813,-1.761719,3.017578,1.949219,0.795471,0.544983,0.183594,0.191101,up
225476,-2.886719,10.675781,3.710938,-1.996094,2.810547,1.787109,0.795471,0.544983,0.183594,0.191101,up
225481,-2.925781,10.398438,3.746094,-2.099609,2.695313,1.697266,0.795471,0.544983,0.183594,0.191101,up
225486,-2.960938,10.136719,3.710938,-2.099609,2.695313,1.697266,0.797363,0.530396,0.18988,0.216309,up
225491,-2.886719,9.523438,3.785156,-2.099609,2.695313,1.697266,0.797363,0.530396,0.18988,0.216309,up
225496,-2.847656,9.171875,3.824219,-2.460938,2.320313,1.429688,0.797363,0.530396,0.18988,0.216309,up
225502,-2.769531,8.910156,3.863281,-2.460938,2.320313,1.429688,0.800842,0.514526,0.193909,0.237244,up
225508,-2.617188,8.445313,3.863281,-2.460938,2.320313,1.429688,0.800842,0.514526,0.193909,0.237244,up
225513,-2.617188,8.445313,3.863281,-2.792969,1.917969,1.191406,0.804138,0.502502,0.195557,0.250183,up
225518,-2.539063,8.261719,3.824219,-2.792969,1.917969,1.191406,0.80603,0.496216,0.196045,0.256165,up
225523,-2.195313,7.640625,3.824219,-3.042969,1.623047,1.056641,0.808167,0.489746,0.196106,0.261841,up
225528,-2.195313,7.640625,3.824219,-3.042969,1.623047,1.056641,0.808167,0.489746,0.196106,0.261841,up
225533,-2.121094,7.375,3.785156,-3.212891,1.339844,0.925781,0.808167,0.489746,0.196106,0.261841,up
225538,-1.890625,6.570312,3.710938,-3.248047,1.207031,0.871094,0.808167,0.489746,0.196106,0.261841,up
225543,-1.773438,6.265625,3.671875,-3.248047,1.207031,0.871094,0.821228,0.454285,0.192383,0.286621,up
225548,-1.621094,5.992187,3.710938,-3.25,0.863281,0.701172,0.821228,0.454285,0.192383,0.286621,up
225553,-1.582031,5.804687,3.632813,-3.25,0.863281,0.701172,0.82373,0.447876,0.191162,0.290344,up
225558,-1.390625,5.421875,3.554688,-3.230469,0.765625,0.642578,0.82373,0.447876,0.191162,0.290344,up
225563,-1.316406,5.230469,3.554688,-3.166016,0.619141,0.515625,0.829285,0.434021,0.188049,0.297729,up
225568,-1.277344,5.121094,3.519531,-3.166016,0.619141,0.515625,0.832275,0.426453,0.186157,0.301331,up
225573,-1.277344,5.121094,3.519531,-3.101563,0.572266,0.443359,0.834778,0.420288,0.18457,0.304077,up
225578,-1.160156,4.847656,3.519531,-3.03125,0.533203,0.376953,0.834778,0.420288,0.18457,0.304077,up
225583,-1.160156,4.847656,3.519531,-2.960938,0.507812,0.304688,0.840088,0.407043,0.181274,0.309448,up
225588,-1.125,4.734375,3.480469,-2.960938,0.507812,0.304688,0.842529,0.400635,0.17981,0.311829,up
225593,-1.125,4.734375,3.480469,-2.828125,0.474609,0.171875,0.845032,0.394409,0.178284,0.313965,up
225598,-0.96875,4.542969,3.710938,-2.828125,0.474609,0.171875,0.847534,0.388062,0.17688,0.315979,up
225604,-0.96875,4.539062,3.671875,-2.699219,0.447266,0.037109,0.847534,0.388062,0.17688,0.315979,up
225609,-0.96875,4.539062,3.671875,-2.685547,0.433594,0.007813,0.854614,0.36969,0.172913,0.321045,up
225614,-0.96875,4.3125,3.785156,-2.685547,0.433594,0.007813,0.856934,0.363647,0.171631,0.32251,up
225620,-1.046875,4.078125,3.785156,-2.685547,0.433594,0.007813,0.859192,0.357666,0.170349,0.323914,up
225625,-1.007813,3.972656,3.824219,-2.642578,0.388672,-0.044922,0.859192,0.357666,0.170349,0.323914,up
225631,-0.933594,3.738281,3.902344,-2.642578,0.388672,-0.044922,0.863647,0.34552,0.167664,0.326538,up
225636,-0.894531,3.621094,3.902344,-2.568359,0.357422,-0.068359,0.863647,0.34552,0.167664,0.326538,up
225642,-0.855469,3.507813,3.980469,-2.498047,0.341797,-0.076172,0.863647,0.34552,0.167664,0.326538,up
225648,-0.742187,3.355469,4.164062,-2.425781,0.322266,-0.074219,0.863647,0.34552,0.167664,0.326538,up
225653,-0.742187,3.355469,4.164062,-2.318359,0.304688,-0.087891,0.871765,0.322571,0.162476,0.330994,up
225659,-0.703125,3.316406,4.203125,-2.318359,0.304688,-0.087891,0.873535,0.317444,0.161255,0.331909,up
225664,-0.742187,3.277344,4.363281,-1.900391,0.273438,-0.076172,0.875122,0.312622,0.160217,0.332825,up
225669,-0.742187,3.277344,4.363281,-1.900391,0.273438,-0.076172,0.875122,0.312622,0.160217,0.332825,up
225674,-0.933594,3.316406,4.664062,-1.767578,0.267578,-0.074219,0.879333,0.299622,0.15741,0.335083,up
225679,-0.96875,3.316406,4.742187,-1.767578,0.267578,-0.074219,0.880493,0.295898,0.156677,0.335693,up
225684,-1.007813,3.394531,5.011719,-1.767578,0.267578,-0.074219,0.881653,0.292114,0.155945,0.336243,up
225689,-1.046875,3.429688,5.089844,-1.767578,0.267578,-0.074219,0.882629,0.288818,0.155212,0.336731,up
225694,-1.125,3.394531,5.089844,-1.392578,0.191406,-0.080078,0.883728,0.285278,0.15448,0.33728,up
225699,-1.160156,3.355469,5.203125,-1.392578,0.191406,-0.080078,0.883728,0.285278,0.15448,0.33728,up
225705,-1.125,3.277344,5.429687,-1.392578,0.191406,-0.080078,0.885681,0.279175,0.153015,0.338013,up
225710,-1.125,3.277344,5.429687,-1.3125,0.095703,-0.117188,0.886658,0.276001,0.152161,0.338318,up
225715,-1.160156,3.316406,5.507812,-1.28125,0.066406,-0.126953,0.886658,0.276001,0.152161,0.338318,up
225720,-1.125,3.316406,5.507812,-1.253906,0.03125,-0.144531,0.886658,0.276001,0.152161,0.338318,up
225725,-1.085938,3.394531,5.589844,-1.253906,0.03125,-0.144531,0.886658,0.276001,0.152161,0.338318,up
225730,-1.085938,3.394531,5.589844,-1.166016,-0.033203,-0.185547,0.890564,0.264587,0.148437,0.338867,up
225735,-1.007813,3.46875,5.707031,-1.166016,-0.033203,-0.185547,0.891541,0.262085,0.147461,0.338745,up
225741,-0.96875,3.777344,5.890625,-1.166016,-0.033203,-0.185547,0.892456,0.259705,0.146545,0.338562,up
225746,-0.933594,3.890625,6.007812,-0.919922,-0.128906,-0.246094,0.892456,0.259705,0.146545,0.338562,up
225751,-0.96875,3.890625,6.050781,-0.849609,-0.171875,-0.257813,0.892456,0.259705,0.146545,0.338562,up
225757,-0.933594,3.929688,6.007812,-0.822266,-0.222656,-0.263672,0.892456,0.259705,0.146545,0.338562,up
225763,-1.007813,3.96875,6.15625,-0.822266,-0.222656,-0.263672,0.892456,0.259705,0.146545,0.338562,up
225768,-0.96875,4.003906,6.273437,-0.800781,-0.310547,-0.275391,0.892456,0.259705,0.146545,0.338562,up
225773,-0.933594,4.195312,6.316406,-0.806641,-0.351563,-0.28125,0.892456,0.259705,0.146545,0.338562,up
225778,-0.933594,4.195312,6.355469,-0.806641,-0.351563,-0.28125,0.898437,0.247192,0.138733,0.335327,up
225784,-0.855469,4.160156,6.433594,-0.939453,-0.501953,-0.40625,0.898437,0.247192,0.138733,0.335327,up
225789,-0.777344,4.121094,6.472656,-0.939453,-0.501953,-0.40625,0.901611,0.24176,0.133789,0.332764,up
225794,-0.742187,4.082031,6.390625,-0.939453,-0.501953,-0.40625,0.902771,0.239807,0.132019,0.331726,up
225799,-0.664062,4.003906,6.511719,-0.939453,-0.501953,-0.40625,0.904175,0.237488,0.129883,0.330444,up
225804,-0.625,3.96875,6.65625,-1.142578,-0.664062,-0.634766,0.904175,0.237488,0.129883,0.330444,up
225809,-0.625,3.929688,6.660156,-1.142578,-0.664062,-0.634766,0.906921,0.233154,0.125854,0.327576,up
225814,-0.625,4.042969,6.855469,-1.142578,-0.664062,-0.634766,0.906921,0.233154,0.125854,0.327576,up
225819,-0.625,4.042969,6.855469,-1.089844,-0.720703,-0.769531,0.908386,0.231018,0.123779,0.325867,up
225824,-0.664062,4.195312,6.925781,-1.089844,-0.720703,-0.769531,0.909851,0.228943,0.121765,0.323975,up
225829,-0.816406,4.542969,7.121094,-0.976562,-0.744141,-0.882812,0.911377,0.226929,0.11969,0.321899,up
225834,-0.816406,4.542969,7.121094,-0.935547,-0.742187,-0.929687,0.912842,0.225098,0.117737,0.319702,up
225839,-0.816406,4.542969,7.121094,-0.898437,-0.732422,-0.962891,0.912842,0.225098,0.117737,0.319702,up
225844,-1.046875,4.886719,7.386719,-0.921875,-0.716797,-0.947266,0.912842,0.225098,0.117737,0.319702,up
225850,-1.046875,4.886719,7.386719,-0.984375,-0.701172,-0.935547,0.918701,0.217834,0.110229,0.310425,up
225855,-1.160156,5.039062,7.582031,-1.087891,-0.705078,-0.900391,0.92041,0.215454,0.108032,0.307922,up
225861,-1.199219,4.964844,7.804687,-1.087891,-0.705078,-0.900391,0.921631,0.21344,0.106323,0.306152,up
225866,-1.160156,4.695312,7.882812,-1.087891,-0.705078,-0.900391,0.923218,0.210693,0.104065,0.304077,up
225871,-1.125,4.503906,8.003906,-1.503906,-0.724609,-0.832031,0.924744,0.207764,0.101746,0.302185,up
225877,-1.046875,4.390625,8.082031,-1.597656,-0.728516,-0.806641,0.924744,0.207764,0.101746,0.302185,up
225882,-0.96875,4.234375,8.1875,-1.621094,-0.712891,-0.785156,0.924744,0.207764,0.101746,0.302185,up
225887,-0.894531,3.929688,8.269531,-1.621094,-0.712891,-0.785156,0.929504,0.197693,0.094421,0.296753,up
225893,-0.816406,3.738281,8.382813,-1.503906,-0.652344,-0.757812,0.929504,0.197693,0.094421,0.296753,up
225898,-0.777344,3.621094,8.421875,-1.392578,-0.611328,-0.734375,0.929504,0.197693,0.094421,0.296753,up
225903,-0.742187,3.316406,8.570313,-1.392578,-0.611328,-0.734375,0.929504,0.197693,0.094421,0.296753,up
225908,-0.664062,3.238281,8.574219,-1.392578,-0.611328,-0.734375,0.934937,0.185547,0.085876,0.289917,up
225913,-0.664062,3.164063,8.691406,-0.923828,-0.417969,-0.636719,0.934937,0.185547,0.085876,0.289917,up
225918,-0.585937,3.125,8.691406,-0.755859,-0.339844,-0.597656,0.934937,0.185547,0.085876,0.289917,up
225923,-0.511719,3.125,8.726563,-0.755859,-0.339844,-0.597656,0.934937,0.185547,0.085876,0.289917,up
225928,-0.550781,3.164063,8.730469,-0.755859,-0.339844,-0.597656,0.938232,0.178955,0.081665,0.284546,up
225934,-0.585937,3.429688,8.84375,-0.390625,-0.083984,-0.490234,0.938232,0.178955,0.081665,0.284546,up
225939,-0.585937,3.429688,8.84375,-0.390625,-0.083984,-0.490234,0.939758,0.176208,0.081177,0.281555,up
225944,-0.625,3.621094,8.992188,-0.390625,-0.083984,-0.490234,0.939758,0.176208,0.081177,0.281555,up
225949,-0.664062,3.8125,9.03125,-0.279297,0.142578,-0.378906,0.939758,0.176208,0.081177,0.281555,up
225954,-0.664062,3.890625,9.070313,-0.300781,0.210937,-0.363281,0.939758,0.176208,0.081177,0.281555,up
225959,-0.742187,3.929688,9.1875,-0.408203,0.328125,-0.326172,0.940796,0.173462,0.082275,0.279419,up
225964,-0.703125,3.890625,9.226563,-0.408203,0.328125,-0.326172,0.941162,0.17218,0.082947,0.278809,up
225969,-0.742187,3.851563,9.300781,-0.408203,0.328125,-0.326172,0.941467,0.170837,0.083557,0.278381,up
225974,-0.777344,3.621094,9.453125,-0.576172,0.416016,-0.294922,0.941467,0.170837,0.083557,0.278381,up
225979,-0.703125,3.507813,9.53125,-0.685547,0.480469,-0.271484,0.942139,0.167603,0.084961,0.277649,up
225984,-0.742187,3.355469,9.570313,-0.685547,0.480469,-0.271484,0.942871,0.163452,0.086548,0.2771,up
225989,-0.777344,3.277344,9.691406,-0.685547,0.480469,-0.271484,0.942871,0.163452,0.086548,0.2771,up
225994,-0.703125,3.164063,9.800781,-0.707031,0.525391,-0.279297,0.942871,0.163452,0.086548,0.2771,up
225999,-0.703125,3.164063,9.800781,-0.685547,0.541016,-0.287109,0.943542,0.159485,0.088196,0.276611,up
226004,-0.703125,3.125,9.875,-0.685547,0.541016,-0.287109,0.943909,0.15741,0.089172,0.276306,up
226009,-0.703125,3.007813,9.875,-0.587891,0.554687,-0.300781,0.944214,0.155518,0.090149,0.276001,up
226014,-0.703125,3.007813,9.875,-0.587891,0.554687,-0.300781,0.944214,0.155518,0.090149,0.276001,up
226020,-0.664062,3.164063,9.875,-0.519531,0.574219,-0.316406,0.945007,0.150696,0.093567,0.274841,up
226025,-0.742187,3.394531,9.875,-0.519531,0.574219,-0.316406,0.94519,0.149231,0.095032,0.274414,up
226030,-0.777344,3.429688,9.917969,-0.519531,0.574219,-0.316406,0.945312,0.148193,0.096252,0.274109,up
226035,-0.816406,3.507813,9.839844,-0.263672,0.640625,-0.253906,0.945435,0.146912,0.097839,0.273804,up
226041,-0.933594,3.699219,9.917969,-0.263672,0.640625,-0.253906,0.945557,0.145935,0.099121,0.273621,up
226046,-0.96875,3.777344,9.914063,-0.263672,0.640625,-0.253906,0.945618,0.144714,0.100647,0.273438,up
226052,-1.085938,3.890625,9.996094,-0.263672,0.640625,-0.253906,0.945679,0.143433,0.102173,0.273376,up
226058,-1.125,3.851563,10.03125,-0.361328,0.765625,-0.136719,0.945679,0.143433,0.102173,0.273376,up
226064,-1.316406,3.777344,10.140625,-0.390625,0.8125,-0.109375,0.945679,0.143433,0.102173,0.273376,up
226069,-1.351563,3.738281,10.183594,-0.416016,0.910156,-0.058594,0.945618,0.139038,0.107239,0.273743,up
226074,-1.390625,3.777344,10.140625,-0.416016,0.910156,-0.058594,0.945557,0.13739,0.109131,0.274048,up
226080,-1.507813,3.777344,10.257813,-0.414062,0.960937,-0.048828,0.945557,0.13739,0.109131,0.274048,up
226086,-1.660156,3.660156,10.335938,-0.414062,0.960937,-0.048828,0.945251,0.132446,0.115173,0.275146,up
226092,-1.660156,3.660156,10.335938,-0.408203,1.09375,-0.082031,0.945129,0.130676,0.117554,0.275513,up
226099,-1.738281,3.660156,10.375,-0.410156,1.138672,-0.109375,0.945129,0.130676,0.117554,0.275513,up
226105,-1.773438,3.621094,10.339844,-0.449219,1.208984,-0.181641,0.945129,0.130676,0.117554,0.275513,up
226110,-1.8125,3.585938,10.335938,-0.509766,1.244141,-0.220703,0.944641,0.125,0.125244,0.276184,up
226115,-1.8125,3.585938,10.335938,-0.558594,1.265625,-0.253906,0.944458,0.121033,0.130249,0.276306,up
226120,-1.8125,3.507813,10.335938,-0.558594,1.265625,-0.253906,0.944397,0.118591,0.132996,0.276306,up
226125,-2.082031,3.316406,10.339844,-0.558594,1.265625,-0.253906,0.944336,0.115723,0.135925,0.276245,up
226130,-2.347656,3.125,10.375,-0.558594,1.265625,-0.253906,0.944336,0.11322,0.138367,0.276184,up
226135,-2.425781,3.046875,10.414063,-0.849609,1.337891,-0.335938,0.944336,0.11322,0.138367,0.276184,up
226141,-2.769531,2.894531,10.523438,-0.849609,1.337891,-0.335938,0.944275,0.107178,0.143677,0.276062,up
226146,-2.925781,2.816406,10.601563,-0.908203,1.363281,-0.353516,0.944275,0.103943,0.146423,0.27594,up
226151,-2.925781,2.816406,10.601563,-0.921875,1.355469,-0.378906,0.944214,0.100708,0.149048,0.275818,up
226156,-3.230469,2.589844,10.722656,-0.921875,1.355469,-0.378906,0.944214,0.097534,0.151672,0.275574,up
226161,-3.308594,2.550781,10.640625,-0.904297,1.316406,-0.433594,0.944214,0.097534,0.151672,0.275574,up
226166,-3.308594,2.589844,10.527344,-0.878906,1.292969,-0.470703,0.944214,0.097534,0.151672,0.275574,up
226171,-3.308594,2.589844,10.527344,-0.841797,1.251953,-0.507812,0.944214,0.088013,0.159424,0.274414,up
226176,-3.382813,2.664063,10.457031,-0.841797,1.251953,-0.507812,0.944214,0.088013,0.159424,0.274414,up
226181,-3.421875,2.625,10.375,-0.820312,1.193359,-0.546875,0.944214,0.088013,0.159424,0.274414,up
226186,-3.460938,2.625,10.339844,-0.800781,1.080078,-0.671875,0.944458,0.078979,0.166443,0.272034,up
226191,-3.460938,2.625,10.339844,-0.800781,1.080078,-0.671875,0.944458,0.078979,0.166443,0.272034,up
226196,-3.574219,2.589844,10.179688,-0.841797,0.958984,-0.806641,0.944885,0.073181,0.17041,0.269714,up
226202,-3.574219,2.472656,9.917969,-0.841797,0.958984,-0.806641,0.945251,0.070068,0.172241,0.268311,up
226208,-3.574219,2.398438,9.835938,-0.9375,0.833984,-0.908203,0.945251,0.070068,0.172241,0.268311,up
226214,-3.535156,2.242188,9.761719,-0.9375,0.833984,-0.908203,0.945251,0.070068,0.172241,0.268311,up
226220,-3.613281,2.167969,9.757813,-1.097656,0.625,-0.960937,0.945251,0.070068,0.172241,0.268311,up
226225,-3.691406,1.898438,9.875,-1.128906,0.541016,-0.962891,0.94696,0.056824,0.17749,0.26178,up
226231,-3.691406,1.898438,9.875,-1.158203,0.462891,-0.974609,0.947998,0.05011,0.178833,0.258545,up
226236,-3.726563,1.707031,9.875,-1.167969,0.371094,-0.970703,0.948547,0.04657,0.179199,0.256775,up
226241,-3.726563,1.746094,9.835938,-1.158203,0.253906,-0.966797,0.94928,0.042725,0.179321,0.254822,up
226247,-3.613281,1.667969,9.492188,-1.158203,0.253906,-0.966797,0.949768,0.039917,0.179199,0.253357,up
226252,-3.613281,1.4375,9.492188,-1.138672,0.021484,-0.986328,0.9505,0.036621,0.178772,0.251526,up
226257,-3.691406,1.285156,9.417969,-1.152344,-0.115234,-1.001953,0.9505,0.036621,0.178772,0.251526,up
226262,-3.652344,1.324219,9.1875,-1.146484,-0.248047,-1.025391,0.9505,0.036621,0.178772,0.251526,up
226267,-3.652344,1.324219,9.035156,-1.146484,-0.373047,-1.050781,0.9505,0.036621,0.178772,0.251526,up
226273,-3.613281,1.246094,8.953125,-1.144531,-0.511719,-1.109375,0.9505,0.036621,0.178772,0.251526,up
226278,-3.574219,1.210938,8.808594,-1.144531,-0.636719,-1.146484,0.9505,0.036621,0.178772,0.251526,up
226284,-3.382813,1.054688,8.6875,-1.166016,-0.769531,-1.199219,0.9505,0.036621,0.178772,0.251526,up
226289,-3.34375,0.941406,8.613281,-1.173828,-0.890625,-1.242188,0.9505,0.036621,0.178772,0.251526,up
226294,-3.34375,0.863281,8.574219,-1.191406,-1.017578,-1.285156,0.9505,0.036621,0.178772,0.251526,up
226299,-3.34375,0.75,8.304688,-1.207031,-1.130859,-1.318359,0.9505,0.036621,0.178772,0.251526,up
226304,-3.230469,0.671875,8.230469,-1.207031,-1.130859,-1.318359,0.960571,0.007568,0.157349,0.228943,up
226310,-3.152344,0.558594,8.042969,-1.226563,-1.306641,-1.412109,0.960571,0.007568,0.157349,0.228943,up
226315,-3.152344,0.558594,8.042969,-1.244141,-1.367188,-1.464844,0.963257,0.002014,0.149719,0.223083,up
226320,-3.0,0.214844,7.921875,-1.277344,-1.449219,-1.525391,0.964539,-0.000793,0.145691,0.219971,up
226325,-3.0,0.214844,7.921875,-1.300781,-1.537109,-1.595703,0.965942,-0.003601,0.141418,0.216797,up
226330,-2.886719,0.441406,7.699219,-1.300781,-1.537109,-1.595703,0.967346,-0.006592,0.13678,0.213196,up
226336,-2.808594,0.597656,7.304687,-1.326172,-1.662109,-1.742188,0.96875,-0.00946,0.132141,0.209656,up
226341,-2.695313,0.558594,7.238281,-1.335938,-1.728516,-1.814453,0.971619,-0.015442,0.122192,0.201843,up
226347,-2.347656,0.632812,7.160156,-1.335938,-1.728516,-1.814453,0.973083,-0.018494,0.117004,0.197754,up
226352,-2.234375,0.828125,7.078125,-1.5,-1.949219,-2.025391,0.974548,-0.02179,0.11145,0.193359,up
226357,-2.042969,0.789062,7.160156,-1.5,-1.949219,-2.025391,0.974548,-0.02179,0.11145,0.193359,up
226362,-1.851563,0.597656,7.078125,-1.599609,-2.140625,-2.150391,0.974548,-0.02179,0.11145,0.193359,up
226367,-1.738281,0.40625,6.894531,-1.6875,-2.240234,-2.208984,0.974548,-0.02179,0.11145,0.193359,up
226373,-1.582031,0.367188,6.621094,-1.785156,-2.361328,-2.267578,0.974548,-0.02179,0.11145,0.193359,up
226378,-1.429688,0.441406,6.507812,-1.880859,-2.482422,-2.341797,0.974548,-0.02179,0.11145,0.193359,up
226384,-1.351563,0.441406,6.429687,-1.919922,-2.591797,-2.425781,0.974548,-0.02179,0.11145,0.193359,up
226390,-1.085938,0.519531,6.46875,-1.921875,-2.833984,-2.630859,0.974548,-0.02179,0.11145,0.193359,up
226395,-0.625,0.289063,6.582031,-1.910156,-2.908203,-2.712891,0.985107,-0.051941,0.057373,0.153564,up
226400,-0.433594,0.058594,6.695312,-1.910156,-2.908203,-2.712891,0.986389,-0.056519,0.048157,0.146851,up
226406,-0.128906,-0.167969,6.617187,-1.9375,-3.060547,-2.849609,0.987366,-0.060425,0.039856,0.140808,up
226411,-0.089844,0.023437,6.15625,-1.9375,-3.060547,-2.849609,0.988281,-0.06427,0.031494,0.134766,up
226416,-0.089844,0.023437,6.15625,-1.96875,-3.085938,-2.960938,0.989075,-0.067932,0.02356,0.128784,up
226421,0.0625,0.136719,6.011719,-1.96875,-3.085938,-2.960938,0.989807,-0.072205,0.014465,0.121887,up
226426,0.5625,0.558594,6.085937,-2.154297,-3.191406,-3.103516,0.990417,-0.076477,0.005493,0.115051,up
226431,0.5625,0.558594,6.085937,-2.197266,-3.175781,-3.150391,0.990845,-0.080933,-0.003479,0.108032,up
226436,0.753906,0.214844,5.929687,-2.197266,-3.175781,-3.150391,0.99115,-0.085632,-0.012756,0.100647,up
226442,1.097656,-0.746094,5.507812,-2.197266,-3.175781,-3.150391,0.991333,-0.094727,-0.030273,0.086121,up
226447,1.519531,-0.515625,5.324219,-2.197266,-3.175781,-3.150391,0.99115,-0.099426,-0.03894,0.078552,up
226452,1.632813,0.023437,5.128906,-2.013672,-2.757813,-3.205078,0.99115,-0.099426,-0.03894,0.078552,up
226457,1.671875,0.519531,5.28125,-1.986328,-2.59375,-3.099609,0.99115,-0.099426,-0.03894,0.078552,up
226462,2.019531,-0.398438,5.8125,-1.941406,-2.521484,-2.988281,0.99115,-0.099426,-0.03894,0.078552,up
226467,2.363281,-0.820312,5.390625,-1.826172,-2.392578,-2.919922,0.99115,-0.099426,-0.03894,0.078552,up
226472,2.363281,-0.820312,5.390625,-1.826172,-2.392578,-2.919922,0.99115,-0.099426,-0.03894,0.078552,up
226478,2.4375,-1.242188,5.242187,-1.707031,-2.224609,-2.849609,0.988953,-0.119324,-0.076416,0.043152,up
226483,2.59375,-1.394531,5.703125,-1.707031,-2.224609,-2.849609,0.988953,-0.119324,-0.076416,0.043152,up
226489,2.59375,-1.394531,5.703125,-1.394531,-2.027344,-2.652344,0.986938,-0.12793,-0.094727,0.024231,up
226494,3.089844,-1.742188,6.964844,-1.394531,-2.027344,-2.652344,0.986938,-0.12793,-0.094727,0.024231,up
226499,3.128906,-1.933594,7.386719,-1.394531,-2.027344,-2.652344,0.985474,-0.131531,-0.106567,0.012329,up
226504,3.011719,-1.933594,7.238281,-1.394531,-2.027344,-2.652344,0.984802,-0.132812,-0.111877,0.00708,up
226510,3.089844,-1.933594,7.238281,-0.669922,-1.869141,-2.326172,0.984802,-0.132812,-0.111877,0.00708,up
226515,3.207031,-1.894531,7.304687,-0.357422,-1.863281,-2.164063,0.984802,-0.132812,-0.111877,0.00708,up
226520,3.28125,-2.046875,7.238281,-0.357422,-1.863281,-2.164063,0.981689,-0.135132,-0.133606,-0.013,up
226525,3.242188,-2.085938,7.199219,-0.357422,-1.863281,-2.164063,0.981689,-0.135132,-0.133606,-0.013,up
226530,3.28125,-2.351563,7.273437,-0.009766,-1.615234,-1.845703,0.981689,-0.135132,-0.133606,-0.013,up
226535,3.398438,-2.199219,7.304687,-0.009766,-1.615234,-1.845703,0.980286,-0.13446,-0.143188,-0.021179,up
226540,3.359375,-2.007813,7.273437,-0.009766,-1.615234,-1.845703,0.979675,-0.133728,-0.147522,-0.024902,up
226545,3.242188,-1.777344,7.34375,0.369141,-1.158203,-1.644531,0.979675,-0.133728,-0.147522,-0.024902,up
226550,3.207031,-1.511719,7.5,0.369141,-1.158203,-1.644531,0.978577,-0.131348,-0.155212,-0.032166,up
226555,3.128906,-1.394531,7.964844,0.369141,-1.158203,-1.644531,0.978149,-0.129761,-0.158569,-0.035645,up
226560,3.128906,-1.394531,7.964844,0.566406,-0.908203,-1.570313,0.977783,-0.128052,-0.161255,-0.038635,up
226565,3.089844,-1.394531,8.078125,0.566406,-0.908203,-1.570313,0.977539,-0.125977,-0.163879,-0.041748,up
226570,3.167969,-1.28125,8.1875,0.841797,-0.724609,-1.515625,0.977539,-0.125977,-0.163879,-0.041748,up
226575,3.050781,-0.554687,8.574219,0.962891,-0.638672,-1.470703,0.977112,-0.120728,-0.168579,-0.047913,up
226581,3.050781,-0.398438,8.730469,1.0625,-0.570312,-1.427734,0.976868,-0.114441,-0.172485,-0.053528,up
226586,3.089844,-0.207031,8.648438,1.0625,-0.570312,-1.427734,0.976807,-0.11084,-0.174255,-0.056396,up
226591,3.089844,0.136719,8.535156,1.0625,-0.570312,-1.427734,0.976807,-0.108032,-0.175476,-0.058594,up
226596,3.050781,0.25,8.726563,1.009766,-0.191406,-1.212891,0.976807,-0.104675,-0.176636,-0.061279,up
226601,3.128906,0.367188,8.765625,0.927734,-0.083984,-1.148438,0.976807,-0.104675,-0.176636,-0.061279,up
226606,3.128906,0.710937,8.765625,0.927734,-0.083984,-1.148438,0.976807,-0.09906,-0.177917,-0.065857,up
226611,3.207031,0.789062,8.914063,0.927734,-0.083984,-1.148438,0.976868,-0.096863,-0.178101,-0.067688,up
226617,3.320313,0.828125,9.109375,0.927734,-0.083984,-1.148438,0.97699,-0.094727,-0.17804,-0.069519,up
226622,3.242188,0.558594,9.226563,0.646484,0.271484,-0.744141,0.97699,-0.094727,-0.17804,-0.069519,up
226628,3.242188,0.519531,9.496094,0.646484,0.271484,-0.744141,0.97699,-0.094727,-0.17804,-0.069519,up
226634,3.207031,0.441406,9.535156,0.646484,0.271484,-0.744141,0.977478,-0.088745,-0.176758,-0.073914,up
226639,3.242188,0.441406,9.800781,0.710937,0.40625,-0.583984,0.977478,-0.088745,-0.176758,-0.073914,up
226644,3.28125,0.367188,9.996094,0.779297,0.425781,-0.574219,0.977478,-0.088745,-0.176758,-0.073914,up
226649,3.207031,0.828125,10.183594,0.779297,0.425781,-0.574219,0.977478,-0.088745,-0.176758,-0.073914,up
226654,3.167969,0.902344,10.257813,0.884766,0.476562,-0.591797,0.977478,-0.088745,-0.176758,-0.073914,up
226659,3.128906,0.980469,10.296875,0.917969,0.527344,-0.625,0.977478,-0.088745,-0.176758,-0.073914,up
226665,3.011719,1.132813,10.527344,0.917969,0.527344,-0.625,0.97937,-0.071655,-0.170349,-0.082031,up
226670,2.9375,1.171875,10.605469,0.917969,0.527344,-0.625,0.97937,-0.071655,-0.170349,-0.082031,up
226675,2.9375,1.132813,10.5625,0.953125,0.917969,-0.765625,0.97937,-0.071655,-0.170349,-0.082031,up
226680,2.667969,0.980469,10.339844,0.953125,0.917969,-0.765625,0.980042,-0.065918,-0.167114,-0.084961,up
226685,2.285156,0.75,10.453125,0.953125,0.917969,-0.765625,0.980469,-0.06311,-0.165039,-0.086609,up
226690,2.363281,0.480469,10.90625,0.798828,1.177734,-0.822266,0.980469,-0.06311,-0.165039,-0.086609,up
226695,2.363281,0.480469,10.90625,0.736328,1.316406,-0.875,0.981323,-0.057983,-0.159851,-0.09021,up
226700,2.132813,0.902344,11.371094,0.734375,1.476563,-0.919922,0.98175,-0.05542,-0.156616,-0.092285,up
226705,2.132813,0.902344,11.371094,0.742187,1.609375,-0.9375,0.98175,-0.05542,-0.156616,-0.092285,up
226711,2.054688,0.941406,11.871094,0.742187,1.609375,-0.9375,0.982239,-0.052917,-0.153198,-0.094421,up
226716,2.054688,0.941406,11.871094,0.964844,1.785156,-0.955078,0.983276,-0.04718,-0.145447,-0.098877,up
226722,1.367188,0.902344,12.445313,0.964844,1.785156,-0.955078,0.984375,-0.0401,-0.137207,-0.103027,up
226727,1.097656,1.363281,12.59375,0.964844,1.785156,-0.955078,0.984863,-0.035767,-0.132996,-0.105164,up
226733,1.058594,2.207031,12.671875,1.521484,1.789063,-1.033203,0.984863,-0.035767,-0.132996,-0.105164,up
226738,1.136719,2.550781,12.714844,1.603516,1.75,-1.041016,0.984863,-0.035767,-0.132996,-0.105164,up
226743,1.136719,2.78125,12.671875,1.605469,1.699219,-1.035156,0.984863,-0.035767,-0.132996,-0.105164,up
226749,1.136719,3.164063,12.445313,1.533203,1.679688,-1.001953,0.984863,-0.035767,-0.132996,-0.105164,up
226754,1.097656,3.277344,12.253906,1.431641,1.681641,-0.960937,0.984863,-0.035767,-0.132996,-0.105164,up
226759,0.832031,2.550781,11.988281,1.431641,1.681641,-0.960937,0.984863,-0.035767,-0.132996,-0.105164,up
226765,1.328125,4.042969,11.984375,1.431641,1.681641,-0.960937,0.987122,-0.004517,-0.106445,-0.119385,up
226771,1.175781,2.398438,12.09375,0.371094,1.779297,-0.707031,0.987122,-0.004517,-0.106445,-0.119385,up
226776,1.289063,2.625,11.90625,0.296875,1.875,-0.484375,0.987122,-0.004517,-0.106445,-0.119385,up
226781,1.40625,2.742188,12.40625,0.296875,1.875,-0.484375,0.987915,0.001404,-0.092712,-0.124084,up
226786,1.175781,1.898438,12.09375,-0.011719,2.013672,-0.255859,0.98822,0.002625,-0.087891,-0.125061,up
226792,1.25,1.9375,12.253906,-0.011719,2.013672,-0.255859,0.988892,0.003967,-0.078613,-0.126099,up
226797,1.328125,1.898438,12.558594,-0.09375,1.992188,-0.039063,0.989319,0.004517,-0.072937,-0.126343,up
226803,1.097656,1.820313,12.675781,-0.09375,1.992188,-0.039063,0.989624,0.005005,-0.068604,-0.126221,up
226809,0.832031,1.9375,12.902344,-0.09375,1.992188,-0.039063,0.98999,0.005981,-0.063782,-0.125854,up
226814,0.832031,1.9375,12.902344,-0.09375,1.992188,-0.039063,0.98999,0.005981,-0.063782,-0.125854,up
226819,0.714844,2.128906,12.902344,0.433594,1.798828,0.289063,0.98999,0.005981,-0.063782,-0.125854,up
226824,0.714844,2.128906,12.902344,0.777344,1.613281,0.498047,0.991028,0.011353,-0.051331,-0.122925,up
226829,0.332031,2.050781,12.941406,0.777344,1.613281,0.498047,0.991028,0.011353,-0.051331,-0.122925,up
226834,0.332031,2.050781,12.980469,0.90625,1.519531,0.578125,0.991699,0.016663,-0.044373,-0.119629,up
226839,0.0625,2.167969,12.902344,0.90625,1.519531,0.578125,0.991699,0.016663,-0.044373,-0.119629,up
226844,-0.164062,2.320313,12.863281,0.90625,1.519531,0.578125,0.99231,0.022522,-0.038513,-0.115601,up
226850,-0.128906,2.207031,12.859375,0.90625,1.519531,0.578125,0.992554,0.025574,-0.035828,-0.113342,up
226855,-0.128906,2.089844,12.832031,0.78125,1.019531,0.910156,0.992554,0.025574,-0.035828,-0.113342,up
226860,-0.128906,1.820313,12.753906,0.78125,1.019531,0.910156,0.993103,0.03064,-0.031067,-0.108582,up
226866,0.027344,1.707031,12.789063,0.78125,1.019531,0.910156,0.993652,0.034485,-0.026611,-0.103577,up
226871,0.101563,1.554688,12.714844,0.78125,1.019531,0.910156,0.993652,0.034485,-0.026611,-0.103577,up
226876,0.179687,1.59375,12.636719,0.458984,0.888672,0.960937,0.993652,0.034485,-0.026611,-0.103577,up
226882,0.292969,1.515625,12.597656,0.458984,0.888672,0.960937,0.994385,0.038696,-0.020691,-0.096191,up
226887,0.253906,1.285156,12.675781,0.470703,0.933594,0.998047,0.99469,0.040222,-0.018311,-0.093201,up
226893,0.371094,1.363281,12.710938,0.470703,0.933594,0.998047,0.994873,0.041443,-0.016418,-0.090881,up
226898,0.253906,1.285156,12.75,0.470703,0.933594,0.998047,0.995117,0.043091,-0.014038,-0.087952,up
226905,-0.011719,1.363281,12.832031,0.470703,0.933594,0.998047,0.995117,0.043091,-0.014038,-0.087952,up
226911,-0.128906,1.4375,12.792969,0.763672,1.068359,1.160156,0.995117,0.043091,-0.014038,-0.087952,up
226916,-0.472656,1.402344,12.832031,0.853516,1.101563,1.226563,0.995117,0.043091,-0.014038,-0.087952,up
226922,-0.625,1.476563,12.828125,0.988281,1.138672,1.355469,0.995789,0.051331,-0.004578,-0.075806,up
226927,-0.777344,1.628906,12.863281,0.988281,1.138672,1.355469,0.996033,0.056946,0.00061,-0.06842,up
226932,-0.96875,1.667969,12.828125,1.027344,1.142578,1.453125,0.996094,0.059814,0.003113,-0.064575,up
226938,-1.46875,1.746094,12.632813,1.027344,1.142578,1.453125,0.996155,0.062256,0.00531,-0.061218,up
226943,-1.582031,1.746094,12.675781,0.970703,1.095703,1.490234,0.996155,0.062256,0.00531,-0.061218,up
226948,-1.738281,1.820313,12.675781,0.904297,1.064453,1.496094,0.996155,0.062256,0.00531,-0.061218,up
226953,-1.8125,1.820313,12.675781,0.833984,1.011719,1.490234,0.996155,0.062256,0.00531,-0.061218,up
226958,-1.8125,1.785156,12.632813,0.833984,1.011719,1.490234,0.996155,0.062256,0.00531,-0.061218,up
226964,-1.8125,1.785156,12.632813,0.761719,0.951172,1.482422,0.996216,0.074158,0.016357,-0.041809,up
226969,-1.8125,1.785156,12.632813,0.654297,0.802734,1.474609,0.996216,0.07605,0.018127,-0.037903,up
226974,-1.929688,1.859375,12.59375,0.654297,0.802734,1.474609,0.996216,0.07605,0.018127,-0.037903,up
226980,-1.851563,1.667969,12.632813,0.603516,0.71875,1.482422,0.996216,0.07605,0.018127,-0.037903,up
226985,-1.8125,1.59375,12.59375,0.535156,0.546875,1.527344,0.996216,0.07605,0.018127,-0.037903,up
226991,-1.582031,1.785156,12.476563,0.535156,0.546875,1.527344,0.996033,0.083862,0.023987,-0.018555,up
226996,-1.507813,1.785156,12.449219,0.535156,0.546875,1.527344,0.996033,0.083862,0.023987,-0.018555,up
227001,-1.546875,1.707031,12.371094,0.544922,0.392578,1.628906,0.99585,0.086914,0.025269,-0.010315,up
227007,-1.582031,1.785156,12.132813,0.544922,0.392578,1.628906,0.995728,0.088501,0.025818,-0.005981,up
227012,-1.582031,1.898438,12.097656,0.544922,0.392578,1.628906,0.995728,0.088501,0.025818,-0.005981,up
227017,-1.660156,1.898438,12.0625,0.595703,0.365234,1.785156,0.995728,0.088501,0.025818,-0.005981,up
227022,-1.773438,1.820313,11.753906,0.595703,0.365234,1.785156,0.995239,0.093506,0.027344,0.007629,up
227027,-1.890625,1.746094,11.753906,0.595703,0.365234,1.785156,0.994995,0.095093,0.027832,0.011902,up
227032,-1.890625,1.628906,11.714844,0.595703,0.365234,1.785156,0.994751,0.096863,0.028381,0.016846,up
227037,-1.929688,1.59375,11.671875,0.6875,0.367188,2.013672,0.994446,0.098816,0.02887,0.022156,up
227042,-2.121094,1.515625,11.527344,0.6875,0.367188,2.013672,0.994141,0.100708,0.029297,0.027222,up
227047,-2.082031,1.4375,11.40625,0.6875,0.367188,2.013672,0.993774,0.102539,0.029724,0.032227,up
227052,-2.082031,1.4375,11.328125,0.742187,0.361328,2.158203,0.993347,0.104553,0.030151,0.037659,up
227057,-2.082031,1.4375,11.328125,0.738281,0.359375,2.207031,0.99292,0.106445,0.030518,0.042847,up
227062,-2.121094,1.402344,11.140625,0.738281,0.359375,2.207031,0.99292,0.106445,0.030518,0.042847,up
227067,-2.121094,1.402344,11.140625,0.763672,0.347656,2.238281,0.992432,0.108521,0.030945,0.048523,up
227072,-2.121094,1.402344,11.140625,0.763672,0.347656,2.238281,0.991333,0.112671,0.031494,0.059692,up
227077,-2.121094,1.402344,11.140625,0.798828,0.259766,2.308594,0.991333,0.112671,0.031494,0.059692,up
227082,-2.121094,1.402344,11.140625,0.794922,0.222656,2.314453,0.990051,0.117004,0.031677,0.071228,up
227087,-2.386719,1.859375,10.800781,0.755859,0.179687,2.3125,0.990051,0.117004,0.031677,0.071228,up
227092,-2.347656,2.050781,10.800781,0.755859,0.179687,2.3125,0.988708,0.121155,0.031494,0.082703,up
227097,-2.539063,2.015625,10.839844,0.755859,0.179687,2.3125,0.987976,0.122986,0.031189,0.088501,up
227102,-2.578125,1.976563,10.757813,0.537109,-0.017578,2.324219,0.987183,0.124817,0.030579,0.094727,up
227107,-2.503906,2.089844,10.722656,0.447266,-0.087891,2.330078,0.987183,0.124817,0.030579,0.094727,up
227112,-2.503906,2.089844,10.722656,0.447266,-0.087891,2.330078,0.985779,0.127441,0.028992,0.105713,up
227118,-2.386719,2.167969,10.640625,0.447266,-0.087891,2.330078,0.985046,0.128479,0.027893,0.111084,up
227123,-2.273438,2.167969,10.5625,0.447266,-0.087891,2.330078,0.984314,0.129395,0.026672,0.116699,up
227128,-2.195313,2.089844,10.484375,0.166016,-0.298828,2.392578,0.984314,0.129395,0.026672,0.116699,up
227133,-2.121094,1.976563,10.417969,0.128906,-0.322266,2.419922,0.984314,0.129395,0.026672,0.116699,up
227138,-1.964844,1.746094,10.457031,0.128906,-0.322266,2.419922,0.984314,0.129395,0.026672,0.116699,up
227143,-1.851563,1.667969,10.484375,0.099609,-0.320313,2.486328,0.984314,0.129395,0.026672,0.116699,up
227148,-1.851563,1.667969,10.484375,0.136719,-0.310547,2.517578,0.984314,0.129395,0.026672,0.116699,up
227154,-1.851563,1.785156,10.605469,0.136719,-0.310547,2.517578,0.979187,0.133118,0.017578,0.152039,up
227160,-1.851563,1.859375,10.683594,0.248047,-0.300781,2.5625,0.979187,0.133118,0.017578,0.152039,up
227165,-1.929688,1.9375,10.71875,0.289063,-0.314453,2.582031,0.979187,0.133118,0.017578,0.152039,up
227170,-2.15625,1.898438,10.679688,0.322266,-0.324219,2.611328,0.979187,0.133118,0.017578,0.152039,up
227175,-2.15625,1.898438,10.679688,0.322266,-0.324219,2.611328,0.979187,0.133118,0.017578,0.152039,up
227180,-2.15625,1.898438,10.679688,0.355469,-0.359375,2.644531,0.973328,0.138123,0.009766,0.183044,up
227185,-2.15625,1.898438,10.679688,0.337891,-0.451172,2.736328,0.971863,0.139282,0.007874,0.189636,up
227190,-2.386719,1.898438,10.527344,0.337891,-0.451172,2.736328,0.971863,0.139282,0.007874,0.189636,up
227196,-2.464844,1.898438,10.453125,0.271484,-0.542969,2.84375,0.971863,0.139282,0.007874,0.189636,up
227202,-2.464844,1.746094,10.339844,0.226562,-0.576172,2.90625,0.965637,0.14325,-0.000977,0.21698,up
227208,-2.234375,1.476563,10.03125,0.226562,-0.576172,2.90625,0.96405,0.144043,-0.003235,0.223328,up
227213,-2.234375,1.476563,10.03125,0.236328,-0.613281,3.097656,0.962219,0.144958,-0.005676,0.230347,up
227218,-2.082031,1.59375,9.957031,0.236328,-0.613281,3.097656,0.960327,0.145935,-0.008057,0.237549,up
227223,-1.851563,1.859375,9.648438,0.236328,-0.613281,3.097656,0.957947,0.147034,-0.010742,0.246216,up
227229,-1.699219,1.667969,9.453125,0.236328,-0.613281,3.097656,0.956116,0.147888,-0.012512,0.252563,up
227234,-1.699219,1.667969,9.453125,0.386719,-0.324219,3.373047,0.953552,0.149048,-0.014709,0.261414,up
227240,-1.890625,1.820313,9.375,0.386719,-0.324219,3.373047,0.953552,0.149048,-0.014709,0.261414,up
227246,-1.964844,1.785156,9.378906,0.578125,-0.039063,3.691406,0.953552,0.149048,-0.014709,0.261414,up
227251,-2.082031,1.785156,9.339844,0.578125,-0.039063,3.691406,0.946045,0.152527,-0.018738,0.285339,up
227256,-2.082031,1.785156,9.339844,0.626953,0.0625,3.833984,0.943115,0.153748,-0.019714,0.294128,up
227261,-2.273438,1.59375,9.453125,0.677734,0.152344,4.003906,0.943115,0.153748,-0.019714,0.294128,up
227266,-2.273438,1.59375,9.453125,0.75,0.236328,4.175781,0.936523,0.156433,-0.021057,0.313171,up
227271,-2.539063,0.863281,9.53125,0.75,0.236328,4.175781,0.932861,0.157898,-0.021423,0.323059,up
227276,-2.539063,0.863281,9.53125,1.001953,0.330078,4.4375,0.928955,0.159607,-0.021667,0.333313,up
227281,-2.273438,1.59375,9.492188,1.001953,0.330078,4.4375,0.924683,0.16156,-0.02179,0.344116,up
227286,-2.425781,1.976563,8.953125,1.001953,0.330078,4.4375,0.924683,0.16156,-0.02179,0.344116,up
227291,-2.539063,2.207031,8.765625,1.126953,0.480469,4.587891,0.924683,0.16156,-0.02179,0.344116,up
227297,-2.539063,2.472656,8.53125,1.138672,0.515625,4.597656,0.924683,0.16156,-0.02179,0.344116,up
227302,-2.503906,2.433594,8.503906,1.115234,0.572266,4.617187,0.906189,0.169312,-0.020874,0.386963,up
227307,-2.386719,2.398438,8.464844,1.115234,0.572266,4.617187,0.895874,0.172974,-0.02002,0.408813,up
227312,-2.386719,2.359375,8.464844,1.083984,0.587891,4.666016,0.895874,0.172974,-0.02002,0.408813,up
227317,-2.195313,1.976563,8.5,1.083984,0.587891,4.666016,0.890503,0.174683,-0.019592,0.419739,up
227322,-2.195313,1.976563,8.5,1.064453,0.582031,4.705078,0.885559,0.176086,-0.019226,0.429443,up
227327,-2.234375,1.820313,8.464844,1.064453,0.582031,4.705078,0.880066,0.177612,-0.01886,0.440002,up
227332,-1.546875,1.59375,8.347656,1.056641,0.595703,4.765625,0.874146,0.179077,-0.018494,0.450989,up
227337,-1.546875,1.59375,8.347656,1.025391,0.636719,4.794922,0.868347,0.180481,-0.018127,0.461548,up
227343,-1.351563,1.515625,8.265625,1.007813,0.697266,4.810547,0.85614,0.182861,-0.01709,0.482971,up
227348,-1.316406,1.515625,8.152344,1.007813,0.697266,4.810547,0.849976,0.183899,-0.016479,0.493408,up
227353,-1.316406,1.285156,8.082031,1.007813,0.697266,4.810547,0.843384,0.184998,-0.015686,0.504211,up
227358,-1.199219,1.171875,8.039063,1.007813,0.697266,4.810547,0.836975,0.186035,-0.014832,0.514404,up
227363,-1.238281,0.941406,8.003906,1.046875,0.890625,4.724609,0.830017,0.187012,-0.013794,0.52533,up
227368,-1.351563,1.019531,7.886719,1.046875,0.890625,4.724609,0.823181,0.187866,-0.012695,0.535645,up
227374,-1.351563,1.171875,8.082031,1.046875,0.890625,4.724609,0.817078,0.18866,-0.011658,0.544617,up
227379,-1.351563,1.171875,8.082031,0.966797,0.902344,4.535156,0.810486,0.189331,-0.010559,0.554199,up
227384,-1.351563,1.171875,8.191406,0.966797,0.902344,4.535156,0.810486,0.189331,-0.010559,0.554199,up
227389,-1.160156,0.828125,8.425781,0.912109,0.859375,4.484375,0.80365,0.189941,-0.009583,0.563904,up
227394,-1.160156,0.828125,8.425781,0.794922,0.75,4.396484,0.80365,0.189941,-0.009583,0.563904,up
227399,-1.125,0.789062,8.769531,0.794922,0.75,4.396484,0.783447,0.191284,-0.00769,0.591248,up
227406,-1.199219,0.980469,8.996094,0.753906,0.566406,4.320312,0.783447,0.191284,-0.00769,0.591248,up
227411,-1.046875,0.902344,9.074219,0.708984,0.431641,4.285156,0.783447,0.191284,-0.00769,0.591248,up
227416,-0.96875,0.710937,8.957031,0.605469,0.287109,4.253906,0.783447,0.191284,-0.00769,0.591248,up
227421,-0.855469,0.214844,8.84375,0.605469,0.287109,4.253906,0.75531,0.193787,-0.008667,0.625977,up
227426,-0.585937,0.058594,8.917969,0.421875,-0.001953,4.226562,0.75531,0.193787,-0.008667,0.625977,up
227431,-0.28125,-0.015625,8.914063,0.392578,-0.138672,4.21875,0.75531,0.193787,-0.008667,0.625977,up
227437,-0.28125,-0.015625,8.914063,0.421875,-0.236328,4.201172,0.735352,0.196167,-0.013,0.64856,up
227442,0.253906,-0.398438,8.992188,0.457031,-0.304688,4.175781,0.728699,0.197266,-0.014771,0.65564,up
227447,0.253906,-0.398438,8.992188,0.472656,-0.357422,4.152344,0.721497,0.198608,-0.016724,0.663086,up
227452,0.371094,-0.746094,9.035156,0.517578,-0.419922,4.123047,0.721497,0.198608,-0.016724,0.663086,up
227457,0.371094,-0.746094,9.035156,0.576172,-0.462891,4.101562,0.699951,0.203186,-0.022461,0.684326,up
227462,0.753906,-1.128906,9.070313,0.576172,-0.462891,4.101562,0.699951,0.203186,-0.022461,0.684326,up
227467,0.945312,-1.089844,9.152344,0.808594,-0.613281,4.134766,0.692688,0.205017,-0.024353,0.69104,up
227472,1.097656,-1.089844,9.339844,0.808594,-0.613281,4.134766,0.684448,0.207336,-0.026367,0.698486,up
227478,1.214844,-1.242188,9.191406,1.048828,-0.683594,4.205078,0.677429,0.209473,-0.027954,0.70459,up
227483,1.25,-1.320313,9.109375,1.048828,-0.683594,4.205078,0.660522,0.21521,-0.031128,0.718628,up
227488,1.367188,-1.242188,9.269531,1.328125,-0.808594,4.3125,0.652222,0.218323,-0.03241,0.725159,up
227494,1.367188,-1.320313,9.574219,1.328125,-0.808594,4.3125,0.644348,0.221558,-0.033508,0.731201,up
227499,1.328125,-1.585938,9.613281,1.328125,-0.808594,4.3125,0.644348,0.221558,-0.033508,0.731201,up
227504,1.328125,-1.585938,9.613281,1.697266,-0.982422,4.472656,0.635437,0.225464,-0.034485,0.737671,up
227510,1.175781,-1.933594,9.226563,1.697266,-0.982422,4.472656,0.626038,0.229736,-0.0354,0.744324,up
227515,1.328125,-2.007813,9.152344,2.263672,-1.283203,4.767578,0.605957,0.239746,-0.036804,0.757629,up
227520,1.367188,-1.894531,8.84375,2.263672,-1.283203,4.767578,0.605957,0.239746,-0.036804,0.757629,up
227525,1.40625,-1.742188,8.6875,2.556641,-1.410156,4.964844,0.605957,0.239746,-0.036804,0.757629,up
227530,1.480469,-1.394531,8.503906,2.736328,-1.484375,5.105469,0.605957,0.239746,-0.036804,0.757629,up
227535,1.710938,-0.707031,7.960937,2.736328,-1.484375,5.105469,0.605957,0.239746,-0.036804,0.757629,up
227542,1.941406,-0.132812,7.503906,2.736328,-1.484375,5.105469,0.548279,0.27063,-0.03772,0.790405,up
227548,2.246094,1.820313,6.925781,2.958984,-1.464844,5.626953,0.548279,0.27063,-0.03772,0.790405,up
227553,2.09375,2.433594,6.964844,2.923828,-1.556641,6.162109,0.52124,0.283691,-0.03772,0.804016,up
227558,1.824219,2.511719,6.851562,2.923828,-1.556641,6.162109,0.505493,0.290649,-0.038086,0.811523,up
227563,1.824219,2.511719,6.851562,2.849609,-1.533203,6.466797,0.476685,0.301697,-0.039795,0.824707,up
227568,1.671875,2.128906,6.660156,2.849609,-1.533203,6.466797,0.476685,0.301697,-0.039795,0.824707,up
227573,1.40625,0.980469,6.777344,2.849609,-1.533203,6.466797,0.476685,0.301697,-0.039795,0.824707,up
227578,1.40625,0.980469,6.777344,2.396484,-1.496094,7.480469,0.44342,0.31189,-0.043762,0.839172,up
227583,0.253906,-0.167969,7.464844,2.027344,-1.425781,8.212891,0.44342,0.31189,-0.043762,0.839172,up
227588,0.253906,-0.167969,7.464844,2.027344,-1.425781,8.212891,0.386597,0.325134,-0.053955,0.861389,up
227593,-1.699219,-2.8125,7.003906,1.775391,-1.203125,8.544922,0.386597,0.325134,-0.053955,0.861389,up
227598,-1.699219,-2.8125,7.003906,1.775391,-1.203125,8.544922,0.36554,0.328491,-0.058411,0.868958,up
227603,1.367188,-6.492187,7.082031,1.699219,-1.4375,8.361328,0.347412,0.331421,-0.062378,0.875,up
227608,1.367188,-6.492187,7.082031,1.494141,-1.744141,7.916016,0.327698,0.335083,-0.067139,0.880798,up
227613,2.59375,-6.527344,7.464844,1.494141,-1.744141,7.916016,0.30957,0.338867,-0.071838,0.885498,up
227618,2.59375,-6.527344,7.464844,1.599609,-2.03125,7.197266,0.273804,0.347473,-0.079895,0.89325,up
227623,4.007812,-4.421875,9.074219,2.423828,-1.839844,6.357422,0.273804,0.347473,-0.079895,0.89325,up
227628,5.582031,-4.078125,9.035156,2.423828,-1.839844,6.357422,0.239502,0.356689,-0.082336,0.899231,up
227633,5.542969,-4.535156,8.535156,2.423828,-1.839844,6.357422,0.225342,0.360657,-0.080505,0.901489,up
227638,5.121094,-4.765625,7.15625,4.410156,-1.236328,4.570312,0.225342,0.360657,-0.080505,0.901489,up
227644,5.003906,-4.996094,6.660156,4.410156,-1.236328,4.570312,0.196716,0.369202,-0.070557,0.905579,up
227649,4.890625,-5.265625,6.121094,5.271484,-0.875,3.460938,0.196716,0.369202,-0.070557,0.905579,up
227654,4.890625,-5.265625,6.121094,5.419922,-0.595703,2.992188,0.171204,0.376892,-0.054138,0.908691,up
227659,4.738281,-4.691406,5.089844,5.419922,-0.595703,2.992188,0.171204,0.376892,-0.054138,0.908691,up
227664,4.738281,-4.691406,5.089844,5.382812,-0.402344,2.613281,0.159973,0.379883,-0.044861,0.909973,up
227669,4.929687,-4.269531,5.167969,5.033203,-0.394531,2.355469,0.159973,0.379883,-0.044861,0.909973,up
227674,5.773437,-3.578125,6.316406,3.757813,-0.791016,1.933594,0.131287,0.388062,-0.019958,0.911987,up
227680,6.960937,-2.507813,7.765625,3.757813,-0.791016,1.933594,0.123779,0.391357,-0.014099,0.911804,up
227685,7.265625,-2.160156,8.082031,2.476563,-1.386719,1.488281,0.123779,0.391357,-0.014099,0.911804,up
227691,7.800781,-1.585938,8.230469,2.015625,-1.669922,1.203125,0.123779,0.391357,-0.014099,0.911804,up
227696,9.296875,-0.9375,8.84375,2.015625,-1.669922,1.203125,0.108398,0.403564,-0.003845,0.908508,up
227701,9.367188,-0.667969,8.996094,1.310547,-1.628906,0.515625,0.108398,0.403564,-0.003845,0.908508,up
227707,9.027344,-0.515625,9.113281,1.146484,-1.318359,0.179687,0.108398,0.403564,-0.003845,0.908508,up
227712,9.140625,-0.707031,8.996094,1.146484,-1.318359,0.179687,0.102356,0.414673,0.002686,0.904175,up
227717,9.40625,-0.820312,8.34375,1.146484,-1.318359,0.179687,0.102356,0.414673,0.002686,0.904175,up
227722,8.222656,-1.164063,8.230469,1.068359,-0.101563,-0.367188,0.102356,0.414673,0.002686,0.904175,up
227727,8.222656,-1.164063,8.230469,1.757813,-0.253906,-0.404297,0.101196,0.416321,0.012329,0.903503,up
227732,6.347656,-1.320313,9.878906,1.824219,-0.839844,-0.357422,0.101196,0.416321,0.012329,0.903503,up
227737,7.269531,-0.324219,6.277344,1.492188,-1.09375,-0.304688,0.099426,0.420654,0.020508,0.90155,up
227742,7.191406,-0.207031,6.46875,1.054688,-1.041016,-0.230469,0.099426,0.420654,0.020508,0.90155,up
227747,6.574219,-0.09375,6.507812,1.054688,-1.041016,-0.230469,0.098572,0.425964,0.025391,0.898987,up
227752,6.539062,-0.054687,6.277344,0.400391,-0.923828,-0.021484,0.098572,0.425964,0.025391,0.898987,up
227757,6.726562,0.023437,5.929687,0.308594,-0.982422,0.064453,0.098572,0.425964,0.025391,0.898987,up
227762,6.886719,0.023437,5.625,0.261719,-0.984375,0.113281,0.098572,0.425964,0.025391,0.898987,up
227767,7.304687,0.058594,5.738281,0.261719,-0.984375,0.113281,0.097473,0.434937,0.027466,0.894714,up
227773,7.414062,0.214844,5.855469,0.125,-0.894531,0.111328,0.097473,0.434937,0.027466,0.894714,up
227778,7.378906,0.367188,5.929687,-0.09375,-0.892578,0.001953,0.097473,0.434937,0.027466,0.894714,up
227784,7.765625,0.710937,5.96875,-0.253906,-0.923828,-0.046875,0.097168,0.44104,0.027039,0.891785,up
227789,7.839844,0.902344,5.511719,-0.253906,-0.923828,-0.046875,0.098206,0.444885,0.025635,0.889832,up
227794,7.839844,0.902344,5.511719,-0.484375,-0.921875,-0.162109,0.099121,0.446899,0.024597,0.888733,up
227799,7.878906,0.902344,5.355469,-0.521484,-0.876953,-0.222656,0.100403,0.448975,0.023315,0.887573,up
227805,7.839844,0.941406,5.203125,-0.521484,-0.876953,-0.222656,0.10144,0.450439,0.0224,0.886719,up
227811,7.796875,0.980469,5.164062,-0.5625,-0.748047,-0.353516,0.10144,0.450439,0.0224,0.886719,up
227816,7.730469,0.902344,5.164062,-0.533203,-0.6875,-0.417969,0.104492,0.45343,0.020386,0.884888,up
227822,7.730469,0.902344,5.28125,-0.507812,-0.646484,-0.458984,0.104492,0.45343,0.020386,0.884888,up
227827,7.730469,0.902344,5.28125,-0.439453,-0.601562,-0.498047,0.104492,0.45343,0.020386,0.884888,up
227832,7.769531,0.941406,5.242187,-0.349609,-0.572266,-0.529297,0.104492,0.45343,0.020386,0.884888,up
227838,7.730469,1.210938,5.050781,-0.242187,-0.519531,-0.541016,0.104492,0.45343,0.020386,0.884888,up
227843,7.800781,1.476563,5.164062,0.056641,-0.353516,-0.572266,0.112488,0.459229,0.018494,0.880981,up
227848,7.765625,1.746094,5.203125,0.056641,-0.353516,-0.572266,0.113892,0.460144,0.019043,0.88031,up
227853,7.609375,1.976563,5.203125,0.056641,-0.353516,-0.572266,0.11499,0.460815,0.02002,0.879761,up
227858,7.574219,2.320313,5.164062,0.400391,-0.166016,-0.605469,0.116699,0.46167,0.022949,0.879028,up
227863,7.535156,2.472656,5.320312,0.400391,-0.166016,-0.605469,0.116699,0.46167,0.022949,0.879028,up
227868,7.53125,2.625,5.472656,0.585937,-0.039063,-0.615234,0.116699,0.46167,0.022949,0.879028,up
227873,7.613281,2.78125,5.585937,0.585937,-0.039063,-0.615234,0.118164,0.462158,0.026917,0.878479,up
227878,7.613281,3.085938,5.664062,0.533203,-0.058594,-0.599609,0.119568,0.462646,0.03064,0.87793,up
227883,7.570312,3.164063,5.703125,0.533203,-0.058594,-0.599609,0.119568,0.462646,0.03064,0.87793,up
227888,7.535156,3.164063,5.777344,0.121094,-0.111328,-0.525391,0.119568,0.462646,0.03064,0.87793,up
227893,7.53125,3.203125,5.855469,0.121094,-0.111328,-0.525391,0.121277,0.463074,0.033203,0.87738,up
227899,7.613281,3.125,5.894531,-0.070312,-0.148437,-0.505859,0.12384,0.463623,0.034058,0.876709,up
227904,7.769531,3.046875,6.046875,-0.517578,-0.240234,-0.470703,0.12384,0.463623,0.034058,0.876709,up
227909,7.992187,2.855469,6.160156,-0.517578,-0.240234,-0.470703,0.127075,0.464233,0.032837,0.875916,up
227914,8.03125,2.742188,6.160156,-0.517578,-0.240234,-0.470703,0.128845,0.464539,0.031677,0.875549,up
227919,8.070313,2.589844,6.160156,-1.003906,-0.296875,-0.451172,0.131042,0.464844,0.029968,0.875122,up
227924,8.148438,2.433594,6.160156,-1.039063,-0.267578,-0.447266,0.13324,0.465088,0.028137,0.874695,up
227929,8.074219,2.089844,6.199219,-1.039063,-0.267578,-0.447266,0.135437,0.465271,0.026367,0.874329,up
227934,8.03125,2.015625,6.238281,-1.039063,-0.267578,-0.447266,0.137268,0.465332,0.024902,0.874084,up
227939,8.035156,1.820313,6.277344,-0.876953,-0.205078,-0.429687,0.139465,0.465454,0.023193,0.873718,up
227944,7.996094,1.746094,6.316406,-0.876953,-0.205078,-0.429687,0.141174,0.465576,0.022034,0.873413,up
227949,7.953125,1.515625,6.390625,-0.876953,-0.205078,-0.429687,0.142883,0.465759,0.020935,0.873047,up
227954,8.03125,1.515625,6.351562,-0.876953,-0.205078,-0.429687,0.142883,0.465759,0.020935,0.873047,up
227959,8.03125,1.515625,6.351562,-0.447266,-0.195312,-0.4375,0.144409,0.465942,0.020264,0.872742,up
227964,8.070313,1.515625,6.390625,-0.271484,-0.162109,-0.455078,0.144409,0.465942,0.020264,0.872742,up
227969,8.113281,1.746094,6.351562,-0.091797,-0.117188,-0.474609,0.144409,0.465942,0.020264,0.872742,up
227974,8.113281,1.746094,6.351562,0.054687,-0.052734,-0.486328,0.14801,0.466492,0.020691,0.871826,up
227979,7.957031,2.050781,6.277344,0.054687,-0.052734,-0.486328,0.149719,0.466614,0.022705,0.871399,up
227984,7.914062,2.28125,6.199219,0.054687,-0.052734,-0.486328,0.150391,0.466675,0.023926,0.871216,up
227989,7.878906,2.550781,6.085937,0.212891,-0.025391,-0.513672,0.150391,0.466675,0.023926,0.871216,up
227994,7.796875,2.664063,6.121094,0.140625,-0.058594,-0.517578,0.151245,0.466675,0.025269,0.871033,up
227999,7.796875,2.78125,6.160156,0.140625,-0.058594,-0.517578,0.152954,0.466919,0.027161,0.870544,up
228005,7.957031,2.742188,6.238281,0.140625,-0.058594,-0.517578,0.153931,0.467102,0.02771,0.870239,up
228010,7.917969,2.78125,6.121094,-0.152344,-0.173828,-0.507812,0.155151,0.467346,0.028076,0.869873,up
228016,7.917969,2.742188,6.160156,-0.238281,-0.201172,-0.488281,0.155151,0.467346,0.028076,0.869873,up
228021,7.953125,2.703125,6.046875,-0.238281,-0.201172,-0.488281,0.157837,0.467957,0.028137,0.86908,up
228027,7.878906,2.703125,5.96875,-0.337891,-0.242187,-0.460937,0.157837,0.467957,0.028137,0.86908,up
228032,7.875,2.742188,5.929687,-0.353516,-0.257813,-0.441406,0.157837,0.467957,0.028137,0.86908,up
228037,7.835937,2.703125,5.855469,-0.347656,-0.246094,-0.427734,0.157837,0.467957,0.028137,0.86908,up
228042,7.875,2.703125,5.855469,-0.347656,-0.246094,-0.427734,0.157837,0.467957,0.028137,0.86908,up
228048,7.917969,2.664063,5.894531,-0.347656,-0.246094,-0.427734,0.16394,0.469604,0.027161,0.867126,up
228054,7.914062,2.625,5.816406,-0.234375,-0.222656,-0.402344,0.16394,0.469604,0.027161,0.867126,up
228059,7.996094,2.664063,5.664062,-0.234375,-0.222656,-0.402344,0.167114,0.470459,0.026917,0.866028,up
228064,8.03125,2.625,5.664062,-0.232422,-0.169922,-0.394531,0.167114,0.470459,0.026917,0.866028,up
228069,8.074219,2.625,5.585937,-0.232422,-0.169922,-0.394531,0.168274,0.470764,0.026917,0.865662,up
228074,8.03125,2.625,5.585937,-0.292969,-0.113281,-0.408203,0.168274,0.470764,0.026917,0.865662,up
228079,7.875,2.703125,5.511719,-0.292969,-0.113281,-0.408203,0.171509,0.471069,0.026611,0.864868,up
228084,7.765625,2.742188,5.472656,-0.371094,-0.060547,-0.390625,0.171509,0.471069,0.026611,0.864868,up
228089,7.652344,2.703125,5.433594,-0.371094,-0.060547,-0.390625,0.172791,0.471008,0.026367,0.864685,up
228094,7.691406,2.625,5.472656,-0.433594,-0.0625,-0.388672,0.172791,0.471008,0.026367,0.864685,up
228099,7.6875,2.589844,5.511719,-0.484375,-0.074219,-0.384766,0.176514,0.470642,0.024963,0.864136,up
228104,7.6875,2.550781,5.664062,-0.568359,-0.078125,-0.386719,0.176514,0.470642,0.024963,0.864136,up
228109,7.726562,2.433594,5.664062,-0.568359,-0.078125,-0.386719,0.177979,0.470459,0.02417,0.863953,up
228114,7.769531,2.359375,5.625,-0.568359,-0.078125,-0.386719,0.180664,0.470154,0.022827,0.863586,up
228119,7.878906,2.28125,5.625,-0.568359,-0.078125,-0.386719,0.182129,0.469971,0.022095,0.863403,up
228124,7.765625,2.167969,5.585937,-0.568359,-0.078125,-0.386719,0.182129,0.469971,0.022095,0.863403,up
228129,7.726562,2.015625,5.625,-0.554687,0.001953,-0.419922,0.182129,0.469971,0.022095,0.863403,up
228134,7.730469,1.976563,5.625,-0.554687,0.001953,-0.419922,0.184998,0.469299,0.020874,0.863159,up
228139,7.726562,1.898438,5.625,-0.455078,0.054687,-0.439453,0.184998,0.469299,0.020874,0.863159,up
228144,7.691406,1.9375,5.664062,-0.455078,0.054687,-0.439453,0.187866,0.468506,0.02002,0.863037,up
228150,7.6875,1.898438,5.738281,-0.455078,0.054687,-0.439453,0.190308,0.467773,0.019592,0.862915,up
228156,7.691406,1.898438,5.816406,-0.324219,0.082031,-0.466797,0.19165,0.467407,0.019531,0.862793,up
228162,7.613281,1.898438,5.738281,-0.273438,0.091797,-0.480469,0.19165,0.467407,0.019531,0.862793,up
228168,7.648437,1.859375,5.816406,-0.273438,0.091797,-0.480469,0.19165,0.467407,0.019531,0.862793,up
228173,7.609375,1.859375,5.929687,-0.160156,0.087891,-0.494141,0.19165,0.467407,0.019531,0.862793,up
228178,7.648437,1.859375,5.929687,-0.119141,0.078125,-0.494141,0.19165,0.467407,0.019531,0.862793,up
228184,7.730469,1.9375,6.007812,-0.119141,0.078125,-0.494141,0.197571,0.465637,0.020935,0.862366,up
228189,7.730469,1.976563,6.007812,-0.076172,0.019531,-0.494141,0.198547,0.465454,0.021301,0.862244,up
228194,7.691406,2.015625,5.929687,-0.076172,0.019531,-0.494141,0.200745,0.46521,0.022278,0.861877,up
228199,7.574219,2.050781,5.855469,-0.076172,0.019531,-0.494141,0.200745,0.46521,0.022278,0.861877,up
