timestamp,ax,ay,az,gx,gy,gz,qw,qx,qy,qz,label
291052,-4.417969,5.421875,7.160156,0.884766,-0.070312,0.220703,0.928162,0.304077,0.208557,-0.050659,up
291057,-4.378906,5.460937,7.199219,0.847656,-0.087891,0.25,0.927551,0.306274,0.208069,-0.050659,up
291062,-4.378906,5.5,7.199219,0.847656,-0.087891,0.25,0.927063,0.308044,0.207581,-0.050537,up
291067,-4.265625,5.539062,7.238281,0.847656,-0.087891,0.25,0.926453,0.310303,0.206909,-0.050354,up
291072,-4.265625,5.539062,7.238281,0.71875,-0.150391,0.324219,0.926453,0.310303,0.206909,-0.050354,up
291077,-4.148437,5.539062,7.238281,0.71875,-0.150391,0.324219,0.925598,0.313782,0.205627,-0.049927,up
291082,-4.148437,5.460937,7.160156,0.642578,-0.152344,0.351563,0.925171,0.315552,0.204895,-0.049561,up
291088,-3.996094,5.347656,7.042969,0.642578,-0.152344,0.351563,0.924866,0.317017,0.204285,-0.049255,up
291093,-3.882813,5.347656,7.003906,0.628906,-0.134766,0.335938,0.924866,0.317017,0.204285,-0.049255,up
291100,-3.882813,5.347656,7.003906,0.615234,-0.128906,0.324219,0.924866,0.317017,0.204285,-0.049255,up
291106,-3.84375,5.347656,6.964844,0.615234,-0.128906,0.324219,0.923645,0.321777,0.202393,-0.048279,up
291111,-3.804688,5.386719,6.960937,0.603516,-0.074219,0.261719,0.923645,0.321777,0.202393,-0.048279,up
291116,-3.804688,5.386719,6.960937,0.603516,-0.074219,0.261719,0.922852,0.32489,0.201355,-0.047729,up
291121,-3.804688,5.347656,6.890625,0.603516,-0.074219,0.261719,0.922852,0.32489,0.201355,-0.047729,up
291126,-3.804688,5.347656,6.890625,0.609375,-0.023437,0.205078,0.921936,0.327881,0.200623,-0.047363,up
291131,-3.804688,5.421875,6.890625,0.601562,-0.001953,0.171875,0.921936,0.327881,0.200623,-0.047363,up
291136,-3.882813,5.539062,6.925781,0.585937,0.009766,0.15625,0.921021,0.330811,0.200195,-0.04718,up
291141,-3.882813,5.539062,6.925781,0.585937,0.009766,0.15625,0.921021,0.330811,0.200195,-0.04718,up
291146,-3.921875,5.613281,6.894531,0.580078,0.021484,0.150391,0.920044,0.333618,0.19989,-0.047058,up
291152,-3.957031,5.691406,6.851562,0.544922,0.025391,0.146484,0.919128,0.336426,0.199646,-0.046936,up
291158,-3.957031,5.730469,6.8125,0.544922,0.025391,0.146484,0.918701,0.337585,0.199524,-0.046814,up
291163,-3.957031,5.730469,6.8125,0.535156,0.019531,0.193359,0.918274,0.338928,0.199402,-0.046692,up
291168,-3.957031,5.769531,6.855469,0.537109,0.011719,0.214844,0.917786,0.340454,0.199158,-0.046448,up
291174,-3.957031,5.921875,6.8125,0.537109,0.011719,0.214844,0.917358,0.341614,0.198975,-0.046265,up
291180,-3.921875,5.921875,6.699219,0.541016,0.013672,0.246094,0.917358,0.341614,0.198975,-0.046265,up
291185,-3.921875,5.960937,6.660156,0.515625,0.017578,0.265625,0.917358,0.341614,0.198975,-0.046265,up
291190,-3.882813,5.960937,6.578125,0.490234,0.019531,0.273438,0.917358,0.341614,0.198975,-0.046265,up
291195,-3.84375,5.996094,6.539062,0.46875,0.019531,0.285156,0.917358,0.341614,0.198975,-0.046265,up
291201,-3.804688,5.960937,6.507812,0.453125,0.027344,0.28125,0.917358,0.341614,0.198975,-0.046265,up
291206,-3.804688,5.960937,6.46875,0.414062,0.035156,0.259766,0.917358,0.341614,0.198975,-0.046265,up
291211,-3.726563,5.960937,6.429687,0.414062,0.035156,0.259766,0.914551,0.350403,0.197388,-0.043701,up
291217,-3.765625,5.960937,6.433594,0.353516,0.050781,0.214844,0.914551,0.350403,0.197388,-0.043701,up
291222,-3.765625,5.996094,6.394531,0.353516,0.050781,0.214844,0.913513,0.353394,0.197021,-0.042603,up
291227,-3.804688,5.996094,6.351562,0.353516,0.050781,0.214844,0.913208,0.354126,0.19696,-0.042419,up
291232,-3.804688,6.074219,6.355469,0.353516,0.050781,0.214844,0.912964,0.354919,0.19696,-0.042175,up
291237,-3.84375,6.074219,6.394531,0.353516,0.050781,0.214844,0.912964,0.354919,0.19696,-0.042175,up
291242,-3.804688,6.113281,6.351562,0.203125,0.023437,0.019531,0.912964,0.354919,0.19696,-0.042175,up
291247,-3.765625,6.113281,6.351562,0.203125,0.023437,0.019531,0.912292,0.356506,0.19696,-0.042236,up
291252,-3.765625,6.152344,6.351562,0.203125,0.023437,0.019531,0.912292,0.356506,0.19696,-0.042236,up
291257,-3.765625,6.1875,6.351562,0.123047,0.001953,-0.056641,0.912292,0.356506,0.19696,-0.042236,up
291262,-3.726563,6.226562,6.390625,0.123047,0.001953,-0.056641,0.911926,0.357422,0.197083,-0.042786,up
291267,-3.652344,6.226562,6.390625,0.123047,0.001953,-0.056641,0.911804,0.357605,0.197083,-0.04303,up
291272,-3.691406,6.226562,6.394531,0.123047,0.001953,-0.056641,0.911804,0.357605,0.197083,-0.04303,up
291277,-3.613281,6.226562,6.390625,0.066406,-0.009766,-0.025391,0.911804,0.357605,0.197083,-0.04303,up
291282,-3.652344,6.1875,6.390625,0.066406,-0.009766,-0.025391,0.91156,0.358154,0.197144,-0.043457,up
291287,-3.652344,6.1875,6.355469,0.066406,-0.009766,-0.025391,0.911499,0.358337,0.197144,-0.043518,up
291292,-3.652344,6.1875,6.355469,0.066406,-0.009766,-0.025391,0.911499,0.358337,0.197144,-0.043518,up
291297,-3.691406,6.152344,6.394531,0.140625,0.023437,0.033203,0.911499,0.358337,0.197144,-0.043518,up
291302,-3.652344,6.226562,6.273437,0.140625,0.023437,0.033203,0.911133,0.359253,0.197205,-0.043579,up
291307,-3.691406,6.265625,6.273437,0.140625,0.023437,0.033203,0.911133,0.359253,0.197205,-0.043579,up
291312,-3.613281,6.265625,6.277344,0.208984,0.050781,0.044922,0.910706,0.360291,0.197266,-0.043518,up
291317,-3.613281,6.304687,6.238281,0.208984,0.050781,0.044922,0.9104,0.361023,0.197388,-0.043518,up
291322,-3.652344,6.347656,6.121094,0.341797,0.085937,0.042969,0.9104,0.361023,0.197388,-0.043518,up
291327,-3.652344,6.347656,6.121094,0.341797,0.085937,0.042969,0.910095,0.361694,0.197449,-0.043518,up
291332,-3.652344,6.414062,6.121094,0.40625,0.126953,0.029297,0.910095,0.361694,0.197449,-0.043518,up
291338,-3.652344,6.414062,6.121094,0.427734,0.146484,0.021484,0.908875,0.364502,0.198059,-0.04364,up
291344,-3.726563,6.457031,6.046875,0.427734,0.146484,0.021484,0.908386,0.36554,0.198303,-0.043701,up
291350,-3.765625,6.53125,6.046875,0.457031,0.177734,0.007813,0.908386,0.36554,0.198303,-0.043701,up
291355,-3.84375,6.730469,6.160156,0.476562,0.189453,-0.003906,0.908386,0.36554,0.198303,-0.043701,up
291360,-3.882813,6.765625,6.160156,0.494141,0.193359,-0.007813,0.908386,0.36554,0.198303,-0.043701,up
291365,-3.957031,6.839844,6.199219,0.492187,0.203125,-0.017578,0.90625,0.369995,0.199829,-0.044067,up
291370,-3.996094,6.878906,6.199219,0.484375,0.191406,-0.033203,0.90625,0.369995,0.199829,-0.044067,up
291375,-4.035156,7.03125,6.238281,0.484375,0.191406,-0.033203,0.90625,0.369995,0.199829,-0.044067,up
291381,-3.996094,7.03125,6.238281,0.484375,0.191406,-0.033203,0.904602,0.37323,0.200989,-0.044617,up
291387,-3.996094,7.074219,6.277344,0.357422,0.119141,-0.015625,0.904602,0.37323,0.200989,-0.044617,up
291392,-4.035156,7.152344,6.199219,0.357422,0.119141,-0.015625,0.90332,0.375916,0.201843,-0.045105,up
291397,-3.996094,7.152344,6.199219,0.271484,0.050781,0.015625,0.90332,0.375916,0.201843,-0.045105,up
291402,-3.996094,7.179687,6.199219,0.214844,0.033203,0.033203,0.902954,0.376648,0.201965,-0.045227,up
291407,-3.957031,7.21875,6.121094,0.214844,0.033203,0.033203,0.90271,0.377197,0.201965,-0.045288,up
291412,-3.957031,7.21875,6.121094,0.214844,0.033203,0.033203,0.902405,0.37793,0.201904,-0.045288,up
291417,-3.882813,7.109375,6.121094,0.214844,0.033203,0.033203,0.902405,0.37793,0.201904,-0.045288,up
291422,-3.84375,7.074219,6.121094,0.035156,-0.021484,0.085937,0.902405,0.37793,0.201904,-0.045288,up
291427,-3.804688,6.957031,6.085937,-0.013672,-0.021484,0.09375,0.902405,0.37793,0.201904,-0.045288,up
291432,-3.765625,6.878906,6.085937,-0.013672,-0.021484,0.09375,0.902405,0.378235,0.201538,-0.044861,up
291437,-3.765625,6.878906,6.085937,-0.021484,-0.023437,0.111328,0.902405,0.378235,0.201538,-0.044861,up
291442,-3.691406,6.878906,6.121094,-0.021484,-0.023437,0.111328,0.902466,0.378235,0.201172,-0.044495,up
291447,-3.691406,6.796875,6.121094,-0.021484,-0.023437,0.111328,0.902527,0.378296,0.200928,-0.044128,up
291452,-3.613281,6.730469,6.085937,-0.021484,-0.023437,0.111328,0.902527,0.378296,0.200928,-0.044128,up
291457,-3.613281,6.691406,6.121094,0.042969,0.037109,0.087891,0.902527,0.378296,0.200928,-0.044128,up
291462,-3.574219,6.730469,6.046875,0.042969,0.037109,0.087891,0.902466,0.378479,0.200867,-0.043762,up
291467,-3.535156,6.691406,6.007812,0.042969,0.037109,0.087891,0.902405,0.378723,0.200867,-0.043579,up
291472,-3.535156,6.648437,6.007812,0.164062,0.115234,0.054687,0.902222,0.379089,0.200989,-0.043396,up
291477,-3.535156,6.691406,6.007812,0.164062,0.115234,0.054687,0.902039,0.379456,0.201111,-0.043335,up
291482,-3.535156,6.648437,5.96875,0.164062,0.115234,0.054687,0.901794,0.379883,0.201294,-0.043213,up
291488,-3.5,6.691406,6.007812,0.232422,0.193359,0.037109,0.901794,0.379883,0.201294,-0.043213,up
291493,-3.5,6.691406,5.96875,0.232422,0.193359,0.037109,0.900879,0.381592,0.202393,-0.042908,up
291498,-3.535156,6.765625,5.96875,0.232422,0.193359,0.037109,0.900513,0.382202,0.20282,-0.042786,up
291503,-3.5,6.835937,5.96875,0.232422,0.193359,0.037109,0.900208,0.382751,0.203247,-0.042725,up
291508,-3.574219,6.796875,5.96875,0.25,0.246094,0.019531,0.89978,0.383423,0.203796,-0.042542,up
291514,-3.574219,6.914062,5.929687,0.25,0.246094,0.019531,0.899414,0.384033,0.204346,-0.042419,up
291519,-3.574219,6.957031,6.007812,0.25,0.246094,0.019531,0.899109,0.384583,0.204773,-0.042297,up
291525,-3.574219,6.917969,5.96875,0.232422,0.238281,0.021484,0.898743,0.385132,0.205261,-0.042175,up
291530,-3.613281,6.953125,5.96875,0.207031,0.232422,0.025391,0.898743,0.385132,0.205261,-0.042175,up
291536,-3.652344,7.03125,5.96875,0.199219,0.210937,0.027344,0.898743,0.385132,0.205261,-0.042175,up
291542,-3.652344,7.070312,5.929687,0.179687,0.191406,0.029297,0.898743,0.385132,0.205261,-0.042175,up
291547,-3.613281,6.957031,5.929687,0.111328,0.169922,0.033203,0.898743,0.385132,0.205261,-0.042175,up
291553,-3.613281,6.996094,5.816406,0.089844,0.15625,0.039063,0.897278,0.387451,0.207275,-0.041565,up
291558,-3.574219,6.953125,5.816406,0.089844,0.15625,0.039063,0.896912,0.388,0.207947,-0.04126,up
291563,-3.535156,6.957031,5.855469,0.089844,0.15625,0.039063,0.896851,0.388184,0.208191,-0.041077,up
291568,-3.535156,6.917969,5.855469,-0.003906,0.121094,0.048828,0.896851,0.388184,0.208191,-0.041077,up
291573,-3.574219,6.914062,5.816406,-0.003906,0.121094,0.048828,0.896729,0.388245,0.208618,-0.040771,up
291578,-3.574219,6.917969,5.777344,-0.003906,0.121094,0.048828,0.896729,0.388245,0.208618,-0.040771,up
291583,-3.535156,6.878906,5.816406,-0.083984,0.097656,0.054687,0.896729,0.388245,0.208618,-0.040771,up
291588,-3.535156,6.800781,5.894531,-0.083984,0.097656,0.054687,0.896729,0.388062,0.208984,-0.040344,up
291594,-3.535156,6.691406,5.96875,-0.083984,0.097656,0.054687,0.89679,0.387695,0.209351,-0.039917,up
291599,-3.574219,6.652344,5.96875,-0.146484,0.097656,0.076172,0.896912,0.387451,0.209534,-0.039612,up
291604,-3.574219,6.613281,5.96875,-0.154297,0.103516,0.078125,0.896973,0.387207,0.209656,-0.039307,up
291611,-3.574219,6.496094,6.007812,-0.154297,0.103516,0.078125,0.897095,0.386902,0.209839,-0.039001,up
291616,-3.535156,6.453125,5.96875,-0.158203,0.117188,0.091797,0.897095,0.386902,0.209839,-0.039001,up
291621,-3.574219,6.457031,6.007812,-0.150391,0.126953,0.097656,0.897095,0.386902,0.209839,-0.039001,up
291627,-3.535156,6.375,5.96875,-0.132812,0.134766,0.097656,0.897339,0.385986,0.210632,-0.037537,up
291632,-3.574219,6.34375,5.96875,-0.132812,0.134766,0.097656,0.897339,0.385986,0.210632,-0.037537,up
291637,-3.574219,6.417969,5.96875,-0.046875,0.183594,0.095703,0.897339,0.385986,0.210632,-0.037537,up
291642,-3.574219,6.378906,5.96875,-0.046875,0.183594,0.095703,0.897339,0.385803,0.211182,-0.036804,up
291648,-3.613281,6.347656,5.894531,-0.035156,0.205078,0.089844,0.897156,0.385864,0.211914,-0.036072,up
291653,-3.613281,6.347656,5.894531,0.035156,0.230469,0.068359,0.897156,0.385864,0.211914,-0.036072,up
291658,-3.613281,6.34375,5.929687,0.054687,0.25,0.056641,0.897034,0.385986,0.212402,-0.035767,up
291663,-3.691406,6.375,5.929687,0.078125,0.257813,0.050781,0.896851,0.386169,0.21283,-0.035461,up
291669,-3.765625,6.457031,5.96875,0.078125,0.257813,0.050781,0.896423,0.386658,0.213867,-0.034912,up
291674,-3.726563,6.457031,6.046875,0.111328,0.306641,0.041016,0.896179,0.386902,0.214478,-0.034668,up
291679,-3.765625,6.453125,6.046875,0.123047,0.328125,0.037109,0.896179,0.386902,0.214478,-0.034668,up
291684,-3.765625,6.496094,6.085937,0.123047,0.328125,0.037109,0.895569,0.387634,0.21582,-0.033997,up
291689,-3.84375,6.453125,6.121094,0.123047,0.328125,0.037109,0.895569,0.387634,0.21582,-0.033997,up
291695,-3.882813,6.496094,6.199219,0.115234,0.417969,0.056641,0.895569,0.387634,0.21582,-0.033997,up
291700,-3.996094,6.574219,6.351562,0.115234,0.417969,0.056641,0.894531,0.388611,0.218323,-0.032776,up
291705,-4.074219,6.609375,6.390625,0.089844,0.451172,0.078125,0.894226,0.388916,0.219238,-0.032288,up
291710,-4.113281,6.652344,6.429687,0.082031,0.460937,0.080078,0.894226,0.388916,0.219238,-0.032288,up
291715,-4.148437,6.613281,6.46875,0.070312,0.460937,0.078125,0.894226,0.388916,0.219238,-0.032288,up
291720,-4.226562,6.652344,6.390625,0.070312,0.460937,0.078125,0.894226,0.388916,0.219238,-0.032288,up
291725,-4.226562,6.6875,6.429687,0.101563,0.470703,0.076172,0.894226,0.388916,0.219238,-0.032288,up
291730,-4.265625,6.726562,6.46875,0.130859,0.453125,0.064453,0.894226,0.388916,0.219238,-0.032288,up
291735,-4.226562,6.765625,6.507812,0.130859,0.453125,0.064453,0.894226,0.388916,0.219238,-0.032288,up
291742,-4.226562,6.875,6.507812,0.130859,0.453125,0.064453,0.891602,0.391418,0.225708,-0.02887,up
291748,-4.265625,6.996094,6.542969,0.291016,0.390625,0.046875,0.891602,0.391418,0.225708,-0.02887,up
291753,-4.339844,7.257812,6.621094,0.291016,0.390625,0.046875,0.890137,0.393494,0.22821,-0.027954,up
291758,-4.339844,7.335937,6.621094,0.296875,0.421875,0.091797,0.890137,0.393494,0.22821,-0.027954,up
291763,-4.378906,7.414062,6.660156,0.296875,0.421875,0.091797,0.889526,0.394287,0.229065,-0.027527,up
291768,-4.378906,7.414062,6.660156,0.255859,0.458984,0.125,0.889099,0.394958,0.229797,-0.027161,up
291773,-4.378906,7.414062,6.660156,0.189453,0.505859,0.146484,0.889099,0.394958,0.229797,-0.027161,up
291778,-4.378906,7.414062,6.660156,0.140625,0.544922,0.181641,0.888123,0.396118,0.231689,-0.025818,up
291783,-4.417969,7.378906,6.699219,0.140625,0.544922,0.181641,0.887695,0.396545,0.232727,-0.024902,up
291788,-4.417969,7.378906,6.699219,-0.027344,0.601562,0.25,0.887329,0.396729,0.233826,-0.023804,up
291793,-4.417969,7.300781,7.003906,-0.027344,0.601562,0.25,0.886841,0.39679,0.235962,-0.021301,up
291798,-4.457031,7.183594,7.003906,-0.027344,0.601562,0.25,0.886841,0.39679,0.235962,-0.021301,up
291803,-4.457031,7.074219,7.003906,-0.207031,0.654297,0.392578,0.886841,0.39679,0.235962,-0.021301,up
291808,-4.53125,7.035156,6.964844,-0.222656,0.671875,0.4375,0.886841,0.39679,0.235962,-0.021301,up
291813,-4.53125,6.839844,7.003906,-0.169922,0.667969,0.539062,0.886292,0.396301,0.239136,-0.016296,up
291818,-4.570312,6.648437,7.042969,-0.169922,0.667969,0.539062,0.886047,0.39624,0.240234,-0.014221,up
291823,-4.609375,6.535156,7.195312,0.021484,0.638672,0.636719,0.885803,0.396362,0.241089,-0.012329,up
291829,-4.609375,6.304687,7.273437,0.021484,0.638672,0.636719,0.88501,0.397278,0.242554,-0.008545,up
291834,-4.570312,6.265625,7.238281,0.263672,0.625,0.691406,0.884399,0.398254,0.243286,-0.006409,up
291839,-4.570312,6.1875,7.15625,0.396484,0.59375,0.691406,0.883667,0.399414,0.243958,-0.004578,up
291845,-4.53125,6.152344,7.121094,0.525391,0.556641,0.677734,0.882935,0.400818,0.244446,-0.002991,up
291850,-4.457031,6.496094,7.078125,0.525391,0.556641,0.677734,0.882019,0.402527,0.244934,-0.001404,up
291856,-4.457031,6.609375,7.042969,0.804687,0.478516,0.625,0.882019,0.402527,0.244934,-0.001404,up
291861,-4.417969,6.796875,6.773437,0.917969,0.453125,0.601562,0.882019,0.402527,0.244934,-0.001404,up
291866,-4.378906,6.914062,6.660156,1.007813,0.4375,0.564453,0.87854,0.409363,0.246155,0.002319,up
291871,-4.339844,7.03125,6.507812,1.060547,0.439453,0.525391,0.87854,0.409363,0.246155,0.002319,up
291877,-4.339844,7.152344,6.390625,1.091797,0.419922,0.5,0.87854,0.409363,0.246155,0.002319,up
291883,-4.339844,7.300781,6.007812,1.091797,0.419922,0.5,0.87854,0.409363,0.246155,0.002319,up
291889,-4.265625,7.261719,5.894531,0.892578,0.447266,0.396484,0.87854,0.409363,0.246155,0.002319,up
291894,-4.304687,7.378906,5.585937,0.892578,0.447266,0.396484,0.870422,0.424622,0.248962,0.007202,up
291899,-4.265625,7.335937,5.472656,0.892578,0.447266,0.396484,0.869507,0.426208,0.249451,0.007935,up
291904,-4.265625,7.296875,5.28125,0.466797,0.445312,0.361328,0.868591,0.427734,0.250061,0.008911,up
291910,-4.226562,7.179687,5.011719,0.466797,0.445312,0.361328,0.86792,0.428772,0.250549,0.009766,up
291915,-4.226562,7.109375,4.898437,0.466797,0.445312,0.361328,0.867371,0.429565,0.251038,0.010803,up
291921,-4.035156,6.957031,4.820312,0.466797,0.445312,0.361328,0.867371,0.429565,0.251038,0.010803,up
291926,-3.957031,6.914062,4.898437,-0.046875,0.259766,0.335938,0.866821,0.430237,0.251709,0.012817,up
291931,-3.84375,6.875,4.859375,-0.119141,0.216797,0.3125,0.866821,0.430237,0.251709,0.012817,up
291938,-3.691406,6.6875,4.742187,-0.119141,0.216797,0.3125,0.866821,0.430237,0.251709,0.012817,up
291943,-3.652344,6.613281,4.628906,-0.226562,0.181641,0.240234,0.866821,0.430237,0.251709,0.012817,up
291948,-3.613281,6.453125,4.550781,-0.261719,0.148437,0.150391,0.866821,0.430237,0.251709,0.012817,up
291954,-3.535156,6.269531,4.476562,-0.261719,0.148437,0.150391,0.86731,0.42865,0.252441,0.017456,up
291959,-3.574219,6.304687,4.476562,-0.269531,0.125,0.037109,0.867493,0.428101,0.252625,0.017883,up
291965,-3.535156,6.34375,4.476562,-0.269531,0.125,0.037109,0.867676,0.427612,0.252808,0.018127,up
291970,-3.574219,6.308594,4.398437,-0.269531,0.125,0.037109,0.86792,0.42688,0.253174,0.018311,up
291975,-3.726563,6.34375,4.246094,-0.269531,0.125,0.037109,0.868225,0.426147,0.25354,0.018311,up
291980,-3.726563,6.34375,4.207031,-0.412109,0.152344,-0.21875,0.868225,0.426147,0.25354,0.018311,up
291985,-3.804688,6.414062,4.09375,-0.458984,0.144531,-0.271484,0.868225,0.426147,0.25354,0.018311,up
291990,-3.921875,6.574219,4.132812,-0.458984,0.144531,-0.271484,0.869324,0.422913,0.255127,0.017883,up
291995,-3.921875,6.609375,4.207031,-0.517578,0.117188,-0.365234,0.869324,0.422913,0.255127,0.017883,up
292001,-3.921875,6.691406,4.207031,-0.539062,0.113281,-0.402344,0.869324,0.422913,0.255127,0.017883,up
292006,-3.882813,6.6875,4.207031,-0.554687,0.115234,-0.431641,0.869324,0.422913,0.255127,0.017883,up
292013,-3.882813,6.726562,4.207031,-0.554687,0.115234,-0.431641,0.871338,0.417297,0.257629,0.016052,up
292019,-3.882813,6.726562,4.167969,-0.613281,0.072266,-0.490234,0.871338,0.417297,0.257629,0.016052,up
292024,-3.882813,6.6875,4.246094,-0.613281,0.072266,-0.490234,0.873108,0.412415,0.259583,0.01416,up
292030,-3.726563,6.535156,4.207031,-0.613281,0.072266,-0.490234,0.873718,0.410828,0.260071,0.013428,up
292035,-3.652344,6.570312,4.167969,-0.65625,-0.003906,-0.519531,0.873718,0.410828,0.260071,0.013428,up
292040,-3.613281,6.570312,4.207031,-0.677734,-0.017578,-0.523437,0.873718,0.410828,0.260071,0.013428,up
292045,-3.652344,6.570312,4.207031,-0.677734,-0.017578,-0.523437,0.875793,0.405518,0.261475,0.011108,up
292050,-3.652344,6.609375,4.359375,-0.677734,-0.017578,-0.523437,0.876587,0.403625,0.261841,0.010315,up
292055,-3.613281,6.691406,4.359375,-0.697266,-0.097656,-0.513672,0.876587,0.403625,0.261841,0.010315,up
292060,-3.652344,6.765625,4.324219,-0.697266,-0.097656,-0.513672,0.878113,0.400024,0.26239,0.008667,up
292066,-3.84375,6.835937,4.398437,-0.697266,-0.097656,-0.513672,0.878967,0.398071,0.262512,0.007813,up
292072,-3.882813,6.800781,4.398437,-0.751953,-0.158203,-0.457031,0.878967,0.398071,0.262512,0.007813,up
292077,-4.035156,6.914062,4.359375,-0.777344,-0.171875,-0.431641,0.878967,0.398071,0.262512,0.007813,up
292082,-4.113281,6.992187,4.398437,-0.785156,-0.169922,-0.417969,0.878967,0.398071,0.262512,0.007813,up
292088,-4.148437,7.035156,4.398437,-0.798828,-0.175781,-0.412109,0.878967,0.398071,0.262512,0.007813,up
292093,-4.148437,7.03125,4.4375,-0.814453,-0.21875,-0.376953,0.878967,0.398071,0.262512,0.007813,up
292098,-4.148437,6.878906,4.515625,-0.814453,-0.21875,-0.376953,0.884216,0.38623,0.262512,0.003906,up
292103,-4.1875,6.796875,4.589844,-0.814453,-0.21875,-0.376953,0.885193,0.384277,0.262329,0.003357,up
292109,-4.1875,6.613281,4.707031,-0.769531,-0.283203,-0.332031,0.885193,0.384277,0.262329,0.003357,up
292114,-4.226562,6.765625,4.78125,-0.769531,-0.283203,-0.332031,0.888,0.378357,0.261353,0.001587,up
292119,-4.1875,6.730469,4.742187,-0.769531,-0.283203,-0.332031,0.888855,0.376587,0.261047,0.001038,up
292124,-4.226562,6.652344,4.820312,-0.757812,-0.361328,-0.347656,0.888855,0.376587,0.261047,0.001038,up
292129,-4.226562,6.652344,4.820312,-0.757812,-0.361328,-0.347656,0.889771,0.374695,0.260559,0.000366,up
292134,-3.996094,6.609375,4.933594,-0.791016,-0.414062,-0.365234,0.890747,0.372803,0.26001,-0.000366,up
292139,-3.996094,6.609375,4.933594,-0.84375,-0.431641,-0.394531,0.891724,0.370789,0.259399,-0.001099,up
292144,-3.921875,6.765625,4.820312,-0.84375,-0.431641,-0.394531,0.892822,0.368591,0.25885,-0.001831,up
292150,-3.921875,6.765625,4.820312,-0.992187,-0.439453,-0.435547,0.895203,0.363586,0.257629,-0.003357,up
292156,-4.074219,7.070312,4.933594,-0.992187,-0.439453,-0.435547,0.896545,0.360718,0.257019,-0.004089,up
292161,-4.148437,7.152344,4.933594,-1.375,-0.470703,-0.419922,0.896545,0.360718,0.257019,-0.004089,up
292167,-4.1875,7.113281,5.011719,-1.517578,-0.474609,-0.392578,0.896545,0.360718,0.257019,-0.004089,up
292174,-4.226562,6.875,5.203125,-1.517578,-0.474609,-0.392578,0.896545,0.360718,0.257019,-0.004089,up
292179,-4.417969,6.839844,5.320312,-1.857422,-0.46875,-0.236328,0.896545,0.360718,0.257019,-0.004089,up
292184,-4.53125,6.613281,5.433594,-1.857422,-0.46875,-0.236328,0.904968,0.341858,0.253235,-0.005554,up
292189,-4.496094,6.496094,5.546875,-1.941406,-0.494141,-0.144531,0.904968,0.341858,0.253235,-0.005554,up
292194,-4.496094,6.570312,5.320312,-1.941406,-0.494141,-0.144531,0.910828,0.328186,0.250244,-0.004517,up
292199,-4.570312,6.378906,5.355469,-1.953125,-0.679687,-0.132812,0.910828,0.328186,0.250244,-0.004517,up
292204,-4.53125,6.308594,5.433594,-1.953125,-0.679687,-0.132812,0.914734,0.319397,0.247437,-0.003906,up
292209,-4.417969,6.230469,5.585937,-1.953125,-0.679687,-0.132812,0.914734,0.319397,0.247437,-0.003906,up
292214,-4.304687,6.148437,5.546875,-1.953125,-0.892578,-0.234375,0.916687,0.315002,0.245789,-0.003845,up
292219,-4.226562,6.113281,5.546875,-1.953125,-0.892578,-0.234375,0.921021,0.305359,0.241882,-0.004089,up
292224,-4.1875,6.148437,5.664062,-1.898438,-0.960937,-0.335938,0.921021,0.305359,0.241882,-0.004089,up
292230,-4.113281,6.230469,5.664062,-1.898438,-0.960937,-0.335938,0.925049,0.296082,0.237854,-0.004944,up
292235,-3.996094,6.378906,5.546875,-2.046875,-1.054688,-0.404297,0.927185,0.291138,0.235718,-0.005493,up
292240,-4.035156,6.304687,5.703125,-2.046875,-1.054688,-0.404297,0.929382,0.285767,0.233459,-0.006042,up
292245,-4.113281,6.148437,5.703125,-2.046875,-1.054688,-0.404297,0.931458,0.280823,0.231384,-0.00647,up
292250,-4.113281,5.992187,5.738281,-2.654297,-1.109375,-0.373047,0.934143,0.273804,0.22876,-0.006775,up
292256,-4.148437,5.539062,6.050781,-2.654297,-1.109375,-0.373047,0.936218,0.26825,0.226868,-0.006836,up
292261,-4.1875,5.347656,6.394531,-2.654297,-1.109375,-0.373047,0.938782,0.261108,0.22467,-0.006592,up
292266,-4.1875,5.347656,6.394531,-2.654297,-1.109375,-0.373047,0.938782,0.261108,0.22467,-0.006592,up
292272,-4.265625,5.0,6.394531,-3.056641,-0.912109,-0.171875,0.943604,0.246704,0.220764,-0.00531,up
292277,-4.339844,4.003906,6.121094,-3.304688,-0.550781,-0.085937,0.945984,0.238831,0.219238,-0.00415,up
292282,-4.339844,4.003906,6.121094,-3.304688,-0.550781,-0.085937,0.945984,0.238831,0.219238,-0.00415,up
292288,-3.921875,3.46875,7.34375,-3.177734,-0.542969,-0.052734,0.948181,0.231262,0.217957,-0.00293,up
292293,-3.921875,3.125,7.460937,-3.177734,-0.542969,-0.052734,0.951965,0.217407,0.215576,-0.000732,up
292299,-3.996094,3.96875,7.621094,-3.177734,-0.542969,-0.052734,0.953491,0.211487,0.214661,0.0,up
292304,-3.996094,4.542969,7.582031,-3.177734,-0.542969,-0.052734,0.954834,0.206482,0.213684,0.000427,up
292309,-4.074219,4.773437,7.503906,-1.537109,-0.427734,-0.388672,0.954834,0.206482,0.213684,0.000427,up
292315,-4.074219,5.191406,7.65625,-1.537109,-0.427734,-0.388672,0.958008,0.194275,0.210999,-0.000244,up
292320,-3.957031,5.539062,7.539062,-1.480469,-0.28125,-0.533203,0.958984,0.190125,0.210327,-0.000977,up
292326,-4.113281,5.460937,6.816406,-1.480469,-0.28125,-0.533203,0.959656,0.186646,0.210205,-0.001587,up
292333,-4.074219,5.308594,6.777344,-1.806641,0.029297,-0.621094,0.959656,0.186646,0.210205,-0.001587,up
292339,-4.1875,5.117187,7.34375,-1.806641,0.029297,-0.621094,0.959656,0.186646,0.210205,-0.001587,up
292344,-4.148437,4.925781,7.695312,-2.568359,0.496094,-0.560547,0.959656,0.186646,0.210205,-0.001587,up
292349,-4.265625,4.234375,8.152344,-2.568359,0.496094,-0.560547,0.962952,0.165405,0.212891,-0.003052,up
292354,-4.496094,4.160156,8.5,-2.568359,0.496094,-0.560547,0.963745,0.158447,0.2146,-0.002747,up
292359,-4.722656,4.195312,8.808594,-2.337891,0.882812,-0.449219,0.963745,0.158447,0.2146,-0.002747,up
292364,-4.953125,4.234375,8.957031,-2.337891,0.882812,-0.449219,0.964844,0.14563,0.218872,-0.001892,up
292369,-5.300781,4.773437,9.496094,-2.337891,0.882812,-0.449219,0.965088,0.140137,0.22113,-0.001526,up
292374,-5.300781,4.773437,9.496094,-1.771484,0.875,-0.46875,0.965271,0.135742,0.223267,-0.001343,up
292380,-5.414062,4.925781,9.761719,-1.492188,0.828125,-0.507812,0.965332,0.131592,0.225464,-0.001404,up
292386,-5.414062,4.925781,9.761719,-1.492188,0.828125,-0.507812,0.96521,0.125244,0.229614,-0.002319,up
292391,-5.644531,5.578125,10.070313,-0.673828,0.677734,-0.662109,0.965027,0.122925,0.231567,-0.003235,up
292397,-5.683594,5.84375,10.105469,-0.673828,0.677734,-0.662109,0.965027,0.122925,0.231567,-0.003235,up
292403,-5.644531,6.074219,10.074219,-0.445312,0.568359,-0.677734,0.965027,0.122925,0.231567,-0.003235,up
292409,-5.527344,6.34375,10.035156,-0.445312,0.568359,-0.677734,0.965027,0.122925,0.231567,-0.003235,up
292414,-5.566406,6.378906,9.992188,-0.785156,0.458984,-0.568359,0.965027,0.122925,0.231567,-0.003235,up
292419,-5.414062,6.265625,10.21875,-0.785156,0.458984,-0.568359,0.964172,0.114502,0.239258,-0.009094,up
292424,-5.414062,6.265625,10.21875,-1.076172,0.484375,-0.449219,0.964111,0.111938,0.240601,-0.009888,up
292429,-5.300781,6.035156,10.261719,-1.076172,0.484375,-0.449219,0.964111,0.109497,0.24176,-0.010315,up
292435,-5.183594,5.804687,10.257813,-1.121094,0.607422,-0.345703,0.964111,0.109497,0.24176,-0.010315,up
292440,-5.109375,5.460937,10.179688,-1.121094,0.607422,-0.345703,0.963867,0.100769,0.246338,-0.010742,up
292445,-5.070312,5.230469,10.222656,-1.121094,0.607422,-0.345703,0.963745,0.098022,0.247986,-0.010681,up
292451,-4.953125,4.925781,10.339844,-1.121094,0.607422,-0.345703,0.963501,0.095337,0.249817,-0.010559,up
292456,-4.953125,4.773437,10.339844,-0.890625,0.816406,-0.265625,0.963196,0.09259,0.252075,-0.010437,up
292461,-4.992187,4.773437,10.296875,-0.890625,0.816406,-0.265625,0.962891,0.090759,0.253906,-0.010498,up
292467,-5.03125,4.886719,10.375,-0.574219,0.855469,-0.330078,0.962524,0.089111,0.255981,-0.010681,up
292473,-5.03125,4.964844,10.453125,-0.46875,0.824219,-0.386719,0.962524,0.089111,0.255981,-0.010681,up
292479,-5.183594,4.808594,10.261719,-0.46875,0.824219,-0.386719,0.961182,0.085205,0.262085,-0.012329,up
292484,-5.222656,4.847656,10.261719,-0.46875,0.824219,-0.386719,0.961182,0.085205,0.262085,-0.012329,up
292489,-5.144531,4.964844,10.335938,-0.392578,0.617187,-0.402344,0.961182,0.085205,0.262085,-0.012329,up
292495,-5.222656,4.695312,10.339844,-0.421875,0.521484,-0.357422,0.961182,0.085205,0.262085,-0.012329,up
292500,-5.300781,4.464844,10.21875,-0.541016,0.277344,-0.214844,0.960266,0.081543,0.266541,-0.014099,up
292505,-5.300781,4.234375,10.105469,-0.541016,0.277344,-0.214844,0.960083,0.078857,0.268005,-0.014465,up
292510,-5.335937,3.851563,9.992188,-0.541016,0.277344,-0.214844,0.960083,0.078857,0.268005,-0.014465,up
292516,-5.300781,3.585938,10.21875,-0.541016,0.277344,-0.214844,0.960205,0.075684,0.268433,-0.014038,up
292521,-5.300781,3.507813,10.21875,-0.671875,-0.068359,0.033203,0.960388,0.074036,0.268311,-0.013611,up
292526,-5.335937,3.507813,10.101563,-0.609375,-0.066406,0.074219,0.960571,0.072571,0.268188,-0.013123,up
292532,-5.335937,3.585938,9.914063,-0.609375,-0.066406,0.074219,0.960571,0.072571,0.268188,-0.013123,up
292537,-5.375,3.546875,9.839844,-0.339844,-0.068359,0.140625,0.960571,0.072571,0.268188,-0.013123,up
292542,-5.335937,3.621094,9.691406,-0.238281,-0.033203,0.173828,0.960571,0.072571,0.268188,-0.013123,up
292547,-5.300781,3.8125,9.648438,-0.1875,-0.011719,0.21875,0.960571,0.072571,0.268188,-0.013123,up
292552,-5.261719,3.777344,9.535156,-0.1875,-0.011719,0.21875,0.960571,0.072571,0.268188,-0.013123,up
292558,-5.300781,3.777344,9.492188,-0.134766,0.044922,0.3125,0.960571,0.072571,0.268188,-0.013123,up
292563,-5.335937,3.507813,9.375,-0.177734,0.068359,0.365234,0.960571,0.072571,0.268188,-0.013123,up
292569,-5.261719,3.164063,9.152344,-0.242187,0.076172,0.419922,0.960999,0.068787,0.267883,-0.006592,up
292574,-5.300781,2.855469,9.113281,-0.242187,0.076172,0.419922,0.960999,0.068787,0.267883,-0.006592,up
292579,-5.335937,2.359375,9.109375,-0.330078,0.0625,0.580078,0.960999,0.068787,0.267883,-0.006592,up
292585,-5.335937,2.015625,9.230469,-0.330078,0.0625,0.580078,0.960999,0.067993,0.268127,-0.003723,up
292590,-5.261719,1.132813,9.191406,-0.269531,0.041016,0.621094,0.960999,0.067749,0.268066,-0.000549,up
292595,-5.222656,0.789062,9.191406,-0.269531,0.041016,0.621094,0.960999,0.067749,0.268066,-0.000549,up
292600,-5.109375,0.789062,9.378906,0.068359,-0.021484,0.685547,0.960999,0.069275,0.2677,0.002625,up
292605,-5.109375,0.863281,9.378906,0.068359,-0.021484,0.685547,0.960937,0.07135,0.267395,0.003723,up
292610,-5.222656,1.054688,9.269531,0.068359,-0.021484,0.685547,0.960815,0.074585,0.267029,0.0047,up
292615,-5.222656,1.4375,9.191406,0.068359,-0.021484,0.685547,0.960815,0.074585,0.267029,0.0047,up
292620,-5.300781,2.128906,9.070313,1.853516,-0.173828,0.810547,0.960815,0.074585,0.267029,0.0047,up
292625,-5.222656,2.589844,8.914063,1.853516,-0.173828,0.810547,0.959839,0.091003,0.265259,0.00647,up
292630,-5.375,3.125,8.804688,1.853516,-0.173828,0.810547,0.959839,0.091003,0.265259,0.00647,up
292635,-5.492187,3.546875,8.6875,2.955078,-0.080078,1.169922,0.959839,0.091003,0.265259,0.00647,up
292640,-5.527344,4.617187,8.308594,2.955078,-0.080078,1.169922,0.957764,0.114075,0.263794,0.008667,up
292645,-5.71875,4.964844,8.230469,2.955078,-0.080078,1.169922,0.956848,0.121582,0.263672,0.009949,up
292650,-5.796875,5.078125,8.109375,2.955078,-0.080078,1.169922,0.956848,0.121582,0.263672,0.009949,up
292655,-5.835937,5.230469,8.042969,2.609375,0.291016,1.564453,0.954651,0.136414,0.26416,0.01416,up
292660,-6.21875,5.191406,8.042969,2.609375,0.291016,1.564453,0.953491,0.142822,0.264771,0.016968,up
292665,-6.410156,5.308594,8.226563,2.609375,0.291016,1.564453,0.953491,0.142822,0.264771,0.016968,up
292670,-6.410156,5.308594,8.226563,1.832031,0.59375,1.927734,0.952332,0.148682,0.265564,0.020264,up
292675,-6.714844,5.652344,8.308594,1.634766,0.603516,1.988281,0.952332,0.148682,0.265564,0.020264,up
292680,-7.175781,5.730469,8.460938,1.634766,0.603516,1.988281,0.952332,0.148682,0.265564,0.020264,up
292685,-7.445312,6.035156,8.535156,1.417969,0.5625,2.0,0.949036,0.163513,0.267578,0.031982,up
292691,-7.214844,5.882812,8.6875,0.818359,0.232422,1.912109,0.948059,0.167725,0.267883,0.036133,up
292697,-7.097656,5.613281,8.425781,0.818359,0.232422,1.912109,0.946594,0.174316,0.267578,0.044128,up
292703,-6.984375,5.5,8.347656,0.603516,0.105469,1.898438,0.946594,0.174316,0.267578,0.044128,up
292708,-6.871094,5.460937,8.425781,0.539062,0.066406,1.921875,0.945435,0.179871,0.266541,0.052368,up
292713,-6.449219,4.925781,8.609375,0.507812,0.025391,1.949219,0.945435,0.179871,0.266541,0.052368,up
292718,-6.21875,4.65625,8.6875,0.496094,-0.015625,1.976563,0.945435,0.179871,0.266541,0.052368,up
292723,-6.066406,4.542969,8.652344,0.515625,-0.025391,2.017578,0.945435,0.179871,0.266541,0.052368,up
292728,-5.949219,4.425781,8.574219,0.583984,-0.001953,2.068359,0.945435,0.179871,0.266541,0.052368,up
292733,-5.796875,4.425781,8.53125,0.583984,-0.001953,2.068359,0.945435,0.179871,0.266541,0.052368,up
292739,-5.796875,4.582031,8.460938,0.583984,-0.001953,2.068359,0.941711,0.196533,0.261475,0.078491,up
292745,-5.875,4.773437,8.34375,1.208984,0.201172,2.222656,0.941711,0.196533,0.261475,0.078491,up
292750,-6.066406,5.078125,8.265625,1.208984,0.201172,2.222656,0.939575,0.204346,0.260315,0.087585,up
292756,-6.410156,5.769531,8.152344,1.386719,0.261719,2.261719,0.938232,0.208801,0.26001,0.092041,up
292761,-6.410156,5.769531,8.152344,1.53125,0.375,2.355469,0.93512,0.218689,0.259705,0.101318,up
292766,-6.640625,5.996094,8.109375,1.53125,0.375,2.355469,0.93512,0.218689,0.259705,0.101318,up
292771,-6.945312,6.496094,7.964844,1.523438,0.421875,2.390625,0.933411,0.223694,0.259705,0.105957,up
292776,-6.945312,6.535156,7.964844,1.460938,0.466797,2.412109,0.92981,0.233521,0.259888,0.115845,up
292781,-6.792969,6.496094,7.964844,1.460938,0.466797,2.412109,0.927734,0.238525,0.260071,0.121643,up
292786,-6.714844,6.496094,7.886719,1.460938,0.466797,2.412109,0.926147,0.242187,0.260193,0.126282,up
292791,-6.449219,6.535156,7.882812,0.880859,0.570312,2.466797,0.924194,0.246277,0.260315,0.132202,up
292796,-6.105469,6.496094,7.882812,0.697266,0.583984,2.466797,0.922424,0.249634,0.260376,0.137817,up
292801,-5.71875,6.417969,7.921875,0.697266,0.583984,2.466797,0.920776,0.252625,0.260376,0.143555,up
292806,-5.566406,6.457031,7.808594,0.697266,0.583984,2.466797,0.920776,0.252625,0.260376,0.143555,up
292811,-5.527344,6.535156,7.695312,0.386719,0.578125,2.458984,0.920776,0.252625,0.260376,0.143555,up
292816,-5.492187,6.496094,7.730469,0.386719,0.578125,2.458984,0.915955,0.259888,0.26001,0.160706,up
292821,-5.527344,6.496094,7.695312,0.386719,0.578125,2.458984,0.914673,0.26178,0.259766,0.165527,up
292826,-5.605469,6.417969,7.769531,0.339844,0.509766,2.458984,0.912842,0.264282,0.25946,0.171997,up
292832,-5.835937,6.378906,7.582031,0.339844,0.509766,2.458984,0.911377,0.266235,0.259094,0.177002,up
292837,-5.875,6.457031,7.542969,0.326172,0.457031,2.492188,0.911377,0.266235,0.259094,0.177002,up
292842,-5.988281,6.648437,7.34375,0.326172,0.457031,2.492188,0.908081,0.270691,0.258118,0.188538,up
292847,-5.988281,6.648437,7.34375,0.326172,0.457031,2.492188,0.908081,0.270691,0.258118,0.188538,up
292852,-5.988281,6.648437,7.308594,0.291016,0.414062,2.529297,0.904663,0.274902,0.256775,0.200256,up
292857,-5.988281,6.648437,7.308594,0.140625,0.386719,2.587891,0.902954,0.276855,0.25592,0.206116,up
292862,-5.71875,6.726562,7.121094,0.140625,0.386719,2.587891,0.902954,0.276855,0.25592,0.206116,up
292867,-5.71875,6.726562,7.121094,0.060547,0.386719,2.617188,0.899597,0.280151,0.254028,0.218384,up
292872,-5.453125,6.574219,6.890625,0.060547,0.386719,2.617188,0.897949,0.281616,0.252991,0.224548,up
292878,-5.375,6.574219,6.855469,0.060547,0.386719,2.617188,0.89624,0.282959,0.251953,0.230774,up
292884,-5.335937,6.574219,6.890625,-0.068359,0.458984,2.712891,0.89624,0.282959,0.251953,0.230774,up
292889,-5.375,6.535156,6.964844,-0.037109,0.507812,2.744141,0.892456,0.285706,0.25,0.243652,up
292895,-5.566406,6.648437,7.195312,0.007813,0.566406,2.773438,0.888245,0.288635,0.248413,0.256836,up
292900,-5.71875,6.765625,7.199219,0.007813,0.566406,2.773438,0.888245,0.288635,0.248413,0.256836,up
292905,-5.71875,6.800781,7.34375,0.089844,0.648437,2.869141,0.888245,0.288635,0.248413,0.256836,up
292910,-5.875,7.03125,7.308594,0.130859,0.652344,2.921875,0.888245,0.288635,0.248413,0.256836,up
292915,-5.988281,7.109375,7.273437,0.130859,0.652344,2.921875,0.88092,0.293762,0.24646,0.277344,up
292921,-6.027344,7.261719,7.277344,0.228516,0.574219,2.992188,0.88092,0.293762,0.24646,0.277344,up
292926,-6.140625,7.335937,7.195312,0.228516,0.574219,2.992188,0.872803,0.299683,0.244019,0.298096,up
292931,-6.257812,7.679687,7.042969,0.228516,0.574219,2.992188,0.872803,0.299683,0.244019,0.298096,up
292936,-6.257812,7.679687,7.042969,0.28125,0.482422,3.025391,0.870117,0.301697,0.243103,0.304504,up
292941,-6.332031,7.878906,7.082031,0.28125,0.482422,3.025391,0.867371,0.303833,0.242004,0.311157,up
292946,-6.332031,7.878906,7.082031,0.216797,0.392578,3.056641,0.864563,0.305847,0.240784,0.317871,up
292951,-6.257812,7.800781,7.273437,0.216797,0.392578,3.056641,0.861633,0.307922,0.239258,0.324829,up
292956,-6.21875,7.761719,7.195312,0.095703,0.292969,3.099609,0.856079,0.311584,0.235901,0.338257,up
292961,-5.949219,7.644531,7.195312,-0.035156,0.189453,3.128906,0.856079,0.311584,0.235901,0.338257,up
292966,-5.453125,7.453125,7.15625,-0.035156,0.189453,3.128906,0.852905,0.313538,0.233582,0.345947,up
292971,-5.144531,7.417969,7.003906,-0.130859,0.166016,3.138672,0.852905,0.313538,0.233582,0.345947,up
292976,-4.839844,7.496094,6.925781,-0.130859,0.166016,3.138672,0.844482,0.318054,0.226868,0.366455,up
292981,-4.609375,7.601562,6.773437,-0.130859,0.166016,3.138672,0.841919,0.319214,0.224792,0.372437,up
292987,-4.339844,7.71875,6.621094,-0.130859,0.166016,3.138672,0.838928,0.320557,0.222412,0.379395,up
292992,-4.035156,8.027344,6.429687,-0.160156,0.195312,3.136719,0.835754,0.321899,0.219971,0.386658,up
292997,-4.035156,8.183594,6.316406,-0.138672,0.183594,3.144531,0.83252,0.323303,0.217529,0.39386,up
293003,-4.035156,8.300781,6.316406,-0.138672,0.183594,3.144531,0.829773,0.324463,0.215454,0.399719,up
293008,-4.035156,8.300781,6.316406,-0.138672,0.183594,3.144531,0.829773,0.324463,0.215454,0.399719,up
293014,-4.035156,8.300781,6.316406,-0.09375,0.146484,3.173828,0.823425,0.327271,0.210632,0.412964,up
293019,-4.035156,8.300781,6.316406,-0.150391,0.078125,3.224609,0.820007,0.328613,0.208008,0.419922,up
293024,-4.226562,8.261719,6.46875,-0.150391,0.078125,3.224609,0.820007,0.328613,0.208008,0.419922,up
293029,-4.265625,8.0625,6.582031,-0.199219,0.033203,3.253906,0.813477,0.331116,0.202332,0.433228,up
293034,-4.378906,7.71875,6.8125,-0.339844,-0.126953,3.34375,0.813477,0.331116,0.202332,0.433228,up
293039,-4.417969,7.414062,6.8125,-0.339844,-0.126953,3.34375,0.806763,0.333496,0.195435,0.44696,up
293044,-4.339844,7.296875,6.734375,-0.339844,-0.126953,3.34375,0.803284,0.334656,0.191467,0.453979,up
293050,-4.226562,6.953125,6.8125,-0.492187,-0.369141,3.515625,0.803284,0.334656,0.191467,0.453979,up
293055,-3.957031,6.535156,6.925781,-0.498047,-0.435547,3.591797,0.803284,0.334656,0.191467,0.453979,up
293060,-3.882813,6.457031,6.890625,-0.498047,-0.435547,3.591797,0.792664,0.338318,0.178345,0.474792,up
293066,-3.691406,6.417969,6.8125,-0.361328,-0.486328,3.726563,0.792664,0.338318,0.178345,0.474792,up
293071,-3.535156,6.34375,6.773437,-0.117188,-0.539062,3.830078,0.792664,0.338318,0.178345,0.474792,up
293076,-3.308594,6.378906,6.773437,-0.117188,-0.539062,3.830078,0.775818,0.345642,0.160095,0.502991,up
293081,-3.269531,6.226562,6.855469,0.154297,-0.566406,3.929688,0.775818,0.345642,0.160095,0.502991,up
293086,-3.152344,5.921875,6.851562,0.154297,-0.566406,3.929688,0.765747,0.351013,0.151184,0.517273,up
293091,-3.152344,5.921875,6.851562,0.154297,-0.566406,3.929688,0.765747,0.351013,0.151184,0.517273,up
293096,-2.925781,5.578125,6.773437,0.34375,-0.632812,4.037109,0.760742,0.353821,0.147034,0.523865,up
293101,-2.925781,5.578125,6.773437,0.46875,-0.667969,4.080078,0.755371,0.356934,0.142761,0.530701,up
293106,-2.695313,5.308594,6.894531,0.46875,-0.667969,4.080078,0.749512,0.360413,0.138367,0.537781,up
293111,-2.695313,5.308594,6.894531,0.664062,-0.84375,4.117187,0.743713,0.364136,0.134033,0.544373,up
293116,-2.503906,4.734375,7.042969,0.664062,-0.84375,4.117187,0.737793,0.367981,0.129578,0.550842,up
293121,-2.464844,4.542969,6.855469,0.841797,-1.128906,4.072266,0.731628,0.372192,0.124878,0.557373,up
293126,-2.347656,4.390625,6.660156,0.841797,-1.128906,4.072266,0.71936,0.38092,0.115601,0.569275,up
293131,-2.273438,4.160156,6.46875,0.841797,-1.128906,4.072266,0.712891,0.385864,0.110718,0.575012,up
293136,-2.3125,4.195312,6.199219,0.841797,-1.128906,4.072266,0.712891,0.385864,0.110718,0.575012,up
293141,-2.3125,4.3125,6.199219,1.392578,-1.431641,3.880859,0.712891,0.385864,0.110718,0.575012,up
293146,-2.273438,4.390625,6.234375,1.392578,-1.431641,3.880859,0.692993,0.402161,0.097351,0.590393,up
293151,-2.003906,4.390625,6.160156,1.392578,-1.431641,3.880859,0.692993,0.402161,0.097351,0.590393,up
293156,-2.003906,4.390625,6.160156,1.771484,-1.492188,3.806641,0.686096,0.408142,0.093384,0.594971,up
293161,-1.851563,4.464844,6.089844,1.771484,-1.492188,3.806641,0.678955,0.414368,0.089722,0.599426,up
293166,-1.699219,4.617187,6.046875,2.09375,-1.511719,3.810547,0.678955,0.414368,0.089722,0.599426,up
293171,-1.699219,4.617187,6.046875,2.220703,-1.529297,3.841797,0.663574,0.427734,0.082825,0.608154,up
293177,-0.855469,3.585938,6.351562,2.324219,-1.564453,3.921875,0.647034,0.441895,0.076233,0.616638,up
293182,-0.511719,3.507813,6.238281,2.324219,-1.564453,3.921875,0.637024,0.450134,0.072632,0.621521,up
293187,-0.359375,3.429688,6.160156,2.324219,-1.564453,3.921875,0.628906,0.456726,0.069946,0.625305,up
293192,-0.203125,3.316406,6.277344,2.912109,-1.59375,4.347656,0.618225,0.465149,0.066711,0.630066,up
293197,0.027344,3.125,6.355469,3.054688,-1.595703,4.433594,0.607849,0.473206,0.063721,0.63446,up
293203,0.714844,2.855469,5.664062,3.054688,-1.595703,4.433594,0.598511,0.480225,0.061279,0.638306,up
293208,0.714844,2.855469,5.664062,3.302734,-1.445313,4.615234,0.586792,0.488647,0.058472,0.643005,up
293213,0.714844,2.855469,5.664062,3.40625,-1.269531,4.662109,0.586792,0.488647,0.058472,0.643005,up
293218,0.714844,2.855469,5.664062,3.40625,-1.269531,4.662109,0.564392,0.503479,0.054321,0.651978,up
293223,1.597656,3.429688,4.480469,3.40625,-1.269531,4.662109,0.564392,0.503479,0.054321,0.651978,up
293229,1.597656,3.429688,4.480469,3.462891,-0.716797,4.820312,0.539978,0.517273,0.051025,0.661987,up
293235,2.554688,3.277344,3.9375,3.462891,-0.716797,4.820312,0.539978,0.517273,0.051025,0.661987,up
293241,2.628906,3.316406,3.863281,3.277344,0.017578,4.988281,0.539978,0.517273,0.051025,0.661987,up
293246,2.707031,3.203125,4.136719,3.277344,0.017578,4.988281,0.502136,0.534058,0.047302,0.678528,up
293251,2.707031,3.203125,4.136719,3.154297,0.117188,5.091797,0.48938,0.538513,0.046082,0.684387,up
293256,3.167969,2.472656,4.4375,3.171875,0.193359,5.173828,0.47644,0.542664,0.044739,0.690308,up
293261,3.167969,2.472656,4.4375,3.095703,0.287109,5.283203,0.462769,0.546692,0.043274,0.696472,up
293267,3.359375,2.207031,4.441406,3.095703,0.287109,5.283203,0.449402,0.55011,0.041626,0.702576,up
293272,3.359375,2.207031,4.441406,2.695313,0.425781,5.5625,0.421936,0.555847,0.037354,0.715271,up
293277,3.703125,1.210938,4.398437,2.695313,0.425781,5.5625,0.408386,0.558411,0.034729,0.721252,up
293282,4.007812,1.054688,4.476562,2.445313,0.275391,5.568359,0.392944,0.561218,0.031311,0.727783,up
293288,4.316406,1.132813,4.546875,2.445313,0.275391,5.568359,0.381104,0.563293,0.028564,0.732544,up
293293,4.855469,1.132813,4.820312,2.445313,0.275391,5.568359,0.381104,0.563293,0.028564,0.732544,up
293298,4.855469,1.132813,4.820312,2.345703,0.197266,5.341797,0.354736,0.567566,0.0224,0.742676,up
293303,5.386719,0.980469,5.390625,2.345703,0.197266,5.341797,0.354736,0.567566,0.0224,0.742676,up
293309,5.386719,0.980469,5.390625,2.070313,0.402344,4.769531,0.33136,0.570007,0.017334,0.751648,up
293314,5.882812,0.136719,4.78125,2.070313,0.402344,4.769531,0.320618,0.57019,0.015259,0.756226,up
293320,5.964844,-0.4375,4.898437,1.457031,0.943359,3.654297,0.320618,0.57019,0.015259,0.756226,up
293325,6.117187,-0.707031,5.089844,1.306641,0.837891,3.314453,0.320618,0.57019,0.015259,0.756226,up
293331,6.003906,-0.707031,5.625,1.306641,0.837891,3.314453,0.287415,0.569153,0.008728,0.770325,up
293336,6.078125,-1.089844,5.929687,1.306641,0.837891,3.314453,0.287415,0.569153,0.008728,0.770325,up
293341,6.34375,-1.546875,6.046875,1.128906,-0.085937,2.482422,0.287415,0.569153,0.008728,0.770325,up
293346,6.382812,-1.742188,5.894531,1.128906,-0.085937,2.482422,0.273804,0.570557,0.005859,0.774292,up
293351,6.382812,-1.742188,5.894531,1.128906,-0.085937,2.482422,0.273804,0.570557,0.005859,0.774292,up
293356,6.6875,-1.742188,5.703125,1.025391,-0.275391,2.363281,0.273804,0.570557,0.005859,0.774292,up
293361,6.6875,-1.742188,5.703125,0.558594,-0.490234,2.197266,0.256531,0.574402,0.000427,0.777344,up
293366,7.378906,-1.585938,5.433594,0.306641,-0.505859,2.125,0.256531,0.574402,0.000427,0.777344,up
293371,8.378906,-1.742188,4.972656,0.080078,-0.498047,2.042969,0.247314,0.576782,-0.005188,0.778564,up
293377,8.71875,-1.894531,4.859375,-0.095703,-0.496094,1.916016,0.239868,0.578674,-0.012024,0.779419,up
293382,9.179688,-2.238281,4.820312,-0.095703,-0.496094,1.916016,0.237,0.579346,-0.015137,0.779724,up
293387,9.300781,-2.316406,4.707031,-0.095703,-0.496094,1.916016,0.234741,0.579895,-0.017822,0.779968,up
293392,9.300781,-2.429688,4.589844,-0.095703,-0.496094,1.916016,0.234741,0.579895,-0.017822,0.779968,up
293397,9.339844,-2.507813,4.4375,-0.164062,-0.228516,1.1875,0.230408,0.580627,-0.022461,0.780579,up
293403,9.140625,-2.125,4.246094,-0.164062,-0.228516,1.1875,0.22876,0.580872,-0.02356,0.780823,up
293408,8.917969,-1.664063,4.4375,0.398438,-0.083984,0.621094,0.227051,0.581177,-0.024109,0.781067,up
293413,8.878906,-1.320313,4.515625,0.652344,-0.099609,0.462891,0.227051,0.581177,-0.024109,0.781067,up
293418,8.71875,-0.898437,4.515625,0.853516,-0.056641,0.308594,0.227051,0.581177,-0.024109,0.781067,up
293423,8.339844,-0.054687,4.4375,0.853516,-0.056641,0.308594,0.227051,0.581177,-0.024109,0.781067,up
293428,8.148438,0.289063,4.476562,1.160156,-0.087891,0.126953,0.227051,0.581177,-0.024109,0.781067,up
293433,8.148438,0.632812,4.476562,1.234375,-0.175781,0.068359,0.227051,0.581177,-0.024109,0.781067,up
293438,8.183594,1.132813,4.285156,1.234375,-0.175781,0.068359,0.215942,0.585632,-0.015503,0.781128,up
293443,8.257813,1.363281,4.132812,1.158203,-0.294922,0.025391,0.215942,0.585632,-0.015503,0.781128,up
293448,8.417969,1.707031,4.054687,1.005859,-0.388672,0.021484,0.215942,0.585632,-0.015503,0.781128,up
293453,8.5625,1.898438,3.941406,0.808594,-0.462891,0.019531,0.211182,0.589417,-0.009949,0.779663,up
293459,8.957031,1.898438,3.746094,0.808594,-0.462891,0.019531,0.210144,0.590759,-0.008911,0.778931,up
293465,9.101563,1.9375,3.632813,0.263672,-0.585937,0.003906,0.210144,0.590759,-0.008911,0.778931,up
293470,9.339844,1.898438,3.632813,-0.013672,-0.625,-0.023437,0.210144,0.590759,-0.008911,0.778931,up
293476,9.605469,1.820313,3.480469,-0.013672,-0.625,-0.023437,0.209717,0.594543,-0.008972,0.776184,up
293481,9.753906,1.707031,3.328125,-0.654297,-0.552734,-0.101563,0.209717,0.594543,-0.008972,0.776184,up
293486,9.828125,1.515625,3.25,-0.654297,-0.552734,-0.101563,0.211426,0.596375,-0.011292,0.774231,up
293491,10.023438,1.132813,3.097656,-0.654297,-0.552734,-0.101563,0.212769,0.597046,-0.012756,0.773376,up
293497,10.027344,0.980469,3.097656,-0.863281,-0.283203,-0.248047,0.212769,0.597046,-0.012756,0.773376,up
293502,10.023438,0.902344,3.097656,-0.863281,-0.283203,-0.248047,0.218018,0.597717,-0.017273,0.771301,up
293507,9.949219,0.902344,3.097656,-0.708984,-0.085937,-0.376953,0.218018,0.597717,-0.017273,0.771301,up
293512,9.644531,0.941406,3.171875,-0.708984,-0.085937,-0.376953,0.221375,0.597412,-0.01886,0.770569,up
293517,9.410156,1.132813,3.210938,-0.328125,-0.019531,-0.484375,0.221375,0.597412,-0.01886,0.770569,up
293522,9.0625,1.402344,3.363281,-0.328125,-0.019531,-0.484375,0.224426,0.597168,-0.018738,0.769836,up
