timestamp,ax,ay,az,gx,gy,gz,qw,qx,qy,qz,label
286074,5.265625,6.285156,5.730469,0.134766,-0.035156,0.128906,0.824829,0.436462,-0.15979,0.32196,up
286079,5.417969,6.324219,5.730469,0.134766,-0.035156,0.128906,0.824829,0.436462,-0.15979,0.32196,up
286084,5.492187,6.363281,5.730469,0.046875,-0.058594,0.175781,0.824402,0.436584,-0.160278,0.322571,up
286089,5.609375,6.125,5.613281,0.046875,-0.058594,0.175781,0.82428,0.436523,-0.160583,0.322937,up
286094,5.648437,6.050781,5.652344,0.046875,-0.058594,0.175781,0.824219,0.43634,-0.160828,0.323181,up
286099,5.609375,6.007812,5.652344,0.046875,-0.058594,0.175781,0.824219,0.43634,-0.160828,0.323181,up
286104,5.648437,5.898437,5.652344,-0.130859,0.023437,0.146484,0.824219,0.435669,-0.161255,0.323792,up
286109,5.609375,5.785156,5.730469,-0.130859,0.023437,0.146484,0.824341,0.435242,-0.161377,0.324036,up
286114,5.609375,5.746094,5.691406,-0.130859,0.023437,0.146484,0.824463,0.434814,-0.161438,0.32428,up
286119,5.648437,5.703125,5.652344,-0.130859,0.023437,0.146484,0.824463,0.434814,-0.161438,0.32428,up
286124,5.609375,5.625,5.613281,-0.144531,0.121094,0.044922,0.824463,0.434814,-0.161438,0.32428,up
286129,5.570312,5.589844,5.613281,-0.144531,0.121094,0.044922,0.824951,0.433716,-0.16095,0.324768,up
286134,5.457031,5.628906,5.613281,-0.144531,0.121094,0.044922,0.825073,0.433533,-0.160645,0.324829,up
286139,5.378906,5.707031,5.652344,-0.144531,0.121094,0.044922,0.825073,0.433533,-0.160645,0.324829,up
286144,5.074219,5.898437,5.652344,0.107422,0.164062,-0.097656,0.825073,0.433533,-0.160645,0.324829,up
286149,5.035156,5.96875,5.691406,0.255859,0.091797,-0.134766,0.825134,0.433777,-0.159546,0.32489,up
286154,4.996094,6.085937,5.730469,0.255859,0.091797,-0.134766,0.82489,0.434753,-0.158508,0.324768,up
286159,5.035156,6.28125,5.691406,0.255859,0.091797,-0.134766,0.82489,0.434753,-0.158508,0.324768,up
286164,5.109375,6.363281,5.691406,0.255859,0.091797,-0.134766,0.824402,0.436096,-0.157593,0.324646,up
286169,5.1875,6.507812,5.691406,0.3125,0.0,-0.074219,0.824402,0.436096,-0.157593,0.324646,up
286174,5.265625,6.550781,5.652344,0.3125,0.0,-0.074219,0.823853,0.437439,-0.15686,0.324585,up
286179,5.339844,6.589844,5.613281,0.232422,0.033203,-0.033203,0.823853,0.437439,-0.15686,0.324585,up
286184,5.457031,6.546875,5.613281,0.232422,0.033203,-0.033203,0.823425,0.438354,-0.15625,0.324707,up
286189,5.417969,6.546875,5.652344,0.232422,0.033203,-0.033203,0.823425,0.438354,-0.15625,0.324707,up
286194,5.457031,6.472656,5.652344,0.113281,0.109375,-0.035156,0.823425,0.438354,-0.15625,0.324707,up
286200,5.417969,6.394531,5.691406,0.113281,0.109375,-0.035156,0.82312,0.439026,-0.155212,0.325012,up
286205,5.417969,6.363281,5.652344,0.089844,0.150391,-0.066406,0.82312,0.439087,-0.154724,0.325073,up
286210,5.417969,6.363281,5.652344,0.101563,0.154297,-0.087891,0.823181,0.439209,-0.154236,0.325134,up
286215,5.300781,6.363281,5.691406,0.101563,0.154297,-0.087891,0.823181,0.439331,-0.153748,0.325134,up
286220,5.300781,6.324219,5.613281,0.101563,0.154297,-0.087891,0.823181,0.439514,-0.153198,0.325134,up
286225,5.226562,6.390625,5.613281,0.193359,0.154297,-0.148437,0.823181,0.439819,-0.152527,0.325134,up
286230,5.148437,6.46875,5.613281,0.232422,0.148437,-0.167969,0.82312,0.440247,-0.151855,0.325012,up
286236,5.1875,6.429687,5.613281,0.271484,0.134766,-0.175781,0.822998,0.440674,-0.151184,0.324951,up
286241,5.035156,6.511719,5.613281,0.271484,0.134766,-0.175781,0.822876,0.441223,-0.150574,0.324829,up
286246,4.996094,6.546875,5.652344,0.306641,0.091797,-0.158203,0.822876,0.441223,-0.150574,0.324829,up
286252,5.035156,6.585937,5.730469,0.296875,0.076172,-0.146484,0.822876,0.441223,-0.150574,0.324829,up
286257,5.035156,6.589844,5.652344,0.296875,0.076172,-0.146484,0.822388,0.442993,-0.148743,0.324585,up
286262,5.035156,6.625,5.691406,0.246094,0.060547,-0.091797,0.822388,0.442993,-0.148743,0.324585,up
286267,5.109375,6.667969,5.691406,0.232422,0.046875,-0.058594,0.822388,0.442993,-0.148743,0.324585,up
286272,5.1875,6.585937,5.730469,0.232422,0.046875,-0.058594,0.822388,0.442993,-0.148743,0.324585,up
286278,5.226562,6.667969,5.578125,0.197266,0.046875,-0.015625,0.822388,0.442993,-0.148743,0.324585,up
286284,5.265625,6.703125,5.578125,0.185547,0.048828,0.005859,0.821228,0.445557,-0.146729,0.32489,up
286289,5.300781,6.703125,5.578125,0.185547,0.048828,0.005859,0.821228,0.445557,-0.146729,0.32489,up
286294,5.300781,6.664062,5.539062,0.185547,0.048828,0.005859,0.820984,0.445862,-0.146484,0.325073,up
286299,5.339844,6.628906,5.460937,0.125,0.087891,0.021484,0.820984,0.445862,-0.146484,0.325073,up
286304,5.300781,6.507812,5.460937,0.125,0.087891,0.021484,0.820679,0.44635,-0.145996,0.325439,up
286309,5.300781,6.507812,5.460937,0.072266,0.128906,0.001953,0.820557,0.446533,-0.145691,0.325684,up
286314,5.226562,6.429687,5.539062,0.072266,0.128906,0.001953,0.820496,0.446594,-0.145386,0.325806,up
286319,5.1875,6.390625,5.539062,0.037109,0.142578,-0.009766,0.820496,0.446594,-0.145386,0.325806,up
286325,5.074219,6.394531,5.5,0.027344,0.142578,-0.013672,0.820496,0.446655,-0.144714,0.326172,up
286330,5.074219,6.394531,5.539062,0.027344,0.142578,-0.013672,0.820557,0.446533,-0.144043,0.326477,up
286335,5.109375,6.394531,5.539062,0.050781,0.111328,-0.03125,0.820557,0.446533,-0.143738,0.326538,up
286341,5.109375,6.359375,5.578125,0.050781,0.111328,-0.03125,0.820557,0.446655,-0.143372,0.32666,up
286346,5.109375,6.433594,5.578125,0.050781,0.111328,-0.03125,0.820496,0.446777,-0.143066,0.32666,up
286351,5.1875,6.472656,5.539062,0.162109,0.089844,-0.052734,0.820496,0.446777,-0.143066,0.32666,up
286356,5.1875,6.546875,5.539062,0.208984,0.080078,-0.044922,0.820496,0.446777,-0.143066,0.32666,up
286361,5.148437,6.585937,5.539062,0.208984,0.080078,-0.044922,0.820068,0.447754,-0.141907,0.326904,up
286366,5.1875,6.628906,5.539062,0.208984,0.080078,-0.044922,0.820068,0.447754,-0.141907,0.326904,up
286371,5.1875,6.628906,5.539062,0.242187,0.082031,-0.015625,0.820068,0.447754,-0.141907,0.326904,up
286376,5.226562,6.746094,5.613281,0.242187,0.082031,-0.015625,0.820068,0.447754,-0.141907,0.326904,up
286381,5.1875,6.773437,5.578125,0.242187,0.082031,-0.015625,0.819214,0.449402,-0.14032,0.327515,up
286386,5.265625,6.777344,5.613281,0.242187,0.082031,-0.015625,0.819031,0.449707,-0.140015,0.327698,up
286391,5.300781,6.742187,5.578125,0.107422,0.119141,0.039063,0.818848,0.44989,-0.139648,0.328003,up
286397,5.300781,6.585937,5.578125,0.046875,0.140625,0.048828,0.818787,0.44989,-0.139404,0.328247,up
286404,5.300781,6.585937,5.613281,-0.001953,0.166016,0.056641,0.818787,0.44989,-0.139404,0.328247,up
286410,5.378906,6.511719,5.578125,-0.060547,0.201172,0.029297,0.818787,0.44989,-0.139404,0.328247,up
286415,5.339844,6.390625,5.613281,-0.060547,0.201172,0.029297,0.819031,0.449036,-0.138123,0.329407,up
286421,5.226562,6.285156,5.652344,-0.060547,0.201172,0.029297,0.819153,0.44873,-0.137695,0.329651,up
286426,5.1875,6.203125,5.730469,-0.044922,0.242187,-0.023437,0.819153,0.44873,-0.137695,0.329651,up
286431,5.148437,6.285156,5.730469,-0.001953,0.236328,-0.052734,0.819153,0.44873,-0.137695,0.329651,up
286436,5.074219,6.246094,5.730469,-0.001953,0.236328,-0.052734,0.81958,0.448059,-0.136169,0.3302,up
286442,5.074219,6.363281,5.691406,-0.001953,0.236328,-0.052734,0.81958,0.448059,-0.136169,0.3302,up
286447,5.109375,6.390625,5.804687,0.169922,0.181641,-0.128906,0.81958,0.448059,-0.136169,0.3302,up
286452,5.148437,6.429687,5.730469,0.169922,0.181641,-0.128906,0.81958,0.448547,-0.134155,0.330322,up
286457,5.148437,6.589844,5.730469,0.294922,0.164062,-0.177734,0.819458,0.449036,-0.133423,0.330261,up
286462,5.1875,6.664062,5.730469,0.355469,0.160156,-0.1875,0.819458,0.449036,-0.133423,0.330261,up
286467,5.226562,6.742187,5.730469,0.396484,0.158203,-0.203125,0.819458,0.449036,-0.133423,0.330261,up
286472,5.265625,6.855469,5.691406,0.396484,0.158203,-0.203125,0.819458,0.449036,-0.133423,0.330261,up
286477,5.265625,6.8125,5.652344,0.367188,0.173828,-0.210937,0.819458,0.449036,-0.133423,0.330261,up
286484,5.226562,6.816406,5.652344,0.310547,0.191406,-0.207031,0.819458,0.449036,-0.133423,0.330261,up
286489,5.300781,6.707031,5.730469,0.271484,0.210937,-0.205078,0.818359,0.453308,-0.127258,0.32959,up
286494,5.300781,6.667969,5.730469,0.271484,0.210937,-0.205078,0.818359,0.453308,-0.127258,0.32959,up
286499,5.300781,6.664062,5.769531,0.189453,0.257813,-0.201172,0.818359,0.453308,-0.127258,0.32959,up
286505,5.1875,6.550781,5.804687,0.148437,0.283203,-0.203125,0.818359,0.453308,-0.127258,0.32959,up
286510,5.148437,6.46875,5.84375,0.150391,0.316406,-0.21875,0.818542,0.453918,-0.124451,0.329407,up
286515,5.074219,6.433594,5.84375,0.150391,0.316406,-0.21875,0.818726,0.454163,-0.122375,0.329346,up
286520,5.035156,6.390625,5.84375,0.263672,0.316406,-0.248047,0.818726,0.454163,-0.122375,0.329346,up
286525,4.84375,6.394531,5.921875,0.263672,0.316406,-0.248047,0.818726,0.454895,-0.120117,0.329224,up
286530,4.804687,6.429687,5.921875,0.484375,0.291016,-0.263672,0.818726,0.454895,-0.120117,0.329224,up
286535,4.804687,6.585937,5.996094,0.617187,0.28125,-0.261719,0.818542,0.455627,-0.118774,0.329163,up
286540,4.6875,7.089844,5.882812,0.732422,0.265625,-0.263672,0.818176,0.456543,-0.117493,0.329102,up
286545,4.6875,7.089844,5.882812,0.732422,0.265625,-0.263672,0.817139,0.459229,-0.114624,0.329102,up
286550,4.726562,7.578125,5.769531,0.732422,0.265625,-0.263672,0.817139,0.459229,-0.114624,0.329102,up
286555,4.726562,7.777344,5.691406,0.931641,0.216797,-0.1875,0.817139,0.459229,-0.114624,0.329102,up
286560,4.84375,7.929687,5.578125,0.931641,0.216797,-0.1875,0.814636,0.464417,-0.110229,0.329407,up
286565,4.917969,7.929687,5.613281,0.931641,0.216797,-0.1875,0.813721,0.466187,-0.108887,0.32959,up
286570,4.996094,7.960937,5.578125,0.931641,0.216797,-0.1875,0.813721,0.466187,-0.108887,0.32959,up
286575,5.109375,7.964844,5.578125,0.683594,0.189453,-0.087891,0.813721,0.466187,-0.108887,0.32959,up
286580,5.148437,7.894531,5.460937,0.683594,0.189453,-0.087891,0.811646,0.470154,-0.105652,0.330261,up
286585,5.226562,7.734375,5.5,0.683594,0.189453,-0.087891,0.811646,0.470154,-0.105652,0.330261,up
286590,5.417969,7.734375,5.613281,0.271484,0.265625,-0.058594,0.811646,0.470154,-0.105652,0.330261,up
286595,5.417969,7.816406,5.5,0.271484,0.265625,-0.058594,0.81073,0.47168,-0.102966,0.331055,up
286600,5.300781,7.695312,5.460937,0.271484,0.265625,-0.058594,0.81073,0.471619,-0.102112,0.33136,up
286605,5.1875,7.351562,5.691406,0.271484,0.265625,-0.058594,0.81073,0.471619,-0.102112,0.33136,up
286610,5.1875,7.355469,5.84375,0.060547,0.283203,-0.089844,0.810852,0.471497,-0.100586,0.331726,up
286615,4.996094,7.433594,5.730469,0.060547,0.283203,-0.089844,0.810852,0.471497,-0.100586,0.331726,up
286620,4.804687,7.46875,5.460937,0.253906,0.341797,-0.078125,0.810852,0.471497,-0.100586,0.331726,up
286625,4.6875,7.46875,5.191406,0.253906,0.341797,-0.078125,0.81073,0.471802,-0.098755,0.332214,up
286631,4.6875,7.621094,5.347656,0.253906,0.341797,-0.078125,0.810181,0.472717,-0.096802,0.332825,up
286637,4.6875,7.617187,5.5,0.253906,0.341797,-0.078125,0.809753,0.473328,-0.096008,0.33313,up
286642,4.574219,7.660156,5.578125,0.486328,0.228516,-0.019531,0.809265,0.474243,-0.095032,0.333496,up
286649,4.574219,7.660156,5.539062,0.429687,0.212891,-0.009766,0.809265,0.474243,-0.095032,0.333496,up
286654,4.613281,7.550781,5.421875,0.429687,0.212891,-0.009766,0.808411,0.475525,-0.093506,0.334167,up
286660,4.652344,7.429687,5.382812,0.130859,0.117188,0.025391,0.808411,0.475525,-0.093506,0.334167,up
286665,4.84375,7.273437,5.5,0.130859,0.117188,0.025391,0.807861,0.476196,-0.092529,0.334717,up
286670,4.84375,7.273437,5.5,0.001953,0.099609,0.015625,0.807739,0.476318,-0.092224,0.3349,up
286675,4.917969,7.128906,5.5,0.001953,0.099609,0.015625,0.807739,0.476257,-0.092041,0.335083,up
286680,4.917969,7.011719,5.539062,0.003906,0.101563,-0.015625,0.807739,0.476257,-0.092041,0.335083,up
286685,4.996094,6.855469,5.578125,0.003906,0.101563,-0.015625,0.807739,0.476135,-0.091614,0.335327,up
286690,4.957031,6.855469,5.539062,0.003906,0.101563,-0.015625,0.807739,0.476074,-0.09137,0.335449,up
286695,4.996094,6.855469,5.5,0.132812,0.119141,-0.050781,0.807739,0.476074,-0.09137,0.335449,up
286701,4.917969,6.855469,5.539062,0.214844,0.126953,-0.056641,0.807373,0.476868,-0.089905,0.335693,up
286707,4.882812,7.007812,5.421875,0.214844,0.126953,-0.056641,0.807068,0.477417,-0.089294,0.335815,up
286712,4.882812,7.046875,5.460937,0.46875,0.189453,-0.101563,0.807068,0.477417,-0.089294,0.335815,up
286718,4.84375,7.160156,5.347656,0.537109,0.21875,-0.117188,0.807068,0.477417,-0.089294,0.335815,up
286724,4.6875,7.199219,5.308594,0.587891,0.238281,-0.132812,0.807068,0.477417,-0.089294,0.335815,up
286729,4.652344,7.199219,5.308594,0.605469,0.240234,-0.146484,0.807068,0.477417,-0.089294,0.335815,up
286734,4.613281,7.199219,5.269531,0.619141,0.234375,-0.164062,0.807068,0.477417,-0.089294,0.335815,up
286739,4.535156,7.355469,5.269531,0.607422,0.210937,-0.166016,0.807068,0.477417,-0.089294,0.335815,up
286744,4.535156,7.433594,5.230469,0.587891,0.167969,-0.164062,0.807068,0.477417,-0.089294,0.335815,up
286749,4.535156,7.511719,5.15625,0.587891,0.167969,-0.164062,0.802917,0.485352,-0.08075,0.336548,up
286755,4.535156,7.546875,5.117187,0.460937,0.091797,-0.121094,0.802917,0.485352,-0.08075,0.336548,up
286761,4.496094,7.578125,5.039062,0.460937,0.091797,-0.121094,0.801514,0.488159,-0.07843,0.336426,up
286766,4.421875,7.550781,5.0,0.373047,0.060547,-0.083984,0.801025,0.488953,-0.077759,0.336426,up
286771,4.460937,7.546875,5.0,0.339844,0.041016,-0.056641,0.800659,0.489685,-0.077271,0.336426,up
286776,4.460937,7.511719,5.15625,0.339844,0.041016,-0.056641,0.800659,0.489685,-0.077271,0.336426,up
286781,4.460937,7.511719,5.15625,0.294922,0.009766,-0.041016,0.800354,0.490234,-0.076904,0.336426,up
286786,4.496094,7.507812,5.191406,0.294922,0.009766,-0.041016,0.800049,0.490784,-0.07666,0.336426,up
286791,4.496094,7.507812,5.191406,0.164062,-0.009766,-0.015625,0.799683,0.491455,-0.076355,0.336365,up
286796,4.535156,7.3125,5.191406,0.164062,-0.009766,-0.015625,0.799683,0.491455,-0.076355,0.336365,up
286801,4.613281,7.089844,5.078125,0.054687,-0.013672,0.015625,0.799561,0.491638,-0.076355,0.336426,up
286806,4.613281,7.046875,5.117187,0.054687,-0.013672,0.015625,0.799377,0.491882,-0.076233,0.336487,up
286811,4.460937,7.011719,5.078125,0.054687,-0.013672,0.015625,0.799255,0.492065,-0.076111,0.336548,up
286816,4.421875,7.050781,5.117187,0.054687,-0.013672,0.015625,0.799072,0.492371,-0.075989,0.336609,up
286821,4.34375,7.046875,5.15625,0.228516,-0.035156,-0.001953,0.799072,0.492371,-0.075989,0.336609,up
286826,4.269531,7.160156,5.191406,0.275391,-0.056641,-0.003906,0.798767,0.492798,-0.075867,0.336609,up
286831,4.230469,7.234375,5.191406,0.275391,-0.056641,-0.003906,0.798096,0.494019,-0.075623,0.336548,up
286836,4.230469,7.277344,5.15625,0.275391,-0.056641,-0.003906,0.797729,0.49469,-0.0755,0.336487,up
286841,4.269531,7.273437,5.15625,0.371094,-0.160156,-0.033203,0.797729,0.49469,-0.0755,0.336487,up
286846,4.269531,7.273437,5.039062,0.371094,-0.160156,-0.033203,0.796753,0.496521,-0.075439,0.33606,up
286851,4.382812,7.234375,5.039062,0.371094,-0.160156,-0.033203,0.796265,0.497437,-0.0755,0.335815,up
286856,4.496094,7.195312,4.964844,0.425781,-0.257813,-0.0625,0.795715,0.498535,-0.075562,0.335449,up
286861,4.613281,7.195312,4.886719,0.425781,-0.257813,-0.0625,0.795227,0.499573,-0.075623,0.335144,up
286866,4.6875,7.125,4.886719,0.425781,-0.244141,-0.083984,0.795227,0.499573,-0.075623,0.335144,up
286872,4.726562,7.085937,4.847656,0.425781,-0.244141,-0.083984,0.794189,0.501709,-0.075623,0.334351,up
286877,4.726562,7.085937,4.847656,0.390625,-0.205078,-0.095703,0.793701,0.502747,-0.075623,0.333984,up
286882,4.6875,7.046875,4.773437,0.390625,-0.205078,-0.095703,0.793274,0.503723,-0.0755,0.333618,up
286887,4.6875,7.046875,4.734375,0.390625,-0.205078,-0.095703,0.793274,0.503723,-0.0755,0.333618,up
286892,4.6875,7.046875,4.734375,0.404297,-0.136719,-0.121094,0.793274,0.503723,-0.0755,0.333618,up
286897,4.652344,7.011719,4.734375,0.404297,-0.136719,-0.121094,0.793274,0.503723,-0.0755,0.333618,up
286903,4.574219,6.96875,4.773437,0.441406,-0.101563,-0.138672,0.793274,0.503723,-0.0755,0.333618,up
286908,4.535156,7.007812,4.695312,0.466797,-0.099609,-0.150391,0.793274,0.503723,-0.0755,0.333618,up
286914,4.460937,6.972656,4.617187,0.488281,-0.09375,-0.158203,0.793274,0.503723,-0.0755,0.333618,up
286919,4.304687,7.011719,4.582031,0.509766,-0.103516,-0.164062,0.793274,0.503723,-0.0755,0.333618,up
286925,4.304687,7.089844,4.582031,0.570312,-0.158203,-0.167969,0.793274,0.503723,-0.0755,0.333618,up
286930,4.34375,7.128906,4.617187,0.570312,-0.158203,-0.167969,0.788818,0.513123,-0.072571,0.330505,up
286936,4.304687,7.199219,4.542969,0.587891,-0.195312,-0.167969,0.788818,0.513123,-0.072571,0.330505,up
286941,4.304687,7.15625,4.542969,0.587891,-0.195312,-0.167969,0.786865,0.517151,-0.071594,0.329102,up
286946,4.382812,7.160156,4.542969,0.582031,-0.238281,-0.175781,0.786865,0.517151,-0.071594,0.329102,up
286951,4.421875,7.15625,4.582031,0.582031,-0.238281,-0.175781,0.786133,0.518616,-0.071289,0.328552,up
286956,4.421875,7.128906,4.503906,0.582031,-0.261719,-0.189453,0.786133,0.518616,-0.071289,0.328552,up
286961,4.496094,7.125,4.464844,0.582031,-0.261719,-0.189453,0.78418,0.522705,-0.070618,0.326843,up
286966,4.496094,7.128906,4.390625,0.576172,-0.251953,-0.208984,0.78418,0.522705,-0.070618,0.326843,up
286971,4.535156,7.089844,4.390625,0.582031,-0.240234,-0.230469,0.783508,0.524231,-0.070374,0.326172,up
286976,4.574219,7.046875,4.3125,0.582031,-0.240234,-0.230469,0.782288,0.526855,-0.069763,0.32489,up
286981,4.574219,7.011719,4.3125,0.582031,-0.240234,-0.230469,0.781738,0.528198,-0.069397,0.324219,up
286986,4.535156,7.046875,4.273437,0.582031,-0.240234,-0.230469,0.781738,0.528198,-0.069397,0.324219,up
286991,4.496094,7.007812,4.195312,0.537109,-0.191406,-0.291016,0.780701,0.530762,-0.068481,0.322693,up
286996,4.460937,6.96875,4.160156,0.537109,-0.191406,-0.291016,0.780701,0.530762,-0.068481,0.322693,up
287001,4.460937,6.894531,4.160156,0.519531,-0.177734,-0.357422,0.780701,0.530762,-0.068481,0.322693,up
287006,4.421875,6.929687,4.160156,0.519531,-0.177734,-0.357422,0.779724,0.533264,-0.067383,0.321045,up
287011,4.421875,6.855469,4.082031,0.519531,-0.177734,-0.357422,0.77887,0.535706,-0.066162,0.319336,up
287016,4.421875,6.816406,4.042969,0.519531,-0.177734,-0.357422,0.778503,0.536865,-0.065491,0.318481,up
287021,4.421875,6.773437,4.042969,0.519531,-0.177734,-0.357422,0.778503,0.536865,-0.065491,0.318481,up
287026,4.421875,6.707031,3.96875,0.59375,-0.136719,-0.462891,0.777588,0.539551,-0.063782,0.316528,up
287031,4.421875,6.664062,3.929688,0.59375,-0.136719,-0.462891,0.7771,0.541016,-0.062805,0.315491,up
287036,4.382812,6.667969,3.890625,0.59375,-0.136719,-0.462891,0.776489,0.542542,-0.061646,0.314453,up
287041,4.382812,6.628906,3.890625,0.59375,-0.136719,-0.462891,0.776489,0.542542,-0.061646,0.314453,up
287046,4.421875,6.703125,3.929688,0.818359,-0.039063,-0.572266,0.775146,0.545959,-0.05896,0.312378,up
287051,4.34375,6.8125,4.042969,0.818359,-0.039063,-0.572266,0.775146,0.545959,-0.05896,0.312378,up
287056,4.34375,6.894531,4.003906,1.085938,0.09375,-0.669922,0.774231,0.548096,-0.057129,0.311279,up
287061,4.34375,7.007812,4.042969,1.085938,0.09375,-0.669922,0.773437,0.549988,-0.05542,0.310303,up
287066,4.269531,7.355469,3.890625,1.166016,0.15625,-0.714844,0.773437,0.549988,-0.05542,0.310303,up
287072,4.191406,7.550781,3.890625,1.166016,0.15625,-0.714844,0.770081,0.557007,-0.048584,0.30719,up
287077,4.152344,7.777344,3.851563,1.355469,0.189453,-0.779297,0.768921,0.559326,-0.046326,0.306274,up
287082,4.078125,8.15625,3.8125,1.355469,0.189453,-0.779297,0.767517,0.562134,-0.043518,0.305054,up
287089,4.039062,8.464844,3.699219,1.355469,0.189453,-0.779297,0.766357,0.564453,-0.041321,0.304016,up
287094,4.039062,8.617188,3.660156,1.320313,0.15625,-0.804687,0.766357,0.564453,-0.041321,0.304016,up
287100,4.039062,8.617188,3.660156,1.25,0.144531,-0.802734,0.763855,0.569397,-0.036438,0.301636,up
287105,4.0,8.738281,3.546875,1.25,0.144531,-0.802734,0.763855,0.569397,-0.036438,0.301636,up
287110,4.0,8.738281,3.546875,1.152344,0.146484,-0.796875,0.76178,0.57373,-0.031799,0.299255,up
287115,3.886719,8.886719,3.394531,1.152344,0.146484,-0.796875,0.76178,0.57373,-0.031799,0.299255,up
287120,3.730469,8.738281,3.203125,0.722656,0.169922,-0.726562,0.76178,0.57373,-0.031799,0.299255,up
287125,3.730469,8.660156,3.164063,0.722656,0.169922,-0.726562,0.76001,0.578125,-0.025879,0.295898,up
287130,3.730469,8.542969,3.164063,0.490234,0.148437,-0.644531,0.76001,0.578125,-0.025879,0.295898,up
287135,3.769531,8.539063,3.203125,0.423828,0.138672,-0.583984,0.76001,0.578125,-0.025879,0.295898,up
287141,3.730469,8.621094,3.277344,0.394531,0.134766,-0.535156,0.759094,0.581299,-0.019958,0.292358,up
287146,3.769531,8.660156,3.316406,0.394531,0.134766,-0.535156,0.759094,0.581299,-0.019958,0.292358,up
287151,3.730469,8.734375,3.355469,0.525391,0.152344,-0.423828,0.759094,0.581299,-0.019958,0.292358,up
287156,3.769531,8.769531,3.277344,0.525391,0.152344,-0.423828,0.758484,0.582825,-0.017456,0.291138,up
287161,3.769531,8.882813,3.085938,0.642578,0.181641,-0.412109,0.757202,0.585022,-0.014648,0.290161,up
287166,3.886719,8.964844,3.007813,0.642578,0.181641,-0.412109,0.757202,0.585022,-0.014648,0.290161,up
287171,3.921875,9.042969,2.894531,0.908203,0.224609,-0.419922,0.755127,0.588196,-0.01123,0.289246,up
287176,4.0,9.265625,2.816406,0.908203,0.224609,-0.419922,0.755127,0.588196,-0.01123,0.289246,up
287182,4.0,9.34375,2.78125,1.292969,0.304688,-0.470703,0.755127,0.588196,-0.01123,0.289246,up
287187,4.078125,9.382813,2.742188,1.292969,0.304688,-0.470703,0.750549,0.594727,-0.004639,0.287964,up
287192,4.039062,9.425781,2.664063,1.292969,0.304688,-0.470703,0.748779,0.597107,-0.002136,0.287659,up
287197,4.0,9.5,2.703125,1.292969,0.304688,-0.470703,0.747192,0.599304,0.000305,0.287354,up
287202,3.960938,9.652344,2.703125,1.412109,0.525391,-0.523437,0.747192,0.599304,0.000305,0.287354,up
287207,3.847656,9.804688,2.703125,1.412109,0.525391,-0.523437,0.743591,0.603882,0.005981,0.286987,up
287213,3.386719,10.03125,2.742188,1.412109,0.525391,-0.523437,0.742126,0.605713,0.008789,0.286926,up
287218,3.386719,10.03125,2.742188,1.066406,0.798828,-0.580078,0.740723,0.6073,0.011902,0.286987,up
287223,3.195313,9.84375,2.511719,1.066406,0.798828,-0.580078,0.739624,0.608521,0.014893,0.287109,up
287228,3.082031,9.84375,2.511719,1.066406,0.798828,-0.580078,0.738586,0.609619,0.018127,0.287292,up
287233,3.042969,9.886719,2.703125,1.066406,0.798828,-0.580078,0.738586,0.609619,0.018127,0.287292,up
287238,3.042969,9.886719,2.703125,0.679687,0.59375,-0.498047,0.738586,0.609619,0.018127,0.287292,up
287244,3.117188,9.808594,2.78125,0.679687,0.59375,-0.498047,0.736328,0.612061,0.025452,0.287231,up
287249,3.195313,9.847656,2.78125,0.679687,0.59375,-0.498047,0.735535,0.612976,0.027649,0.28717,up
287254,3.234375,9.953125,2.816406,0.833984,0.490234,-0.421875,0.735535,0.612976,0.027649,0.28717,up
287259,3.273438,9.953125,2.816406,0.925781,0.458984,-0.394531,0.735535,0.612976,0.027649,0.28717,up
287265,3.386719,10.035156,2.816406,1.019531,0.445312,-0.376953,0.735535,0.612976,0.027649,0.28717,up
287271,3.5,10.1875,2.78125,1.087891,0.447266,-0.363281,0.729248,0.619995,0.038452,0.286865,up
287276,3.539063,10.226563,2.78125,1.087891,0.447266,-0.363281,0.729248,0.619995,0.038452,0.286865,up
287281,3.539063,10.226563,2.78125,1.117188,0.458984,-0.337891,0.727722,0.621704,0.040588,0.286804,up
287286,3.65625,10.339844,2.664063,1.0625,0.492187,-0.332031,0.727722,0.621704,0.040588,0.286804,up
287291,3.65625,10.339844,2.664063,0.976562,0.548828,-0.332031,0.724792,0.624756,0.045044,0.286926,up
287296,3.769531,10.269531,2.433594,0.880859,0.599609,-0.335938,0.724792,0.624756,0.045044,0.286926,up
287301,3.769531,10.269531,2.433594,0.767578,0.662109,-0.333984,0.722412,0.626953,0.049438,0.287415,up
287306,3.921875,10.109375,2.242188,0.767578,0.662109,-0.333984,0.721436,0.627686,0.051819,0.287781,up
287312,3.960938,10.109375,2.167969,0.492187,0.878906,-0.376953,0.721436,0.627686,0.051819,0.287781,up
287317,3.847656,10.113281,2.207031,0.492187,0.878906,-0.376953,0.71936,0.628662,0.059265,0.289551,up
287323,3.195313,10.335938,2.433594,0.492187,0.878906,-0.376953,0.718811,0.628601,0.062012,0.290344,up
287328,2.964844,10.375,2.28125,0.363281,1.167969,-0.458984,0.718323,0.628418,0.065063,0.29126,up
287333,2.660156,10.378906,2.167969,0.332031,1.255859,-0.46875,0.718323,0.628418,0.065063,0.29126,up
287338,2.46875,10.492188,2.242188,0.332031,1.255859,-0.46875,0.717529,0.627686,0.07135,0.293274,up
287343,2.238281,10.757813,2.625,0.332031,1.255859,-0.46875,0.717529,0.627686,0.07135,0.293274,up
287348,2.238281,10.875,2.78125,0.273438,1.023438,-0.417969,0.716858,0.626953,0.077209,0.295105,up
287354,2.238281,10.957031,2.816406,0.216797,0.951172,-0.40625,0.716858,0.626953,0.077209,0.295105,up
287359,2.277344,10.917969,2.855469,0.146484,0.882812,-0.382813,0.716431,0.626099,0.082275,0.296631,up
287364,2.3125,10.878906,2.855469,0.083984,0.798828,-0.373047,0.716431,0.626099,0.082275,0.296631,up
287370,2.3125,10.796875,2.855469,0.046875,0.722656,-0.369141,0.716431,0.626099,0.082275,0.296631,up
287376,2.46875,10.652344,2.855469,0.027344,0.626953,-0.357422,0.716431,0.626099,0.082275,0.296631,up
287382,2.582031,10.574219,2.894531,-0.039063,0.460937,-0.359375,0.716431,0.626099,0.082275,0.296631,up
287387,2.660156,10.492188,2.894531,-0.119141,0.4375,-0.353516,0.716675,0.623596,0.09137,0.298584,up
287392,2.773438,10.496094,2.78125,-0.119141,0.4375,-0.353516,0.717407,0.622253,0.093994,0.298767,up
287397,2.8125,10.492188,2.625,-0.119141,0.4375,-0.353516,0.718018,0.621277,0.095093,0.299011,up
287402,2.734375,10.339844,2.550781,-0.119141,0.4375,-0.353516,0.718018,0.621277,0.095093,0.299011,up
287407,2.773438,10.308594,2.433594,-0.570312,0.583984,-0.351563,0.720032,0.618103,0.097534,0.299866,up
287412,2.660156,10.152344,2.511719,-0.570312,0.583984,-0.351563,0.721313,0.616211,0.098755,0.300476,up
287417,2.582031,10.03125,2.433594,-0.570312,0.583984,-0.351563,0.722656,0.614075,0.099976,0.301147,up
287422,2.46875,9.953125,2.359375,-0.570312,0.583984,-0.351563,0.722656,0.614075,0.099976,0.301147,up
287427,2.351563,9.886719,2.398438,-0.910156,0.808594,-0.394531,0.722656,0.614075,0.099976,0.301147,up
287432,2.277344,9.847656,2.398438,-0.910156,0.808594,-0.394531,0.727234,0.606689,0.10437,0.303467,up
287437,2.199219,9.808594,2.433594,-0.949219,0.898437,-0.453125,0.727234,0.606689,0.10437,0.303467,up
287442,2.007813,9.765625,2.433594,-0.949219,0.898437,-0.453125,0.728699,0.604431,0.105835,0.304199,up
287447,1.894531,9.6875,2.511719,-0.931641,0.912109,-0.470703,0.728699,0.604431,0.105835,0.304199,up
287452,1.855469,9.652344,2.664063,-0.931641,0.912109,-0.470703,0.733215,0.596802,0.110901,0.306458,up
287457,1.777344,9.691406,2.742188,-0.931641,0.912109,-0.470703,0.733215,0.596802,0.110901,0.306458,up
287462,1.777344,9.691406,2.742188,-0.765625,0.783203,-0.462891,0.734436,0.594727,0.112305,0.307007,up
287467,1.816406,9.726563,2.78125,-0.78125,0.71875,-0.439453,0.734436,0.594727,0.112305,0.307007,up
287472,1.816406,9.726563,2.78125,-0.789062,0.701172,-0.445312,0.737061,0.590454,0.115173,0.307983,up
287477,1.664063,9.691406,2.78125,-0.789062,0.701172,-0.445312,0.738342,0.588318,0.116455,0.308472,up
287482,1.664063,9.691406,2.78125,-0.902344,0.636719,-0.425781,0.739807,0.58606,0.117676,0.308899,up
287487,1.585938,9.425781,2.816406,-0.902344,0.636719,-0.425781,0.742859,0.58136,0.119446,0.309631,up
287492,1.625,9.464844,2.78125,-0.902344,0.636719,-0.425781,0.742859,0.58136,0.119446,0.309631,up
287497,1.625,9.464844,2.78125,-1.121094,0.484375,-0.326172,0.742859,0.58136,0.119446,0.309631,up
287502,1.703125,9.460938,2.816406,-1.121094,0.484375,-0.326172,0.747986,0.573792,0.121155,0.310852,up
287507,1.738281,9.382813,2.855469,-1.232422,0.460937,-0.269531,0.747986,0.573792,0.121155,0.310852,up
287512,1.738281,9.386719,2.894531,-1.292969,0.478516,-0.251953,0.75,0.570801,0.121521,0.311401,up
287517,1.816406,9.265625,2.972656,-1.292969,0.478516,-0.251953,0.753601,0.565186,0.122009,0.312561,up
287522,1.816406,9.152344,3.007813,-1.292969,0.478516,-0.251953,0.755493,0.562256,0.122253,0.313293,up
287527,1.777344,9.0,3.046875,-1.292969,0.478516,-0.251953,0.755493,0.562256,0.122253,0.313293,up
287532,1.738281,8.921875,3.125,-1.365234,0.548828,-0.253906,0.755493,0.562256,0.122253,0.313293,up
287537,1.703125,8.847656,3.164063,-1.365234,0.548828,-0.253906,0.761292,0.552979,0.12323,0.315369,up
287542,1.546875,8.808594,3.203125,-1.365234,0.548828,-0.253906,0.761292,0.552979,0.12323,0.315369,up
287547,1.511719,8.699219,3.277344,-1.429688,0.601562,-0.361328,0.76355,0.549316,0.123657,0.316162,up
287552,1.316406,8.578125,3.203125,-1.429688,0.601562,-0.361328,0.765503,0.546204,0.124146,0.316772,up
287557,1.164063,8.621094,3.277344,-1.429688,0.601562,-0.361328,0.767517,0.542908,0.124695,0.317261,up
287562,1.050781,8.578125,3.316406,-1.398438,0.523437,-0.443359,0.767517,0.542908,0.124695,0.317261,up
287567,1.050781,8.5,3.429688,-1.398438,0.523437,-0.443359,0.771484,0.536438,0.125793,0.318115,up
287572,1.125,8.421875,3.8125,-1.378906,0.445312,-0.439453,0.771484,0.536438,0.125793,0.318115,up
287577,1.125,8.464844,3.96875,-1.378906,0.445312,-0.439453,0.775696,0.529968,0.126526,0.318481,up
287582,1.125,8.464844,4.121094,-1.353516,0.269531,-0.361328,0.777588,0.5271,0.126648,0.318604,up
287587,1.203125,8.421875,4.160156,-1.353516,0.269531,-0.361328,0.779724,0.523926,0.126648,0.318665,up
287593,1.203125,8.386719,4.351562,-1.353516,0.269531,-0.361328,0.783508,0.518188,0.126221,0.318848,up
287598,1.242188,8.34375,4.425781,-1.357422,0.083984,-0.259766,0.785645,0.515076,0.125671,0.318909,up
287604,1.242188,8.195313,4.503906,-1.357422,0.083984,-0.259766,0.787292,0.512634,0.125122,0.318909,up
287609,1.28125,8.078125,4.425781,-1.357422,0.083984,-0.259766,0.789246,0.509827,0.124268,0.318909,up
287615,1.242188,8.003906,4.464844,-1.357422,0.083984,-0.259766,0.790955,0.507446,0.123474,0.318848,up
287620,1.242188,8.042969,4.464844,-1.177734,-0.136719,-0.169922,0.792664,0.505066,0.122559,0.318726,up
287626,1.242188,8.078125,4.425781,-1.101563,-0.181641,-0.167969,0.792664,0.505066,0.122559,0.318726,up
287631,1.28125,8.039063,4.390625,-1.03125,-0.222656,-0.175781,0.792664,0.505066,0.122559,0.318726,up
287636,1.28125,8.039063,4.425781,-1.03125,-0.222656,-0.175781,0.797302,0.498962,0.119446,0.317932,up
287641,1.28125,8.039063,4.425781,-0.857422,-0.291016,-0.199219,0.798645,0.497375,0.118408,0.317505,up
287646,1.316406,7.960937,4.425781,-0.765625,-0.314453,-0.222656,0.798645,0.497375,0.118408,0.317505,up
287651,1.316406,7.960937,4.425781,-0.765625,-0.314453,-0.222656,0.798645,0.497375,0.118408,0.317505,up
287656,1.316406,7.960937,4.425781,-0.683594,-0.326172,-0.236328,0.802124,0.49353,0.115662,0.315613,up
287662,1.316406,7.960937,4.425781,-0.535156,-0.361328,-0.265625,0.803101,0.492615,0.114807,0.314819,up
287667,1.316406,8.195313,4.273437,-0.482422,-0.351563,-0.251953,0.804077,0.491821,0.114014,0.313965,up
287672,1.355469,8.199219,4.3125,-0.482422,-0.351563,-0.251953,0.804993,0.491028,0.11322,0.313171,up
287677,1.316406,8.273438,4.351562,-0.519531,-0.322266,-0.222656,0.804993,0.491028,0.11322,0.313171,up
287682,1.355469,8.277344,4.390625,-0.519531,-0.322266,-0.222656,0.806763,0.48938,0.111694,0.311707,up
287687,1.394531,8.238281,4.503906,-0.519531,-0.322266,-0.222656,0.807678,0.488525,0.110901,0.311035,up
287693,1.433594,8.195313,4.464844,-0.613281,-0.251953,-0.189453,0.807678,0.488525,0.110901,0.311035,up
287698,1.394531,8.238281,4.542969,-0.613281,-0.251953,-0.189453,0.810547,0.485291,0.108582,0.309326,up
287703,1.433594,8.160156,4.542969,-0.613281,-0.251953,-0.189453,0.811462,0.484192,0.107849,0.30896,up
287708,1.433594,8.117188,4.65625,-0.673828,-0.214844,-0.171875,0.812622,0.482788,0.107056,0.308472,up
287713,1.433594,8.042969,4.695312,-0.648437,-0.216797,-0.162109,0.813538,0.481567,0.106323,0.308044,up
287718,1.394531,8.039063,4.773437,-0.648437,-0.216797,-0.162109,0.813538,0.481567,0.106323,0.308044,up
287723,1.394531,8.078125,4.734375,-0.648437,-0.216797,-0.162109,0.81543,0.479309,0.104919,0.30719,up
287728,1.394531,8.039063,4.808594,-0.546875,-0.197266,-0.166016,0.816284,0.478271,0.104309,0.306763,up
287733,1.433594,8.0,5.0,-0.546875,-0.197266,-0.166016,0.816284,0.478271,0.104309,0.306763,up
287738,1.433594,8.039063,5.0,-0.546875,-0.197266,-0.166016,0.817078,0.477234,0.103699,0.306335,up
287743,1.394531,8.039063,5.0,-0.4375,-0.195312,-0.171875,0.817078,0.477234,0.103699,0.306335,up
287748,1.355469,8.121094,5.0,-0.4375,-0.195312,-0.171875,0.819214,0.474792,0.102051,0.304993,up
287753,1.355469,8.042969,5.039062,-0.4375,-0.195312,-0.171875,0.819214,0.474792,0.102051,0.304993,up
287758,1.355469,8.042969,5.039062,-0.4375,-0.195312,-0.171875,0.820496,0.47345,0.101013,0.304016,up
287763,1.394531,8.0,5.078125,-0.355469,-0.259766,-0.181641,0.820496,0.47345,0.101013,0.304016,up
287768,1.433594,8.039063,5.117187,-0.351563,-0.271484,-0.183594,0.821167,0.472839,0.100403,0.303406,up
287773,1.394531,8.078125,5.078125,-0.351563,-0.271484,-0.183594,0.822388,0.47168,0.099182,0.302246,up
287778,1.394531,8.039063,5.117187,-0.351563,-0.271484,-0.183594,0.822388,0.47168,0.099182,0.302246,up
287783,1.355469,8.042969,5.078125,-0.367188,-0.291016,-0.195312,0.822388,0.47168,0.099182,0.302246,up
287789,1.355469,8.082031,5.078125,-0.367188,-0.291016,-0.195312,0.824341,0.46991,0.09729,0.300293,up
287795,1.355469,8.003906,5.117187,-0.367188,-0.291016,-0.195312,0.82489,0.469421,0.096741,0.299744,up
287801,1.394531,7.960937,5.191406,-0.339844,-0.275391,-0.1875,0.82489,0.469421,0.096741,0.299744,up
287806,1.355469,7.960937,5.15625,-0.320313,-0.283203,-0.175781,0.82489,0.469421,0.096741,0.299744,up
287811,1.394531,8.003906,5.191406,-0.320313,-0.283203,-0.175781,0.82489,0.469421,0.096741,0.299744,up
287816,1.433594,8.042969,5.230469,-0.320313,-0.283203,-0.175781,0.827148,0.467468,0.094421,0.297363,up
287821,1.472656,8.0,5.230469,-0.185547,-0.259766,-0.160156,0.827148,0.467468,0.094421,0.297363,up
287826,1.472656,7.929687,5.269531,-0.185547,-0.259766,-0.160156,0.827881,0.46698,0.093506,0.296204,up
287831,1.472656,7.964844,5.191406,-0.185547,-0.259766,-0.160156,0.827881,0.46698,0.093506,0.296204,up
287836,1.511719,7.964844,5.191406,-0.185547,-0.259766,-0.160156,0.828491,0.466797,0.092773,0.295105,up
287841,1.394531,7.964844,5.117187,-0.050781,-0.181641,-0.146484,0.828491,0.466797,0.092773,0.295105,up
287846,1.433594,8.0,5.117187,-0.050781,-0.181641,-0.146484,0.828918,0.466797,0.092285,0.294128,up
287851,1.472656,8.003906,5.117187,-0.041016,-0.138672,-0.140625,0.828918,0.466797,0.092285,0.294128,up
287856,1.394531,7.964844,5.117187,-0.033203,-0.121094,-0.140625,0.828918,0.466797,0.092285,0.294128,up
287861,1.433594,8.039063,5.117187,-0.042969,-0.089844,-0.144531,0.828918,0.466797,0.092285,0.294128,up
287866,1.433594,8.0,5.15625,-0.042969,-0.089844,-0.144531,0.828918,0.466797,0.092285,0.294128,up
287872,1.355469,8.042969,5.15625,-0.042969,-0.089844,-0.144531,0.829712,0.466614,0.09198,0.292175,up
287878,1.433594,8.078125,5.117187,-0.029297,-0.013672,-0.146484,0.829712,0.466614,0.09198,0.292175,up
287883,1.355469,8.121094,5.117187,-0.029297,-0.013672,-0.146484,0.8302,0.466309,0.092346,0.291199,up
287888,1.355469,8.195313,5.117187,-0.029297,-0.013672,-0.146484,0.8302,0.466309,0.092346,0.291199,up
287893,1.394531,8.234375,5.15625,-0.001953,0.009766,-0.150391,0.8302,0.466309,0.092346,0.291199,up
287898,1.355469,8.273438,5.191406,-0.001953,0.009766,-0.150391,0.830566,0.466125,0.092957,0.290344,up
287903,1.316406,8.273438,5.230469,-0.001953,0.009766,-0.150391,0.830627,0.466064,0.09314,0.290039,up
287908,1.316406,8.277344,5.308594,-0.001953,0.009766,-0.150391,0.830627,0.466064,0.09314,0.290039,up
287913,1.316406,8.277344,5.308594,0.001953,0.025391,-0.136719,0.830811,0.465942,0.093628,0.289551,up
287918,1.242188,8.316406,5.308594,0.001953,0.025391,-0.136719,0.830811,0.465942,0.093628,0.289551,up
287923,1.203125,8.3125,5.347656,-0.025391,0.017578,-0.107422,0.830811,0.465942,0.093628,0.289551,up
287928,1.242188,8.277344,5.421875,-0.025391,0.017578,-0.107422,0.831055,0.465759,0.094055,0.289185,up
287934,1.203125,8.273438,5.460937,-0.054687,0.017578,-0.105469,0.831116,0.465637,0.094177,0.289001,up
287939,1.242188,8.234375,5.382812,-0.054687,0.017578,-0.105469,0.83136,0.465393,0.094421,0.288635,up
287944,1.203125,8.238281,5.347656,-0.058594,0.009766,-0.115234,0.831543,0.46521,0.094604,0.288452,up
287950,1.203125,8.234375,5.382812,-0.058594,0.009766,-0.115234,0.831665,0.465088,0.094666,0.288269,up
287955,1.203125,8.277344,5.421875,-0.058594,0.009766,-0.115234,0.831787,0.464966,0.094727,0.288025,up
287961,1.242188,8.277344,5.421875,-0.058594,0.009766,-0.115234,0.831909,0.464844,0.094849,0.287781,up
287967,1.242188,8.273438,5.382812,-0.056641,-0.025391,-0.113281,0.831909,0.464844,0.094849,0.287781,up
287973,1.28125,8.277344,5.421875,-0.064453,-0.019531,-0.117188,0.832397,0.464417,0.094971,0.287109,up
287978,1.355469,8.277344,5.460937,-0.064453,-0.019531,-0.117188,0.832397,0.464417,0.094971,0.287109,up
287983,1.28125,8.273438,5.460937,-0.080078,0.011719,-0.097656,0.832397,0.464417,0.094971,0.287109,up
287988,1.316406,8.3125,5.539062,-0.080078,0.011719,-0.097656,0.832703,0.46405,0.095154,0.286743,up
287994,1.316406,8.3125,5.539062,-0.09375,0.025391,-0.097656,0.833008,0.463562,0.095337,0.286438,up
287999,1.316406,8.238281,5.578125,-0.097656,0.021484,-0.089844,0.833191,0.463318,0.095459,0.286316,up
288005,1.355469,8.195313,5.578125,-0.097656,0.021484,-0.089844,0.833374,0.463135,0.095581,0.286194,up
288010,1.28125,8.199219,5.5,-0.097656,0.021484,-0.089844,0.833374,0.463135,0.095581,0.286194,up
288016,1.316406,8.195313,5.578125,-0.048828,0.015625,-0.097656,0.833374,0.463135,0.095581,0.286194,up
288022,1.316406,8.238281,5.578125,-0.037109,0.013672,-0.105469,0.833374,0.463135,0.095581,0.286194,up
288027,1.316406,8.277344,5.652344,-0.037109,0.013672,-0.105469,0.833374,0.463135,0.095581,0.286194,up
288032,1.28125,8.316406,5.613281,-0.037109,0.013672,-0.105469,0.833923,0.462463,0.096191,0.285339,up
288037,1.316406,8.3125,5.613281,0.001953,-0.011719,-0.123047,0.833923,0.462463,0.096191,0.285339,up
288042,1.28125,8.34375,5.539062,0.011719,-0.021484,-0.117188,0.833923,0.462463,0.096191,0.285339,up
288047,1.242188,8.425781,5.613281,0.011719,-0.021484,-0.117188,0.833923,0.462463,0.096191,0.285339,up
288052,1.242188,8.382813,5.613281,0.011719,-0.021484,-0.117188,0.83429,0.462463,0.096558,0.284241,up
288057,1.28125,8.382813,5.578125,-0.033203,-0.050781,-0.123047,0.83429,0.462463,0.096558,0.284241,up
288063,1.316406,8.421875,5.539062,-0.054687,-0.046875,-0.123047,0.834656,0.462219,0.096619,0.283447,up
288068,1.316406,8.421875,5.539062,-0.054687,-0.046875,-0.123047,0.834656,0.462219,0.096619,0.283447,up
288073,1.28125,8.425781,5.613281,-0.146484,-0.007813,-0.123047,0.834656,0.462219,0.096619,0.283447,up
288078,1.28125,8.425781,5.613281,-0.164062,0.007813,-0.126953,0.835144,0.46167,0.09668,0.282959,up
288084,1.28125,8.382813,5.652344,-0.164062,0.007813,-0.126953,0.835693,0.460937,0.096802,0.282532,up
288089,1.242188,8.34375,5.652344,-0.197266,0.027344,-0.130859,0.835999,0.460449,0.096863,0.282349,up
288095,1.242188,8.347656,5.691406,-0.197266,0.027344,-0.130859,0.836304,0.459961,0.096985,0.282166,up
288100,1.164063,8.347656,5.691406,-0.197266,0.027344,-0.130859,0.836548,0.459534,0.097046,0.282043,up
288106,1.125,8.386719,5.730469,-0.181641,0.052734,-0.134766,0.836548,0.459534,0.097046,0.282043,up
288112,1.164063,8.382813,5.769531,-0.167969,0.052734,-0.126953,0.837158,0.458618,0.097351,0.281738,up
288118,1.164063,8.386719,5.730469,-0.167969,0.052734,-0.126953,0.837402,0.458191,0.097473,0.281616,up
288123,1.125,8.421875,5.804687,-0.167969,0.052734,-0.126953,0.837585,0.457886,0.097656,0.281433,up
288129,1.089844,8.503906,5.769531,-0.099609,0.0625,-0.128906,0.838013,0.457275,0.098083,0.281128,up
288134,1.089844,8.542969,5.769531,-0.099609,0.0625,-0.128906,0.838135,0.457031,0.098389,0.281006,up
288139,1.089844,8.582031,5.84375,-0.099609,0.0625,-0.128906,0.838257,0.456848,0.098633,0.280823,up
288144,1.089844,8.582031,5.84375,-0.078125,0.070312,-0.158203,0.838257,0.456848,0.098633,0.280823,up
288149,1.089844,8.582031,5.882812,-0.078125,0.070312,-0.158203,0.838684,0.456299,0.099182,0.280396,up
288155,0.972656,8.617188,5.921875,-0.078125,0.070312,-0.158203,0.838867,0.455933,0.099487,0.280151,up
288160,0.972656,8.617188,5.921875,-0.1875,0.076172,-0.205078,0.839233,0.455444,0.099792,0.279907,up
288166,0.972656,8.734375,6.074219,-0.1875,0.076172,-0.205078,0.839539,0.454956,0.100037,0.279663,up
288172,0.933594,8.738281,6.074219,-0.279297,0.058594,-0.212891,0.839539,0.454956,0.100037,0.279663,up
288178,0.933594,8.660156,6.265625,-0.279297,0.058594,-0.212891,0.839539,0.454956,0.100037,0.279663,up
288183,0.933594,8.621094,6.265625,-0.392578,0.052734,-0.240234,0.839539,0.454956,0.100037,0.279663,up
288188,0.898437,8.460938,6.34375,-0.451172,0.052734,-0.253906,0.839539,0.454956,0.100037,0.279663,up
288193,0.972656,8.386719,6.34375,-0.451172,0.052734,-0.253906,0.842346,0.450562,0.100708,0.278076,up
288198,0.972656,8.34375,6.304687,-0.580078,0.056641,-0.275391,0.842346,0.450562,0.100708,0.278076,up
288204,0.898437,8.347656,6.265625,-0.636719,0.064453,-0.302734,0.84491,0.44635,0.10083,0.276917,up
288209,0.859375,8.273438,6.34375,-0.636719,0.064453,-0.302734,0.845886,0.444763,0.10083,0.27655,up
288214,0.859375,8.3125,6.265625,-0.759766,0.060547,-0.363281,0.847046,0.442932,0.10083,0.276062,up
288219,0.820312,8.3125,6.226562,-0.791016,0.074219,-0.384766,0.847046,0.442932,0.10083,0.276062,up
288224,0.707031,8.347656,6.226562,-0.791016,0.074219,-0.384766,0.848022,0.441284,0.100891,0.275574,up
288229,0.707031,8.347656,6.226562,-0.791016,0.074219,-0.384766,0.848022,0.441284,0.100891,0.275574,up
288234,0.667969,8.34375,6.265625,-0.8125,0.072266,-0.414062,0.850342,0.4375,0.101013,0.274414,up
288239,0.667969,8.34375,6.265625,-0.820312,0.083984,-0.462891,0.851501,0.435608,0.101135,0.273804,up
288244,0.515625,8.539063,6.34375,-0.820312,0.083984,-0.462891,0.852722,0.433594,0.101257,0.273071,up
288249,0.476562,8.542969,6.378906,-0.902344,0.095703,-0.503906,0.853943,0.43158,0.10144,0.2724,up
288254,0.398438,8.539063,6.417969,-0.902344,0.095703,-0.503906,0.856689,0.427063,0.101746,0.270813,up
288259,0.398438,8.539063,6.496094,-0.986328,0.068359,-0.505859,0.856689,0.427063,0.101746,0.270813,up
288264,0.359375,8.460938,6.570312,-0.986328,0.068359,-0.505859,0.859314,0.422668,0.101746,0.269409,up
288269,0.359375,8.425781,6.570312,-1.099609,0.048828,-0.484375,0.859314,0.422668,0.101746,0.269409,up
288274,0.359375,8.425781,6.570312,-1.152344,0.019531,-0.457031,0.86084,0.420105,0.101685,0.268677,up
288279,0.324219,8.347656,6.609375,-1.152344,0.019531,-0.457031,0.86377,0.414917,0.101196,0.267334,up
288284,0.324219,8.34375,6.570312,-1.152344,0.019531,-0.457031,0.865295,0.412292,0.10083,0.266724,up
288289,0.324219,8.195313,6.648437,-1.28125,-0.054687,-0.455078,0.865295,0.412292,0.10083,0.266724,up
288294,0.359375,8.117188,6.6875,-1.28125,-0.054687,-0.455078,0.867065,0.409119,0.100281,0.26593,up
288299,0.359375,8.078125,6.6875,-1.28125,-0.054687,-0.455078,0.870178,0.403564,0.099304,0.264587,up
288304,0.324219,8.082031,6.609375,-1.28125,-0.054687,-0.455078,0.871887,0.400635,0.098694,0.263855,up
288309,0.359375,8.003906,6.609375,-1.28125,-0.054687,-0.455078,0.871887,0.400635,0.098694,0.263855,up
288314,0.398438,8.0,6.570312,-1.363281,-0.111328,-0.5,0.871887,0.400635,0.098694,0.263855,up
288319,0.359375,7.933594,6.570312,-1.363281,-0.111328,-0.5,0.877075,0.391418,0.096741,0.26123,up
288324,0.4375,7.8125,6.609375,-1.464844,-0.152344,-0.607422,0.877075,0.391418,0.096741,0.26123,up
288329,0.4375,7.734375,6.535156,-1.503906,-0.162109,-0.621094,0.878967,0.388,0.096008,0.260132,up
288335,0.398438,7.511719,6.609375,-1.503906,-0.162109,-0.621094,0.88269,0.381287,0.094666,0.257813,up
288340,0.324219,7.546875,6.609375,-1.503906,-0.162109,-0.621094,0.884521,0.377991,0.093994,0.256653,up
288345,0.324219,7.546875,6.609375,-1.578125,-0.164062,-0.697266,0.884521,0.377991,0.093994,0.256653,up
288350,0.167969,7.511719,6.570312,-1.578125,-0.164062,-0.697266,0.888611,0.370544,0.092529,0.253906,up
288356,0.09375,7.234375,6.535156,-1.578125,-0.164062,-0.697266,0.890503,0.367126,0.091736,0.252625,up
288361,0.09375,7.234375,6.535156,-1.740234,-0.273438,-0.720703,0.892761,0.362915,0.090698,0.251038,up
288366,0.09375,7.234375,6.535156,-1.777344,-0.365234,-0.712891,0.894714,0.359314,0.0896,0.249695,up
288371,0.054687,7.085937,6.535156,-1.777344,-0.365234,-0.712891,0.894714,0.359314,0.0896,0.249695,up
288376,0.054687,7.085937,6.535156,-1.824219,-0.441406,-0.708984,0.89679,0.355408,0.088257,0.24823,up
288381,0.054687,6.777344,6.535156,-1.878906,-0.517578,-0.703125,0.89679,0.355408,0.088257,0.24823,up
288386,0.207031,6.589844,6.535156,-1.962891,-0.708984,-0.673828,0.903442,0.343201,0.082764,0.243286,up
288391,0.359375,6.433594,6.726562,-1.962891,-0.708984,-0.673828,0.905701,0.338989,0.080383,0.241516,up
288397,0.515625,6.394531,6.878906,-1.927734,-0.927734,-0.660156,0.905701,0.338989,0.080383,0.241516,up
288402,0.628906,6.359375,6.953125,-1.908203,-1.03125,-0.642578,0.905701,0.338989,0.080383,0.241516,up
288407,0.628906,6.089844,7.070312,-1.908203,-1.03125,-0.642578,0.912354,0.326965,0.071777,0.235657,up
288412,0.667969,6.011719,7.035156,-1.839844,-1.128906,-0.619141,0.912354,0.326965,0.071777,0.235657,up
288417,0.707031,5.820312,7.035156,-1.806641,-1.222656,-0.583984,0.912354,0.326965,0.071777,0.235657,up
288422,0.476562,6.011719,7.070312,-1.75,-1.279297,-0.552734,0.912354,0.326965,0.071777,0.235657,up
288428,0.628906,4.710937,6.035156,-1.75,-1.279297,-0.552734,0.912354,0.326965,0.071777,0.235657,up
288434,1.089844,5.054687,5.503906,-1.964844,-1.103516,-0.568359,0.912354,0.326965,0.071777,0.235657,up
288439,0.550781,6.089844,5.691406,-1.964844,-1.103516,-0.568359,0.925903,0.301636,0.048706,0.222229,up
288444,0.550781,5.9375,6.148437,-1.964844,-1.103516,-0.568359,0.927856,0.297607,0.045349,0.220276,up
288449,0.859375,5.554687,6.457031,-1.964844,-1.103516,-0.568359,0.927856,0.297607,0.045349,0.220276,up
288454,0.933594,5.707031,6.230469,-2.134766,-1.126953,-0.625,0.927856,0.297607,0.045349,0.220276,up
288459,0.898437,5.589844,6.492187,-2.134766,-1.126953,-0.625,0.933899,0.284119,0.035278,0.214111,up
288464,1.089844,5.246094,6.957031,-2.134766,-1.126953,-0.625,0.933899,0.284119,0.035278,0.214111,up
288469,1.089844,5.246094,6.957031,-2.285156,-1.216797,-0.636719,0.935913,0.27948,0.031738,0.212036,up
288474,1.089844,4.941406,6.835937,-2.285156,-1.216797,-0.636719,0.937866,0.274719,0.028198,0.209961,up
288480,1.089844,4.289062,6.796875,-2.351563,-1.216797,-0.576172,0.939941,0.269714,0.024414,0.207886,up
288485,1.089844,4.289062,6.796875,-2.320313,-1.230469,-0.537109,0.941833,0.264893,0.020752,0.205933,up
288491,1.203125,3.597656,7.035156,-2.320313,-1.230469,-0.537109,0.945435,0.255249,0.013184,0.202087,up
288496,1.203125,3.5625,6.996094,-2.320313,-1.230469,-0.537109,0.947266,0.250183,0.00885,0.200134,up
288501,1.242188,3.714844,6.957031,-2.320313,-1.230469,-0.537109,0.948547,0.246582,0.005554,0.198608,up
288508,1.355469,3.867188,6.957031,-2.320313,-1.230469,-0.537109,0.948547,0.246582,0.005554,0.198608,up
288514,1.511719,3.789063,7.070312,-1.470703,-1.412109,-0.302734,0.948547,0.246582,0.005554,0.198608,up
288519,1.472656,3.867188,7.113281,-1.470703,-1.412109,-0.302734,0.952637,0.235229,-0.010071,0.192566,up
288524,1.472656,3.984375,7.070312,-1.470703,-1.412109,-0.302734,0.952637,0.235229,-0.010071,0.192566,up
288529,1.433594,4.136719,7.070312,-0.884766,-1.474609,-0.148437,0.953674,0.232483,-0.017578,0.190125,up
288534,1.316406,4.136719,7.183594,-0.884766,-1.474609,-0.148437,0.953674,0.232483,-0.017578,0.190125,up
288539,1.316406,4.136719,7.183594,-0.884766,-1.474609,-0.148437,0.954041,0.231506,-0.021667,0.188965,up
288544,1.164063,4.480469,7.179687,-0.574219,-1.716797,0.009766,0.954041,0.231506,-0.021667,0.188965,up
288549,1.050781,4.59375,7.03125,-0.574219,-1.716797,0.009766,0.954529,0.230225,-0.03009,0.186951,up
288554,1.050781,4.59375,7.03125,-0.888672,-1.826172,0.070312,0.954773,0.229431,-0.034973,0.185852,up
288559,1.011719,4.785156,6.996094,-0.888672,-1.826172,0.070312,0.955017,0.228516,-0.039246,0.184998,up
288564,1.011719,4.785156,6.996094,-1.109375,-1.859375,0.101563,0.955322,0.226868,-0.044434,0.184082,up
288569,1.203125,5.054687,7.113281,-1.275391,-1.888672,0.087891,0.95575,0.224976,-0.049255,0.183167,up
288574,1.203125,5.054687,7.113281,-1.275391,-1.888672,0.087891,0.95575,0.224976,-0.049255,0.183167,up
288579,1.433594,5.09375,7.21875,-1.412109,-1.958984,0.068359,0.95575,0.224976,-0.049255,0.183167,up
288585,1.433594,5.09375,7.21875,-1.769531,-1.923828,-0.009766,0.958008,0.213135,-0.070801,0.178284,up
288591,2.277344,3.5625,7.261719,-1.769531,-1.923828,-0.009766,0.95874,0.209229,-0.075989,0.176941,up
288596,2.582031,3.253906,7.339844,-2.083984,-1.708984,-0.042969,0.95874,0.209229,-0.075989,0.176941,up
288601,2.734375,3.214844,7.414062,-2.056641,-1.587891,-0.015625,0.960205,0.200745,-0.085937,0.174255,up
288607,2.660156,2.410156,7.679687,-2.056641,-1.587891,-0.015625,0.960815,0.196655,-0.090393,0.173096,up
288613,2.773438,1.992188,7.757812,-1.859375,-1.320313,0.113281,0.960815,0.196655,-0.090393,0.173096,up
288619,2.773438,1.835938,7.914062,-1.664063,-1.240234,0.205078,0.960815,0.196655,-0.090393,0.173096,up
288624,2.734375,2.144531,8.066406,-1.373047,-1.183594,0.289063,0.960815,0.196655,-0.090393,0.173096,up
288629,2.734375,2.257813,8.140625,-1.373047,-1.183594,0.289063,0.96228,0.183167,-0.105713,0.171204,up
288635,2.8125,2.449219,8.105469,-0.707031,-1.169922,0.363281,0.961975,0.180481,-0.112488,0.171509,up
288640,3.042969,2.679688,8.066406,-0.150391,-1.193359,0.324219,0.961609,0.180237,-0.115662,0.171753,up
288646,3.695313,3.253906,8.101563,-0.150391,-1.193359,0.324219,0.961121,0.180542,-0.11853,0.171997,up
288651,3.847656,3.523438,8.140625,0.263672,-1.128906,0.244141,0.960571,0.181335,-0.121338,0.17218,up
288657,3.921875,3.828125,8.140625,0.451172,-1.058594,0.167969,0.960571,0.181335,-0.121338,0.17218,up
288662,3.921875,3.90625,8.140625,0.451172,-1.058594,0.167969,0.960571,0.181335,-0.121338,0.17218,up
288667,3.960938,3.945313,8.140625,0.525391,-0.955078,0.085937,0.960571,0.181335,-0.121338,0.17218,up
288672,3.960938,3.945313,8.140625,0.507812,-0.863281,0.011719,0.958374,0.187378,-0.129944,0.171936,up
288677,3.886719,3.90625,8.367188,0.232422,-0.734375,-0.138672,0.958374,0.187378,-0.129944,0.171936,up
288682,3.886719,3.90625,8.367188,-0.005859,-0.720703,-0.185547,0.957764,0.189148,-0.133118,0.170776,up
288687,4.113281,3.371094,9.289063,-0.005859,-0.720703,-0.185547,0.957764,0.189148,-0.133118,0.170776,up
288692,4.191406,3.140625,9.523438,-0.470703,-0.720703,-0.208984,0.957764,0.189148,-0.133118,0.170776,up
288697,4.039062,2.910156,9.675781,-0.470703,-0.720703,-0.208984,0.957764,0.189148,-0.133118,0.170776,up
288703,4.039062,2.988281,9.632813,-0.615234,-0.615234,-0.181641,0.957764,0.189148,-0.133118,0.170776,up
288708,4.0,2.988281,9.710938,-0.519531,-0.587891,-0.160156,0.957764,0.189148,-0.133118,0.170776,up
288713,4.039062,3.179688,9.753906,-0.519531,-0.587891,-0.160156,0.958069,0.184937,-0.143188,0.165466,up
288718,4.113281,3.828125,9.753906,-0.519531,-0.587891,-0.160156,0.958069,0.184937,-0.143188,0.165466,up
288723,4.191406,4.210937,9.75,0.111328,-0.556641,-0.222656,0.958069,0.184937,-0.143188,0.165466,up
288728,4.34375,4.402344,9.671875,0.328125,-0.556641,-0.302734,0.958069,0.184937,-0.143188,0.165466,up
288733,4.613281,4.632812,9.445313,0.328125,-0.556641,-0.302734,0.957458,0.187195,-0.147827,0.162354,up
288738,4.6875,4.671875,9.328125,0.328125,-0.556641,-0.302734,0.957153,0.189026,-0.14856,0.161316,up
288744,4.765625,4.75,9.40625,0.806641,-0.373047,-0.580078,0.957153,0.189026,-0.14856,0.161316,up
288750,4.996094,4.902344,9.597656,0.917969,-0.324219,-0.669922,0.957153,0.189026,-0.14856,0.161316,up
288755,5.148437,4.941406,9.671875,0.90625,-0.097656,-0.826172,0.956299,0.196228,-0.149109,0.15741,up
288760,5.226562,4.863281,9.753906,0.90625,-0.097656,-0.826172,0.955933,0.201233,-0.14801,0.154114,up
288765,5.109375,4.328125,10.058594,0.90625,-0.097656,-0.826172,0.955933,0.201233,-0.14801,0.154114,up
288770,5.035156,4.289062,10.214844,0.90625,-0.097656,-0.826172,0.956299,0.204407,-0.145325,0.150208,up
288775,4.882812,4.289062,10.398438,0.138672,0.53125,-1.130859,0.956299,0.204407,-0.145325,0.150208,up
288780,4.804687,4.367187,10.59375,0.138672,0.53125,-1.130859,0.957336,0.205627,-0.141541,0.145508,up
288785,4.613281,4.210937,10.671875,-0.060547,0.708984,-1.291016,0.957336,0.205627,-0.141541,0.145508,up
288791,4.6875,3.675781,10.253906,-0.060547,0.708984,-1.291016,0.95874,0.205872,-0.136902,0.140198,up
288796,4.726562,3.484375,10.054688,0.050781,0.847656,-1.371094,0.95874,0.205872,-0.136902,0.140198,up
288801,4.726562,3.484375,10.054688,0.294922,0.914062,-1.353516,0.960144,0.206604,-0.131348,0.134644,up
288807,4.535156,3.867188,9.753906,0.294922,0.914062,-1.353516,0.960632,0.207825,-0.128357,0.132141,up
288812,4.652344,4.136719,9.59375,1.019531,0.960937,-1.189453,0.960632,0.207825,-0.128357,0.132141,up
288818,4.652344,4.441406,9.675781,1.347656,1.058594,-1.039063,0.960632,0.207825,-0.128357,0.132141,up
288824,4.382812,5.171875,9.449219,1.347656,1.058594,-1.039063,0.960815,0.216614,-0.117676,0.126709,up
288829,4.269531,5.667969,9.410156,1.347656,1.058594,-1.039063,0.960449,0.22052,-0.114075,0.126099,up
288835,4.152344,5.9375,9.410156,2.181641,1.345703,-0.570312,0.959106,0.230286,-0.105591,0.126038,up
288840,4.039062,6.089844,9.410156,2.271484,1.492188,-0.345703,0.958313,0.235413,-0.101135,0.126587,up
288845,3.921875,6.359375,9.527344,2.271484,1.492188,-0.345703,0.957397,0.24054,-0.096497,0.127319,up
288850,3.464844,6.625,9.671875,2.271484,1.492188,-0.345703,0.957397,0.24054,-0.096497,0.127319,up
288855,3.195313,6.855469,9.75,2.09375,1.59375,-0.205078,0.955688,0.249634,-0.08728,0.129333,up
288860,2.851563,7.085937,9.792969,2.09375,1.59375,-0.205078,0.955688,0.249634,-0.08728,0.129333,up
288865,2.851563,7.085937,9.792969,1.650391,1.615234,-0.144531,0.954956,0.253357,-0.082764,0.130371,up
288871,2.734375,7.199219,9.871094,1.361328,1.613281,-0.128906,0.954956,0.253357,-0.082764,0.130371,up
288876,2.121094,7.199219,10.210938,1.025391,1.619141,-0.123047,0.953918,0.25885,-0.073975,0.132385,up
288881,2.121094,7.199219,10.210938,1.025391,1.619141,-0.123047,0.953918,0.25885,-0.073975,0.132385,up
288886,1.894531,6.625,10.332031,0.710937,1.59375,-0.105469,0.953674,0.261536,-0.061707,0.135132,up
288891,1.703125,6.394531,10.441406,0.710937,1.59375,-0.105469,0.953857,0.261414,-0.057861,0.136108,up
288897,1.585938,5.628906,10.902344,0.710937,1.59375,-0.105469,0.953979,0.261169,-0.054321,0.137085,up
288902,1.546875,5.476562,10.980469,0.142578,1.373047,0.109375,0.954041,0.260986,-0.050842,0.138245,up
288907,1.664063,5.363281,11.128906,0.244141,1.259766,0.220703,0.954041,0.260986,-0.050842,0.138245,up
288913,1.816406,5.324219,10.785156,0.244141,1.259766,0.220703,0.953796,0.261414,-0.044495,0.141296,up
288919,1.894531,5.398437,10.636719,0.699219,1.199219,0.408203,0.953796,0.261414,-0.044495,0.141296,up
288924,1.96875,5.515625,10.597656,0.992187,1.185547,0.484375,0.952881,0.263733,-0.039124,0.144775,up
288930,1.96875,5.9375,10.476563,1.296875,1.203125,0.550781,0.952881,0.263733,-0.039124,0.144775,up
288935,1.894531,6.242187,10.441406,1.296875,1.203125,0.550781,0.949646,0.272461,-0.029663,0.151917,up
288940,1.855469,6.550781,10.328125,1.296875,1.203125,0.550781,0.948364,0.275818,-0.026611,0.154175,up
288945,1.625,6.855469,10.25,1.296875,1.203125,0.550781,0.948364,0.275818,-0.026611,0.154175,up
288950,1.28125,7.160156,10.214844,1.849609,1.320313,0.59375,0.948364,0.275818,-0.026611,0.154175,up
288955,1.164063,7.316406,10.25,1.703125,1.298828,0.587891,0.945435,0.283508,-0.019714,0.15918,up
288960,0.972656,7.351562,10.328125,1.703125,1.298828,0.587891,0.942627,0.290466,-0.013,0.164062,up
288965,0.667969,7.277344,10.289063,1.703125,1.298828,0.587891,0.942627,0.290466,-0.013,0.164062,up
288970,0.589844,7.199219,10.292969,1.703125,1.298828,0.587891,0.939941,0.296448,-0.006409,0.169128,up
288975,0.515625,7.160156,10.359375,1.703125,1.298828,0.587891,0.939941,0.296448,-0.006409,0.169128,up
288980,0.4375,7.085937,10.363281,1.119141,1.152344,0.744141,0.939941,0.296448,-0.006409,0.169128,up
288985,0.4375,7.085937,10.363281,1.119141,1.152344,0.744141,0.937622,0.300964,-0.000916,0.174072,up
288990,0.324219,6.933594,10.332031,1.119141,1.152344,0.744141,0.937622,0.300964,-0.000916,0.174072,up
288995,0.324219,6.933594,10.253906,1.046875,1.052734,0.867187,0.937622,0.300964,-0.000916,0.174072,up
289000,0.324219,6.933594,10.253906,1.046875,1.052734,0.867187,0.937622,0.300964,-0.000916,0.174072,up
289005,0.398438,7.125,9.871094,1.160156,0.941406,0.957031,0.931335,0.311646,0.010193,0.188171,up
289010,0.4375,7.160156,9.75,1.160156,0.941406,0.957031,0.931335,0.311646,0.010193,0.188171,up
289015,0.4375,7.316406,9.597656,1.494141,0.78125,1.013672,0.931335,0.311646,0.010193,0.188171,up
289020,0.515625,7.582031,9.488281,1.494141,0.78125,1.013672,0.928101,0.317322,0.013794,0.194153,up
289025,0.628906,7.8125,9.105469,1.519531,0.742187,1.029297,0.924622,0.323669,0.01709,0.200134,up
289030,0.707031,7.890625,8.988281,1.519531,0.742187,1.029297,0.924622,0.323669,0.01709,0.200134,up
289035,0.707031,7.929687,8.871094,1.355469,0.664062,1.070313,0.921143,0.329468,0.019897,0.206238,up
289040,0.707031,7.851562,8.90625,1.001953,0.638672,1.123047,0.921143,0.329468,0.019897,0.206238,up
289046,0.628906,7.660156,8.90625,0.832031,0.632812,1.158203,0.919678,0.331665,0.020996,0.209229,up
289051,0.589844,7.507812,8.90625,0.832031,0.632812,1.158203,0.91687,0.335083,0.022949,0.215698,up
289056,0.550781,7.125,8.988281,0.832031,0.632812,1.158203,0.915588,0.336304,0.023682,0.219116,up
289061,0.550781,7.007812,8.988281,0.832031,0.632812,1.158203,0.914612,0.337158,0.02417,0.221985,up
289066,0.550781,7.007812,9.027344,0.425781,0.462891,1.269531,0.914612,0.337158,0.02417,0.221985,up
289071,0.550781,6.933594,8.988281,0.425781,0.462891,1.269531,0.912231,0.338867,0.024658,0.228882,up
289077,0.667969,6.777344,8.984375,0.425781,0.462891,1.269531,0.911133,0.339661,0.024719,0.231934,up
289082,0.707031,6.742187,8.90625,0.587891,0.335938,1.361328,0.909851,0.34082,0.024658,0.235413,up
289088,0.742187,6.742187,8.832031,0.712891,0.3125,1.376953,0.909851,0.34082,0.024658,0.235413,up
289093,0.78125,6.777344,8.753906,0.828125,0.294922,1.386719,0.906982,0.343811,0.024597,0.242065,up
289098,0.78125,6.777344,8.753906,0.894531,0.294922,1.388672,0.905334,0.345703,0.024597,0.245544,up
289103,0.933594,6.703125,8.644531,0.894531,0.294922,1.388672,0.903625,0.347656,0.024658,0.248901,up
289110,1.050781,6.664062,8.601563,0.939453,0.300781,1.404297,0.903625,0.347656,0.024658,0.248901,up
289116,1.089844,6.703125,8.484375,0.933594,0.314453,1.414063,0.898254,0.353821,0.024841,0.259399,up
289121,1.125,6.664062,8.371094,0.933594,0.314453,1.414063,0.898254,0.353821,0.024841,0.259399,up
289126,1.125,6.664062,8.371094,0.917969,0.361328,1.419922,0.896545,0.355713,0.025024,0.262817,up
289131,1.164063,6.777344,8.21875,0.888672,0.371094,1.421875,0.894836,0.357483,0.025146,0.266174,up
289136,1.164063,6.777344,8.21875,0.857422,0.382813,1.423828,0.893066,0.359253,0.02533,0.269592,up
289142,1.125,6.777344,8.144531,0.810547,0.388672,1.429688,0.893066,0.359253,0.02533,0.269592,up
289148,1.050781,6.816406,8.105469,0.794922,0.398438,1.433594,0.887817,0.364197,0.025757,0.28009,up
289153,1.050781,6.742187,8.183594,0.794922,0.398438,1.433594,0.886047,0.365784,0.025818,0.283691,up
289158,1.011719,6.742187,8.140625,0.773437,0.363281,1.423828,0.886047,0.365784,0.025818,0.283691,up
289163,0.933594,6.703125,8.183594,0.761719,0.339844,1.417969,0.886047,0.365784,0.025818,0.283691,up
289168,1.050781,6.742187,8.21875,0.761719,0.339844,1.417969,0.886047,0.365784,0.025818,0.283691,up
289174,1.089844,6.777344,8.179688,0.759766,0.287109,1.427734,0.886047,0.365784,0.025818,0.283691,up
289179,1.164063,6.855469,8.023438,0.765625,0.28125,1.429688,0.886047,0.365784,0.025818,0.283691,up
289185,1.28125,6.894531,7.917969,0.779297,0.257813,1.441406,0.886047,0.365784,0.025818,0.283691,up
289190,1.355469,6.933594,7.800781,0.779297,0.257813,1.441406,0.873413,0.376709,0.02533,0.307495,up
289196,1.394531,7.007812,7.722656,0.753906,0.205078,1.449219,0.873413,0.376709,0.02533,0.307495,up
289201,1.433594,7.007812,7.640625,0.753906,0.205078,1.449219,0.867676,0.381531,0.024353,0.317688,up
289206,1.472656,7.046875,7.566406,0.753906,0.205078,1.449219,0.865906,0.382996,0.023987,0.320862,up
289211,1.433594,7.085937,7.640625,0.753906,0.205078,1.449219,0.865906,0.382996,0.023987,0.320862,up
289216,1.433594,7.046875,7.601562,0.710937,0.134766,1.484375,0.865906,0.382996,0.023987,0.320862,up
289221,1.394531,7.046875,7.453125,0.710937,0.134766,1.484375,0.860168,0.387573,0.022339,0.330811,up
289226,1.433594,7.007812,7.378906,0.710937,0.134766,1.484375,0.857971,0.38916,0.021545,0.334534,up
289231,1.472656,7.007812,7.335937,0.560547,0.082031,1.521484,0.857971,0.38916,0.021545,0.334534,up
289236,1.511719,6.933594,7.183594,0.560547,0.082031,1.521484,0.856079,0.390503,0.020752,0.337952,up
289241,1.585938,6.933594,7.113281,0.560547,0.082031,1.521484,0.854309,0.391602,0.019897,0.341125,up
289247,1.585938,6.933594,7.113281,0.410156,0.044922,1.525391,0.852722,0.392456,0.019043,0.344177,up
289252,1.625,6.933594,7.113281,0.410156,0.044922,1.525391,0.851013,0.393311,0.017944,0.347473,up
289257,1.894531,6.816406,6.953125,0.269531,0.0,1.509766,0.849365,0.394043,0.016724,0.350769,up
289262,1.894531,6.816406,6.953125,0.214844,-0.029297,1.505859,0.847839,0.394592,0.015442,0.353882,up
289268,2.199219,6.703125,6.875,0.214844,-0.029297,1.505859,0.844788,0.395569,0.012451,0.360168,up
289274,2.3125,6.664062,7.070312,0.0625,-0.115234,1.492188,0.844788,0.395569,0.012451,0.360168,up
289279,2.390625,6.585937,7.148437,0.03125,-0.150391,1.496094,0.844788,0.395569,0.012451,0.360168,up
289285,2.390625,6.472656,7.152344,-0.009766,-0.171875,1.496094,0.844788,0.395569,0.012451,0.360168,up
289291,2.507813,6.433594,7.261719,-0.03125,-0.191406,1.496094,0.844788,0.395569,0.012451,0.360168,up
289296,2.621094,6.433594,7.339844,-0.03125,-0.191406,1.496094,0.836304,0.39679,0.001343,0.378418,up
289301,2.734375,6.394531,7.414062,-0.03125,-0.191406,1.496094,0.836304,0.39679,0.001343,0.378418,up
289306,2.8125,6.394531,7.417969,-0.070312,-0.298828,1.488281,0.836304,0.39679,0.001343,0.378418,up
289312,2.925781,6.359375,7.375,-0.070312,-0.298828,1.488281,0.832214,0.397156,-0.004883,0.38678,up
289317,3.042969,6.359375,7.152344,-0.070312,-0.298828,1.488281,0.830688,0.3974,-0.007324,0.389832,up
289323,3.042969,6.320312,7.148437,-0.029297,-0.339844,1.462891,0.829407,0.397583,-0.009338,0.392334,up
289329,3.082031,6.320312,7.148437,-0.013672,-0.341797,1.460938,0.829407,0.397583,-0.009338,0.392334,up
289335,3.042969,6.320312,7.109375,0.005859,-0.339844,1.453125,0.829407,0.397583,-0.009338,0.392334,up
289340,3.003906,6.394531,7.070312,0.03125,-0.328125,1.445313,0.829407,0.397583,-0.009338,0.392334,up
289346,3.082031,6.320312,7.03125,0.048828,-0.328125,1.447266,0.829407,0.397583,-0.009338,0.392334,up
289351,3.117188,6.242187,7.109375,0.048828,-0.328125,1.447266,0.820251,0.399658,-0.022095,0.408569,up
289356,3.15625,6.203125,7.03125,0.048828,-0.328125,1.447266,0.820251,0.399658,-0.022095,0.408569,up
289361,3.195313,6.28125,6.996094,0.091797,-0.330078,1.447266,0.820251,0.399658,-0.022095,0.408569,up
289366,3.234375,6.320312,6.957031,0.091797,-0.330078,1.447266,0.8172,0.400452,-0.026001,0.413757,up
289371,3.234375,6.320312,6.957031,0.101563,-0.330078,1.443359,0.815552,0.400879,-0.028015,0.416321,up
289376,3.308594,6.320312,6.878906,0.123047,-0.333984,1.455078,0.813843,0.401367,-0.03009,0.419067,up
289381,3.308594,6.320312,6.878906,0.107422,-0.339844,1.466797,0.812195,0.401855,-0.032104,0.421692,up
289386,3.308594,6.320312,6.878906,0.107422,-0.339844,1.466797,0.810547,0.402344,-0.034119,0.424316,up
289391,3.65625,6.511719,6.570312,0.107422,-0.339844,1.466797,0.807068,0.403198,-0.03833,0.429626,up
289396,3.695313,6.472656,6.53125,0.107422,-0.339844,1.466797,0.807068,0.403198,-0.03833,0.429626,up
289401,3.808594,6.359375,6.492187,0.0625,-0.365234,1.492188,0.807068,0.403198,-0.03833,0.429626,up
289407,3.886719,6.394531,6.457031,0.048828,-0.392578,1.521484,0.807068,0.403198,-0.03833,0.429626,up
289412,3.886719,6.359375,6.417969,0.048828,-0.392578,1.521484,0.799866,0.404724,-0.047424,0.440674,up
289418,3.960938,6.28125,6.304687,0.048828,-0.392578,1.521484,0.798279,0.404968,-0.049438,0.443054,up
289423,4.039062,6.203125,6.265625,0.048828,-0.392578,1.521484,0.796448,0.405212,-0.051819,0.445862,up
289428,4.039062,6.050781,6.347656,0.048828,-0.392578,1.521484,0.794678,0.405396,-0.054199,0.448608,up
289433,4.039062,6.011719,6.308594,-0.025391,-0.375,1.582031,0.794678,0.405396,-0.054199,0.448608,up
289439,4.113281,5.859375,6.304687,-0.025391,-0.375,1.582031,0.794678,0.405396,-0.054199,0.448608,up
289446,4.191406,5.9375,6.265625,-0.017578,-0.369141,1.589844,0.794678,0.405396,-0.054199,0.448608,up
289451,4.191406,5.898437,6.226562,-0.017578,-0.355469,1.568359,0.7854,0.406189,-0.065979,0.462463,up
289456,4.304687,5.898437,6.269531,-0.017578,-0.355469,1.568359,0.7854,0.406189,-0.065979,0.462463,up
289461,4.382812,5.9375,6.1875,-0.017578,-0.355469,1.568359,0.783569,0.40625,-0.068237,0.465149,up
289466,4.421875,5.972656,6.109375,-0.007813,-0.339844,1.533203,0.783569,0.40625,-0.068237,0.465149,up
289471,4.574219,6.128906,6.074219,-0.007813,-0.339844,1.533203,0.779724,0.406494,-0.072815,0.470642,up
289476,4.574219,6.128906,6.074219,-0.007813,-0.339844,1.533203,0.776062,0.406677,-0.077209,0.475769,up
289481,4.652344,6.128906,5.84375,-0.007813,-0.339844,1.533203,0.776062,0.406677,-0.077209,0.475769,up
289486,4.652344,6.128906,5.84375,-0.091797,-0.326172,1.527344,0.774048,0.406677,-0.079712,0.478638,up
289491,4.726562,6.089844,5.882812,-0.113281,-0.332031,1.539063,0.7724,0.406555,-0.081787,0.481018,up
289496,4.726562,6.089844,5.882812,-0.113281,-0.332031,1.539063,0.7724,0.406555,-0.081787,0.481018,up
289501,4.765625,6.050781,5.769531,-0.154297,-0.324219,1.548828,0.7724,0.406555,-0.081787,0.481018,up
289506,4.765625,6.050781,5.769531,-0.208984,-0.275391,1.589844,0.766968,0.405823,-0.088928,0.489014,up
289512,4.726562,5.78125,6.03125,-0.208984,-0.275391,1.589844,0.763306,0.405029,-0.09375,0.494507,up
289517,4.726562,5.667969,6.070312,-0.216797,-0.242187,1.615234,0.763306,0.405029,-0.09375,0.494507,up
289522,4.726562,5.515625,6.109375,-0.216797,-0.242187,1.615234,0.759583,0.404053,-0.098511,0.500122,up
289527,4.84375,5.4375,6.070312,-0.216797,-0.242187,1.615234,0.757446,0.403503,-0.101013,0.503235,up
289532,4.957031,5.398437,6.074219,-0.216797,-0.242187,1.615234,0.755676,0.403076,-0.103088,0.505798,up
289537,4.996094,5.285156,6.035156,-0.160156,-0.185547,1.648438,0.755676,0.403076,-0.103088,0.505798,up
289542,5.035156,5.207031,6.035156,-0.160156,-0.185547,1.648438,0.751709,0.402039,-0.107544,0.511597,up
289547,5.035156,5.054687,5.992187,-0.160156,-0.185547,1.648438,0.749573,0.40155,-0.109741,0.514587,up
289552,5.074219,4.976562,5.964844,-0.085937,-0.132812,1.669922,0.749573,0.40155,-0.109741,0.514587,up
289557,5.035156,4.902344,5.925781,-0.085937,-0.132812,1.669922,0.745239,0.400635,-0.113953,0.520691,up
289562,5.074219,4.863281,5.847656,-0.042969,-0.099609,1.681641,0.742981,0.400208,-0.115906,0.523804,up
289567,5.109375,4.863281,5.804687,-0.042969,-0.099609,1.681641,0.740967,0.39978,-0.117676,0.526611,up
289572,5.226562,4.632812,5.769531,0.003906,-0.066406,1.703125,0.738525,0.399353,-0.119629,0.529846,up
289577,5.265625,4.558594,5.691406,0.039063,-0.041016,1.689453,0.736145,0.398987,-0.121399,0.53302,up
289582,5.339844,4.441406,5.648437,0.070312,-0.007813,1.683594,0.736145,0.398987,-0.121399,0.53302,up
289587,5.339844,4.367187,5.652344,0.070312,-0.007813,1.683594,0.731506,0.398254,-0.124573,0.539185,up
289592,5.457031,4.328125,5.808594,0.177734,-0.013672,1.677734,0.731506,0.398254,-0.124573,0.539185,up
289597,5.570312,4.289062,5.882812,0.21875,0.013672,1.664063,0.729004,0.39801,-0.126099,0.542419,up
289602,5.648437,4.328125,5.886719,0.21875,0.013672,1.664063,0.724304,0.397766,-0.128662,0.548279,up
289607,5.648437,4.328125,5.886719,0.21875,0.013672,1.664063,0.724304,0.397766,-0.128662,0.548279,up
289612,5.761719,4.367187,5.925781,0.324219,0.033203,1.640625,0.724304,0.397766,-0.128662,0.548279,up
289618,5.761719,4.367187,5.925781,0.380859,0.035156,1.626953,0.716492,0.397949,-0.131897,0.557617,up
289623,5.800781,4.441406,5.925781,0.380859,0.035156,1.626953,0.716492,0.397949,-0.131897,0.557617,up
289628,5.648437,4.519531,5.765625,0.453125,0.052734,1.621094,0.713684,0.398132,-0.132812,0.560791,up
289634,5.492187,4.59375,5.691406,0.453125,0.052734,1.621094,0.707947,0.398621,-0.134644,0.567261,up
289639,5.378906,4.441406,5.609375,0.453125,0.052734,1.621094,0.705383,0.398804,-0.135498,0.570068,up
289645,5.417969,4.367187,5.652344,0.425781,0.046875,1.662109,0.705383,0.398804,-0.135498,0.570068,up
289650,5.417969,4.328125,5.726562,0.384766,0.060547,1.673828,0.705383,0.398804,-0.135498,0.570068,up
289655,5.226562,3.984375,5.960937,0.341797,0.070312,1.681641,0.705383,0.398804,-0.135498,0.570068,up
289660,5.226562,3.789063,6.113281,0.310547,0.080078,1.6875,0.705383,0.398804,-0.135498,0.570068,up
289666,5.1875,3.636719,6.304687,0.308594,0.058594,1.699219,0.705383,0.398804,-0.135498,0.570068,up
289672,5.148437,3.214844,6.535156,0.304688,0.048828,1.712891,0.705383,0.398804,-0.135498,0.570068,up
289677,5.148437,3.214844,6.535156,0.345703,0.033203,1.757813,0.682922,0.398376,-0.144165,0.595154,up
289682,5.265625,3.023438,6.648437,0.345703,0.033203,1.757813,0.679871,0.398315,-0.145386,0.598389,up
289687,5.378906,2.871094,6.800781,0.345703,0.033203,1.757813,0.679871,0.398315,-0.145386,0.598389,up
289692,5.492187,2.679688,6.800781,0.378906,0.037109,1.761719,0.679871,0.398315,-0.145386,0.598389,up
289697,5.570312,2.566406,6.796875,0.431641,0.056641,1.726563,0.673889,0.398193,-0.147583,0.604614,up
289702,5.648437,2.488281,6.839844,0.431641,0.056641,1.726563,0.667786,0.398193,-0.149536,0.61084,up
289707,5.761719,2.335938,6.835937,0.431641,0.056641,1.726563,0.667786,0.398193,-0.149536,0.61084,up
289712,5.800781,2.296875,6.800781,0.431641,0.056641,1.726563,0.661621,0.39856,-0.151001,0.616943,up
289717,5.875,2.21875,6.917969,0.431641,0.056641,1.726563,0.661621,0.39856,-0.151001,0.616943,up
289722,5.953125,2.144531,6.917969,0.630859,0.064453,1.570313,0.661621,0.39856,-0.151001,0.616943,up
289727,5.953125,2.144531,6.917969,0.630859,0.064453,1.570313,0.655579,0.39917,-0.152161,0.622681,up
289732,6.070312,2.105469,6.878906,0.630859,0.064453,1.570313,0.655579,0.39917,-0.152161,0.622681,up
289737,6.070312,2.144531,6.992187,0.701172,0.074219,1.511719,0.649414,0.399963,-0.152893,0.628418,up
289742,6.070312,2.144531,6.992187,0.736328,0.050781,1.503906,0.646362,0.400452,-0.153198,0.631165,up
289747,5.953125,1.953125,6.957031,0.736328,0.050781,1.503906,0.643188,0.401001,-0.153442,0.633972,up
289752,6.03125,1.992188,6.957031,0.849609,-0.001953,1.486328,0.640076,0.401672,-0.153625,0.636658,up
289757,6.144531,2.027344,6.839844,0.849609,-0.001953,1.486328,0.633301,0.40332,-0.153931,0.642334,up
289762,6.144531,2.105469,6.800781,0.849609,-0.001953,1.486328,0.630249,0.404175,-0.153992,0.644775,up
289767,6.105469,1.953125,6.765625,0.849609,-0.001953,1.486328,0.626526,0.405334,-0.154053,0.647644,up
289772,5.992187,1.914063,6.769531,1.039063,-0.083984,1.486328,0.626526,0.405334,-0.154053,0.647644,up
289777,5.875,1.914063,6.726562,1.039063,-0.083984,1.486328,0.623108,0.406433,-0.153992,0.650269,up
289782,5.839844,1.914063,6.648437,1.205078,-0.109375,1.509766,0.623108,0.406433,-0.153992,0.650269,up
289787,5.761719,1.953125,6.53125,1.267578,-0.136719,1.523438,0.61615,0.408936,-0.153748,0.655396,up
289792,5.875,2.105469,6.53125,1.267578,-0.136719,1.523438,0.611816,0.410706,-0.153442,0.658386,up
289797,6.105469,2.335938,6.347656,1.267578,-0.136719,1.523438,0.608093,0.412231,-0.153076,0.66095,up
289802,6.105469,2.335938,6.347656,1.248047,-0.113281,1.470703,0.604248,0.413879,-0.152771,0.663574,up
289807,6.21875,2.335938,6.113281,1.248047,-0.113281,1.470703,0.600708,0.415283,-0.152405,0.665894,up
289812,6.257812,2.335938,6.152344,1.212891,-0.09375,1.447266,0.592896,0.418335,-0.151611,0.671204,up
289817,6.070312,2.027344,6.375,1.212891,-0.09375,1.447266,0.592896,0.418335,-0.151611,0.671204,up
289822,6.03125,1.953125,6.417969,1.128906,-0.130859,1.414063,0.589294,0.419678,-0.151306,0.673584,up
289827,5.992187,1.914063,6.417969,1.128906,-0.130859,1.414063,0.585693,0.421021,-0.151062,0.675903,up
289832,6.03125,1.875,6.378906,1.089844,-0.144531,1.429688,0.578308,0.423706,-0.150818,0.680664,up
289837,6.144531,1.761719,6.414062,1.089844,-0.144531,1.429688,0.574951,0.424744,-0.150879,0.6828,up
289842,6.375,1.570313,6.492187,1.089844,-0.144531,1.429688,0.574951,0.424744,-0.150879,0.6828,up
289847,6.453125,1.453125,6.535156,0.917969,-0.207031,1.541016,0.574951,0.424744,-0.150879,0.6828,up
289852,6.644531,1.414063,6.496094,0.917969,-0.207031,1.541016,0.567566,0.427002,-0.151489,0.687439,up
289857,6.644531,1.414063,6.496094,1.042969,-0.238281,1.580078,0.563599,0.428162,-0.151855,0.68988,up
289862,6.988281,1.1875,6.304687,1.042969,-0.238281,1.580078,0.560059,0.42926,-0.1521,0.692078,up
289867,6.988281,1.1875,6.304687,1.125,-0.269531,1.578125,0.555786,0.430725,-0.152283,0.69458,up
289872,7.257812,1.03125,6.152344,1.185547,-0.285156,1.585938,0.55188,0.432129,-0.152344,0.696777,up
289877,7.257812,1.03125,6.152344,1.185547,-0.285156,1.585938,0.55188,0.432129,-0.152344,0.696777,up
289882,7.292969,1.070313,6.074219,1.257813,-0.308594,1.587891,0.55188,0.432129,-0.152344,0.696777,up
289887,7.292969,1.070313,6.074219,1.501953,-0.216797,1.613281,0.538879,0.437256,-0.151917,0.703796,up
289893,7.289062,1.109375,5.191406,1.501953,-0.216797,1.613281,0.528992,0.441162,-0.150635,0.709167,up
289898,7.261719,1.339844,5.308594,1.501953,-0.216797,1.613281,0.524963,0.44281,-0.150085,0.711243,up
289903,7.023437,1.492188,5.730469,1.730469,-0.460937,1.675781,0.524963,0.44281,-0.150085,0.711243,up
289908,6.722656,1.1875,6.417969,1.730469,-0.460937,1.675781,0.514771,0.447632,-0.148804,0.715881,up
289913,6.527344,0.957031,6.53125,1.880859,-0.574219,1.751953,0.50885,0.450623,-0.148071,0.718384,up
289918,6.375,0.839844,6.574219,1.982422,-0.625,1.787109,0.503296,0.45343,-0.1474,0.720642,up
289924,6.375,0.765625,6.417969,1.982422,-0.625,1.787109,0.498047,0.456177,-0.146667,0.722717,up
289930,6.761719,0.878906,6.035156,1.982422,-0.625,1.787109,0.492187,0.459167,-0.145935,0.724976,up
289935,7.023437,0.957031,5.84375,1.986328,-0.695312,1.886719,0.492187,0.459167,-0.145935,0.724976,up
289940,7.261719,1.070313,5.539062,1.9375,-0.707031,1.896484,0.492187,0.459167,-0.145935,0.724976,up
289945,7.449219,1.414063,5.191406,1.873047,-0.683594,1.876953,0.492187,0.459167,-0.145935,0.724976,up
289950,7.449219,1.414063,5.191406,1.806641,-0.699219,1.851563,0.468384,0.470886,-0.143921,0.733582,up
289955,7.5625,1.683594,5.039062,1.806641,-0.699219,1.851563,0.468384,0.470886,-0.143921,0.733582,up
289960,7.945312,1.953125,4.808594,1.753906,-0.736328,1.796875,0.457031,0.476379,-0.143372,0.737305,up
289965,7.945312,1.953125,4.808594,1.753906,-0.736328,1.796875,0.457031,0.476379,-0.143372,0.737305,up
289970,8.292969,2.027344,4.964844,1.703125,-0.818359,1.640625,0.446533,0.481934,-0.142944,0.740173,up
289975,8.292969,1.761719,5.0,1.425781,-0.824219,1.453125,0.446533,0.481934,-0.142944,0.740173,up
289981,8.476563,1.644531,5.039062,1.425781,-0.824219,1.453125,0.437073,0.487122,-0.143005,0.742432,up
289987,8.859375,1.53125,4.964844,1.425781,-0.824219,1.453125,0.429016,0.491577,-0.14386,0.74408,up
289992,8.9375,1.378906,4.886719,1.425781,-0.824219,1.453125,0.429016,0.491577,-0.14386,0.74408,up
289997,9.054688,1.261719,4.734375,0.611328,-0.726562,1.15625,0.429016,0.491577,-0.14386,0.74408,up
290002,8.980469,1.1875,4.734375,0.611328,-0.726562,1.15625,0.422607,0.494751,-0.145935,0.745178,up
290007,9.058594,1.03125,4.808594,0.611328,-0.726562,1.15625,0.4198,0.496033,-0.147583,0.745605,up
290012,9.054688,0.917969,4.808594,0.046875,-0.664062,1.025391,0.415466,0.497803,-0.151123,0.746155,up
290017,9.019531,0.765625,4.734375,0.046875,-0.664062,1.025391,0.415466,0.497803,-0.151123,0.746155,up
290022,8.980469,0.804687,4.582031,0.058594,-0.533203,0.855469,0.413513,0.498535,-0.152893,0.746399,up
290028,8.976563,0.839844,4.542969,0.058594,-0.533203,0.855469,0.41156,0.499268,-0.15448,0.746643,up
290033,9.058594,0.6875,4.503906,0.070312,-0.515625,0.791016,0.41156,0.499268,-0.15448,0.746643,up
290038,9.097656,0.648437,4.464844,0.070312,-0.515625,0.791016,0.406128,0.501709,-0.158569,0.747131,up
290043,9.175781,0.648437,4.425781,0.287109,-0.505859,0.605469,0.406128,0.501709,-0.158569,0.747131,up
290048,9.210938,0.648437,4.425781,0.287109,-0.505859,0.605469,0.402832,0.503662,-0.159973,0.747314,up
290053,9.285156,0.765625,4.390625,0.287109,-0.505859,0.605469,0.402832,0.503662,-0.159973,0.747314,up
290058,9.359375,0.765625,4.351562,0.287109,-0.505859,0.605469,0.399414,0.506165,-0.1604,0.747375,up
290063,9.480469,0.839844,4.273437,0.287109,-0.505859,0.605469,0.399414,0.506165,-0.1604,0.747375,up
290068,9.398438,0.878906,4.273437,0.511719,-0.470703,0.341797,0.396545,0.508606,-0.160339,0.747253,up
290074,9.519531,0.839844,4.3125,0.511719,-0.470703,0.341797,0.395447,0.509644,-0.160278,0.747131,up
290079,9.554688,0.765625,4.351562,0.361328,-0.427734,0.177734,0.395447,0.509644,-0.160278,0.747131,up
290084,9.558594,0.726562,4.351562,0.308594,-0.417969,0.136719,0.393494,0.51178,-0.160278,0.746704,up
290090,9.476563,0.839844,4.351562,0.236328,-0.380859,0.085937,0.393494,0.51178,-0.160278,0.746704,up
290095,9.515625,0.839844,4.390625,0.1875,-0.378906,0.041016,0.393494,0.51178,-0.160278,0.746704,up
290101,9.554688,0.878906,4.390625,0.154297,-0.369141,-0.009766,0.393494,0.51178,-0.160278,0.746704,up
290107,9.554688,0.957031,4.234375,0.146484,-0.359375,-0.056641,0.393494,0.51178,-0.160278,0.746704,up
290113,9.558594,0.957031,4.160156,0.162109,-0.337891,-0.105469,0.391296,0.517029,-0.160278,0.744202,up
290118,9.59375,0.996094,4.082031,0.251953,-0.287109,-0.216797,0.391296,0.517029,-0.160278,0.744202,up
290123,9.632813,1.070313,4.082031,0.251953,-0.287109,-0.216797,0.391235,0.518738,-0.159424,0.743225,up
290129,9.632813,1.1875,4.042969,0.28125,-0.191406,-0.314453,0.391357,0.519531,-0.158752,0.742798,up
290134,9.59375,1.339844,4.003906,0.25,-0.134766,-0.375,0.391663,0.520325,-0.157837,0.74231,up
290139,9.554688,1.414063,4.003906,0.25,-0.134766,-0.375,0.392029,0.520813,-0.157166,0.741882,up
290144,9.515625,1.453125,3.96875,0.111328,-0.019531,-0.476562,0.392029,0.520813,-0.157166,0.741882,up
290150,9.402344,1.339844,4.082031,0.111328,-0.019531,-0.476562,0.392029,0.520813,-0.157166,0.741882,up
290157,9.324219,1.300781,4.121094,-0.058594,0.027344,-0.5625,0.392029,0.520813,-0.157166,0.741882,up
290162,9.175781,1.148438,4.234375,-0.125,0.035156,-0.597656,0.392029,0.520813,-0.157166,0.741882,up
290167,9.054688,1.148438,4.3125,-0.173828,0.029297,-0.611328,0.392029,0.520813,-0.157166,0.741882,up
290173,8.976563,1.070313,4.351562,-0.195312,-0.007813,-0.636719,0.392029,0.520813,-0.157166,0.741882,up
290179,8.632813,1.109375,4.425781,-0.195312,-0.007813,-0.636719,0.401428,0.521912,-0.152283,0.737061,up
290185,8.449219,1.070313,4.503906,-0.195312,-0.007813,-0.636719,0.402527,0.522217,-0.151794,0.736389,up
290192,8.410156,1.148438,4.542969,0.144531,-0.216797,-0.580078,0.402527,0.522217,-0.151794,0.736389,up
290197,8.40625,1.453125,4.390625,0.330078,-0.289063,-0.554687,0.402527,0.522217,-0.151794,0.736389,up
290203,8.480469,1.761719,4.273437,0.496094,-0.361328,-0.519531,0.404602,0.526367,-0.147766,0.733093,up
290208,8.59375,2.027344,4.234375,0.496094,-0.361328,-0.519531,0.404602,0.526367,-0.147766,0.733093,up
290213,8.714844,2.257813,4.121094,0.730469,-0.478516,-0.476562,0.404114,0.529968,-0.144775,0.731384,up
290218,9.019531,2.679688,3.851563,0.730469,-0.478516,-0.476562,0.403748,0.531738,-0.143311,0.730591,up
290223,9.054688,2.910156,3.738281,0.730469,-0.478516,-0.476562,0.403381,0.533569,-0.141724,0.729736,up
290228,9.097656,3.0625,3.660156,0.730469,-0.478516,-0.476562,0.403381,0.533569,-0.141724,0.729736,up
290233,9.28125,3.253906,3.46875,0.673828,-0.400391,-0.455078,0.403381,0.533569,-0.141724,0.729736,up
290238,9.242188,3.292969,3.394531,0.673828,-0.400391,-0.455078,0.403137,0.537903,-0.137695,0.727417,up
290243,9.214844,3.332031,3.277344,0.673828,-0.400391,-0.455078,0.403137,0.537903,-0.137695,0.727417,up
290248,9.214844,3.332031,3.277344,0.185547,-0.169922,-0.476562,0.403564,0.538696,-0.136841,0.726807,up
290253,9.214844,3.332031,3.277344,0.0,-0.117188,-0.480469,0.403564,0.538696,-0.136841,0.726807,up
290258,9.214844,3.332031,3.277344,-0.152344,-0.101563,-0.46875,0.405212,0.53949,-0.135803,0.725464,up
290263,9.09375,3.140625,3.777344,-0.152344,-0.101563,-0.46875,0.406311,0.539551,-0.135681,0.724854,up
290268,9.09375,3.140625,3.777344,-0.361328,-0.048828,-0.460937,0.407654,0.53949,-0.135681,0.724121,up
290273,8.710938,2.679688,4.082031,-0.390625,-0.054687,-0.439453,0.410156,0.539246,-0.135986,0.722839,up
290278,8.675781,2.566406,4.160156,-0.261719,-0.126953,-0.375,0.410156,0.539246,-0.135986,0.722839,up
290283,8.675781,2.566406,4.160156,-0.261719,-0.126953,-0.375,0.41217,0.539368,-0.13623,0.721558,up
290288,8.675781,2.566406,4.195312,-0.261719,-0.126953,-0.375,0.412781,0.539734,-0.136169,0.720947,up
290293,8.714844,2.640625,4.234375,-0.261719,-0.126953,-0.375,0.412781,0.539734,-0.136169,0.720947,up
290298,8.75,2.757813,4.234375,0.267578,-0.294922,-0.179687,0.412781,0.539734,-0.136169,0.720947,up
290303,8.941406,2.988281,4.082031,0.267578,-0.294922,-0.179687,0.413147,0.541077,-0.135681,0.719849,up
