timestamp,ax,ay,az,gx,gy,gz,qw,qx,qy,qz,label
83242,-4.992187,7.03125,3.519531,0.414062,0.050781,0.263672,0.840393,0.431641,0.325745,0.036011,up
83247,-5.070312,7.109375,3.441406,0.414062,0.044922,0.246094,0.840393,0.431641,0.325745,0.036011,up
83252,-5.109375,7.183594,3.402344,0.417969,0.050781,0.242187,0.840393,0.431641,0.325745,0.036011,up
83258,-4.992187,7.183594,3.402344,0.419922,0.046875,0.234375,0.840393,0.431641,0.325745,0.036011,up
83263,-5.03125,7.21875,3.363281,0.423828,0.035156,0.226562,0.840393,0.431641,0.325745,0.036011,up
83269,-4.992187,7.257812,3.363281,0.423828,0.035156,0.226562,0.836792,0.439148,0.32489,0.037048,up
83274,-5.03125,7.300781,3.328125,0.423828,0.035156,0.226562,0.836792,0.439148,0.32489,0.037048,up
83279,-5.109375,7.335937,3.328125,0.402344,0.015625,0.199219,0.836792,0.439148,0.32489,0.037048,up
83285,-5.109375,7.453125,3.328125,0.376953,0.007813,0.1875,0.835388,0.442139,0.324463,0.037109,up
83290,-5.109375,7.492187,3.289063,0.376953,0.007813,0.1875,0.835388,0.442139,0.324463,0.037109,up
83295,-5.144531,7.492187,3.25,0.353516,-0.007813,0.177734,0.835388,0.442139,0.324463,0.037109,up
83300,-5.144531,7.492187,3.25,0.339844,-0.013672,0.181641,0.834534,0.44397,0.324158,0.037048,up
83305,-5.070312,7.601562,3.136719,0.320313,-0.011719,0.173828,0.834167,0.444885,0.323914,0.037048,up
83310,-5.070312,7.601562,3.136719,0.316406,-0.001953,0.167969,0.83374,0.445679,0.323792,0.037048,up
83315,-5.109375,7.535156,3.136719,0.316406,-0.001953,0.167969,0.833374,0.446472,0.323608,0.03717,up
83320,-5.109375,7.535156,3.136719,0.298828,0.007813,0.150391,0.833008,0.447266,0.323486,0.03717,up
83325,-5.144531,7.601562,3.058594,0.298828,0.007813,0.150391,0.832642,0.447998,0.323425,0.037109,up
83330,-5.144531,7.601562,3.058594,0.298828,0.007813,0.150391,0.831909,0.449524,0.323242,0.037109,up
83335,-5.070312,7.640625,3.058594,0.298828,0.007813,0.150391,0.831543,0.450256,0.323181,0.037048,up
83340,-4.992187,7.71875,3.058594,0.298828,0.007813,0.150391,0.831116,0.45105,0.323181,0.036987,up
83345,-4.953125,7.800781,3.019531,0.298828,0.007813,0.150391,0.831116,0.45105,0.323181,0.036987,up
83350,-4.914062,7.878906,2.980469,0.34375,0.056641,0.113281,0.831116,0.45105,0.323181,0.036987,up
83355,-4.914062,7.878906,2.945313,0.34375,0.056641,0.113281,0.829773,0.453491,0.323242,0.036804,up
83360,-4.914062,7.878906,2.945313,0.34375,0.056641,0.113281,0.829346,0.454285,0.323242,0.036804,up
83365,-4.914062,7.914062,2.867188,0.34375,0.056641,0.113281,0.829346,0.454285,0.323242,0.036804,up
83370,-4.914062,7.988281,2.867188,0.345703,0.056641,0.152344,0.829346,0.454285,0.323242,0.036804,up
83375,-4.992187,8.027344,2.945313,0.345703,0.056641,0.152344,0.828369,0.455994,0.323242,0.036804,up
83381,-4.992187,7.988281,2.90625,0.34375,0.048828,0.183594,0.827454,0.457825,0.32312,0.036865,up
83386,-5.03125,7.984375,2.945313,0.355469,0.046875,0.199219,0.826904,0.458801,0.323059,0.036926,up
83391,-5.070312,7.988281,2.980469,0.355469,0.046875,0.199219,0.826416,0.459778,0.322937,0.036987,up
83396,-5.070312,7.953125,2.945313,0.355469,0.046875,0.199219,0.825989,0.460632,0.322815,0.037048,up
83401,-5.070312,7.914062,2.945313,0.363281,0.037109,0.197266,0.825439,0.461731,0.322693,0.03717,up
83406,-5.070312,7.914062,2.945313,0.363281,0.037109,0.197266,0.825012,0.462524,0.322571,0.037292,up
83411,-5.070312,7.917969,3.058594,0.363281,0.037109,0.197266,0.824463,0.463562,0.322449,0.037354,up
83417,-5.03125,7.875,3.058594,0.363281,0.037109,0.197266,0.824036,0.464417,0.322327,0.037476,up
83422,-5.03125,7.839844,2.980469,0.398438,-0.007813,0.193359,0.823486,0.465515,0.322083,0.037476,up
83428,-4.992187,7.800781,2.867188,0.412109,-0.019531,0.205078,0.823486,0.465515,0.322083,0.037476,up
83434,-5.03125,7.875,2.867188,0.416016,-0.015625,0.203125,0.823486,0.465515,0.322083,0.037476,up
83439,-4.953125,7.875,2.867188,0.416016,-0.011719,0.203125,0.823486,0.465515,0.322083,0.037476,up
83444,-4.992187,7.914062,2.828125,0.431641,-0.001953,0.210937,0.823486,0.465515,0.322083,0.037476,up
83449,-4.953125,7.875,2.789063,0.431641,-0.001953,0.210937,0.823486,0.465515,0.322083,0.037476,up
83454,-4.953125,7.875,2.675781,0.431641,-0.001953,0.210937,0.820312,0.471985,0.320801,0.037354,up
83460,-5.03125,7.839844,2.714844,0.46875,-0.003906,0.193359,0.820312,0.471985,0.320801,0.037354,up
83466,-4.992187,7.875,2.675781,0.46875,-0.003906,0.193359,0.818604,0.475342,0.320313,0.03717,up
83471,-5.070312,7.917969,2.675781,0.480469,-0.007813,0.169922,0.817932,0.476562,0.320129,0.037048,up
83476,-5.070312,7.957031,2.675781,0.490234,-0.013672,0.162109,0.817383,0.477661,0.319946,0.036865,up
83481,-5.070312,8.066406,2.714844,0.490234,-0.013672,0.162109,0.81665,0.479004,0.319763,0.036682,up
83486,-5.144531,8.0625,2.714844,0.490234,-0.013672,0.162109,0.816101,0.480042,0.319641,0.036438,up
83491,-5.109375,8.0625,2.753906,0.498047,-0.019531,0.140625,0.815491,0.481323,0.319458,0.036194,up
83497,-5.109375,8.105469,2.789063,0.498047,-0.019531,0.140625,0.81488,0.482422,0.319275,0.03595,up
83502,-5.109375,8.144531,2.753906,0.498047,-0.019531,0.140625,0.81427,0.483643,0.319092,0.035645,up
83508,-5.144531,8.183594,2.753906,0.484375,-0.066406,0.144531,0.81427,0.483643,0.319092,0.035645,up
83513,-5.109375,8.257813,2.714844,0.480469,-0.087891,0.160156,0.81427,0.483643,0.319092,0.035645,up
83518,-5.03125,8.300781,2.714844,0.472656,-0.099609,0.160156,0.812561,0.487122,0.318237,0.03479,up
83523,-5.03125,8.367188,2.675781,0.476562,-0.117188,0.171875,0.812561,0.487122,0.318237,0.03479,up
83529,-5.03125,8.367188,2.675781,0.474609,-0.130859,0.193359,0.812561,0.487122,0.318237,0.03479,up
83534,-5.03125,8.371094,2.636719,0.482422,-0.146484,0.199219,0.812561,0.487122,0.318237,0.03479,up
83540,-4.953125,8.367188,2.558594,0.472656,-0.166016,0.216797,0.812561,0.487122,0.318237,0.03479,up
83546,-4.839844,8.371094,2.558594,0.466797,-0.1875,0.236328,0.812561,0.487122,0.318237,0.03479,up
83551,-4.878906,8.371094,2.558594,0.466797,-0.1875,0.236328,0.809021,0.495422,0.314514,0.033264,up
83556,-4.722656,8.371094,2.523438,0.466797,-0.1875,0.236328,0.809021,0.495422,0.314514,0.033264,up
83561,-4.6875,8.410156,2.558594,0.466797,-0.1875,0.236328,0.807983,0.497864,0.313354,0.032898,up
83566,-4.6875,8.445313,2.558594,0.466797,-0.1875,0.236328,0.807495,0.498962,0.312927,0.032715,up
83571,-4.570312,8.5625,2.558594,0.466797,-0.1875,0.236328,0.806763,0.500427,0.312439,0.032532,up
83576,-4.53125,8.644531,2.636719,0.466797,-0.1875,0.236328,0.806152,0.501648,0.312073,0.03241,up
83581,-4.53125,8.683594,2.597656,0.548828,-0.029297,0.238281,0.806152,0.501648,0.312073,0.03241,up
83586,-4.496094,8.679688,2.636719,0.548828,-0.029297,0.238281,0.804687,0.504456,0.311401,0.032288,up
83592,-4.496094,8.753906,2.675781,0.548828,-0.029297,0.238281,0.803955,0.505798,0.311157,0.032288,up
83597,-4.53125,8.871094,2.753906,0.548828,-0.029297,0.238281,0.803284,0.506897,0.310913,0.032349,up
83602,-4.570312,8.949219,2.753906,0.533203,0.029297,0.279297,0.803284,0.506897,0.310913,0.032349,up
83607,-4.570312,8.988281,2.789063,0.544922,0.025391,0.292969,0.803284,0.506897,0.310913,0.032349,up
83612,-4.609375,9.027344,2.753906,0.544922,0.025391,0.292969,0.801086,0.510864,0.31012,0.032776,up
83618,-4.648437,9.101563,2.714844,0.544922,0.025391,0.292969,0.800354,0.512268,0.309814,0.032959,up
83624,-4.6875,9.140625,2.714844,0.527344,0.0,0.339844,0.800354,0.512268,0.309814,0.032959,up
83629,-4.570312,9.101563,2.675781,0.527344,-0.023437,0.339844,0.800354,0.512268,0.309814,0.032959,up
83635,-4.609375,9.101563,2.714844,0.542969,-0.0625,0.359375,0.800354,0.512268,0.309814,0.032959,up
83640,-4.570312,9.140625,2.636719,0.560547,-0.123047,0.380859,0.800354,0.512268,0.309814,0.032959,up
83645,-4.496094,9.140625,2.597656,0.560547,-0.123047,0.380859,0.796814,0.519165,0.307373,0.033752,up
83651,-4.457031,9.140625,2.636719,0.560547,-0.123047,0.380859,0.79541,0.522217,0.305786,0.033936,up
83656,-4.457031,9.140625,2.597656,0.560547,-0.123047,0.380859,0.79541,0.522217,0.305786,0.033936,up
83661,-4.457031,9.214844,2.558594,0.533203,-0.263672,0.445312,0.79541,0.522217,0.305786,0.033936,up
83666,-4.417969,9.253906,2.523438,0.533203,-0.263672,0.445312,0.793701,0.526428,0.302856,0.03418,up
83671,-4.457031,9.371094,2.523438,0.476562,-0.349609,0.482422,0.793701,0.526428,0.302856,0.03418,up
83676,-4.417969,9.410156,2.484375,0.476562,-0.349609,0.482422,0.793152,0.528015,0.301453,0.034302,up
83681,-4.417969,9.410156,2.484375,0.441406,-0.400391,0.505859,0.792847,0.529175,0.300293,0.034363,up
83686,-4.417969,9.40625,2.332031,0.392578,-0.439453,0.529297,0.792847,0.529175,0.300293,0.034363,up
83691,-4.417969,9.40625,2.332031,0.359375,-0.480469,0.552734,0.792297,0.531738,0.297241,0.034607,up
83696,-4.304687,9.488281,2.253906,0.359375,-0.480469,0.552734,0.792175,0.532837,0.295532,0.03479,up
83701,-4.074219,9.558594,2.175781,0.261719,-0.537109,0.589844,0.792114,0.533875,0.293762,0.035034,up
83706,-3.84375,9.632813,2.332031,0.203125,-0.580078,0.617187,0.792236,0.535767,0.289856,0.035461,up
83711,-3.726563,9.636719,2.367188,0.203125,-0.580078,0.617187,0.792236,0.535767,0.289856,0.035461,up
83716,-3.765625,9.445313,2.253906,0.123047,-0.642578,0.623047,0.792236,0.535767,0.289856,0.035461,up
83721,-3.613281,9.066406,2.101563,0.123047,-0.642578,0.623047,0.792786,0.538269,0.28363,0.036133,up
83726,-3.5,8.949219,2.0625,0.123047,-0.642578,0.623047,0.792786,0.538269,0.28363,0.036133,up
83731,-3.460938,8.90625,2.0625,0.037109,-0.667969,0.578125,0.792786,0.538269,0.28363,0.036133,up
83736,-3.382813,8.71875,1.984375,0.037109,-0.667969,0.578125,0.793762,0.5401,0.277283,0.036682,up
83741,-3.382813,8.679688,1.910156,0.037109,-0.667969,0.578125,0.794067,0.540649,0.27533,0.036804,up
83746,-3.308594,8.679688,1.871094,0.037109,-0.667969,0.578125,0.794067,0.540649,0.27533,0.036804,up
83751,-3.269531,8.722656,1.910156,0.158203,-0.578125,0.472656,0.794067,0.540649,0.27533,0.036804,up
83756,-3.269531,8.75,1.871094,0.158203,-0.578125,0.472656,0.794434,0.541931,0.271667,0.036865,up
83761,-3.269531,8.828125,1.832031,0.212891,-0.541016,0.439453,0.794434,0.543579,0.268372,0.036743,up
83766,-3.308594,8.867188,1.871094,0.300781,-0.480469,0.417969,0.794434,0.543579,0.268372,0.036743,up
83771,-3.230469,8.910156,1.871094,0.300781,-0.480469,0.417969,0.794312,0.544556,0.266663,0.036682,up
83776,-3.269531,8.949219,1.910156,0.300781,-0.480469,0.417969,0.793945,0.546387,0.264099,0.036621,up
83781,-3.230469,8.945313,1.832031,0.300781,-0.480469,0.417969,0.793701,0.547424,0.262817,0.036621,up
83786,-3.308594,8.984375,1.871094,0.300781,-0.480469,0.417969,0.793701,0.547424,0.262817,0.036621,up
83791,-3.269531,9.105469,1.832031,0.34375,-0.320313,0.384766,0.793701,0.547424,0.262817,0.036621,up
83796,-3.230469,9.144531,1.871094,0.296875,-0.267578,0.404297,0.79303,0.549438,0.260498,0.036743,up
83801,-3.230469,9.144531,1.871094,0.296875,-0.267578,0.404297,0.792725,0.550415,0.259399,0.036926,up
83806,-3.230469,9.171875,1.910156,0.244141,-0.240234,0.412109,0.792236,0.552002,0.257385,0.037476,up
83811,-3.191406,9.144531,1.910156,0.244141,-0.240234,0.412109,0.792053,0.552612,0.25647,0.037903,up
83816,-3.117188,9.140625,1.871094,0.082031,-0.173828,0.482422,0.792053,0.552612,0.25647,0.037903,up
83821,-3.039063,9.140625,1.832031,0.082031,-0.173828,0.482422,0.791992,0.553223,0.255432,0.038452,up
83826,-2.960938,9.105469,1.832031,0.025391,-0.154297,0.505859,0.791992,0.553223,0.255432,0.038452,up
83831,-2.960938,9.023438,1.757813,0.025391,-0.154297,0.505859,0.79187,0.554138,0.253479,0.039856,up
83836,-2.886719,9.0625,1.757813,0.025391,-0.154297,0.505859,0.791931,0.554504,0.252441,0.040771,up
83841,-2.925781,9.105469,1.757813,-0.068359,-0.0625,0.580078,0.791931,0.554504,0.252441,0.040771,up
83846,-2.925781,9.105469,1.757813,-0.064453,-0.050781,0.587891,0.791992,0.555054,0.25061,0.042664,up
83852,-2.925781,9.066406,1.910156,-0.064453,-0.050781,0.587891,0.792053,0.555603,0.24884,0.044861,up
83857,-3.0,9.066406,1.910156,-0.060547,0.011719,0.595703,0.792053,0.555908,0.248108,0.045898,up
83862,-3.078125,9.0625,2.023438,-0.060547,0.011719,0.595703,0.791992,0.556213,0.247253,0.047241,up
83867,-3.078125,9.0625,1.984375,-0.060547,0.011719,0.595703,0.791931,0.556458,0.246643,0.048279,up
83872,-3.078125,9.101563,1.984375,-0.046875,0.09375,0.556641,0.79187,0.556763,0.245972,0.049622,up
83878,-3.117188,9.25,2.0625,-0.046875,0.09375,0.556641,0.791809,0.557007,0.245483,0.05072,up
83883,-3.152344,9.289063,2.101563,-0.046875,0.09375,0.556641,0.791687,0.557251,0.244995,0.052002,up
83889,-3.152344,9.527344,2.140625,-0.046875,0.09375,0.556641,0.791687,0.557251,0.244995,0.052002,up
83894,-3.152344,9.632813,2.214844,-0.064453,0.144531,0.503906,0.791687,0.557251,0.244995,0.052002,up
83900,-3.152344,9.828125,2.101563,-0.078125,0.162109,0.490234,0.791687,0.557251,0.244995,0.052002,up
83905,-3.191406,9.910156,2.0625,-0.138672,0.191406,0.490234,0.791687,0.557251,0.244995,0.052002,up
83910,-3.230469,9.976563,2.023438,-0.222656,0.228516,0.496094,0.791687,0.557251,0.244995,0.052002,up
83916,-3.230469,10.015625,2.101563,-0.388672,0.277344,0.537109,0.791687,0.557251,0.244995,0.052002,up
83922,-3.230469,10.015625,2.101563,-0.388672,0.277344,0.537109,0.791992,0.556824,0.242432,0.062744,up
83927,-3.191406,10.054688,2.101563,-0.580078,0.367188,0.583984,0.79248,0.55603,0.242187,0.064819,up
83933,-3.191406,10.136719,2.101563,-0.580078,0.367188,0.583984,0.792908,0.555176,0.242065,0.066711,up
83938,-3.117188,10.136719,2.175781,-0.728516,0.423828,0.646484,0.792908,0.555176,0.242065,0.066711,up
83944,-3.0,10.09375,2.214844,-0.728516,0.423828,0.646484,0.792908,0.555176,0.242065,0.066711,up
83949,-2.886719,10.097656,2.292969,-0.820312,0.509766,0.71875,0.792908,0.555176,0.242065,0.066711,up
83955,-2.734375,10.253906,2.40625,-0.855469,0.552734,0.753906,0.792908,0.555176,0.242065,0.066711,up
83960,-2.734375,10.253906,2.40625,-0.863281,0.597656,0.820312,0.796204,0.549133,0.241394,0.079346,up
83965,-2.734375,10.253906,2.40625,-0.869141,0.662109,0.886719,0.796814,0.547852,0.241272,0.082397,up
83970,-2.65625,10.253906,2.484375,-0.869141,0.662109,0.886719,0.797363,0.546509,0.241272,0.085632,up
83975,-2.65625,10.214844,2.484375,-0.869141,0.662109,0.886719,0.797363,0.546509,0.241272,0.085632,up
83981,-2.65625,10.214844,2.484375,-0.953125,0.90625,1.085938,0.798401,0.543701,0.241394,0.09314,up
83986,-2.769531,9.976563,2.714844,-0.953125,0.90625,1.085938,0.799316,0.540833,0.241577,0.101318,up
83991,-2.886719,9.527344,3.097656,-0.953125,0.90625,1.085938,0.799316,0.540833,0.241577,0.101318,up
83996,-2.925781,9.40625,3.171875,-0.953125,0.90625,1.085938,0.799744,0.539307,0.241638,0.105469,up
84001,-2.960938,9.371094,3.289063,-1.080078,1.019531,1.140625,0.799744,0.539307,0.241638,0.105469,up
84006,-2.960938,9.332031,3.328125,-1.080078,1.019531,1.140625,0.80072,0.53595,0.242004,0.114258,up
84012,-3.0,9.328125,3.441406,-1.080078,1.019531,1.140625,0.801636,0.532349,0.242554,0.122925,up
84017,-3.0,9.289063,3.480469,-1.080078,1.019531,1.140625,0.801636,0.532349,0.242554,0.122925,up
84023,-3.0,9.328125,3.554688,-0.992187,1.0,1.072266,0.802307,0.529297,0.243042,0.130615,up
84029,-3.039063,9.371094,3.710938,-0.992187,1.0,1.072266,0.802551,0.527832,0.243286,0.134521,up
84034,-2.960938,9.445313,3.785156,-0.810547,0.869141,1.027344,0.802551,0.527832,0.243286,0.134521,up
84040,-2.925781,9.523438,3.941406,-0.734375,0.796875,1.001953,0.802551,0.527832,0.243286,0.134521,up
84046,-2.847656,9.90625,4.09375,-0.664062,0.740234,0.974609,0.802551,0.527832,0.243286,0.134521,up
84051,-2.769531,9.910156,4.132812,-0.628906,0.632812,0.892578,0.802551,0.527832,0.243286,0.134521,up
84056,-2.734375,9.910156,4.09375,-0.628906,0.632812,0.892578,0.802979,0.522583,0.243408,0.151306,up
84061,-2.503906,10.019531,4.09375,-0.626953,0.5625,0.847656,0.802979,0.522583,0.243408,0.151306,up
84066,-2.386719,10.058594,4.132812,-0.626953,0.5625,0.847656,0.803223,0.520691,0.242981,0.156921,up
84071,-2.3125,9.9375,4.132812,-0.626953,0.5625,0.847656,0.803528,0.519592,0.242615,0.159729,up
84077,-2.273438,9.871094,4.09375,-0.871094,0.353516,0.708984,0.803528,0.519592,0.242615,0.159729,up
84082,-2.234375,9.871094,3.902344,-0.871094,0.353516,0.708984,0.805054,0.515686,0.24115,0.166687,up
84087,-2.273438,9.710938,3.824219,-1.113281,0.337891,0.675781,0.805054,0.515686,0.24115,0.166687,up
84092,-2.234375,9.59375,3.824219,-1.113281,0.337891,0.675781,0.805969,0.513733,0.240479,0.169312,up
84097,-2.234375,9.554688,3.902344,-1.416016,0.3125,0.621094,0.805969,0.513733,0.240479,0.169312,up
84102,-2.121094,9.292969,4.054687,-1.416016,0.3125,0.621094,0.808167,0.509277,0.239014,0.174072,up
84107,-2.121094,9.292969,4.054687,-1.560547,0.298828,0.585937,0.80957,0.506714,0.238281,0.176392,up
84112,-2.15625,8.90625,4.015625,-1.560547,0.298828,0.585937,0.811157,0.503723,0.237427,0.178833,up
84117,-2.042969,8.183594,4.398437,-1.753906,0.232422,0.5,0.812927,0.500305,0.236511,0.181274,up
84122,-2.042969,8.183594,4.398437,-1.767578,0.181641,0.443359,0.814758,0.497009,0.235535,0.183472,up
84127,-2.042969,8.183594,4.398437,-1.767578,0.181641,0.443359,0.818542,0.490234,0.233643,0.187256,up
84132,-1.890625,8.027344,4.972656,-1.605469,0.070312,0.154297,0.818542,0.490234,0.233643,0.187256,up
84137,-1.851563,7.722656,5.164062,-1.605469,0.070312,0.154297,0.822144,0.483948,0.232056,0.189819,up
84142,-1.890625,7.71875,5.203125,-1.353516,-0.003906,-0.097656,0.822144,0.483948,0.232056,0.189819,up
84147,-1.890625,7.796875,5.128906,-1.353516,-0.003906,-0.097656,0.825623,0.478088,0.230896,0.190918,up
84152,-1.929688,7.953125,4.898437,-1.353516,-0.003906,-0.097656,0.825623,0.478088,0.230896,0.190918,up
84157,-1.929688,7.988281,4.859375,-1.353516,-0.003906,-0.097656,0.827271,0.475403,0.23053,0.190857,up
84162,-1.890625,7.988281,4.898437,-1.275391,-0.210937,-0.580078,0.827271,0.475403,0.23053,0.190857,up
84167,-1.964844,8.027344,4.859375,-1.275391,-0.210937,-0.580078,0.830872,0.469971,0.229797,0.189758,up
84172,-1.890625,8.140625,4.78125,-1.275391,-0.210937,-0.580078,0.834839,0.46405,0.229004,0.187805,up
84177,-1.890625,8.261719,4.742187,-1.275391,-0.210937,-0.580078,0.837158,0.460632,0.228516,0.186584,up
84182,-1.929688,8.222656,4.742187,-1.275391,-0.210937,-0.580078,0.837158,0.460632,0.228516,0.186584,up
84187,-1.929688,8.183594,4.667969,-1.898438,-0.443359,-0.96875,0.842957,0.451904,0.227051,0.183472,up
84192,-1.929688,8.027344,4.667969,-1.898438,-0.443359,-0.96875,0.846558,0.446411,0.225952,0.181641,up
84197,-1.929688,7.953125,4.742187,-1.898438,-0.443359,-0.96875,0.84967,0.441589,0.224976,0.180054,up
84202,-1.929688,7.914062,4.742187,-1.898438,-0.443359,-0.96875,0.84967,0.441589,0.224976,0.180054,up
84207,-1.929688,7.71875,4.898437,-2.669922,-0.679687,-1.240234,0.84967,0.441589,0.224976,0.180054,up
84212,-1.929688,7.601562,4.933594,-2.791016,-0.724609,-1.361328,0.8573,0.429565,0.222412,0.176147,up
84217,-1.964844,7.378906,5.050781,-2.787109,-0.736328,-1.410156,0.861633,0.422607,0.220947,0.173767,up
84222,-1.964844,7.378906,5.050781,-2.787109,-0.736328,-1.410156,0.865051,0.416992,0.219788,0.171753,up
84227,-2.003906,7.261719,5.164062,-2.748047,-0.738281,-1.455078,0.869019,0.410461,0.218506,0.16925,up
84232,-2.003906,7.261719,5.164062,-2.677734,-0.746094,-1.509766,0.872742,0.404175,0.217285,0.166748,up
84237,-2.121094,7.179687,5.242187,-2.677734,-0.746094,-1.509766,0.876343,0.39801,0.216125,0.164062,up
84242,-2.121094,7.179687,5.242187,-2.574219,-0.744141,-1.599609,0.883545,0.385498,0.213867,0.158264,up
84248,-2.3125,6.53125,5.472656,-2.574219,-0.744141,-1.599609,0.886902,0.379517,0.21283,0.155212,up
84253,-2.386719,6.414062,5.511719,-2.378906,-0.769531,-1.714844,0.890686,0.372742,0.21167,0.15155,up
84259,-2.425781,6.191406,5.585937,-2.378906,-0.769531,-1.714844,0.893494,0.367676,0.210815,0.14856,up
84265,-2.695313,5.613281,5.8125,-2.378906,-0.769531,-1.714844,0.896667,0.361816,0.209839,0.144897,up
84270,-2.734375,5.691406,6.121094,-2.175781,-0.808594,-1.904297,0.896667,0.361816,0.209839,0.144897,up
84275,-2.734375,5.921875,6.433594,-2.0625,-0.855469,-1.984375,0.896667,0.361816,0.209839,0.144897,up
84280,-2.769531,6.074219,6.507812,-1.921875,-0.863281,-2.056641,0.896667,0.361816,0.209839,0.144897,up
84285,-2.769531,6.074219,6.507812,-1.722656,-0.859375,-2.125,0.908203,0.340759,0.206543,0.128174,up
84290,-3.0,6.113281,6.472656,-1.722656,-0.859375,-2.125,0.908203,0.340759,0.206543,0.128174,up
84295,-3.0,6.074219,6.394531,-1.478516,-0.878906,-2.175781,0.912903,0.332336,0.205322,0.118225,up
84300,-3.0,6.074219,6.394531,-1.478516,-0.878906,-2.175781,0.912903,0.332336,0.205322,0.118225,up
84305,-3.230469,6.496094,6.121094,-1.013672,-0.880859,-2.183594,0.916687,0.32605,0.204285,0.107971,up
84311,-3.269531,6.648437,6.007812,-0.765625,-0.892578,-2.050781,0.916687,0.32605,0.204285,0.107971,up
84316,-3.34375,6.691406,5.894531,-0.673828,-0.890625,-1.929688,0.916687,0.32605,0.204285,0.107971,up
84322,-3.308594,6.574219,5.96875,-0.673828,-0.890625,-1.929688,0.921265,0.318726,0.202515,0.093079,up
84327,-3.308594,6.648437,6.121094,-0.59375,-0.884766,-1.515625,0.922607,0.316589,0.201721,0.088562,up
84332,-3.269531,6.652344,6.390625,-0.59375,-0.884766,-1.515625,0.924011,0.314453,0.200745,0.084229,up
84337,-3.308594,6.570312,6.316406,-0.59375,-0.884766,-1.515625,0.925171,0.312622,0.199707,0.080505,up
84342,-3.34375,6.414062,6.238281,-0.439453,-0.9375,-1.123047,0.925171,0.312622,0.199707,0.080505,up
84347,-3.34375,6.304687,6.3125,-0.439453,-0.9375,-1.123047,0.927307,0.309509,0.197205,0.07373,up
84353,-3.230469,6.113281,6.621094,-0.267578,-1.007813,-0.919922,0.928284,0.308228,0.19574,0.070557,up
84358,-3.191406,6.113281,6.695312,-0.267578,-1.007813,-0.919922,0.92981,0.306641,0.192627,0.065247,up
84363,-3.191406,6.074219,6.699219,-0.03125,-1.042969,-0.78125,0.930542,0.306213,0.190674,0.062317,up
84368,-3.117188,5.921875,6.582031,-0.03125,-1.042969,-0.78125,0.931152,0.306152,0.188782,0.059631,up
84373,-3.078125,5.921875,6.582031,-0.03125,-1.042969,-0.78125,0.93158,0.306396,0.187134,0.057373,up
84378,-3.078125,5.960937,6.511719,-0.03125,-1.042969,-0.78125,0.931946,0.306946,0.18512,0.05481,up
84383,-3.0,5.960937,6.511719,0.414062,-1.080078,-0.613281,0.932251,0.3078,0.182922,0.051941,up
84388,-2.925781,5.921875,6.394531,0.414062,-1.080078,-0.613281,0.932434,0.308594,0.181274,0.049927,up
84393,-2.769531,5.960937,6.234375,0.414062,-1.080078,-0.613281,0.932556,0.309875,0.179138,0.047241,up
84398,-2.734375,6.074219,6.085937,0.414062,-1.080078,-0.613281,0.932556,0.309875,0.179138,0.047241,up
84404,-2.65625,6.152344,6.046875,0.580078,-0.978516,-0.492187,0.932617,0.312317,0.17572,0.043152,up
84409,-2.578125,6.226562,5.929687,0.580078,-0.978516,-0.492187,0.932617,0.312317,0.17572,0.043152,up
84414,-2.578125,6.226562,5.929687,0.666016,-0.796875,-0.365234,0.932617,0.312317,0.17572,0.043152,up
84420,-2.347656,6.347656,5.855469,0.666016,-0.796875,-0.365234,0.93219,0.316711,0.171082,0.037598,up
84425,-2.273438,6.375,5.738281,0.628906,-0.652344,-0.289063,0.93219,0.316711,0.171082,0.037598,up
84431,-2.273438,6.414062,5.777344,0.589844,-0.578125,-0.244141,0.93219,0.316711,0.171082,0.037598,up
84436,-2.273438,6.34375,5.855469,0.539062,-0.505859,-0.216797,0.93219,0.316711,0.171082,0.037598,up
84441,-2.234375,6.347656,5.894531,0.486328,-0.4375,-0.185547,0.93219,0.316711,0.171082,0.037598,up
84447,-2.15625,6.308594,5.855469,0.439453,-0.371094,-0.160156,0.931152,0.323059,0.166016,0.031494,up
84452,-2.195313,6.265625,5.855469,0.357422,-0.25,-0.130859,0.930969,0.324036,0.165405,0.03064,up
84457,-2.15625,6.269531,5.929687,0.357422,-0.25,-0.130859,0.930725,0.325012,0.164917,0.029846,up
84462,-2.121094,6.308594,5.894531,0.302734,-0.152344,-0.097656,0.930542,0.325745,0.164551,0.029297,up
84467,-2.082031,6.304687,5.929687,0.302734,-0.152344,-0.097656,0.930359,0.326538,0.164307,0.028748,up
84472,-2.042969,6.34375,5.96875,0.302734,-0.152344,-0.097656,0.930176,0.327209,0.164124,0.02832,up
84477,-2.082031,6.34375,5.96875,0.238281,0.0,-0.039063,0.930176,0.327209,0.164124,0.02832,up
84482,-2.15625,6.347656,6.007812,0.238281,0.0,-0.039063,0.929749,0.32843,0.164001,0.02771,up
84487,-2.15625,6.375,5.96875,0.238281,0.0,-0.039063,0.929565,0.329041,0.164124,0.027588,up
84493,-2.15625,6.375,5.96875,0.208984,0.080078,0.019531,0.929565,0.329041,0.164124,0.027588,up
84498,-2.195313,6.453125,6.046875,0.208984,0.080078,0.019531,0.928833,0.330688,0.164673,0.027527,up
84504,-2.3125,6.457031,6.121094,0.208984,0.080078,0.019531,0.92865,0.331177,0.164856,0.027588,up
84509,-2.386719,6.378906,6.121094,0.171875,0.097656,0.037109,0.92865,0.331177,0.164856,0.027588,up
84514,-2.347656,6.457031,6.160156,0.152344,0.082031,0.041016,0.92865,0.331177,0.164856,0.027588,up
84520,-2.386719,6.535156,6.277344,0.152344,0.082031,0.041016,0.92804,0.332458,0.165527,0.027832,up
84525,-2.464844,6.574219,6.316406,0.111328,0.050781,0.019531,0.92804,0.332458,0.165527,0.027832,up
84531,-2.464844,6.53125,6.429687,0.09375,0.041016,0.011719,0.92804,0.332458,0.165527,0.027832,up
84537,-2.617188,6.457031,6.472656,0.041016,0.021484,0.005859,0.92804,0.332458,0.165527,0.027832,up
84542,-2.65625,6.457031,6.511719,0.041016,0.021484,0.005859,0.927612,0.333435,0.165894,0.027893,up
84548,-2.695313,6.496094,6.582031,0.0,0.017578,0.005859,0.927612,0.333496,0.166016,0.027954,up
84553,-2.847656,6.417969,6.695312,0.0,0.017578,0.005859,0.927612,0.333374,0.166138,0.028015,up
84559,-2.886719,6.417969,6.738281,0.0,0.017578,0.005859,0.927673,0.33313,0.166199,0.028015,up
84564,-2.886719,6.378906,6.777344,-0.183594,0.072266,-0.033203,0.927795,0.332703,0.166443,0.028076,up
84569,-2.925781,6.34375,6.734375,-0.183594,0.072266,-0.033203,0.927917,0.332336,0.166626,0.028137,up
84575,-2.886719,6.304687,6.816406,-0.183594,0.072266,-0.033203,0.92804,0.331848,0.166992,0.028198,up
84580,-2.886719,6.304687,6.816406,-0.248047,0.181641,-0.052734,0.92804,0.331848,0.166992,0.028198,up
84585,-2.886719,6.34375,6.777344,-0.259766,0.216797,-0.0625,0.92804,0.331848,0.166992,0.028198,up
84591,-2.808594,6.265625,6.8125,-0.259766,0.216797,-0.0625,0.928345,0.330078,0.168518,0.028625,up
84596,-2.769531,6.226562,6.855469,-0.3125,0.28125,-0.064453,0.928345,0.330078,0.168518,0.028625,up
84602,-2.734375,6.113281,6.890625,-0.332031,0.304688,-0.070312,0.928345,0.330078,0.168518,0.028625,up
84607,-2.695313,6.035156,6.8125,-0.34375,0.330078,-0.080078,0.928345,0.330078,0.168518,0.028625,up
84612,-2.695313,6.035156,6.851562,-0.34375,0.330078,-0.080078,0.928894,0.326965,0.17157,0.029419,up
84618,-2.65625,5.996094,6.855469,-0.355469,0.367188,-0.097656,0.928894,0.326965,0.17157,0.029419,up
84623,-2.539063,6.035156,6.890625,-0.359375,0.392578,-0.121094,0.928894,0.326965,0.17157,0.029419,up
84629,-2.578125,5.960937,7.039062,-0.359375,0.392578,-0.121094,0.929382,0.323364,0.175476,0.030212,up
84634,-2.539063,5.921875,6.964844,-0.443359,0.439453,-0.146484,0.929382,0.323364,0.175476,0.030212,up
84639,-2.539063,5.84375,7.0,-0.457031,0.441406,-0.152344,0.929382,0.323364,0.175476,0.030212,up
84644,-2.503906,5.84375,7.082031,-0.457031,0.441406,-0.152344,0.929871,0.320068,0.178833,0.030762,up
84649,-2.578125,5.730469,7.121094,-0.457031,0.441406,-0.152344,0.929993,0.318909,0.179993,0.031006,up
84655,-2.578125,5.769531,7.078125,-0.496094,0.451172,-0.138672,0.930176,0.317749,0.181152,0.03125,up
84660,-2.617188,5.730469,7.160156,-0.480469,0.439453,-0.138672,0.930176,0.317749,0.181152,0.03125,up
84665,-2.578125,5.730469,7.121094,-0.470703,0.427734,-0.138672,0.930176,0.317749,0.181152,0.03125,up
84670,-2.539063,5.730469,7.121094,-0.457031,0.402344,-0.148437,0.930176,0.317749,0.181152,0.03125,up
84675,-2.578125,5.730469,7.003906,-0.4375,0.382813,-0.167969,0.930176,0.317749,0.181152,0.03125,up
84680,-2.539063,5.769531,6.960937,-0.433594,0.349609,-0.185547,0.930176,0.317749,0.181152,0.03125,up
84687,-2.464844,5.769531,6.894531,-0.433594,0.349609,-0.185547,0.930176,0.317749,0.181152,0.03125,up
84693,-2.425781,5.769531,6.773437,-0.513672,0.269531,-0.240234,0.930176,0.317749,0.181152,0.03125,up
84698,-2.3125,5.804687,6.578125,-0.513672,0.269531,-0.240234,0.931702,0.308533,0.188965,0.031921,up
84703,-2.234375,5.804687,6.621094,-0.578125,0.257813,-0.265625,0.932373,0.305603,0.190552,0.031616,up
84708,-2.234375,5.804687,6.582031,-0.740234,0.253906,-0.277344,0.932373,0.305603,0.190552,0.031616,up
84713,-2.15625,5.613281,6.429687,-0.740234,0.253906,-0.277344,0.9328,0.303772,0.191345,0.031494,up
84718,-2.15625,5.539062,6.390625,-0.740234,0.253906,-0.277344,0.933777,0.299805,0.19281,0.031372,up
84723,-2.195313,5.5,6.3125,-0.740234,0.253906,-0.277344,0.934387,0.297302,0.193726,0.031433,up
84728,-2.3125,5.539062,6.238281,-0.740234,0.253906,-0.277344,0.934387,0.297302,0.193726,0.031433,up
84733,-2.386719,5.386719,6.316406,-1.125,0.392578,-0.265625,0.934387,0.297302,0.193726,0.031433,up
84739,-2.425781,5.347656,6.351562,-1.275391,0.486328,-0.302734,0.93573,0.291687,0.195801,0.03186,up
84744,-2.539063,5.191406,6.433594,-1.275391,0.486328,-0.302734,0.937073,0.285461,0.198303,0.032349,up
84749,-2.769531,5.117187,6.390625,-1.275391,0.486328,-0.302734,0.937927,0.281738,0.199768,0.032532,up
84754,-2.769531,5.191406,6.46875,-1.275391,0.486328,-0.302734,0.938599,0.278564,0.20105,0.032532,up
84759,-2.769531,5.15625,6.617187,-1.275391,0.486328,-0.302734,0.939392,0.274719,0.202454,0.032349,up
84764,-2.886719,4.964844,6.617187,-1.587891,0.453125,-0.714844,0.940369,0.270386,0.204041,0.03186,up
84770,-2.960938,4.847656,6.660156,-1.587891,0.453125,-0.714844,0.941162,0.266663,0.2052,0.031189,up
84775,-2.847656,4.886719,6.699219,-1.587891,0.453125,-0.714844,0.9422,0.262085,0.206543,0.030151,up
84780,-2.847656,4.695312,6.617187,-1.927734,0.279297,-1.085938,0.943298,0.257263,0.207764,0.02887,up
84786,-2.847656,4.542969,6.734375,-2.039063,0.248047,-1.189453,0.943298,0.257263,0.207764,0.02887,up
84791,-2.847656,4.425781,7.042969,-2.039063,0.248047,-1.189453,0.94574,0.246399,0.210144,0.025635,up
84796,-2.960938,4.351562,6.921875,-2.242188,0.177734,-1.347656,0.94574,0.246399,0.210144,0.025635,up
84801,-3.117188,4.3125,6.777344,-2.388672,0.181641,-1.382813,0.94574,0.246399,0.210144,0.025635,up
84806,-3.191406,4.160156,6.65625,-2.541016,0.191406,-1.400391,0.94574,0.246399,0.210144,0.025635,up
84811,-3.34375,4.351562,7.160156,-2.541016,0.191406,-1.400391,0.94574,0.246399,0.210144,0.025635,up
84817,-3.382813,4.425781,7.34375,-2.541016,0.191406,-1.400391,0.952637,0.213745,0.215759,0.016418,up
84822,-3.382813,4.425781,7.34375,-2.851563,0.214844,-1.392578,0.954041,0.206177,0.216858,0.014648,up
84827,-3.882813,3.8125,7.921875,-2.851563,0.214844,-1.392578,0.954041,0.206177,0.216858,0.014648,up
84833,-3.691406,2.972656,6.582031,-2.910156,0.21875,-1.357422,0.956787,0.190552,0.219238,0.011475,up
84838,-3.691406,2.972656,6.582031,-3.152344,0.328125,-1.460938,0.956787,0.190552,0.219238,0.011475,up
84843,-3.84375,3.777344,7.964844,-3.152344,0.328125,-1.460938,0.959351,0.174255,0.221863,0.008301,up
84848,-3.882813,3.238281,7.964844,-3.152344,0.328125,-1.460938,0.96051,0.165833,0.223328,0.00647,up
84853,-3.765625,3.164063,7.769531,-2.962891,0.408203,-1.769531,0.96051,0.165833,0.223328,0.00647,up
84858,-3.652344,3.507813,8.039063,-2.962891,0.408203,-1.769531,0.962585,0.148682,0.226624,0.002014,up
84863,-3.535156,3.429688,8.574219,-2.962891,0.408203,-1.769531,0.963379,0.140686,0.22821,-0.000549,up
84868,-3.535156,3.507813,8.382813,-3.001953,0.371094,-2.060547,0.964111,0.13324,0.229614,-0.003113,up
84873,-3.535156,3.621094,8.460938,-3.001953,0.371094,-2.060547,0.964905,0.124146,0.231323,-0.006409,up
84878,-3.535156,3.660156,8.726563,-3.056641,0.443359,-2.1875,0.965515,0.115784,0.23291,-0.009583,up
84884,-3.765625,3.316406,8.652344,-3.056641,0.443359,-2.1875,0.966431,0.099243,0.236328,-0.016052,up
84889,-3.84375,3.203125,8.460938,-3.117188,0.712891,-2.201172,0.966736,0.0896,0.23877,-0.019714,up
84894,-4.074219,2.855469,8.84375,-3.117188,0.712891,-2.201172,0.966797,0.080627,0.241394,-0.02301,up
84899,-4.304687,2.550781,8.992188,-3.117188,0.712891,-2.201172,0.966797,0.080627,0.241394,-0.02301,up
84904,-4.304687,2.550781,8.992188,-3.080078,1.015625,-2.109375,0.966736,0.072998,0.243896,-0.025757,up
84909,-4.53125,2.320313,9.226563,-3.080078,1.015625,-2.109375,0.966431,0.064331,0.247131,-0.028809,up
84914,-5.375,1.785156,9.996094,-2.824219,1.314453,-1.962891,0.966431,0.064331,0.247131,-0.028809,up
84919,-5.375,1.785156,9.996094,-2.607422,1.462891,-1.912109,0.96521,0.048462,0.254578,-0.034485,up
84925,-6.027344,1.132813,10.417969,-2.322266,1.570313,-1.910156,0.963318,0.0354,0.262817,-0.040344,up
84931,-6.753906,2.472656,10.984375,-2.322266,1.570313,-1.910156,0.963318,0.0354,0.262817,-0.040344,up
84936,-6.753906,2.472656,10.984375,-1.123047,1.636719,-2.091797,0.960876,0.025757,0.271484,-0.047791,up
84941,-7.519531,3.007813,10.761719,-1.123047,1.636719,-2.091797,0.959595,0.022278,0.275574,-0.052124,up
84947,-7.675781,3.621094,10.796875,-0.597656,1.535156,-2.355469,0.959595,0.022278,0.275574,-0.052124,up
84952,-7.597656,4.160156,10.601563,-0.597656,1.535156,-2.355469,0.956726,0.016418,0.283691,-0.062927,up
84957,-8.402344,4.734375,10.523438,-0.597656,1.535156,-2.355469,0.956726,0.016418,0.283691,-0.062927,up
84962,-8.671875,5.0,10.144531,-0.898437,1.404297,-2.720703,0.956726,0.016418,0.283691,-0.062927,up
84967,-8.898438,5.230469,10.296875,-1.210938,1.357422,-2.800781,0.956726,0.016418,0.283691,-0.062927,up
84972,-9.167969,5.0,10.070313,-1.210938,1.357422,-2.800781,0.956726,0.016418,0.283691,-0.062927,up
84977,-9.550781,4.582031,9.796875,-1.210938,1.357422,-2.800781,0.949097,-0.005127,0.301514,-0.091125,up
84983,-9.550781,4.582031,9.796875,-2.472656,1.433594,-2.871094,0.947327,-0.012146,0.305237,-0.096191,up
84988,-10.085938,3.46875,10.296875,-2.802734,1.417969,-2.861328,0.945435,-0.020081,0.309143,-0.100952,up
84993,-10.085938,3.46875,10.296875,-3.007813,1.464844,-2.849609,0.94342,-0.028625,0.313049,-0.105469,up
84999,-10.316406,2.359375,10.601563,-3.007813,1.464844,-2.849609,0.941162,-0.037842,0.317322,-0.109924,up
85004,-10.316406,2.359375,10.601563,-3.042969,1.609375,-2.740234,0.938843,-0.046814,0.321533,-0.114075,up
85009,-11.578125,0.941406,9.800781,-3.042969,1.609375,-2.740234,0.936279,-0.055664,0.32605,-0.118347,up
85014,-11.660156,0.789062,9.53125,-2.628906,1.779297,-2.673828,0.930908,-0.070862,0.334961,-0.126953,up
85019,-12.121094,0.828125,9.492188,-2.628906,1.779297,-2.673828,0.92804,-0.077271,0.339722,-0.131836,up
85024,-12.382813,2.242188,9.074219,-2.628906,1.779297,-2.673828,0.92511,-0.082275,0.344421,-0.136841,up
85029,-12.238281,2.703125,9.417969,-0.919922,1.992188,-2.376953,0.92511,-0.082275,0.344421,-0.136841,up
85034,-12.425781,3.277344,10.144531,-0.919922,1.992188,-2.376953,0.921997,-0.086609,0.349365,-0.142456,up
85039,-12.421875,3.699219,9.914063,-0.65625,1.851563,-1.90625,0.921997,-0.086609,0.349365,-0.142456,up
85044,-12.808594,2.894531,10.71875,-0.65625,1.851563,-1.90625,0.916931,-0.09198,0.357483,-0.15155,up
85049,-12.808594,2.894531,10.71875,-0.802734,1.71875,-1.576172,0.914612,-0.09436,0.361267,-0.15509,up
85054,-12.804688,2.128906,11.292969,-0.802734,1.71875,-1.576172,0.912354,-0.096924,0.365051,-0.157898,up
85059,-13.609375,1.628906,11.832031,-1.048828,1.246094,-0.732422,0.910461,-0.099487,0.368286,-0.159546,up
85064,-13.609375,1.628906,11.832031,-1.050781,0.988281,-0.208984,0.908997,-0.101868,0.371216,-0.159912,up
85069,-13.609375,1.628906,11.832031,-0.78125,0.451172,0.927734,0.908997,-0.101868,0.371216,-0.159912,up
85074,-14.296875,0.519531,11.066406,-0.78125,0.451172,0.927734,0.90741,-0.104919,0.376892,-0.15332,up
85079,-14.574219,0.136719,10.679688,-0.232422,0.132812,2.080078,0.90741,-0.104919,0.376892,-0.15332,up
85084,-15.0625,0.175781,9.953125,-0.232422,0.132812,2.080078,0.90863,-0.101807,0.378784,-0.143311,up
85089,-15.179688,0.328125,9.6875,0.197266,-0.074219,3.167969,0.90863,-0.101807,0.378784,-0.143311,up
85094,-15.683594,1.363281,8.691406,0.197266,-0.074219,3.167969,0.909668,-0.098816,0.379456,-0.13678,up
85099,-15.910156,1.210938,8.304688,0.197266,-0.074219,3.167969,0.912354,-0.090637,0.38031,-0.121216,up
85104,-15.828125,0.863281,7.695312,0.197266,-0.074219,3.167969,0.912354,-0.090637,0.38031,-0.121216,up
85109,-15.949219,0.902344,7.082031,0.384766,-0.195312,4.699219,0.915588,-0.07959,0.381348,-0.099731,up
85114,-15.488281,0.632812,6.773437,0.384766,-0.195312,4.699219,0.917053,-0.073792,0.382019,-0.087524,up
85119,-15.644531,0.597656,7.003906,0.384766,-0.195312,4.699219,0.917053,-0.073792,0.382019,-0.087524,up
85124,-15.566406,0.902344,6.351562,0.291016,-0.019531,6.855469,0.917053,-0.073792,0.382019,-0.087524,up
85130,-15.300781,1.324219,6.121094,0.291016,-0.019531,6.855469,0.920532,-0.05249,0.384949,-0.041687,up
85136,-15.261719,2.207031,5.433594,0.291016,-0.019531,6.855469,0.921021,-0.045044,0.385986,-0.025513,up
85141,-15.261719,2.207031,5.433594,0.291016,-0.019531,6.855469,0.921021,-0.045044,0.385986,-0.025513,up
85146,-15.261719,2.816406,5.28125,0.205078,0.240234,8.683594,0.920837,-0.027405,0.388672,0.013672,up
85151,-15.871094,3.164063,5.164062,0.205078,0.240234,8.683594,0.920837,-0.027405,0.388672,0.013672,up
85156,-15.871094,3.164063,5.164062,0.242187,0.447266,9.917969,0.919861,-0.017151,0.390198,0.036194,up
85162,-16.484375,4.425781,4.324219,0.322266,0.521484,10.521484,0.915649,0.004944,0.393005,0.084167,up
85167,-16.949219,4.351562,4.589844,0.453125,0.699219,11.744141,0.915649,0.004944,0.393005,0.084167,up
85173,-18.097656,4.503906,4.859375,0.453125,0.699219,11.744141,0.915649,0.004944,0.393005,0.084167,up
85179,-18.480469,4.65625,5.128906,0.5625,0.71875,13.003906,0.915649,0.004944,0.393005,0.084167,up
85184,-18.480469,4.65625,5.128906,0.539062,0.626953,13.605469,0.895569,0.057861,0.396118,0.194214,up
85189,-18.976562,5.117187,4.933594,0.544922,0.490234,14.117188,0.895569,0.057861,0.396118,0.194214,up
85194,-18.976562,5.117187,4.933594,0.498047,0.394531,14.599609,0.878235,0.088379,0.393799,0.256531,up
85199,-19.429687,4.65625,4.398437,0.498047,0.394531,14.599609,0.867371,0.104431,0.391113,0.28949,up
85204,-19.429687,4.65625,4.398437,0.273438,0.078125,15.519531,0.855591,0.119751,0.387451,0.321777,up
85210,-18.4375,2.625,4.246094,0.273438,0.078125,15.519531,0.842346,0.135315,0.382629,0.354553,up
85215,-17.824219,3.238281,4.324219,0.275391,-0.300781,16.345703,0.809021,0.169312,0.368958,0.42511,up
85220,-17.175781,3.890625,3.941406,0.275391,-0.300781,16.345703,0.793274,0.184021,0.362061,0.453613,up
85226,-15.140625,2.816406,4.742187,0.275391,-0.300781,16.345703,0.773743,0.201538,0.352783,0.486084,up
85231,-15.644531,1.554688,2.253906,1.330078,-2.314453,16.654297,0.753906,0.21991,0.342163,0.51593,up
85236,-15.484375,2.167969,4.898437,1.679688,-2.685547,16.664062,0.753906,0.21991,0.342163,0.51593,up
85242,-13.652344,2.972656,6.660156,1.962891,-2.794922,16.589844,0.753906,0.21991,0.342163,0.51593,up
85247,-14.226563,0.25,6.507812,2.6875,-2.867188,16.453125,0.753906,0.21991,0.342163,0.51593,up
85253,-13.804688,-1.742188,6.851562,2.976563,-3.238281,16.376953,0.753906,0.21991,0.342163,0.51593,up
85258,-12.652344,-1.703125,6.199219,3.375,-3.425781,16.294922,0.753906,0.21991,0.342163,0.51593,up
85264,-11.773438,-2.542969,5.511719,3.375,-3.425781,16.294922,0.753906,0.21991,0.342163,0.51593,up
85269,-11.234375,-3.464844,4.820312,5.078125,-4.123047,15.923828,0.753906,0.21991,0.342163,0.51593,up
85274,-10.3125,-4.0,2.558594,5.078125,-4.123047,15.923828,0.549744,0.397095,0.238159,0.695251,up
85279,-9.511719,-4.039062,1.71875,5.078125,-4.123047,15.923828,0.515869,0.423218,0.224792,0.710083,up
85284,-8.363281,-3.15625,1.257813,6.09375,-3.972656,14.847656,0.486816,0.444763,0.214233,0.720581,up
85289,-6.910156,-1.625,1.066406,6.09375,-3.972656,14.847656,0.45166,0.469421,0.202271,0.731262,up
85295,-4.375,0.789062,0.492187,6.644531,-2.326172,13.095703,0.419678,0.48999,0.192444,0.739441,up
85300,-4.375,0.789062,0.492187,7.171875,-1.390625,11.917969,0.358459,0.522949,0.180298,0.752014,up
85305,-1.238281,2.089844,2.171875,7.671875,-0.443359,10.640625,0.324646,0.537537,0.178467,0.757507,up
85310,2.246094,3.929688,5.046875,7.671875,-0.443359,10.640625,0.29425,0.548401,0.180054,0.76178,up
85315,3.207031,5.5,6.960937,7.671875,-0.443359,10.640625,0.269409,0.555298,0.18396,0.765015,up
85320,3.050781,7.953125,7.960937,7.671875,-0.443359,10.640625,0.243408,0.560486,0.190491,0.768311,up
85325,2.054688,9.714844,7.847656,7.035156,2.630859,5.621094,0.216492,0.563721,0.19873,0.771912,up
85330,0.371094,7.378906,7.042969,7.035156,2.630859,5.621094,0.195984,0.564514,0.205322,0.775085,up
85335,-0.394531,6.34375,6.851562,7.035156,2.630859,5.621094,0.182251,0.563965,0.20929,0.777771,up
85340,-0.703125,6.035156,6.777344,1.755859,1.992188,2.783203,0.170349,0.562622,0.211304,0.780884,up
85346,-0.777344,4.042969,7.617187,1.755859,1.992188,2.783203,0.163879,0.561035,0.210266,0.783691,up
85352,0.21875,1.210938,8.34375,1.755859,1.992188,2.783203,0.160034,0.559082,0.20636,0.786926,up
85357,0.90625,-0.015625,8.308594,-2.3125,1.078125,1.666016,0.160034,0.559082,0.20636,0.786926,up
85363,1.40625,-0.972656,8.648438,-3.113281,0.853516,1.566406,0.160034,0.559082,0.20636,0.786926,up
85368,1.824219,-2.085938,9.300781,-3.113281,0.853516,1.566406,0.160034,0.559082,0.20636,0.786926,up
85374,1.941406,-2.390625,9.570313,-3.113281,0.853516,1.566406,0.162659,0.550659,0.172974,0.800232,up
85380,1.980469,-2.621094,9.691406,-4.429687,0.355469,1.490234,0.162659,0.550659,0.172974,0.800232,up
85385,2.59375,-1.894531,9.152344,-4.429687,0.355469,1.490234,0.170898,0.545105,0.142151,0.80835,up
85390,2.898438,-1.28125,9.191406,-4.429687,0.355469,1.490234,0.172485,0.543213,0.133484,0.810791,up
85395,3.320313,-0.589844,8.886719,-1.291016,0.642578,1.029297,0.172485,0.543213,0.133484,0.810791,up
85400,3.550781,0.214844,8.421875,-1.291016,0.642578,1.029297,0.171387,0.540405,0.126465,0.814026,up
85406,3.933594,1.402344,8.382813,-1.291016,0.642578,1.029297,0.169189,0.539368,0.126953,0.815063,up
85411,4.355469,2.398438,8.152344,-1.291016,0.642578,1.029297,0.165894,0.538391,0.129822,0.815918,up
85416,4.546875,2.589844,8.042969,2.425781,1.023438,0.105469,0.165894,0.538391,0.129822,0.815918,up
85422,4.890625,3.238281,7.347656,2.556641,1.091797,-0.111328,0.165894,0.538391,0.129822,0.815918,up
85427,5.121094,3.621094,6.925781,2.160156,1.068359,-0.265625,0.165894,0.538391,0.129822,0.815918,up
85433,5.234375,3.777344,6.46875,1.300781,0.953125,-0.361328,0.165894,0.538391,0.129822,0.815918,up
85438,5.3125,4.003906,6.011719,1.300781,0.953125,-0.361328,0.152832,0.531982,0.152466,0.818787,up
85444,5.425781,3.46875,5.433594,1.300781,0.953125,-0.361328,0.155823,0.529419,0.151001,0.820129,up
85449,5.582031,2.933594,5.589844,1.300781,0.953125,-0.361328,0.155823,0.529419,0.151001,0.820129,up
85454,5.695312,2.320313,5.664062,-2.224609,-0.058594,-0.244141,0.162659,0.52771,0.142822,0.82135,up
85459,5.960937,1.628906,5.546875,-2.224609,-0.058594,-0.244141,0.162659,0.52771,0.142822,0.82135,up
85465,6.15625,1.402344,5.472656,-2.548828,-0.195312,-0.158203,0.162659,0.52771,0.142822,0.82135,up
85470,6.304687,1.324219,5.472656,-2.548828,-0.195312,-0.158203,0.174377,0.525574,0.127502,0.822876,up
85475,6.460937,2.242188,5.203125,-2.548828,-0.195312,-0.158203,0.174377,0.525574,0.127502,0.822876,up
85480,6.6875,2.433594,5.242187,-2.548828,-0.195312,-0.158203,0.178833,0.524353,0.122742,0.823425,up
85485,6.847656,2.550781,5.089844,0.427734,0.203125,-0.316406,0.178833,0.524353,0.122742,0.823425,up
85490,6.921875,2.894531,4.707031,0.427734,0.203125,-0.316406,0.179565,0.523926,0.12323,0.823425,up
85495,6.996094,4.082031,4.398437,1.183594,0.302734,-0.367188,0.179565,0.523926,0.12323,0.823425,up
85500,7.035156,4.503906,4.359375,1.900391,0.419922,-0.449219,0.178162,0.52356,0.128845,0.82312,up
85505,6.996094,5.0,4.132812,1.900391,0.419922,-0.449219,0.174927,0.523254,0.138245,0.82251,up
85511,7.113281,5.652344,3.746094,1.900391,0.419922,-0.449219,0.17334,0.522888,0.143494,0.822144,up
85517,7.035156,5.921875,3.441406,1.900391,0.419922,-0.449219,0.172424,0.522461,0.1474,0.821899,up
85522,6.996094,5.882812,3.25,0.763672,0.369141,-0.583984,0.172424,0.522461,0.1474,0.821899,up
85528,6.960937,5.882812,3.25,0.121094,0.277344,-0.560547,0.172424,0.522461,0.1474,0.821899,up
85533,7.113281,5.5,3.519531,0.121094,0.277344,-0.560547,0.174011,0.520508,0.152954,0.821838,up
85538,7.230469,5.421875,3.785156,-0.931641,0.097656,-0.503906,0.174011,0.520508,0.152954,0.821838,up
85543,7.308594,5.15625,3.902344,-1.271484,0.056641,-0.46875,0.174011,0.520508,0.152954,0.821838,up
85548,7.378906,4.847656,4.054687,-1.494141,0.021484,-0.429687,0.174011,0.520508,0.152954,0.821838,up
85553,7.496094,4.234375,4.246094,-1.494141,0.021484,-0.429687,0.174011,0.520508,0.152954,0.821838,up
85558,7.574219,4.003906,4.285156,-1.494141,0.021484,-0.429687,0.18689,0.516296,0.143433,0.823425,up
85564,7.535156,3.660156,4.359375,-1.416016,0.015625,-0.328125,0.18689,0.516296,0.143433,0.823425,up
85569,7.609375,3.316406,4.398437,-1.416016,0.015625,-0.328125,0.18689,0.516296,0.143433,0.823425,up
85574,7.613281,3.429688,4.4375,-1.416016,0.015625,-0.328125,0.19397,0.513855,0.137146,0.824341,up
85580,7.726562,3.621094,4.515625,0.162109,0.191406,-0.283203,0.19397,0.513855,0.137146,0.824341,up
85585,7.796875,4.082031,4.515625,0.162109,0.191406,-0.283203,0.195862,0.512451,0.138306,0.824524,up
85590,7.839844,4.273437,4.4375,0.574219,0.220703,-0.246094,0.195862,0.512451,0.138306,0.824524,up
85595,7.835937,4.464844,4.4375,0.574219,0.220703,-0.246094,0.195679,0.512146,0.140015,0.824524,up
85600,7.800781,4.617187,4.359375,0.619141,0.224609,-0.224609,0.195679,0.512146,0.140015,0.824524,up
85606,7.691406,4.847656,4.207031,0.619141,0.224609,-0.224609,0.194702,0.511414,0.144958,0.824341,up
85611,7.570312,5.0,4.132812,0.355469,0.201172,-0.197266,0.194519,0.511108,0.146362,0.824341,up
85616,7.492187,5.117187,4.054687,0.154297,0.185547,-0.1875,0.19458,0.510742,0.147339,0.824402,up
85621,7.375,5.078125,4.054687,-0.064453,0.140625,-0.171875,0.194824,0.510376,0.147766,0.824463,up
85626,7.347656,5.230469,4.132812,-0.064453,0.140625,-0.171875,0.195374,0.51001,0.147705,0.824585,up
85631,7.308594,5.15625,4.207031,-0.447266,0.037109,-0.142578,0.196228,0.509583,0.147217,0.824707,up
85636,7.378906,4.808594,4.246094,-0.447266,0.037109,-0.142578,0.197205,0.509216,0.146362,0.824829,up
85641,7.453125,4.542969,4.285156,-0.447266,0.037109,-0.142578,0.198242,0.508911,0.145325,0.825012,up
85646,7.535156,4.351562,4.359375,-0.777344,-0.035156,-0.144531,0.199646,0.508484,0.14386,0.825134,up
85651,7.652344,4.121094,4.515625,-0.791016,-0.027344,-0.162109,0.20105,0.508057,0.142395,0.825317,up
85657,7.691406,3.394531,4.589844,-0.791016,-0.027344,-0.162109,0.202209,0.507751,0.141296,0.825439,up
85662,7.691406,3.007813,4.707031,-0.791016,-0.027344,-0.162109,0.203491,0.507324,0.140198,0.825562,up
85667,7.6875,3.085938,4.742187,-0.451172,0.044922,-0.207031,0.203491,0.507324,0.140198,0.825562,up
85672,7.613281,3.164063,4.742187,-0.259766,0.089844,-0.201172,0.203491,0.507324,0.140198,0.825562,up
85677,7.609375,3.394531,4.707031,-0.259766,0.089844,-0.201172,0.203491,0.507324,0.140198,0.825562,up
85682,7.574219,3.585938,4.667969,0.111328,0.152344,-0.212891,0.203491,0.507324,0.140198,0.825562,up
85687,7.53125,3.851563,4.628906,0.25,0.167969,-0.224609,0.203491,0.507324,0.140198,0.825562,up
85692,7.453125,4.195312,4.589844,0.25,0.167969,-0.224609,0.203491,0.507324,0.140198,0.825562,up
85697,7.347656,4.390625,4.550781,0.25,0.167969,-0.224609,0.206787,0.505066,0.141296,0.825928,up
85703,7.304687,4.425781,4.550781,0.371094,0.195312,-0.224609,0.206787,0.505066,0.141296,0.825928,up
85709,7.269531,4.503906,4.398437,0.310547,0.181641,-0.232422,0.206787,0.505066,0.141296,0.825928,up
85714,7.269531,4.582031,4.398437,0.179687,0.160156,-0.230469,0.206787,0.505066,0.141296,0.825928,up
85719,7.265625,4.582031,4.4375,0.179687,0.160156,-0.230469,0.207214,0.503479,0.146301,0.825928,up
85725,7.308594,4.542969,4.398437,-0.347656,0.042969,-0.230469,0.207214,0.503479,0.146301,0.825928,up
85730,7.414062,4.390625,4.359375,-0.347656,0.042969,-0.230469,0.208557,0.502747,0.14624,0.82605,up
85735,7.414062,4.390625,4.359375,-0.587891,0.033203,-0.236328,0.209534,0.50238,0.145752,0.826111,up
85740,7.453125,4.351562,4.476562,-0.587891,0.033203,-0.236328,0.210815,0.501892,0.14502,0.826233,up
85745,7.492187,4.195312,4.476562,-0.587891,0.033203,-0.236328,0.212036,0.501404,0.144226,0.826355,up
85751,7.492187,4.082031,4.476562,-0.638672,0.060547,-0.275391,0.215027,0.500183,0.142334,0.82666,up
85756,7.457031,3.96875,4.550781,-0.570312,0.105469,-0.306641,0.215027,0.500183,0.142334,0.82666,up
85761,7.53125,3.890625,4.550781,-0.570312,0.105469,-0.306641,0.217651,0.49884,0.141052,0.826965,up
85767,7.457031,3.738281,4.78125,-0.570312,0.105469,-0.306641,0.218811,0.49823,0.140747,0.827087,up
85772,7.375,3.699219,4.550781,-0.289063,0.191406,-0.330078,0.219971,0.497437,0.140564,0.827271,up
85778,7.308594,3.699219,4.628906,-0.214844,0.212891,-0.330078,0.219971,0.497437,0.140564,0.827271,up
85783,7.34375,3.777344,4.742187,-0.142578,0.224609,-0.339844,0.221741,0.496094,0.140869,0.827576,up
85789,7.152344,3.96875,4.859375,-0.142578,0.224609,-0.339844,0.221741,0.496094,0.140869,0.827576,up
85794,6.996094,4.121094,4.898437,0.027344,0.226562,-0.326172,0.221741,0.496094,0.140869,0.827576,up
85799,6.996094,4.160156,4.859375,0.085937,0.228516,-0.322266,0.221741,0.496094,0.140869,0.827576,up
85805,6.882812,4.234375,4.972656,0.111328,0.212891,-0.3125,0.223938,0.491882,0.147339,0.828369,up
85810,6.925781,4.390625,5.011719,0.111328,0.212891,-0.3125,0.223938,0.491882,0.147339,0.828369,up
85815,6.925781,4.425781,4.972656,0.072266,0.117188,-0.28125,0.223938,0.491882,0.147339,0.828369,up
85820,6.960937,4.464844,4.933594,0.072266,0.117188,-0.28125,0.224548,0.490662,0.150024,0.828491,up
85826,7.035156,4.503906,4.933594,0.035156,0.082031,-0.263672,0.225342,0.489624,0.151978,0.828491,up
85831,7.070312,4.542969,4.933594,-0.089844,0.046875,-0.271484,0.225342,0.489624,0.151978,0.828491,up
85836,7.152344,4.503906,4.933594,-0.089844,0.046875,-0.271484,0.226562,0.48877,0.153137,0.82843,up
85841,7.1875,4.542969,4.898437,-0.089844,0.046875,-0.271484,0.227173,0.488342,0.153503,0.82843,up
85846,7.1875,4.542969,4.78125,-0.238281,0.044922,-0.267578,0.227966,0.487854,0.153748,0.828491,up
85851,7.230469,4.464844,4.820312,-0.261719,0.044922,-0.263672,0.227966,0.487854,0.153748,0.828491,up
85856,7.191406,4.425781,4.859375,-0.261719,0.044922,-0.263672,0.229553,0.486877,0.153931,0.828552,up
85861,7.152344,4.425781,4.820312,-0.261719,0.044922,-0.263672,0.230408,0.486389,0.153992,0.828613,up
85866,7.113281,4.351562,4.78125,-0.275391,0.082031,-0.310547,0.230408,0.486389,0.153992,0.828613,up
85871,7.03125,4.3125,4.820312,-0.275391,0.082031,-0.310547,0.2323,0.485229,0.154175,0.828735,up
85876,6.996094,4.3125,4.859375,-0.275391,0.082031,-0.310547,0.233093,0.48468,0.154358,0.828796,up
85881,6.964844,4.234375,4.933594,-0.230469,0.130859,-0.345703,0.23407,0.484009,0.154541,0.828857,up
85887,6.847656,4.234375,5.050781,-0.230469,0.130859,-0.345703,0.234924,0.483398,0.154846,0.828979,up
85892,6.882812,4.234375,5.128906,-0.195312,0.126953,-0.351563,0.234924,0.483398,0.154846,0.828979,up
85897,6.921875,4.273437,5.164062,-0.195312,0.126953,-0.351563,0.234924,0.483398,0.154846,0.828979,up
85902,6.804687,4.390625,5.050781,-0.138672,0.119141,-0.367188,0.234924,0.483398,0.154846,0.828979,up
85907,6.84375,4.425781,5.089844,-0.138672,0.130859,-0.373047,0.238403,0.481018,0.156189,0.829102,up
85912,6.84375,4.542969,5.203125,-0.138672,0.130859,-0.373047,0.238403,0.481018,0.156189,0.829102,up
85917,6.84375,4.542969,5.203125,-0.099609,0.126953,-0.378906,0.238403,0.481018,0.156189,0.829102,up
85922,6.769531,4.582031,5.050781,-0.099609,0.126953,-0.378906,0.238403,0.481018,0.156189,0.829102,up
85927,6.769531,4.582031,5.050781,-0.132812,0.126953,-0.375,0.238403,0.481018,0.156189,0.829102,up
85932,6.730469,4.695312,4.972656,-0.132812,0.126953,-0.375,0.238403,0.481018,0.156189,0.829102,up
