timestamp,ax,ay,az,gx,gy,gz,qw,qx,qy,qz,label
200738,1.136719,3.277344,8.847656,0.072266,-0.265625,-1.007813,0.942627,0.289978,-0.082153,-0.143799,up
200743,1.175781,3.238281,8.84375,0.263672,-0.550781,-1.199219,0.942627,0.289978,-0.082153,-0.143799,up
200748,1.25,3.277344,8.726563,0.263672,-0.550781,-1.199219,0.941345,0.290955,-0.082947,-0.149536,up
200754,1.328125,3.316406,8.765625,0.335938,-0.5625,-1.230469,0.939575,0.292725,-0.084045,-0.156372,up
200759,1.214844,3.355469,8.652344,0.335938,-0.5625,-1.230469,0.938599,0.293884,-0.084534,-0.159607,up
200764,1.136719,3.46875,8.503906,0.335938,-0.5625,-1.230469,0.937622,0.295227,-0.084961,-0.162598,up
200769,0.867187,3.660156,8.34375,0.335938,-0.5625,-1.230469,0.937622,0.295227,-0.084961,-0.162598,up
200774,0.832031,3.890625,8.34375,0.828125,-0.408203,-1.285156,0.935059,0.299438,-0.085632,-0.169189,up
200779,0.636719,4.3125,8.386719,0.828125,-0.408203,-1.285156,0.933594,0.302185,-0.085693,-0.172363,up
200784,0.636719,4.464844,8.386719,0.828125,-0.408203,-1.285156,0.933594,0.302185,-0.085693,-0.172363,up
200789,0.636719,4.65625,8.5,1.533203,0.0,-1.439453,0.933594,0.302185,-0.085693,-0.172363,up
200794,0.5625,4.734375,8.5,1.533203,0.0,-1.439453,0.928223,0.313293,-0.084717,-0.181763,up
200799,0.5625,4.886719,8.464844,1.533203,0.0,-1.439453,0.926392,0.317322,-0.083923,-0.184509,up
200804,0.140625,5.269531,8.265625,1.916016,0.404297,-1.523438,0.924133,0.322388,-0.082642,-0.187561,up
200809,-0.164062,5.421875,8.003906,1.916016,0.404297,-1.523438,0.921997,0.327209,-0.081421,-0.190247,up
200814,-0.359375,5.613281,7.804687,2.023438,0.542969,-1.53125,0.921997,0.327209,-0.081421,-0.190247,up
200820,-0.664062,5.386719,7.808594,2.023438,0.542969,-1.53125,0.917358,0.337585,-0.078308,-0.195679,up
200825,-0.664062,5.386719,7.808594,1.9375,0.630859,-1.552734,0.9151,0.342651,-0.076538,-0.198364,up
200830,-0.664062,5.386719,7.808594,1.884766,0.642578,-1.554688,0.9151,0.342651,-0.076538,-0.198364,up
200835,-1.277344,5.0,7.277344,1.884766,0.642578,-1.554688,0.912781,0.347595,-0.074768,-0.200989,up
200840,-1.277344,5.0,7.277344,1.867188,0.583984,-1.527344,0.9104,0.352539,-0.072876,-0.203735,up
200845,-1.316406,4.925781,7.078125,1.867188,0.583984,-1.527344,0.908081,0.3573,-0.071289,-0.20636,up
200850,-1.160156,4.808594,6.8125,1.955078,0.464844,-1.441406,0.903198,0.367249,-0.068604,-0.211426,up
200855,-1.085938,4.695312,6.773437,1.955078,0.464844,-1.441406,0.900574,0.372375,-0.067444,-0.213867,up
200861,-0.855469,4.503906,6.964844,1.955078,0.464844,-1.441406,0.897766,0.377991,-0.066345,-0.216248,up
200866,-0.664062,4.542969,6.925781,2.419922,0.486328,-1.333984,0.894897,0.383667,-0.065308,-0.218445,up
200871,-0.511719,4.695312,6.3125,2.419922,0.486328,-1.333984,0.894897,0.383667,-0.065308,-0.218445,up
200876,-0.472656,4.734375,6.199219,2.753906,0.712891,-1.365234,0.894897,0.383667,-0.065308,-0.218445,up
200882,-0.359375,4.808594,6.160156,2.933594,0.8125,-1.394531,0.894897,0.383667,-0.065308,-0.218445,up
200887,-0.128906,5.0,6.117187,3.111328,0.931641,-1.443359,0.894897,0.383667,-0.065308,-0.218445,up
200893,0.101563,5.652344,5.664062,3.111328,0.931641,-1.443359,0.894897,0.383667,-0.065308,-0.218445,up
200899,0.101563,5.992187,5.546875,3.345703,1.660156,-1.599609,0.894897,0.383667,-0.065308,-0.218445,up
200904,-0.011719,6.269531,5.320312,3.345703,1.660156,-1.599609,0.864319,0.443542,-0.048462,-0.232239,up
200909,-0.550781,7.03125,5.011719,3.345703,1.660156,-1.599609,0.864319,0.443542,-0.048462,-0.232239,up
200914,-0.550781,7.03125,5.011719,3.300781,2.248047,-1.728516,0.859863,0.452026,-0.044006,-0.233215,up
200919,-0.777344,7.414062,4.820312,3.300781,2.248047,-1.728516,0.855408,0.460449,-0.038879,-0.234009,up
200924,-2.234375,8.40625,3.554688,3.048828,2.78125,-1.853516,0.851013,0.468689,-0.032959,-0.234497,up
200929,-2.234375,8.40625,3.554688,2.861328,2.990234,-1.90625,0.846497,0.47699,-0.026184,-0.234924,up
200934,-3.117188,8.753906,3.289063,2.666016,3.107422,-1.927734,0.846497,0.47699,-0.026184,-0.234924,up
200939,-3.84375,9.253906,3.519531,2.335938,3.199219,-1.867188,0.846497,0.47699,-0.026184,-0.234924,up
200944,-5.183594,9.976563,2.828125,2.335938,3.199219,-1.867188,0.833618,0.499634,-0.003357,-0.235413,up
200949,-5.566406,9.9375,2.753906,1.978516,3.0,-1.666016,0.830078,0.505615,0.003601,-0.235229,up
200954,-5.875,9.828125,3.210938,1.978516,3.0,-1.666016,0.826111,0.512085,0.011475,-0.234924,up
200960,-5.835937,10.058594,5.128906,1.728516,2.113281,-1.330078,0.822632,0.517517,0.018066,-0.234741,up
200965,-5.835937,10.058594,5.128906,1.59375,1.703125,-1.195313,0.816467,0.526733,0.028015,-0.234985,up
200970,-5.835937,10.058594,5.128906,1.59375,1.703125,-1.195313,0.816467,0.526733,0.028015,-0.234985,up
200975,-5.300781,9.976563,6.046875,1.480469,1.283203,-1.035156,0.816467,0.526733,0.028015,-0.234985,up
200980,-4.761719,10.9375,6.121094,1.326172,0.900391,-0.890625,0.811096,0.534058,0.034302,-0.236145,up
200985,-4.761719,10.9375,6.121094,1.326172,0.900391,-0.890625,0.811096,0.534058,0.034302,-0.236145,up
200990,-4.648437,11.785156,5.355469,1.0,0.275391,-0.761719,0.806885,0.539246,0.037415,-0.238098,up
200995,-4.609375,12.164063,5.164062,0.664062,-0.128906,-0.849609,0.806885,0.539246,0.037415,-0.238098,up
201000,-4.457031,12.625,4.972656,0.664062,-0.128906,-0.849609,0.802368,0.543518,0.039307,-0.243469,up
201006,-4.304687,13.085938,4.742187,0.664062,-0.128906,-0.849609,0.801086,0.544128,0.039917,-0.246094,up
201012,-4.226562,13.238281,4.589844,0.212891,-0.248047,-1.269531,0.801086,0.544128,0.039917,-0.246094,up
201019,-4.074219,13.355469,4.476562,0.212891,-0.248047,-1.269531,0.801086,0.544128,0.039917,-0.246094,up
201024,-4.074219,13.3125,4.515625,-0.181641,0.009766,-1.488281,0.801086,0.544128,0.039917,-0.246094,up
201029,-4.113281,13.3125,4.589844,-0.308594,0.199219,-1.556641,0.796875,0.542664,0.0495,-0.260803,up
201034,-4.417969,13.65625,4.859375,-0.308594,0.199219,-1.556641,0.796875,0.542664,0.0495,-0.260803,up
201039,-4.761719,14.0,4.898437,-0.326172,0.703125,-1.498047,0.796326,0.542114,0.052612,-0.263184,up
201044,-5.144531,14.425781,4.820312,-0.326172,0.703125,-1.498047,0.795593,0.541565,0.056519,-0.265564,up
201050,-5.875,15.082031,4.515625,-0.255859,0.751953,-1.373047,0.795593,0.541565,0.056519,-0.265564,up
201056,-6.410156,15.113281,4.167969,-0.255859,0.751953,-1.373047,0.793579,0.541077,0.066101,-0.270386,up
201061,-6.523437,15.230469,4.167969,-0.052734,0.392578,-0.908203,0.792908,0.541077,0.06842,-0.271667,up
201067,-6.601562,15.496094,4.207031,-0.017578,0.107422,-0.730469,0.792908,0.541077,0.06842,-0.271667,up
201072,-6.140625,15.769531,4.359375,-0.017578,0.107422,-0.730469,0.791992,0.540833,0.070862,-0.274414,up
201077,-5.835937,15.691406,4.359375,-0.169922,-0.419922,-0.443359,0.791992,0.540833,0.070862,-0.274414,up
201082,-5.527344,15.492188,4.359375,-0.302734,-0.625,-0.333984,0.791992,0.540833,0.070862,-0.274414,up
201087,-5.335937,15.113281,4.4375,-0.443359,-0.787109,-0.240234,0.791992,0.540833,0.070862,-0.274414,up
201093,-4.992187,14.347656,4.324219,-0.443359,-0.787109,-0.240234,0.791992,0.540833,0.070862,-0.274414,up
201098,-4.800781,14.078125,4.285156,-0.443359,-0.787109,-0.240234,0.793945,0.534546,0.067627,-0.281738,up
201104,-4.339844,13.695313,4.207031,-0.777344,-1.005859,-0.044922,0.793945,0.534546,0.067627,-0.281738,up
201110,-4.113281,13.394531,4.207031,-0.884766,-1.019531,0.023437,0.797668,0.527405,0.063416,-0.285522,up
201115,-3.921875,13.160156,4.359375,-0.984375,-0.972656,0.144531,0.799377,0.524475,0.061829,-0.286621,up
201120,-3.691406,12.667969,4.589844,-0.984375,-0.972656,0.144531,0.799377,0.524475,0.061829,-0.286621,up
201125,-3.691406,12.667969,4.589844,-0.839844,-0.845703,0.234375,0.802246,0.519592,0.059082,-0.287964,up
201131,-3.535156,11.96875,4.476562,-0.839844,-0.845703,0.234375,0.803467,0.517578,0.057678,-0.288452,up
201136,-3.460938,11.820313,4.515625,-0.501953,-0.767578,0.298828,0.803467,0.517578,0.057678,-0.288452,up
201142,-3.382813,11.667969,4.515625,-0.318359,-0.755859,0.330078,0.803467,0.517578,0.057678,-0.288452,up
201149,-3.191406,11.359375,4.515625,-0.318359,-0.755859,0.330078,0.803467,0.517578,0.057678,-0.288452,up
201154,-3.078125,11.285156,4.550781,-0.105469,-0.728516,0.386719,0.807129,0.512024,0.04895,-0.289795,up
201159,-2.960938,11.019531,4.515625,-0.105469,-0.728516,0.386719,0.807129,0.512024,0.04895,-0.289795,up
201164,-2.925781,10.898438,4.4375,-0.140625,-0.699219,0.482422,0.807129,0.512024,0.04895,-0.289795,up
201169,-2.925781,10.824219,4.246094,-0.140625,-0.699219,0.482422,0.808167,0.510742,0.044922,-0.289856,up
201175,-2.847656,10.710938,4.132812,-0.261719,-0.679687,0.5,0.809753,0.508667,0.041077,-0.289612,up
201181,-2.695313,10.171875,4.015625,-0.261719,-0.679687,0.5,0.810791,0.507263,0.039429,-0.289429,up
201186,-2.695313,10.171875,4.015625,-0.771484,-0.734375,0.558594,0.812073,0.505432,0.03772,-0.289185,up
201191,-2.695313,10.171875,4.015625,-0.949219,-0.742187,0.566406,0.812073,0.505432,0.03772,-0.289185,up
201196,-2.464844,9.714844,3.941406,-0.949219,-0.742187,0.566406,0.81366,0.503235,0.036133,-0.28894,up
201201,-2.347656,9.636719,3.941406,-1.121094,-0.746094,0.566406,0.81543,0.500549,0.034607,-0.288635,up
201206,-2.347656,9.636719,3.941406,-1.242188,-0.730469,0.552734,0.817383,0.497681,0.033264,-0.28833,up
201212,-2.082031,9.292969,4.015625,-1.328125,-0.712891,0.539062,0.821533,0.491272,0.030945,-0.287659,up
201217,-2.003906,8.945313,4.015625,-1.328125,-0.712891,0.539062,0.821533,0.491272,0.030945,-0.287659,up
201222,-1.964844,8.828125,4.09375,-1.449219,-0.625,0.470703,0.821533,0.491272,0.030945,-0.287659,up
201227,-1.890625,8.683594,4.167969,-1.466797,-0.605469,0.458984,0.821533,0.491272,0.030945,-0.287659,up
201232,-1.851563,8.605469,4.207031,-1.488281,-0.576172,0.429687,0.821533,0.491272,0.030945,-0.287659,up
201238,-1.8125,8.410156,4.398437,-1.488281,-0.576172,0.429687,0.821533,0.491272,0.030945,-0.287659,up
201244,-1.851563,8.296875,4.476562,-1.488281,-0.576172,0.429687,0.834473,0.470337,0.026367,-0.285889,up
201249,-1.851563,8.066406,4.4375,-1.455078,-0.478516,0.396484,0.836365,0.467224,0.02594,-0.285583,up
201255,-1.851563,7.988281,4.476562,-1.435547,-0.455078,0.382813,0.836365,0.467224,0.02594,-0.285583,up
201260,-1.8125,7.914062,4.476562,-1.435547,-0.455078,0.382813,0.842346,0.457031,0.024719,-0.284546,up
201265,-1.773438,7.839844,4.628906,-1.439453,-0.474609,0.382813,0.842346,0.457031,0.024719,-0.284546,up
201270,-1.699219,7.722656,4.707031,-1.439453,-0.474609,0.382813,0.846069,0.4505,0.023865,-0.283875,up
201275,-1.660156,7.71875,4.707031,-1.429688,-0.490234,0.365234,0.846069,0.4505,0.023865,-0.283875,up
201280,-1.660156,7.796875,4.742187,-1.429688,-0.490234,0.365234,0.849976,0.443542,0.022888,-0.283264,up
201285,-1.660156,7.878906,4.742187,-1.429688,-0.490234,0.365234,0.849976,0.443542,0.022888,-0.283264,up
201290,-1.660156,7.875,4.707031,-1.429688,-0.490234,0.365234,0.853577,0.437073,0.02179,-0.282715,up
201295,-1.699219,7.917969,4.667969,-1.429688,-0.490234,0.365234,0.853577,0.437073,0.02179,-0.282715,up
201300,-1.699219,8.0625,4.707031,-1.220703,-0.535156,0.386719,0.856689,0.431335,0.020386,-0.282166,up
201305,-1.738281,8.179688,4.707031,-1.085938,-0.572266,0.394531,0.856689,0.431335,0.020386,-0.282166,up
201310,-1.738281,8.300781,4.515625,-1.027344,-0.589844,0.408203,0.858154,0.428528,0.019531,-0.281921,up
201316,-1.773438,8.410156,4.476562,-1.027344,-0.589844,0.408203,0.861145,0.423096,0.017456,-0.281311,up
201321,-1.773438,8.753906,4.4375,-1.027344,-0.589844,0.408203,0.862488,0.420532,0.016174,-0.281006,up
201326,-1.699219,8.871094,4.476562,-1.027344,-0.589844,0.408203,0.862488,0.420532,0.016174,-0.281006,up
201331,-1.699219,8.871094,4.476562,-0.876953,-0.71875,0.496094,0.863647,0.418396,0.015015,-0.280762,up
201336,-1.660156,9.023438,4.4375,-0.847656,-0.734375,0.541016,0.863647,0.418396,0.015015,-0.280762,up
201341,-1.507813,9.210938,4.285156,-0.822266,-0.746094,0.595703,0.866211,0.413757,0.011841,-0.279846,up
201347,-1.507813,9.210938,4.285156,-0.822266,-0.783203,0.720703,0.866211,0.413757,0.011841,-0.279846,up
201354,-1.46875,9.332031,4.054687,-0.822266,-0.783203,0.720703,0.868835,0.40918,0.008301,-0.278564,up
201359,-1.546875,9.488281,3.976563,-0.751953,-0.744141,0.859375,0.868835,0.40918,0.008301,-0.278564,up
201364,-1.660156,9.675781,3.902344,-0.751953,-0.744141,0.859375,0.872925,0.402588,0.002441,-0.275452,up
201370,-1.660156,9.871094,3.824219,-0.458984,-0.626953,1.019531,0.872925,0.402588,0.002441,-0.275452,up
201375,-1.660156,10.210938,3.746094,-0.458984,-0.626953,1.019531,0.875427,0.39917,-0.001709,-0.272583,up
201381,-1.699219,10.476563,3.824219,-0.458984,-0.626953,1.019531,0.877502,0.39679,-0.00592,-0.269165,up
201386,-1.699219,10.476563,3.824219,-0.134766,-0.490234,1.123047,0.878479,0.395996,-0.008118,-0.267212,up
201391,-1.660156,10.714844,3.941406,-0.013672,-0.417969,1.136719,0.879333,0.395447,-0.010376,-0.265015,up
201397,-1.429688,11.097656,4.09375,-0.013672,-0.417969,1.136719,0.879944,0.395325,-0.012146,-0.263123,up
201402,-1.390625,11.246094,4.054687,0.177734,-0.238281,1.15625,0.879944,0.395325,-0.012146,-0.263123,up
201407,-1.277344,11.398438,4.054687,0.181641,-0.150391,1.173828,0.881165,0.39563,-0.015808,-0.258545,up
201413,-1.125,11.589844,4.09375,0.111328,-0.080078,1.183594,0.881165,0.39563,-0.015808,-0.258545,up
201419,-1.007813,11.707031,4.09375,-0.021484,-0.025391,1.207031,0.881165,0.39563,-0.015808,-0.258545,up
201425,-0.855469,11.703125,4.132812,-0.203125,0.007813,1.220703,0.881165,0.39563,-0.015808,-0.258545,up
201430,-0.394531,11.902344,4.09375,-0.427734,0.054687,1.257813,0.881165,0.39563,-0.015808,-0.258545,up
201435,-0.242187,11.929688,4.207031,-0.427734,0.054687,1.257813,0.885742,0.393555,-0.021667,-0.245056,up
201440,-0.089844,11.863281,4.398437,-1.121094,0.130859,1.367188,0.88739,0.391724,-0.022278,-0.241943,up
201445,0.101563,11.703125,4.550781,-1.121094,0.130859,1.367188,0.88916,0.389526,-0.022705,-0.238953,up
201451,0.101563,11.703125,4.550781,-1.503906,0.208984,1.462891,0.893188,0.384033,-0.023193,-0.232788,up
201456,0.140625,11.363281,4.78125,-1.632813,0.238281,1.515625,0.895874,0.380066,-0.023193,-0.228882,up
201462,0.101563,11.207031,5.128906,-1.632813,0.238281,1.515625,0.898071,0.376831,-0.023193,-0.225708,up
201467,0.140625,11.09375,5.242187,-1.746094,0.304688,1.572266,0.898071,0.376831,-0.023193,-0.225708,up
201472,0.0625,10.898438,5.28125,-1.746094,0.304688,1.572266,0.898071,0.376831,-0.023193,-0.225708,up
201477,-0.011719,10.785156,5.28125,-1.740234,0.345703,1.578125,0.898071,0.376831,-0.023193,-0.225708,up
201483,-0.011719,10.785156,5.28125,-1.714844,0.384766,1.570313,0.907898,0.361755,-0.022156,-0.210754,up
201488,-0.28125,10.398438,5.394531,-1.714844,0.384766,1.570313,0.907898,0.361755,-0.022156,-0.210754,up
201493,-0.320313,10.289063,5.625,-1.539063,0.484375,1.494141,0.910217,0.358093,-0.021729,-0.206909,up
201498,-0.320313,10.25,5.585937,-1.462891,0.529297,1.482422,0.910217,0.358093,-0.021729,-0.206909,up
201503,-0.472656,10.171875,5.511719,-1.404297,0.583984,1.453125,0.910217,0.358093,-0.021729,-0.206909,up
201508,-0.664062,9.941406,5.394531,-1.404297,0.583984,1.453125,0.910217,0.358093,-0.021729,-0.206909,up
201513,-0.742187,9.871094,5.28125,-1.357422,0.632812,1.431641,0.910217,0.358093,-0.021729,-0.206909,up
201518,-0.855469,9.789063,5.242187,-1.382813,0.638672,1.417969,0.910217,0.358093,-0.021729,-0.206909,up
201523,-0.933594,9.554688,5.242187,-1.382813,0.638672,1.417969,0.924011,0.33667,-0.016602,-0.180664,up
201528,-1.007813,9.253906,5.203125,-1.382813,0.638672,1.417969,0.924011,0.33667,-0.016602,-0.180664,up
201534,-1.007813,9.214844,5.164062,-1.599609,0.638672,1.486328,0.924011,0.33667,-0.016602,-0.180664,up
201539,-1.046875,9.140625,5.203125,-1.599609,0.638672,1.486328,0.930115,0.32605,-0.013794,-0.168518,up
201544,-1.046875,8.601563,5.128906,-1.599609,0.638672,1.486328,0.930115,0.32605,-0.013794,-0.168518,up
201549,-1.046875,8.339844,5.242187,-1.599609,0.638672,1.486328,0.934021,0.318726,-0.01178,-0.160767,up
201554,-1.046875,8.105469,5.28125,-1.828125,0.666016,1.523438,0.934021,0.318726,-0.01178,-0.160767,up
201559,-1.007813,7.917969,5.242187,-1.828125,0.666016,1.523438,0.93811,0.31073,-0.009705,-0.15271,up
201564,-1.007813,7.378906,5.242187,-1.828125,0.666016,1.523438,0.93811,0.31073,-0.009705,-0.15271,up
201569,-0.96875,7.152344,5.242187,-1.832031,0.712891,1.523438,0.93811,0.31073,-0.009705,-0.15271,up
201574,-0.933594,6.996094,5.203125,-1.822266,0.710937,1.539063,0.93811,0.31073,-0.009705,-0.15271,up
201579,-0.816406,6.574219,5.164062,-1.822266,0.710937,1.539063,0.93811,0.31073,-0.009705,-0.15271,up
201584,-0.816406,6.304687,5.203125,-1.822266,0.710937,1.539063,0.947693,0.290466,-0.003967,-0.132263,up
201590,-0.816406,6.304687,5.203125,-1.863281,0.701172,1.539063,0.949524,0.286316,-0.002869,-0.128113,up
201595,-0.703125,5.765625,5.472656,-1.865234,0.689453,1.548828,0.951294,0.282166,-0.00177,-0.124023,up
201600,-0.703125,5.765625,5.472656,-1.845703,0.708984,1.550781,0.953064,0.278076,-0.000671,-0.119934,up
201606,-0.625,5.386719,5.589844,-1.845703,0.708984,1.550781,0.954773,0.273804,0.000488,-0.115601,up
201611,-0.625,5.386719,5.589844,-1.710938,0.746094,1.5625,0.956421,0.269836,0.001709,-0.11145,up
201616,-0.585937,4.503906,5.929687,-1.695313,0.742187,1.550781,0.958008,0.26593,0.002869,-0.107239,up
201621,-0.585937,4.3125,5.972656,-1.695313,0.742187,1.550781,0.961243,0.25769,0.005371,-0.098145,up
201626,-0.550781,4.082031,5.972656,-1.695313,0.742187,1.550781,0.961243,0.25769,0.005371,-0.098145,up
201631,-0.511719,3.660156,5.851562,-1.644531,0.660156,1.53125,0.962646,0.253967,0.006409,-0.093994,up
201637,-0.433594,3.203125,5.773437,-1.644531,0.660156,1.53125,0.965149,0.247009,0.008179,-0.086304,up
201642,-0.433594,3.046875,5.738281,-1.582031,0.554687,1.513672,0.966431,0.243225,0.008911,-0.082153,up
201648,-0.394531,2.972656,5.738281,-1.537109,0.496094,1.519531,0.966431,0.243225,0.008911,-0.082153,up
201653,-0.320313,3.007813,5.738281,-1.537109,0.496094,1.519531,0.968811,0.236206,0.01001,-0.07428,up
201659,-0.242187,3.085938,5.707031,-1.433594,0.396484,1.494141,0.968811,0.236206,0.01001,-0.07428,up
201664,-0.203125,3.085938,5.707031,-1.361328,0.367188,1.474609,0.968811,0.236206,0.01001,-0.07428,up
201670,-0.128906,3.085938,5.625,-1.361328,0.367188,1.474609,0.968811,0.236206,0.01001,-0.07428,up
201675,-0.050781,3.085938,5.589844,-1.226563,0.322266,1.421875,0.968811,0.236206,0.01001,-0.07428,up
201680,0.027344,3.085938,5.546875,-1.195313,0.304688,1.365234,0.968811,0.236206,0.01001,-0.07428,up
201685,0.027344,3.046875,5.46875,-1.195313,0.304688,1.365234,0.974548,0.217957,0.011169,-0.051819,up
201690,0.027344,3.007813,5.390625,-1.195313,0.304688,1.365234,0.974548,0.217957,0.011169,-0.051819,up
201695,0.101563,2.933594,5.390625,-1.226563,0.291016,1.335938,0.974548,0.217957,0.011169,-0.051819,up
201700,0.101563,2.933594,5.390625,-1.357422,0.259766,1.345703,0.97699,0.208984,0.011414,-0.041443,up
201705,0.21875,2.894531,5.390625,-1.457031,0.269531,1.345703,0.97699,0.208984,0.011414,-0.041443,up
201710,0.140625,3.007813,5.433594,-1.552734,0.257813,1.373047,0.978699,0.202026,0.011536,-0.034485,up
201716,0.101563,3.007813,5.546875,-1.642578,0.242187,1.378906,0.98053,0.194031,0.011536,-0.027222,up
201721,-0.011719,3.316406,5.707031,-1.642578,0.242187,1.378906,0.981445,0.190002,0.011475,-0.023743,up
201726,-0.089844,3.429688,5.734375,-1.642578,0.242187,1.378906,0.982239,0.186096,0.011475,-0.020447,up
201731,-0.128906,3.546875,5.734375,-1.642578,0.242187,1.378906,0.982239,0.186096,0.011475,-0.020447,up
201736,-0.203125,3.585938,5.816406,-1.701172,0.251953,1.261719,0.982239,0.186096,0.011475,-0.020447,up
201741,-0.394531,3.585938,6.15625,-1.701172,0.251953,1.261719,0.984802,0.173157,0.011597,-0.01001,up
201746,-0.511719,3.585938,6.351562,-1.701172,0.251953,1.261719,0.984802,0.173157,0.011597,-0.01001,up
201751,-0.585937,3.621094,6.472656,-1.550781,0.296875,1.248047,0.984802,0.173157,0.011597,-0.01001,up
201757,-0.816406,3.777344,6.738281,-1.550781,0.296875,1.248047,0.986694,0.162048,0.012024,-0.000549,up
201763,-0.96875,4.003906,7.15625,-1.550781,0.296875,1.248047,0.987244,0.158875,0.012207,0.002502,up
201768,-1.046875,4.003906,7.347656,-1.332031,0.314453,1.34375,0.987732,0.155396,0.01239,0.006165,up
201773,-1.160156,3.890625,7.695312,-1.25,0.328125,1.382813,0.987732,0.155396,0.01239,0.006165,up
201779,-1.277344,3.929688,7.921875,-1.25,0.328125,1.382813,0.988586,0.149597,0.012756,0.013062,up
201784,-1.316406,3.851563,8.078125,-1.072266,0.359375,1.460938,0.988586,0.149597,0.012756,0.013062,up
201789,-1.429688,3.777344,8.152344,-0.986328,0.375,1.5,0.988586,0.149597,0.012756,0.013062,up
201794,-1.582031,3.738281,8.148438,-0.986328,0.375,1.5,0.989441,0.141968,0.01355,0.024902,up
201799,-1.8125,3.546875,8.113281,-0.986328,0.375,1.5,0.989441,0.141968,0.01355,0.024902,up
201804,-1.851563,3.429688,8.078125,-0.986328,0.375,1.5,0.989746,0.138245,0.013977,0.032471,up
201810,-1.851563,3.429688,8.078125,-0.714844,0.248047,1.572266,0.989868,0.136414,0.014038,0.03656,up
201815,-1.929688,3.238281,8.039063,-0.714844,0.248047,1.572266,0.989868,0.136414,0.014038,0.03656,up
201820,-1.929688,3.203125,8.039063,-0.576172,0.095703,1.550781,0.98999,0.133362,0.013611,0.044434,up
201825,-1.929688,3.203125,8.039063,-0.576172,0.095703,1.550781,0.98999,0.133362,0.013611,0.044434,up
201830,-1.851563,2.894531,7.925781,-0.478516,0.029297,1.525391,0.989929,0.131165,0.012573,0.052063,up
201836,-1.773438,2.78125,7.765625,-0.203125,-0.054687,1.443359,0.989624,0.130371,0.011108,0.059204,up
201841,-1.773438,2.703125,7.804687,-0.203125,-0.054687,1.443359,0.989624,0.130371,0.011108,0.059204,up
201846,-1.738281,2.625,7.65625,0.041016,-0.123047,1.361328,0.989624,0.130371,0.011108,0.059204,up
201851,-1.738281,2.664063,7.578125,0.136719,-0.140625,1.322266,0.988892,0.131348,0.008667,0.06897,up
201856,-1.738281,2.625,7.460937,0.136719,-0.140625,1.322266,0.988892,0.131348,0.008667,0.06897,up
201861,-1.773438,2.589844,7.34375,0.236328,-0.09375,1.25,0.988892,0.131348,0.008667,0.06897,up
201866,-1.660156,2.589844,7.238281,0.236328,-0.09375,1.25,0.987976,0.133362,0.006592,0.078247,up
201871,-1.699219,2.589844,7.15625,0.236328,-0.09375,1.25,0.98761,0.134033,0.005981,0.081238,up
201876,-1.738281,2.625,7.273437,0.236328,-0.09375,1.25,0.98761,0.134033,0.005981,0.081238,up
201881,-1.699219,2.398438,7.238281,0.128906,-0.021484,1.369141,0.98761,0.134033,0.005981,0.081238,up
201886,-1.851563,2.015625,7.0,0.128906,-0.021484,1.369141,0.986938,0.135132,0.004883,0.087708,up
201891,-1.929688,1.859375,7.042969,0.023437,-0.007813,1.556641,0.986938,0.135132,0.004883,0.087708,up
201896,-2.003906,1.785156,7.121094,0.023437,-0.007813,1.556641,0.986145,0.135681,0.003662,0.095337,up
201902,-1.964844,1.515625,7.273437,0.027344,-0.003906,1.732422,0.985779,0.135803,0.002991,0.099182,up
201907,-2.003906,1.09375,7.238281,0.027344,-0.003906,1.732422,0.984863,0.136108,0.00177,0.107178,up
201913,-2.003906,0.980469,7.15625,0.171875,-0.041016,1.839844,0.984314,0.136536,0.000977,0.111694,up
201919,-2.003906,0.902344,7.003906,0.279297,-0.064453,1.865234,0.984314,0.136536,0.000977,0.111694,up
201925,-2.003906,0.902344,6.964844,0.378906,-0.109375,1.855469,0.984314,0.136536,0.000977,0.111694,up
201930,-2.003906,0.902344,7.042969,0.507812,-0.173828,1.833984,0.984314,0.136536,0.000977,0.111694,up
201935,-1.929688,0.980469,7.121094,0.65625,-0.234375,1.787109,0.984314,0.136536,0.000977,0.111694,up
201940,-2.003906,1.054688,7.117187,0.65625,-0.234375,1.787109,0.984314,0.136536,0.000977,0.111694,up
201945,-2.003906,1.019531,7.082031,0.65625,-0.234375,1.787109,0.979675,0.145203,-0.004761,0.138367,up
201951,-2.003906,1.019531,7.082031,1.011719,-0.289063,1.605469,0.97876,0.147644,-0.005798,0.142151,up
201956,-2.003906,1.019531,7.082031,1.060547,-0.298828,1.544922,0.977905,0.150085,-0.006714,0.145569,up
201961,-2.003906,1.09375,7.003906,1.060547,-0.298828,1.544922,0.977905,0.150085,-0.006714,0.145569,up
201966,-2.003906,1.054688,6.925781,1.068359,-0.275391,1.503906,0.977905,0.150085,-0.006714,0.145569,up
201971,-2.003906,1.054688,6.925781,0.957031,-0.144531,1.470703,0.974915,0.158142,-0.009216,0.15625,up
201977,-1.773438,0.941406,7.082031,0.957031,-0.144531,1.470703,0.972961,0.162903,-0.010376,0.163391,up
201982,-1.699219,0.902344,7.039062,0.814453,0.0,1.5,0.971863,0.165283,-0.010864,0.167542,up
201987,-1.660156,0.902344,7.042969,0.814453,0.0,1.5,0.971008,0.166931,-0.011047,0.170654,up
201992,-1.507813,0.710937,6.921875,0.814453,0.0,1.5,0.969971,0.168823,-0.01123,0.174683,up
201998,-1.46875,0.597656,6.960937,0.814453,0.0,1.5,0.968994,0.170471,-0.01123,0.178467,up
202003,-1.351563,0.519531,7.042969,0.792969,0.228516,1.638672,0.968994,0.170471,-0.01123,0.178467,up
202008,-1.351563,0.519531,7.042969,0.873047,0.257813,1.648438,0.966797,0.174194,-0.010925,0.186584,up
202013,-1.351563,0.367188,7.003906,0.873047,0.257813,1.648438,0.965637,0.17627,-0.01062,0.190674,up
202018,-1.351563,0.289063,7.003906,1.080078,0.302734,1.65625,0.965637,0.17627,-0.01062,0.190674,up
202023,-1.316406,0.40625,7.0,1.236328,0.302734,1.646484,0.965637,0.17627,-0.01062,0.190674,up
202028,-1.316406,0.597656,7.082031,1.388672,0.287109,1.613281,0.965637,0.17627,-0.01062,0.190674,up
202033,-1.160156,0.902344,7.386719,1.388672,0.287109,1.613281,0.965637,0.17627,-0.01062,0.190674,up
202039,-1.007813,0.902344,7.304687,1.662109,0.242187,1.539063,0.965637,0.17627,-0.01062,0.190674,up
202045,-0.816406,0.902344,7.15625,1.765625,0.232422,1.490234,0.965637,0.17627,-0.01062,0.190674,up
202051,-0.359375,1.246094,6.921875,1.765625,0.232422,1.490234,0.9552,0.199768,-0.006653,0.218323,up
202056,-0.050781,1.476563,6.851562,1.890625,0.056641,1.371094,0.9552,0.199768,-0.006653,0.218323,up
202061,0.371094,2.128906,6.738281,1.890625,0.056641,1.371094,0.95166,0.208801,-0.005554,0.225281,up
202066,0.601562,2.359375,6.65625,1.890625,0.056641,1.371094,0.949829,0.213501,-0.005127,0.228638,up
202071,0.601562,2.359375,6.65625,1.890625,0.056641,1.371094,0.948181,0.217529,-0.004883,0.231506,up
202076,0.714844,2.625,6.617187,1.744141,-0.027344,1.269531,0.946411,0.221863,-0.004639,0.234558,up
202081,0.714844,2.625,6.617187,1.644531,-0.023437,1.220703,0.944763,0.225891,-0.004456,0.237488,up
202086,0.867187,3.238281,6.660156,1.644531,-0.023437,1.220703,0.944763,0.225891,-0.004456,0.237488,up
202091,0.867187,3.238281,6.660156,1.4375,0.037109,1.132813,0.941528,0.233276,-0.004028,0.243103,up
202097,0.792969,3.507813,6.773437,1.4375,0.037109,1.132813,0.93866,0.23938,-0.003357,0.248291,up
202102,0.636719,3.585938,6.925781,1.4375,0.037109,1.132813,0.937256,0.242004,-0.00293,0.250854,up
202108,0.601562,3.507813,7.199219,1.4375,0.037109,1.132813,0.936035,0.244202,-0.002319,0.253357,up
202113,0.601562,3.429688,7.386719,0.841797,0.386719,0.960937,0.936035,0.244202,-0.002319,0.253357,up
202118,0.601562,3.355469,7.582031,0.78125,0.451172,0.935547,0.933716,0.247864,-0.000793,0.258301,up
202124,0.832031,3.355469,7.847656,0.78125,0.451172,0.935547,0.932678,0.249329,0.000183,0.260681,up
202129,0.984375,3.203125,7.847656,0.771484,0.529297,0.882812,0.93158,0.250854,0.001282,0.263062,up
202135,1.058594,2.972656,7.882812,0.808594,0.535156,0.84375,0.93158,0.250854,0.001282,0.263062,up
202141,1.097656,3.277344,8.148438,0.808594,0.535156,0.84375,0.928223,0.256165,0.004822,0.269714,up
202146,1.175781,3.546875,8.304688,0.808594,0.535156,0.84375,0.928223,0.256165,0.004822,0.269714,up
202151,1.136719,3.738281,8.421875,1.273438,0.423828,0.753906,0.928223,0.256165,0.004822,0.269714,up
202156,1.023438,3.8125,8.535156,1.455078,0.398438,0.712891,0.924011,0.265076,0.008789,0.275513,up
202161,1.023438,3.96875,8.6875,1.455078,0.398438,0.712891,0.924011,0.265076,0.008789,0.275513,up
202166,0.90625,4.160156,8.84375,1.765625,0.332031,0.628906,0.924011,0.265076,0.008789,0.275513,up
202171,0.867187,4.3125,8.917969,1.888672,0.318359,0.591797,0.918945,0.277161,0.013367,0.280151,up
202176,0.601562,4.542969,9.074219,1.888672,0.318359,0.591797,0.918945,0.277161,0.013367,0.280151,up
202181,0.484375,4.65625,9.148438,1.888672,0.318359,0.591797,0.916992,0.282043,0.015259,0.281677,up
202187,0.445312,4.734375,9.152344,1.955078,0.341797,0.492187,0.916992,0.282043,0.015259,0.281677,up
202192,0.601562,4.808594,9.070313,1.955078,0.341797,0.492187,0.913452,0.290649,0.018677,0.28418,up
202197,0.601562,4.808594,9.070313,1.873047,0.314453,0.498047,0.911743,0.2948,0.020386,0.2854,up
202202,0.675781,4.734375,8.992188,1.773438,0.283203,0.513672,0.909973,0.298767,0.021851,0.286621,up
202207,0.753906,4.582031,8.730469,1.773438,0.283203,0.513672,0.908325,0.30249,0.023315,0.287903,up
202212,0.832031,4.425781,8.535156,1.773438,0.283203,0.513672,0.908325,0.30249,0.023315,0.287903,up
202217,0.867187,4.351562,8.5,1.697266,0.167969,0.621094,0.902954,0.314026,0.026794,0.292114,up
202222,0.867187,4.351562,8.382813,1.880859,0.087891,0.708984,0.902954,0.314026,0.026794,0.292114,up
202227,0.753906,4.390625,8.382813,1.880859,0.087891,0.708984,0.898926,0.32251,0.028687,0.295044,up
202233,0.484375,4.617187,8.386719,1.880859,0.087891,0.708984,0.896667,0.327393,0.029663,0.29657,up
202238,0.292969,4.695312,8.347656,2.361328,0.007813,0.71875,0.894287,0.332458,0.030701,0.298035,up
202243,0.0625,4.808594,8.308594,2.572266,0.003906,0.705078,0.894287,0.332458,0.030701,0.298035,up
202248,-0.050781,5.0,8.308594,2.751953,-0.017578,0.683594,0.888794,0.344177,0.033264,0.30072,up
202253,-0.164062,5.15625,8.34375,2.751953,-0.017578,0.683594,0.885864,0.350525,0.034668,0.30188,up
202258,-0.359375,5.15625,8.34375,2.974609,-0.041016,0.621094,0.882385,0.357971,0.036377,0.303162,up
202264,-0.742187,5.078125,8.152344,2.974609,-0.041016,0.621094,0.879578,0.363892,0.03772,0.304016,up
202269,-1.007813,5.078125,7.964844,2.974609,-0.041016,0.621094,0.876404,0.370605,0.039185,0.304932,up
202274,-1.160156,5.15625,7.886719,2.966797,-0.173828,0.568359,0.876404,0.370605,0.039185,0.304932,up
202279,-1.351563,5.421875,7.726562,2.945313,-0.246094,0.550781,0.876404,0.370605,0.039185,0.304932,up
202284,-1.699219,5.769531,7.308594,2.945313,-0.246094,0.550781,0.876404,0.370605,0.039185,0.304932,up
202289,-1.699219,5.769531,7.308594,2.757813,-0.466797,0.492187,0.876404,0.370605,0.039185,0.304932,up
202294,-1.699219,5.769531,7.308594,2.757813,-0.466797,0.492187,0.860535,0.403625,0.043945,0.307556,up
202299,-1.699219,5.921875,6.777344,2.609375,-0.710937,0.509766,0.857605,0.409851,0.044006,0.307678,up
202304,-1.738281,5.84375,6.433594,2.609375,-0.710937,0.509766,0.857605,0.409851,0.044006,0.307678,up
202309,-1.773438,5.84375,6.089844,2.597656,-0.863281,0.625,0.857605,0.409851,0.044006,0.307678,up
202314,-1.773438,5.886719,5.738281,2.640625,-0.917969,0.679687,0.857605,0.409851,0.044006,0.307678,up
202320,-1.890625,6.070312,5.089844,2.640625,-0.917969,0.679687,0.844849,0.435425,0.041931,0.308105,up
202325,-1.929688,6.148437,4.859375,2.902344,-1.019531,0.714844,0.844849,0.435425,0.041931,0.308105,up
202330,-1.964844,6.191406,4.667969,3.15625,-1.070313,0.705078,0.844849,0.435425,0.041931,0.308105,up
202335,-2.003906,6.230469,4.4375,3.427734,-1.101563,0.685547,0.844849,0.435425,0.041931,0.308105,up
202341,-1.964844,6.492187,3.976563,3.427734,-1.101563,0.685547,0.844849,0.435425,0.041931,0.308105,up
202346,-1.773438,6.730469,3.824219,3.855469,-1.142578,0.650391,0.844849,0.435425,0.041931,0.308105,up
202352,-1.46875,6.875,3.710938,3.869141,-1.193359,0.605469,0.844849,0.435425,0.041931,0.308105,up
202357,-1.007813,7.148437,3.328125,3.869141,-1.193359,0.605469,0.808167,0.501892,0.038452,0.305725,up
202362,-0.855469,7.453125,3.097656,3.869141,-1.193359,0.605469,0.808167,0.501892,0.038452,0.305725,up
202367,-0.703125,7.53125,2.867188,3.484375,-1.175781,0.546875,0.808167,0.501892,0.038452,0.305725,up
202372,-0.703125,7.53125,2.867188,3.484375,-1.175781,0.546875,0.798584,0.517944,0.037781,0.304321,up
202377,-0.433594,7.875,2.558594,3.484375,-1.175781,0.546875,0.798584,0.517944,0.037781,0.304321,up
202382,-0.394531,8.179688,2.523438,3.085938,-1.136719,0.533203,0.789246,0.532959,0.036682,0.302795,up
202387,-0.359375,8.222656,2.523438,2.884766,-1.119141,0.515625,0.784973,0.539673,0.036011,0.302002,up
202392,-0.511719,8.371094,2.523438,2.884766,-1.119141,0.515625,0.776917,0.552124,0.034424,0.300537,up
202397,-0.625,8.523438,2.523438,2.884766,-1.119141,0.515625,0.776917,0.552124,0.034424,0.300537,up
202402,-0.664062,8.683594,2.597656,2.382813,-1.025391,0.453125,0.776917,0.552124,0.034424,0.300537,up
202407,-0.625,8.828125,2.867188,2.382813,-1.025391,0.453125,0.76947,0.563354,0.032776,0.299072,up
202412,-0.203125,8.832031,3.171875,2.302734,-1.029297,0.449219,0.76947,0.563354,0.032776,0.299072,up
202417,-0.011719,8.753906,3.289063,2.087891,-1.019531,0.482422,0.762451,0.573792,0.030884,0.297485,up
202422,0.101563,8.484375,3.289063,2.087891,-1.019531,0.482422,0.758789,0.579041,0.029724,0.296692,up
202427,0.292969,8.140625,3.289063,1.855469,-1.054688,0.539062,0.755432,0.583862,0.028442,0.295959,up
202433,0.675781,7.640625,3.402344,1.75,-1.056641,0.560547,0.752625,0.587891,0.027222,0.295349,up
202438,0.867187,7.417969,3.402344,1.75,-1.056641,0.560547,0.746277,0.596741,0.023926,0.293945,up
202443,0.945312,7.257812,3.363281,1.75,-1.056641,0.560547,0.743774,0.60022,0.022461,0.293335,up
202448,0.90625,6.878906,3.25,1.75,-1.056641,0.560547,0.740479,0.604736,0.02063,0.292542,up
202453,1.023438,6.730469,3.171875,1.75,-1.056641,0.560547,0.740479,0.604736,0.02063,0.292542,up
202458,1.023438,6.730469,3.171875,1.929688,-1.175781,0.396484,0.737854,0.608337,0.019226,0.291748,up
202463,1.097656,6.613281,2.945313,1.929688,-1.175781,0.396484,0.737854,0.608337,0.019226,0.291748,up
202469,1.058594,6.839844,2.558594,2.123047,-1.244141,0.296875,0.731506,0.617126,0.016479,0.289429,up
202474,1.023438,7.179687,2.175781,2.349609,-1.320313,0.195312,0.723999,0.627686,0.014404,0.285767,up
202479,0.867187,7.875,1.601563,2.349609,-1.320313,0.195312,0.719788,0.633484,0.013611,0.283508,up
202485,0.832031,8.488281,1.144531,2.349609,-1.320313,0.195312,0.71521,0.639893,0.012939,0.280823,up
202491,0.984375,8.90625,0.875,3.060547,-1.599609,-0.212891,0.71521,0.639893,0.012939,0.280823,up
202496,1.25,9.25,0.644531,3.109375,-1.636719,-0.310547,0.71521,0.639893,0.012939,0.280823,up
202502,1.480469,9.789063,0.261719,3.087891,-1.683594,-0.390625,0.71521,0.639893,0.012939,0.280823,up
202507,1.519531,9.976563,-0.007813,3.039063,-1.697266,-0.464844,0.71521,0.639893,0.012939,0.280823,up
202512,1.558594,10.171875,-0.234375,2.847656,-1.724609,-0.53125,0.71521,0.639893,0.012939,0.280823,up
202518,1.632813,10.332031,-0.734375,2.675781,-1.744141,-0.53125,0.686951,0.678528,0.01123,0.259888,up
202523,1.671875,10.402344,-0.925781,2.675781,-1.744141,-0.53125,0.67804,0.690613,0.010376,0.251404,up
202528,1.710938,10.480469,-1.039063,2.675781,-1.744141,-0.53125,0.67804,0.690613,0.010376,0.251404,up
202533,1.710938,10.480469,-1.039063,2.240234,-1.787109,-0.476562,0.674744,0.695068,0.009705,0.247864,up
202538,1.710938,10.476563,-1.230469,2.009766,-1.759766,-0.451172,0.674744,0.695068,0.009705,0.247864,up
202543,1.824219,10.398438,-1.730469,1.8125,-1.730469,-0.423828,0.668274,0.704102,0.007751,0.240051,up
202548,1.824219,10.398438,-1.730469,1.642578,-1.708984,-0.394531,0.665527,0.707947,0.006653,0.236328,up
202553,1.941406,10.171875,-1.921875,1.474609,-1.662109,-0.369141,0.665527,0.707947,0.006653,0.236328,up
202559,2.054688,9.980469,-2.304688,1.474609,-1.662109,-0.369141,0.658081,0.718445,0.002991,0.225403,up
202565,2.054688,10.019531,-2.457031,1.533203,-1.59375,-0.417969,0.658081,0.718445,0.002991,0.225403,up
202571,1.980469,9.976563,-2.535156,1.626953,-1.582031,-0.453125,0.652954,0.725342,0.000916,0.21814,up
202576,1.941406,10.054688,-2.800781,1.626953,-1.582031,-0.453125,0.652954,0.725342,0.000916,0.21814,up
202581,1.824219,10.058594,-2.878906,1.892578,-1.544922,-0.566406,0.652954,0.725342,0.000916,0.21814,up
202586,1.75,10.097656,-2.917969,2.035156,-1.537109,-0.615234,0.652954,0.725342,0.000916,0.21814,up
202592,1.710938,10.058594,-3.109375,2.169922,-1.548828,-0.666016,0.636414,0.745239,-0.001282,0.199036,up
202597,1.710938,10.214844,-3.1875,2.169922,-1.548828,-0.666016,0.636414,0.745239,-0.001282,0.199036,up
202602,1.632813,10.359375,-3.222656,2.449219,-1.650391,-0.751953,0.636414,0.745239,-0.001282,0.199036,up
202608,1.632813,10.4375,-3.300781,2.494141,-1.693359,-0.742187,0.628113,0.754456,-0.001343,0.190491,up
202613,1.597656,10.554688,-3.453125,2.494141,-1.693359,-0.742187,0.619385,0.763733,-0.001587,0.181824,up
202618,1.597656,10.636719,-3.53125,2.488281,-1.765625,-0.685547,0.619385,0.763733,-0.001587,0.181824,up
202623,1.632813,10.714844,-3.722656,2.488281,-1.765625,-0.685547,0.610046,0.773376,-0.002197,0.172546,up
202628,1.632813,10.976563,-3.875,2.488281,-1.765625,-0.685547,0.605957,0.777405,-0.002686,0.168457,up
202633,1.632813,10.976563,-3.875,2.488281,-1.765625,-0.685547,0.605957,0.777405,-0.002686,0.168457,up
202638,1.710938,11.207031,-3.988281,2.292969,-1.865234,-0.552734,0.605957,0.777405,-0.002686,0.168457,up
202643,2.246094,11.78125,-3.722656,2.193359,-1.933594,-0.535156,0.597412,0.78595,-0.004333,0.159424,up
202648,2.246094,11.78125,-3.722656,2.082031,-1.964844,-0.537109,0.593384,0.789856,-0.005371,0.154846,up
202653,2.59375,12.089844,-3.453125,2.082031,-1.964844,-0.537109,0.585876,0.797241,-0.007324,0.145386,up
202658,2.667969,12.164063,-3.378906,2.082031,-1.964844,-0.537109,0.585876,0.797241,-0.007324,0.145386,up
202663,2.785156,12.246094,-3.453125,1.798828,-1.736328,-0.689453,0.585876,0.797241,-0.007324,0.145386,up
202668,2.707031,12.246094,-3.492188,1.611328,-1.501953,-0.835937,0.578979,0.803833,-0.008423,0.136414,up
202673,2.746094,12.207031,-3.492188,1.611328,-1.501953,-0.835937,0.572937,0.809509,-0.008423,0.127869,up
202678,2.785156,11.929688,-3.453125,1.611328,-1.501953,-0.835937,0.572937,0.809509,-0.008423,0.127869,up
202683,2.820313,11.785156,-3.453125,1.611328,-1.501953,-0.835937,0.568237,0.814148,-0.007813,0.119263,up
202688,2.746094,11.628906,-3.453125,1.611328,-1.501953,-0.835937,0.568237,0.814148,-0.007813,0.119263,up
202693,2.820313,11.476563,-3.492188,0.738281,-1.244141,-0.962891,0.565674,0.817078,-0.007019,0.111389,up
202698,2.707031,11.164063,-3.605469,0.738281,-1.244141,-0.962891,0.565674,0.817078,-0.007019,0.111389,up
202703,2.667969,11.09375,-3.644531,0.212891,-1.117188,-0.962891,0.565063,0.817932,-0.006592,0.107788,up
202708,2.628906,10.976563,-3.683594,0.132812,-1.113281,-0.957031,0.564697,0.818665,-0.006165,0.104004,up
202713,2.628906,10.976563,-3.683594,0.132812,-1.113281,-0.957031,0.564575,0.819702,-0.005371,0.096924,up
202718,2.4375,10.898438,-3.761719,0.132812,-1.113281,-0.957031,0.564514,0.820129,-0.004944,0.093262,up
202723,2.4375,10.976563,-3.835938,0.208984,-1.166016,-0.96875,0.564514,0.820129,-0.004944,0.093262,up
202728,2.363281,11.058594,-3.875,0.328125,-1.181641,-0.990234,0.564331,0.820679,-0.004517,0.089111,up
202733,2.363281,11.058594,-3.875,0.328125,-1.181641,-0.990234,0.564026,0.821289,-0.00415,0.085632,up
202738,2.09375,11.664063,-4.066406,0.478516,-1.205078,-1.019531,0.563416,0.822144,-0.003723,0.081726,up
202743,2.09375,11.664063,-4.066406,0.658203,-1.216797,-1.042969,0.562439,0.823181,-0.003174,0.07782,up
202748,2.054688,11.863281,-4.105469,0.658203,-1.216797,-1.042969,0.561096,0.824463,-0.002563,0.07373,up
202754,1.863281,12.429688,-4.335937,0.658203,-1.216797,-1.042969,0.557739,0.827454,-0.001038,0.065491,up
202760,1.824219,12.707031,-4.449219,0.658203,-1.216797,-1.042969,0.555908,0.828979,-6.1e-05,0.061462,up
202765,1.789063,12.738281,-4.566406,0.96875,-1.09375,-1.21875,0.555908,0.828979,-6.1e-05,0.061462,up
202770,1.824219,12.777344,-4.71875,0.896484,-1.03125,-1.25,0.555908,0.828979,-6.1e-05,0.061462,up
202775,1.824219,12.777344,-4.792969,0.896484,-1.03125,-1.25,0.550659,0.833252,0.003601,0.049622,up
202780,1.902344,12.816406,-4.832031,0.652344,-0.912109,-1.275391,0.550659,0.833252,0.003601,0.049622,up
202786,1.902344,12.773438,-4.871094,0.519531,-0.839844,-1.275391,0.550659,0.833252,0.003601,0.049622,up
202791,1.941406,12.777344,-4.832031,0.519531,-0.839844,-1.275391,0.547424,0.835937,0.008118,0.038696,up
202796,1.902344,12.773438,-4.832031,0.519531,-0.839844,-1.275391,0.547424,0.835937,0.008118,0.038696,up
202802,1.941406,12.777344,-4.832031,0.160156,-0.597656,-1.181641,0.547424,0.835937,0.008118,0.038696,up
202807,1.824219,12.703125,-4.792969,0.080078,-0.513672,-1.121094,0.547424,0.835937,0.008118,0.038696,up
202812,1.789063,12.667969,-4.757812,0.009766,-0.423828,-1.060547,0.547424,0.835937,0.008118,0.038696,up
202817,1.824219,12.589844,-4.679687,-0.033203,-0.339844,-0.998047,0.547424,0.835937,0.008118,0.038696,up
202822,1.75,12.507813,-4.640625,-0.033203,-0.339844,-0.998047,0.546692,0.836853,0.018066,0.022705,up
202827,1.710938,12.285156,-4.488281,-0.091797,-0.212891,-0.884766,0.546692,0.836853,0.018066,0.022705,up
202833,1.671875,12.390625,-4.449219,-0.148437,-0.080078,-0.798828,0.546692,0.836853,0.018066,0.022705,up
202838,1.597656,12.433594,-4.527344,-0.244141,-0.054687,-0.78125,0.547485,0.836304,0.022644,0.018005,up
202844,1.597656,11.96875,-4.375,-0.244141,-0.054687,-0.78125,0.548584,0.835571,0.025757,0.015564,up
202850,1.558594,11.78125,-4.105469,-0.244141,-0.054687,-0.78125,0.549438,0.834961,0.027161,0.014526,up
202855,1.597656,11.78125,-4.144531,-0.558594,0.0625,-0.677734,0.550537,0.834229,0.028687,0.013672,up
202860,1.558594,11.585938,-4.105469,-0.683594,0.099609,-0.650391,0.550537,0.834229,0.028687,0.013672,up
202866,1.441406,11.097656,-3.53125,-0.683594,0.099609,-0.650391,0.553345,0.832275,0.031616,0.012329,up
202872,1.289063,11.054688,-3.722656,-0.830078,0.292969,-0.556641,0.553345,0.832275,0.031616,0.012329,up
202878,1.097656,11.4375,-4.449219,-0.810547,0.410156,-0.542969,0.553345,0.832275,0.031616,0.012329,up
202883,0.832031,11.441406,-4.375,-0.810547,0.410156,-0.542969,0.560791,0.827026,0.038025,0.011658,up
202888,1.175781,11.242188,-4.066406,-0.810547,0.410156,-0.542969,0.560791,0.827026,0.038025,0.011658,up
202893,1.175781,11.242188,-4.066406,-1.195313,0.007813,-0.654297,0.562988,0.825439,0.039307,0.011047,up
202898,1.289063,11.164063,-3.605469,-1.146484,0.052734,-0.671875,0.562988,0.825439,0.039307,0.011047,up
202903,1.058594,11.058594,-3.03125,-1.146484,0.052734,-0.671875,0.567566,0.822144,0.042236,0.009766,up
202908,0.832031,11.015625,-3.453125,-0.894531,0.496094,-0.677734,0.567566,0.822144,0.042236,0.009766,up
202913,0.636719,11.019531,-3.796875,-0.941406,0.574219,-0.669922,0.573486,0.817688,0.048523,0.010132,up
202918,0.445312,11.054688,-3.835938,-0.941406,0.574219,-0.669922,0.573486,0.817688,0.048523,0.010132,up
202923,0.410156,11.054688,-3.683594,-0.941406,0.574219,-0.669922,0.576111,0.815735,0.050781,0.010376,up
202929,0.332031,11.058594,-3.570313,-1.480469,0.496094,-0.658203,0.576111,0.815735,0.050781,0.010376,up
202934,0.101563,11.164063,-3.53125,-1.480469,0.496094,-0.658203,0.584351,0.809448,0.056519,0.010925,up
202940,-0.011719,11.203125,-3.570313,-1.666016,0.644531,-0.710937,0.587952,0.806641,0.059082,0.011414,up
202945,-0.28125,11.324219,-3.683594,-1.666016,0.644531,-0.710937,0.590942,0.80426,0.061218,0.011841,up
202950,-0.28125,11.324219,-3.683594,-1.943359,0.757812,-0.787109,0.594727,0.80127,0.063843,0.01239,up
202955,-0.394531,11.320313,-3.722656,-1.943359,0.757812,-0.787109,0.598511,0.798218,0.066406,0.013062,up
202961,-0.511719,11.324219,-3.605469,-2.300781,0.884766,-0.857422,0.598511,0.798218,0.066406,0.013062,up
202966,-0.550781,11.285156,-3.605469,-2.408203,0.964844,-0.888672,0.598511,0.798218,0.066406,0.013062,up
202971,-0.625,11.28125,-3.53125,-2.408203,0.964844,-0.888672,0.612061,0.787048,0.075562,0.015747,up
202977,-0.625,11.203125,-3.644531,-2.511719,1.123047,-0.941406,0.612061,0.787048,0.075562,0.015747,up
202982,-0.664062,11.058594,-3.570313,-2.542969,1.175781,-0.951172,0.612061,0.787048,0.075562,0.015747,up
202987,-0.585937,10.859375,-3.492188,-2.566406,1.224609,-0.943359,0.612061,0.787048,0.075562,0.015747,up
202992,-0.585937,10.746094,-3.339844,-2.566406,1.224609,-0.943359,0.612061,0.787048,0.075562,0.015747,up
202997,-0.585937,10.746094,-3.339844,-2.560547,1.359375,-0.886719,0.635742,0.765869,0.093445,0.022644,up
203003,-0.585937,10.746094,-3.339844,-2.576172,1.431641,-0.859375,0.640503,0.761414,0.09729,0.024536,up
203008,-0.511719,9.9375,-2.800781,-2.580078,1.492188,-0.804687,0.640503,0.761414,0.09729,0.024536,up
203013,-0.511719,9.828125,-2.648438,-2.580078,1.492188,-0.804687,0.649536,0.752563,0.104736,0.028809,up
203019,-0.511719,9.792969,-2.535156,-2.599609,1.603516,-0.736328,0.658997,0.742859,0.112732,0.033997,up
203024,-0.585937,9.554688,-2.191406,-2.599609,1.603516,-0.736328,0.66333,0.738342,0.116455,0.03656,up
203029,-0.664062,9.527344,-2.074219,-2.599609,1.603516,-0.736328,0.667175,0.734131,0.119934,0.039124,up
203034,-0.742187,9.410156,-2.074219,-2.599609,1.603516,-0.736328,0.667175,0.734131,0.119934,0.039124,up
203039,-0.816406,9.40625,-2.074219,-2.427734,1.800781,-0.679687,0.675476,0.724731,0.128235,0.045044,up
203045,-0.894531,8.984375,-1.652344,-2.427734,1.800781,-0.679687,0.679077,0.72052,0.131897,0.047668,up
203050,-0.894531,8.984375,-1.652344,-2.380859,1.826172,-0.671875,0.683044,0.71582,0.135986,0.050598,up
203055,-1.046875,8.90625,-1.386719,-2.380859,1.826172,-0.671875,0.686584,0.711426,0.140015,0.053528,up
203061,-1.316406,8.949219,-1.421875,-2.185547,1.941406,-0.689453,0.686584,0.711426,0.140015,0.053528,up
203066,-1.390625,8.949219,-1.386719,-2.119141,1.9375,-0.716797,0.686584,0.711426,0.140015,0.053528,up
203071,-1.390625,8.949219,-1.386719,-2.0625,1.865234,-0.724609,0.696228,0.698608,0.152771,0.062317,up
203077,-1.46875,8.945313,-1.347656,-1.984375,1.783203,-0.734375,0.699219,0.694397,0.157043,0.065002,up
203082,-1.46875,8.945313,-1.347656,-1.876953,1.714844,-0.732422,0.701965,0.690491,0.161011,0.067444,up
203088,-1.621094,9.292969,-0.8125,-1.876953,1.714844,-0.732422,0.704529,0.686707,0.164917,0.069702,up
203094,-1.738281,9.527344,-0.582031,-1.876953,1.714844,-0.732422,0.709106,0.679565,0.172729,0.074036,up
203099,-1.738281,9.597656,-0.582031,-1.876953,1.714844,-0.732422,0.711426,0.675842,0.176941,0.076233,up
203104,-1.773438,9.632813,-0.503906,-1.876953,1.714844,-0.732422,0.711426,0.675842,0.176941,0.076233,up
203109,-1.773438,9.671875,-0.390625,-1.433594,1.375,-0.738281,0.711426,0.675842,0.176941,0.076233,up
203114,-1.738281,9.675781,-0.199219,-1.453125,1.306641,-0.726562,0.71521,0.669617,0.183899,0.079529,up
203120,-1.8125,9.554688,-0.007813,-1.453125,1.306641,-0.726562,0.718933,0.663452,0.190125,0.082458,up
203125,-1.773438,9.449219,0.03125,-1.513672,1.199219,-0.707031,0.718933,0.663452,0.190125,0.082458,up
203131,-1.773438,9.410156,0.070312,-1.548828,1.166016,-0.701172,0.718933,0.663452,0.190125,0.082458,up
203136,-1.738281,9.214844,0.109375,-1.548828,1.166016,-0.701172,0.72522,0.653381,0.199097,0.086548,up
203142,-1.738281,9.101563,0.183594,-1.566406,1.035156,-0.673828,0.72522,0.653381,0.199097,0.086548,up
203147,-1.699219,9.101563,0.222656,-1.539063,0.958984,-0.658203,0.72522,0.653381,0.199097,0.086548,up
203152,-1.621094,9.066406,0.339844,-1.490234,0.878906,-0.652344,0.72522,0.653381,0.199097,0.086548,up
203157,-1.660156,9.027344,0.414062,-1.410156,0.796875,-0.636719,0.72522,0.653381,0.199097,0.086548,up
203162,-1.582031,9.027344,0.453125,-1.277344,0.726562,-0.621094,0.72522,0.653381,0.199097,0.086548,up
203167,-1.582031,8.988281,0.492187,-1.126953,0.660156,-0.603516,0.72522,0.653381,0.199097,0.086548,up
203172,-1.546875,8.984375,0.53125,-1.126953,0.660156,-0.603516,0.72522,0.653381,0.199097,0.086548,up
203177,-1.507813,8.988281,0.644531,-0.951172,0.589844,-0.580078,0.73999,0.629944,0.216797,0.092896,up
203182,-1.507813,8.988281,0.644531,-0.59375,0.494141,-0.535156,0.740845,0.628296,0.218445,0.093018,up
203189,-1.621094,9.066406,0.605469,-0.447266,0.443359,-0.503906,0.740845,0.628296,0.218445,0.093018,up
203194,-1.621094,9.0625,0.644531,-0.208984,0.328125,-0.398438,0.742004,0.625854,0.221497,0.093018,up
203199,-1.660156,9.140625,0.722656,-0.208984,0.328125,-0.398438,0.742554,0.62439,0.223999,0.092712,up
203204,-1.699219,9.171875,0.722656,-0.208984,0.328125,-0.398438,0.742554,0.62439,0.223999,0.092712,up
203209,-1.699219,9.101563,0.761719,-0.078125,0.214844,-0.261719,0.742676,0.623901,0.224976,0.092529,up
203214,-1.738281,9.144531,0.835937,-0.078125,0.214844,-0.261719,0.742798,0.62323,0.226562,0.092285,up
203219,-1.699219,9.140625,0.914062,-0.019531,0.195312,-0.183594,0.742798,0.62323,0.226562,0.092285,up
203224,-1.699219,9.066406,0.835937,-0.019531,0.195312,-0.183594,0.742676,0.622925,0.227844,0.092102,up
203229,-1.738281,9.023438,0.761719,-0.019531,0.195312,-0.183594,0.742676,0.622925,0.227844,0.092102,up
203234,-1.738281,9.027344,0.835937,0.085937,0.160156,-0.140625,0.742676,0.622925,0.227844,0.092102,up
203239,-1.699219,9.023438,0.914062,0.136719,0.140625,-0.115234,0.742004,0.62323,0.229431,0.091797,up
203245,-1.773438,9.066406,0.914062,0.136719,0.140625,-0.115234,0.741577,0.623535,0.22998,0.091675,up
203250,-1.738281,9.0625,0.835937,0.294922,0.158203,-0.101563,0.74115,0.623901,0.230469,0.091553,up
203255,-1.738281,9.105469,0.796875,0.367188,0.154297,-0.089844,0.740479,0.624512,0.231018,0.09137,up
203261,-1.851563,9.253906,0.875,0.367188,0.154297,-0.089844,0.739868,0.625061,0.231506,0.091187,up
203267,-1.890625,9.25,0.835937,0.517578,0.142578,-0.080078,0.739868,0.625061,0.231506,0.091187,up
203272,-1.890625,9.328125,0.835937,0.5625,0.148437,-0.076172,0.739868,0.625061,0.231506,0.091187,up
203277,-2.003906,9.40625,0.796875,0.59375,0.150391,-0.060547,0.739868,0.625061,0.231506,0.091187,up
203283,-2.003906,9.410156,0.835937,0.591797,0.146484,-0.056641,0.739868,0.625061,0.231506,0.091187,up
203288,-1.964844,9.449219,0.761719,0.591797,0.128906,-0.042969,0.739868,0.625061,0.231506,0.091187,up
203294,-2.003906,9.527344,0.683594,0.576172,0.140625,-0.042969,0.739868,0.625061,0.231506,0.091187,up
203299,-2.042969,9.484375,0.722656,0.541016,0.142578,-0.029297,0.733154,0.631897,0.234924,0.089417,up
203304,-2.042969,9.523438,0.761719,0.541016,0.142578,-0.029297,0.732117,0.632935,0.235413,0.089233,up
203309,-2.082031,9.484375,0.796875,0.541016,0.142578,-0.029297,0.731201,0.63385,0.23584,0.08905,up
203314,-2.082031,9.484375,0.761719,0.488281,0.152344,-0.027344,0.731201,0.63385,0.23584,0.08905,up
203319,-2.042969,9.40625,0.722656,0.488281,0.152344,-0.027344,0.729553,0.635498,0.236633,0.088806,up
203324,-2.082031,9.449219,0.722656,0.453125,0.179687,-0.037109,0.729553,0.635498,0.236633,0.088806,up
203329,-2.082031,9.445313,0.683594,0.453125,0.179687,-0.037109,0.727783,0.637146,0.237671,0.088623,up
203335,-2.042969,9.445313,0.644531,0.453125,0.179687,-0.037109,0.726257,0.638611,0.238647,0.08844,up
203340,-2.121094,9.523438,0.722656,0.421875,0.220703,-0.074219,0.725342,0.639343,0.239319,0.088379,up
203345,-2.15625,9.558594,0.683594,0.408203,0.236328,-0.089844,0.724548,0.640015,0.23999,0.088318,up
203350,-2.195313,9.554688,0.683594,0.408203,0.236328,-0.089844,0.723877,0.640564,0.240601,0.088257,up
203355,-2.15625,9.59375,0.683594,0.408203,0.236328,-0.089844,0.723206,0.641052,0.241333,0.088257,up
203360,-2.234375,9.558594,0.683594,0.3125,0.28125,-0.123047,0.723206,0.641052,0.241333,0.088257,up
203365,-2.273438,9.554688,0.722656,0.3125,0.28125,-0.123047,0.721863,0.641968,0.24292,0.088257,up
203370,-2.273438,9.554688,0.722656,0.3125,0.28125,-0.123047,0.721313,0.642273,0.243652,0.088318,up
203375,-2.3125,9.523438,0.722656,0.3125,0.28125,-0.123047,0.720825,0.642517,0.244446,0.08844,up
203380,-2.3125,9.523438,0.761719,0.128906,0.330078,-0.132812,0.720398,0.642639,0.245361,0.088562,up
203385,-2.3125,9.328125,0.796875,0.128906,0.330078,-0.132812,0.720032,0.6427,0.246216,0.088806,up
203390,-2.273438,9.25,0.835937,0.128906,0.330078,-0.132812,0.719788,0.642639,0.246948,0.08905,up
203395,-2.273438,9.171875,0.796875,-0.023437,0.367188,-0.111328,0.719788,0.642639,0.246948,0.08905,up
203400,-2.234375,9.066406,0.835937,-0.023437,0.367188,-0.111328,0.719421,0.642273,0.248718,0.089844,up
203406,-2.15625,8.828125,0.875,-0.023437,0.367188,-0.111328,0.719299,0.642029,0.249512,0.090271,up
203411,-2.121094,8.753906,0.875,-0.091797,0.427734,-0.087891,0.719177,0.641724,0.250366,0.090759,up
203416,-2.15625,8.75,0.953125,-0.09375,0.4375,-0.082031,0.719177,0.641724,0.250366,0.090759,up
203422,-2.15625,8.679688,0.953125,-0.089844,0.464844,-0.076172,0.719177,0.641724,0.250366,0.090759,up
203427,-2.082031,8.683594,0.988281,-0.089844,0.464844,-0.076172,0.719177,0.641724,0.250366,0.090759,up
203432,-2.121094,8.644531,1.027344,-0.056641,0.511719,-0.080078,0.719177,0.641724,0.250366,0.090759,up
203437,-2.121094,8.679688,1.066406,-0.025391,0.539062,-0.076172,0.719177,0.641724,0.250366,0.090759,up
203442,-2.234375,8.753906,1.105469,-0.025391,0.539062,-0.076172,0.719177,0.641724,0.250366,0.090759,up
203448,-2.195313,8.832031,1.144531,-0.025391,0.539062,-0.076172,0.717712,0.639893,0.257568,0.095459,up
203453,-2.273438,8.90625,1.144531,0.039063,0.603516,-0.105469,0.717712,0.639893,0.257568,0.095459,up
203459,-2.425781,9.101563,1.179688,0.052734,0.621094,-0.117188,0.717712,0.639893,0.257568,0.095459,up
203464,-2.503906,9.253906,1.21875,0.052734,0.621094,-0.117188,0.71637,0.639465,0.261414,0.097595,up
203469,-2.578125,9.367188,1.21875,0.042969,0.669922,-0.152344,0.71637,0.639465,0.261414,0.097595,up
203475,-2.808594,9.675781,1.21875,0.033203,0.671875,-0.185547,0.71637,0.639465,0.261414,0.097595,up
203481,-3.078125,10.09375,1.257813,0.033203,0.671875,-0.185547,0.714539,0.63855,0.267517,0.100464,up
203486,-3.269531,10.292969,1.296875,-0.039063,0.679687,-0.265625,0.714539,0.63855,0.267517,0.100464,up
203491,-3.421875,10.476563,1.296875,-0.087891,0.677734,-0.294922,0.713867,0.637756,0.270752,0.101685,up
203496,-3.574219,10.746094,1.296875,-0.087891,0.677734,-0.294922,0.713684,0.637085,0.272583,0.102295,up
203502,-3.84375,11.132813,1.371094,-0.087891,0.677734,-0.294922,0.713684,0.637085,0.272583,0.102295,up
203507,-3.996094,11.285156,1.410156,-0.308594,0.621094,-0.404297,0.713684,0.637085,0.272583,0.102295,up
203513,-4.148437,11.480469,1.410156,-0.392578,0.587891,-0.4375,0.713684,0.637085,0.272583,0.102295,up
203518,-4.1875,11.546875,1.410156,-0.496094,0.564453,-0.474609,0.713684,0.637085,0.272583,0.102295,up
203524,-4.1875,11.515625,1.449219,-0.609375,0.537109,-0.498047,0.713684,0.637085,0.272583,0.102295,up
203529,-4.148437,11.441406,1.527344,-0.716797,0.5,-0.523437,0.713684,0.637085,0.272583,0.102295,up
203534,-4.113281,11.363281,1.601563,-0.828125,0.458984,-0.533203,0.713684,0.637085,0.272583,0.102295,up
203540,-4.074219,11.246094,1.566406,-1.027344,0.394531,-0.537109,0.713684,0.637085,0.272583,0.102295,up
203545,-3.996094,11.167969,1.601563,-1.027344,0.394531,-0.537109,0.721008,0.621277,0.287842,0.106201,up
203550,-3.882813,10.902344,1.601563,-1.027344,0.394531,-0.537109,0.721008,0.621277,0.287842,0.106201,up
203555,-3.84375,10.742188,1.679688,-1.027344,0.394531,-0.537109,0.724304,0.616272,0.290039,0.106873,up
203560,-3.84375,10.671875,1.679688,-1.027344,0.394531,-0.537109,0.724304,0.616272,0.290039,0.106873,up
203565,-3.726563,10.476563,1.757813,-1.099609,0.246094,-0.488281,0.724304,0.616272,0.290039,0.106873,up
203570,-3.726563,10.328125,1.71875,-1.099609,0.246094,-0.488281,0.727539,0.611511,0.29187,0.107422,up
203575,-3.726563,10.328125,1.71875,-1.001953,0.179687,-0.4375,0.729004,0.609375,0.292603,0.107605,up
203580,-3.691406,10.253906,1.757813,-1.001953,0.179687,-0.4375,0.730469,0.6073,0.293335,0.107788,up
203585,-3.5,9.9375,1.792969,-0.822266,0.140625,-0.384766,0.731812,0.605286,0.293945,0.10791,up
203590,-3.460938,9.828125,1.792969,-0.71875,0.117188,-0.355469,0.732971,0.603638,0.294556,0.107971,up
203595,-3.382813,9.675781,1.757813,-0.615234,0.103516,-0.322266,0.734863,0.600769,0.295593,0.107971,up
203600,-3.308594,9.558594,1.792969,-0.455078,0.085937,-0.244141,0.734863,0.600769,0.295593,0.107971,up
203605,-3.152344,9.328125,1.757813,-0.455078,0.085937,-0.244141,0.736206,0.598755,0.296387,0.107971,up
203610,-3.078125,9.25,1.757813,-0.455078,0.085937,-0.244141,0.736206,0.598755,0.296387,0.107971,up
203615,-2.960938,9.140625,1.757813,-0.248047,0.070312,-0.111328,0.736206,0.598755,0.296387,0.107971,up
203621,-2.808594,9.023438,1.757813,-0.248047,0.070312,-0.111328,0.737488,0.596741,0.29718,0.108093,up
203627,-2.695313,8.949219,1.679688,-0.248047,0.070312,-0.111328,0.737671,0.596436,0.297363,0.108215,up
203633,-2.617188,8.945313,1.640625,-0.052734,0.089844,0.015625,0.737732,0.596252,0.297485,0.108398,up
203638,-2.539063,8.949219,1.601563,0.013672,0.097656,0.042969,0.737732,0.596252,0.297485,0.108398,up
203643,-2.464844,8.988281,1.601563,0.013672,0.097656,0.042969,0.737732,0.596252,0.297485,0.108398,up
203648,-2.386719,9.023438,1.566406,0.013672,0.097656,0.042969,0.737244,0.596558,0.297852,0.109009,up
203653,-2.386719,9.027344,1.527344,0.173828,0.119141,0.115234,0.737244,0.596558,0.297852,0.109009,up
203658,-2.386719,9.105469,1.566406,0.207031,0.130859,0.132812,0.737244,0.596558,0.297852,0.109009,up
203663,-2.386719,9.214844,1.527344,0.207031,0.130859,0.132812,0.737244,0.596558,0.297852,0.109009,up
203668,-2.3125,9.214844,1.527344,0.207031,0.130859,0.132812,0.735535,0.598267,0.298279,0.110046,up
203674,-2.347656,9.253906,1.527344,0.244141,0.152344,0.166016,0.735535,0.598267,0.298279,0.110046,up
203680,-2.3125,9.289063,1.566406,0.199219,0.169922,0.160156,0.735535,0.598267,0.298279,0.110046,up
203685,-2.347656,9.367188,1.566406,0.199219,0.169922,0.160156,0.733582,0.600159,0.298767,0.111572,up
203690,-2.347656,9.371094,1.601563,0.199219,0.169922,0.160156,0.733215,0.600464,0.298889,0.111938,up
203695,-2.347656,9.410156,1.601563,0.199219,0.169922,0.160156,0.73291,0.600647,0.299011,0.112366,up
203700,-2.386719,9.449219,1.679688,0.199219,0.169922,0.160156,0.73291,0.600647,0.299011,0.112366,up
203705,-2.425781,9.523438,1.601563,-0.007813,0.175781,0.119141,0.73291,0.600647,0.299011,0.112366,up
203710,-2.425781,9.527344,1.640625,-0.060547,0.173828,0.091797,0.73291,0.600647,0.299011,0.112366,up
203715,-2.425781,9.554688,1.640625,-0.103516,0.154297,0.078125,0.732666,0.600342,0.299622,0.114197,up
203720,-2.425781,9.558594,1.71875,-0.103516,0.154297,0.078125,0.732666,0.600342,0.299622,0.114197,up
203725,-2.425781,9.554688,1.640625,-0.25,0.111328,0.003906,0.732666,0.600342,0.299622,0.114197,up
203730,-2.425781,9.636719,1.640625,-0.25,0.111328,0.003906,0.733337,0.59906,0.300049,0.115295,up
203735,-2.464844,9.632813,1.640625,-0.25,0.111328,0.003906,0.733765,0.59845,0.30011,0.11554,up
203740,-2.503906,9.671875,1.601563,-0.25,0.111328,0.003906,0.733765,0.59845,0.30011,0.11554,up
203745,-2.464844,9.75,1.679688,-0.382813,-0.011719,-0.03125,0.733765,0.59845,0.30011,0.11554,up
203750,-2.503906,9.753906,1.601563,-0.382813,-0.011719,-0.03125,0.734802,0.597107,0.30011,0.116028,up
203756,-2.539063,9.789063,1.601563,-0.408203,-0.046875,-0.035156,0.736145,0.595581,0.299805,0.116333,up
203761,-2.539063,9.828125,1.601563,-0.453125,-0.119141,-0.027344,0.736938,0.594727,0.2995,0.116455,up
203766,-2.578125,9.792969,1.640625,-0.453125,-0.119141,-0.027344,0.737793,0.593811,0.299133,0.116516,up
203771,-2.578125,9.828125,1.601563,-0.453125,-0.119141,-0.027344,0.738525,0.593079,0.298706,0.116577,up
203776,-2.578125,9.828125,1.527344,-0.455078,-0.234375,-0.005859,0.739441,0.592224,0.298157,0.116577,up
203781,-2.617188,9.90625,1.488281,-0.455078,-0.234375,-0.005859,0.740173,0.591553,0.297607,0.116516,up
203787,-2.695313,10.097656,1.410156,-0.455078,-0.234375,-0.005859,0.741028,0.590881,0.296997,0.116394,up
203792,-2.734375,10.175781,1.371094,-0.369141,-0.332031,0.009766,0.741821,0.590271,0.296265,0.116211,up
203797,-2.734375,10.292969,1.296875,-0.353516,-0.355469,0.019531,0.741821,0.590271,0.296265,0.116211,up
203802,-2.734375,10.328125,1.257813,-0.332031,-0.378906,0.029297,0.741821,0.590271,0.296265,0.116211,up
203807,-2.769531,10.398438,1.179688,-0.332031,-0.378906,0.029297,0.741821,0.590271,0.296265,0.116211,up
203812,-2.769531,10.402344,1.144531,-0.324219,-0.414062,0.044922,0.741821,0.590271,0.296265,0.116211,up
203817,-2.734375,10.402344,1.144531,-0.316406,-0.423828,0.0625,0.741821,0.590271,0.296265,0.116211,up
203822,-2.734375,10.398438,1.066406,-0.316406,-0.423828,0.0625,0.741821,0.590271,0.296265,0.116211,up
203827,-2.734375,10.398438,1.066406,-0.320313,-0.421875,0.087891,0.741821,0.590271,0.296265,0.116211,up
203832,-2.695313,10.398438,1.027344,-0.320313,-0.421875,0.087891,0.741821,0.590271,0.296265,0.116211,up
203838,-2.65625,10.328125,0.988281,-0.314453,-0.402344,0.132812,0.741821,0.590271,0.296265,0.116211,up
203843,-2.65625,10.289063,0.988281,-0.314453,-0.402344,0.132812,0.749451,0.585754,0.286865,0.113831,up
203848,-2.617188,10.210938,0.953125,-0.306641,-0.367188,0.166016,0.749451,0.585754,0.286865,0.113831,up
203853,-2.578125,10.175781,0.953125,-0.279297,-0.347656,0.189453,0.749451,0.585754,0.286865,0.113831,up
203858,-2.539063,10.09375,0.914062,-0.279297,-0.347656,0.189453,0.749451,0.585754,0.286865,0.113831,up
203864,-2.464844,10.097656,0.875,-0.279297,-0.347656,0.189453,0.751831,0.584595,0.282837,0.114014,up
203870,-2.464844,10.015625,0.914062,-0.128906,-0.242187,0.263672,0.751831,0.584595,0.282837,0.114014,up
203875,-2.464844,10.015625,0.875,-0.128906,-0.242187,0.263672,0.752563,0.584473,0.281006,0.11438,up
203880,-2.503906,10.015625,0.914062,-0.128906,-0.242187,0.263672,0.752808,0.584534,0.280151,0.114624,up
203886,-2.425781,9.976563,0.875,-0.025391,-0.166016,0.3125,0.752808,0.584534,0.280151,0.114624,up
203891,-2.464844,10.015625,0.914062,-0.025391,-0.166016,0.3125,0.753113,0.585083,0.277771,0.115601,up
203897,-2.539063,10.019531,0.914062,-0.025391,-0.166016,0.3125,0.753113,0.585266,0.2771,0.115967,up
203902,-2.539063,10.058594,0.914062,-0.015625,-0.097656,0.333984,0.753113,0.585266,0.2771,0.115967,up
203907,-2.578125,10.019531,0.875,-0.03125,-0.078125,0.341797,0.753113,0.585266,0.2771,0.115967,up
203912,-2.617188,10.058594,0.914062,-0.03125,-0.078125,0.341797,0.753174,0.585937,0.275085,0.117493,up
203918,-2.578125,10.019531,0.914062,-0.03125,-0.078125,0.341797,0.753174,0.58606,0.274475,0.118103,up
203924,-2.617188,9.9375,0.914062,-0.115234,-0.042969,0.351563,0.753174,0.58606,0.274475,0.118103,up
203929,-2.617188,9.789063,0.988281,-0.142578,-0.027344,0.345703,0.753174,0.58606,0.274475,0.118103,up
203934,-2.617188,9.75,0.988281,-0.171875,-0.021484,0.351563,0.753174,0.58606,0.274475,0.118103,up
203939,-2.578125,9.675781,0.988281,-0.1875,-0.013672,0.349609,0.753174,0.58606,0.274475,0.118103,up
203944,-2.578125,9.632813,1.027344,-0.189453,-0.003906,0.345703,0.753174,0.58606,0.274475,0.118103,up
203950,-2.578125,9.554688,1.066406,-0.195312,0.011719,0.326172,0.753174,0.58606,0.274475,0.118103,up
203955,-2.578125,9.488281,1.105469,-0.195312,0.011719,0.326172,0.754272,0.585571,0.270325,0.123169,up
203960,-2.617188,9.445313,1.105469,-0.185547,0.03125,0.310547,0.754456,0.585388,0.269836,0.123901,up
203965,-2.617188,9.445313,1.179688,-0.185547,0.03125,0.310547,0.754578,0.585205,0.269348,0.124695,up
203970,-2.617188,9.449219,1.257813,-0.185547,0.03125,0.310547,0.754761,0.585083,0.268921,0.125427,up
203975,-2.695313,9.445313,1.21875,-0.181641,0.056641,0.275391,0.754761,0.585083,0.268921,0.125427,up
203981,-2.695313,9.410156,1.21875,-0.201172,0.068359,0.248047,0.754761,0.585083,0.268921,0.125427,up
203986,-2.734375,9.40625,1.257813,-0.201172,0.068359,0.248047,0.755432,0.584229,0.267639,0.128235,up
203991,-2.769531,9.367188,1.257813,-0.244141,0.082031,0.228516,0.755615,0.583862,0.267395,0.128967,up
203996,-2.847656,9.367188,1.296875,-0.259766,0.083984,0.220703,0.755615,0.583862,0.267395,0.128967,up
204001,-2.925781,9.328125,1.371094,-0.259766,0.083984,0.220703,0.755859,0.583496,0.26709,0.1297,up
204006,-2.925781,9.328125,1.371094,-0.300781,0.085937,0.193359,0.756409,0.582703,0.266663,0.131104,up
204011,-2.925781,9.25,1.335938,-0.300781,0.085937,0.193359,0.756409,0.582703,0.266663,0.131104,up
204016,-3.0,9.210938,1.371094,-0.308594,0.074219,0.179687,0.756409,0.582703,0.266663,0.131104,up
204022,-3.0,9.210938,1.371094,-0.318359,0.070312,0.160156,0.757446,0.581238,0.265991,0.133057,up
204027,-3.0,8.949219,1.601563,-0.3125,0.070312,0.158203,0.757874,0.580627,0.265747,0.133728,up
204032,-3.039063,8.910156,1.640625,-0.3125,0.070312,0.158203,0.758179,0.580139,0.265564,0.134277,up
204037,-3.0,8.871094,1.679688,-0.3125,0.070312,0.158203,0.758545,0.57959,0.265381,0.134949,up
204042,-3.039063,8.792969,1.679688,-0.3125,0.070312,0.158203,0.75885,0.579163,0.265198,0.135437,up
204047,-3.078125,8.75,1.757813,-0.3125,0.070312,0.158203,0.759155,0.578674,0.265076,0.135986,up
204572,-2.464844,9.710938,2.175781,-0.285156,0.203125,0.158203,0.775696,0.555481,0.275146,0.118286,up
204577,-2.503906,9.753906,2.253906,-0.285156,0.203125,0.158203,0.775696,0.555481,0.275146,0.118286,up
204582,-2.65625,9.789063,2.332031,-0.289063,0.208984,0.169922,0.775696,0.555481,0.275146,0.118286,up
204587,-2.617188,9.789063,2.445313,-0.265625,0.193359,0.1875,0.776123,0.554504,0.275269,0.119934,up
204592,-2.65625,9.792969,2.484375,-0.265625,0.193359,0.1875,0.776489,0.553589,0.27533,0.121582,up
204597,-2.734375,9.792969,2.558594,-0.265625,0.193359,0.1875,0.776489,0.553589,0.27533,0.121582,up
204602,-2.808594,9.828125,2.714844,-0.269531,0.195312,0.214844,0.776672,0.553162,0.27533,0.122498,up
204607,-2.847656,9.789063,2.90625,-0.269531,0.195312,0.214844,0.776855,0.552734,0.27533,0.123413,up
204612,-2.886719,9.832031,3.136719,-0.269531,0.195312,0.214844,0.776978,0.552246,0.275391,0.124268,up
204617,-3.0,9.792969,3.328125,-0.296875,0.214844,0.195312,0.776978,0.552246,0.275391,0.124268,up
204622,-3.039063,9.792969,3.519531,-0.365234,0.242187,0.1875,0.777405,0.55127,0.275452,0.125977,up
204627,-3.078125,9.75,3.671875,-0.365234,0.242187,0.1875,0.777954,0.549927,0.275635,0.12793,up
204632,-3.117188,9.671875,3.785156,-0.365234,0.242187,0.1875,0.777954,0.549927,0.275635,0.12793,up
204637,-3.117188,9.59375,4.015625,-0.464844,0.244141,0.181641,0.778748,0.548279,0.275818,0.129883,up
204642,-3.117188,9.554688,4.09375,-0.464844,0.244141,0.181641,0.778748,0.548279,0.275818,0.129883,up
204647,-3.152344,9.527344,4.132812,-0.568359,0.222656,0.173828,0.778748,0.548279,0.275818,0.129883,up
204652,-3.191406,9.523438,4.207031,-0.689453,0.179687,0.167969,0.778748,0.548279,0.275818,0.129883,up
204658,-3.230469,9.40625,4.285156,-0.689453,0.179687,0.167969,0.780579,0.544922,0.275757,0.132996,up
204663,-3.230469,9.40625,4.285156,-0.748047,0.144531,0.160156,0.781433,0.543579,0.275635,0.134033,up
204668,-3.269531,9.328125,4.324219,-0.791016,0.107422,0.146484,0.781433,0.543579,0.275635,0.134033,up
204673,-3.382813,9.710938,4.324219,-0.826172,0.074219,0.136719,0.783325,0.540588,0.275085,0.135986,up
204678,-3.460938,9.828125,4.359375,-0.878906,0.03125,0.126953,0.785522,0.537354,0.274292,0.137756,up
204683,-3.5,9.867188,4.359375,-0.964844,-0.042969,0.097656,0.786987,0.535278,0.273682,0.138733,up
204689,-3.613281,10.132813,4.359375,-0.964844,-0.042969,0.097656,0.788086,0.533691,0.273254,0.139404,up
204694,-3.691406,10.210938,4.4375,-0.964844,-0.042969,0.097656,0.78949,0.531677,0.272644,0.140259,up
204700,-3.691406,10.289063,4.476562,-1.066406,-0.042969,0.066406,0.78949,0.531677,0.272644,0.140259,up
204705,-3.726563,10.402344,4.515625,-1.111328,-0.021484,0.060547,0.78949,0.531677,0.272644,0.140259,up
204711,-3.726563,10.332031,4.589844,-1.111328,-0.021484,0.060547,0.793823,0.52533,0.271118,0.142761,up
204717,-3.726563,10.292969,4.707031,-1.34375,0.080078,0.054687,0.793823,0.52533,0.271118,0.142761,up
204722,-3.765625,10.210938,4.820312,-1.34375,0.080078,0.054687,0.796997,0.520447,0.270203,0.144775,up
204727,-3.765625,10.015625,4.859375,-1.419922,0.126953,0.046875,0.796997,0.520447,0.270203,0.144775,up
204733,-3.765625,9.941406,4.898437,-1.535156,0.201172,0.042969,0.800476,0.514648,0.269531,0.147217,up
204738,-3.84375,9.90625,4.933594,-1.535156,0.201172,0.042969,0.804077,0.508484,0.269104,0.149963,up
204743,-3.765625,9.75,5.128906,-1.535156,0.201172,0.042969,0.806152,0.504822,0.268921,0.15155,up
204749,-3.765625,9.671875,5.164062,-1.535156,0.201172,0.042969,0.8078,0.50177,0.268799,0.152893,up
204754,-3.765625,9.671875,5.164062,-1.636719,0.285156,0.009766,0.809692,0.498291,0.268677,0.154419,up
204759,-3.804688,9.632813,5.128906,-1.636719,0.285156,0.009766,0.811462,0.495056,0.268616,0.155823,up
204764,-3.882813,9.558594,5.164062,-1.636719,0.285156,0.009766,0.811462,0.495056,0.268616,0.155823,up
204769,-3.921875,9.558594,5.128906,-1.689453,0.333984,-0.025391,0.811462,0.495056,0.268616,0.155823,up
204774,-3.921875,9.527344,5.164062,-1.712891,0.341797,-0.052734,0.817078,0.484192,0.268677,0.1604,up
204779,-3.882813,9.484375,5.164062,-1.712891,0.341797,-0.052734,0.819153,0.480103,0.268799,0.161987,up
204784,-3.996094,9.554688,5.089844,-1.712891,0.341797,-0.052734,0.819153,0.480103,0.268799,0.161987,up
204789,-3.996094,9.554688,5.089844,-1.824219,0.410156,-0.150391,0.819153,0.480103,0.268799,0.161987,up
204794,-4.074219,9.671875,5.050781,-1.824219,0.410156,-0.150391,0.819153,0.480103,0.268799,0.161987,up
204799,-4.035156,9.636719,5.089844,-1.824219,0.410156,-0.150391,0.826721,0.464417,0.269775,0.167419,up
204804,-3.921875,9.367188,5.128906,-1.824219,0.410156,-0.150391,0.828857,0.4599,0.270142,0.168823,up
204810,-3.882813,9.175781,5.164062,-2.099609,0.447266,-0.277344,0.828857,0.4599,0.270142,0.168823,up
204815,-3.882813,9.175781,5.164062,-2.179688,0.460937,-0.304688,0.833252,0.4505,0.270813,0.171509,up
204820,-3.765625,8.832031,5.164062,-2.179688,0.460937,-0.304688,0.833252,0.4505,0.270813,0.171509,up
204825,-3.765625,8.832031,5.164062,-2.341797,0.482422,-0.326172,0.837952,0.440186,0.271545,0.174316,up
204830,-3.613281,8.410156,5.128906,-2.341797,0.482422,-0.326172,0.840393,0.434631,0.271912,0.175781,up
204836,-3.460938,7.875,5.203125,-2.341797,0.482422,-0.326172,0.840393,0.434631,0.271912,0.175781,up
204841,-3.34375,7.683594,5.203125,-2.498047,0.53125,-0.330078,0.840393,0.434631,0.271912,0.175781,up
204846,-3.308594,7.53125,5.203125,-2.523438,0.566406,-0.339844,0.840393,0.434631,0.271912,0.175781,up
204851,-3.269531,7.375,5.203125,-2.521484,0.59375,-0.349609,0.840393,0.434631,0.271912,0.175781,up
204857,-3.191406,7.070312,5.203125,-2.521484,0.59375,-0.349609,0.852356,0.405823,0.273987,0.183594,up
204862,-3.191406,7.074219,5.128906,-2.521484,0.59375,-0.349609,0.854614,0.400024,0.274536,0.185181,up
204868,-3.191406,7.113281,5.203125,-2.404297,0.689453,-0.443359,0.854614,0.400024,0.274536,0.185181,up
204873,-3.269531,7.300781,5.28125,-2.404297,0.689453,-0.443359,0.860962,0.382446,0.276733,0.189514,up
204878,-3.308594,7.261719,5.320312,-2.347656,0.753906,-0.507812,0.860962,0.382446,0.276733,0.189514,up
204883,-3.382813,7.183594,5.203125,-2.347656,0.753906,-0.507812,0.865051,0.370239,0.278748,0.192139,up
204888,-3.460938,7.148437,5.242187,-2.347656,0.753906,-0.507812,0.865051,0.370239,0.278748,0.192139,up
204893,-3.535156,7.113281,5.320312,-2.347656,0.753906,-0.507812,0.867004,0.364136,0.279785,0.193359,up
204898,-3.535156,7.113281,5.320312,-2.453125,0.746094,-0.574219,0.868713,0.358826,0.28064,0.194397,up
204903,-3.535156,7.03125,5.28125,-2.501953,0.732422,-0.578125,0.868713,0.358826,0.28064,0.194397,up
204908,-3.652344,6.648437,5.394531,-2.558594,0.701172,-0.591797,0.872742,0.346313,0.28241,0.196655,up
204913,-3.613281,6.535156,5.472656,-2.611328,0.652344,-0.597656,0.876892,0.333313,0.283691,0.198853,up
204918,-3.574219,6.53125,5.511719,-2.611328,0.652344,-0.597656,0.876892,0.333313,0.283691,0.198853,up
204923,-3.460938,6.269531,5.511719,-2.683594,0.539062,-0.587891,0.876892,0.333313,0.283691,0.198853,up
204929,-3.421875,5.769531,5.585937,-2.683594,0.539062,-0.587891,0.883179,0.313599,0.284424,0.201965,up
204934,-3.421875,5.769531,5.585937,-2.689453,0.333984,-0.609375,0.885315,0.306885,0.284363,0.202881,up
204940,-3.308594,5.460937,5.667969,-2.689453,0.333984,-0.609375,0.887451,0.300476,0.284119,0.203613,up
204946,-3.191406,5.15625,5.777344,-2.689453,0.333984,-0.609375,0.889526,0.294189,0.283752,0.204163,up
204951,-3.152344,5.039062,5.773437,-2.474609,0.115234,-0.683594,0.889526,0.294189,0.283752,0.204163,up
204956,-3.230469,5.078125,5.703125,-2.380859,0.050781,-0.703125,0.889526,0.294189,0.283752,0.204163,up
204961,-3.191406,5.039062,5.738281,-2.314453,-0.003906,-0.726562,0.889526,0.294189,0.283752,0.204163,up
204967,-3.191406,4.964844,5.589844,-2.314453,-0.003906,-0.726562,0.889526,0.294189,0.283752,0.204163,up
204972,-3.230469,4.847656,5.472656,-2.232422,-0.0625,-0.761719,0.889526,0.294189,0.283752,0.204163,up
204977,-3.230469,4.847656,5.472656,-2.216797,-0.074219,-0.777344,0.901489,0.259277,0.279785,0.204468,up
204982,-3.269531,4.847656,5.394531,-2.191406,-0.089844,-0.792969,0.901489,0.259277,0.279785,0.204468,up
204987,-3.269531,4.847656,5.394531,-2.177734,-0.099609,-0.808594,0.905212,0.248413,0.278137,0.203857,up
204992,-3.308594,4.808594,5.589844,-2.177734,-0.099609,-0.808594,0.905212,0.248413,0.278137,0.203857,up
204997,-3.535156,4.925781,5.429687,-2.150391,-0.101563,-0.814453,0.908813,0.237549,0.276489,0.203003,up
205003,-3.613281,4.964844,5.351562,-2.166016,-0.083984,-0.867187,0.908813,0.237549,0.276489,0.203003,up
205008,-3.652344,4.886719,5.394531,-2.166016,-0.083984,-0.867187,0.914185,0.220581,0.273987,0.201355,up
205013,-3.765625,4.808594,5.46875,-2.166016,-0.083984,-0.867187,0.915771,0.215332,0.273254,0.200806,up
205018,-3.804688,4.542969,5.546875,-2.349609,-0.070312,-1.009766,0.917542,0.209412,0.272461,0.200134,up
205023,-3.804688,4.390625,5.625,-2.349609,-0.070312,-1.009766,0.917542,0.209412,0.272461,0.200134,up
205028,-3.804688,4.425781,5.625,-2.416016,-0.085937,-1.203125,0.917542,0.209412,0.272461,0.200134,up
205033,-3.84375,4.503906,5.664062,-2.416016,-0.085937,-1.203125,0.922974,0.190613,0.27002,0.197021,up
205038,-3.804688,4.542969,5.707031,-2.416016,-0.085937,-1.203125,0.924927,0.184021,0.269104,0.195435,up
205043,-3.882813,4.582031,5.851562,-2.416016,-0.085937,-1.203125,0.924927,0.184021,0.269104,0.195435,up
205048,-3.882813,4.582031,5.8125,-2.554688,-0.179687,-1.501953,0.924927,0.184021,0.269104,0.195435,up
205053,-3.921875,4.390625,5.8125,-2.554688,-0.179687,-1.501953,0.930725,0.163757,0.266174,0.190063,up
205058,-3.882813,4.390625,5.734375,-2.554688,-0.179687,-1.501953,0.932617,0.156738,0.265076,0.18811,up
205063,-3.882813,4.160156,6.007812,-2.554688,-0.179687,-1.501953,0.932617,0.156738,0.265076,0.18811,up
205068,-3.804688,4.042969,6.089844,-2.648438,-0.1875,-1.599609,0.932617,0.156738,0.265076,0.18811,up
205073,-3.804688,3.546875,6.160156,-2.648438,-0.1875,-1.599609,0.936462,0.141968,0.262756,0.183899,up
205078,-3.804688,3.546875,6.160156,-2.603516,-0.164062,-1.603516,0.938171,0.135132,0.26178,0.181946,up
205083,-3.84375,3.238281,6.277344,-2.603516,-0.164062,-1.603516,0.93988,0.12793,0.260742,0.179749,up
205088,-4.035156,3.277344,6.351562,-2.505859,-0.119141,-1.623047,0.941406,0.121033,0.259827,0.177612,up
205093,-4.035156,3.277344,6.351562,-2.505859,-0.119141,-1.623047,0.941406,0.121033,0.259827,0.177612,up
205098,-4.074219,3.125,6.429687,-2.457031,-0.085937,-1.658203,0.945862,0.100525,0.257385,0.170349,up
205103,-4.074219,3.046875,6.394531,-2.457031,-0.085937,-1.658203,0.945862,0.100525,0.257385,0.170349,up
205108,-4.074219,3.046875,6.394531,-2.457031,-0.085937,-1.658203,0.948547,0.086853,0.255981,0.164734,up
205113,-4.148437,2.894531,6.578125,-2.457031,-0.085937,-1.658203,0.948547,0.086853,0.255981,0.164734,up
205118,-4.339844,2.703125,6.695312,-2.535156,-0.123047,-1.966797,0.950012,0.079468,0.255127,0.16156,up
205123,-3.957031,1.628906,6.089844,-2.535156,-0.123047,-1.966797,0.951233,0.072937,0.254272,0.158752,up
205128,-3.765625,1.976563,6.238281,-2.535156,-0.123047,-1.966797,0.953918,0.057007,0.252258,0.152161,up
205133,-3.84375,2.207031,6.816406,-2.535156,-0.123047,-1.966797,0.953918,0.057007,0.252258,0.152161,up
205138,-3.996094,2.050781,7.238281,-2.494141,-0.072266,-1.970703,0.953918,0.057007,0.252258,0.152161,up
205143,-4.035156,1.363281,7.34375,-2.494141,-0.072266,-1.970703,0.956177,0.042358,0.250305,0.145874,up
205148,-3.996094,1.515625,7.160156,-2.494141,-0.072266,-1.970703,0.957153,0.0354,0.249512,0.142761,up
205153,-4.035156,1.628906,7.078125,-2.251953,-0.003906,-1.919922,0.957153,0.0354,0.249512,0.142761,up
205158,-4.035156,1.628906,7.078125,-2.142578,0.044922,-1.908203,0.95874,0.022461,0.24823,0.136536,up
205163,-4.035156,1.324219,7.304687,-1.984375,0.070312,-1.900391,0.959473,0.016418,0.247803,0.133301,up
205168,-4.035156,1.324219,7.304687,-1.814453,0.115234,-1.914063,0.960144,0.010498,0.247437,0.129822,up
205174,-3.996094,1.59375,7.199219,-1.669922,0.150391,-1.943359,0.961182,0.0,0.247131,0.12262,up
205180,-3.996094,1.746094,7.382812,-1.669922,0.150391,-1.943359,0.96167,-0.005249,0.24707,0.118713,up
205185,-3.996094,1.324219,7.304687,-1.669922,0.150391,-1.943359,0.962097,-0.010376,0.24707,0.114929,up
205191,-4.035156,1.132813,7.308594,-1.691406,0.263672,-2.011719,0.962097,-0.010376,0.24707,0.114929,up
205196,-4.074219,0.863281,7.503906,-1.742188,0.298828,-1.986328,0.962097,-0.010376,0.24707,0.114929,up
205202,-4.074219,0.75,7.582031,-1.736328,0.324219,-1.953125,0.962097,-0.010376,0.24707,0.114929,up
205208,-4.074219,0.710937,7.660156,-1.710938,0.339844,-1.923828,0.962097,-0.010376,0.24707,0.114929,up
205213,-4.113281,0.789062,7.808594,-1.535156,0.333984,-1.84375,0.962097,-0.010376,0.24707,0.114929,up
205219,-4.074219,0.632812,8.078125,-1.535156,0.333984,-1.84375,0.963379,-0.047302,0.248413,0.089417,up
205224,-4.148437,0.558594,8.152344,-1.265625,0.277344,-1.753906,0.963379,-0.052124,0.248596,0.085571,up
205229,-4.148437,0.367188,8.226563,-1.121094,0.216797,-1.716797,0.963379,-0.052124,0.248596,0.085571,up
205234,-4.113281,0.367188,8.265625,-1.121094,0.216797,-1.716797,0.963501,-0.059692,0.248718,0.078735,up
205240,-4.148437,0.671875,8.265625,-1.121094,0.216797,-1.716797,0.963623,-0.062683,0.248657,0.075378,up
205245,-4.148437,0.710937,8.269531,-0.681641,0.060547,-1.644531,0.963745,-0.065491,0.248474,0.071899,up
205250,-4.113281,0.789062,8.148438,-0.681641,0.060547,-1.644531,0.963928,-0.068359,0.248169,0.067993,up
205255,-4.1875,0.828125,8.042969,-0.681641,0.060547,-1.644531,0.963928,-0.068359,0.248169,0.067993,up
205260,-4.1875,0.863281,8.042969,-0.626953,-0.013672,-1.605469,0.96405,-0.07074,0.247803,0.064819,up
205265,-4.1875,0.863281,8.042969,-0.626953,-0.013672,-1.605469,0.964233,-0.073181,0.247375,0.061401,up
205270,-3.921875,0.710937,8.0,-0.625,-0.050781,-1.519531,0.964233,-0.073181,0.247375,0.061401,up
205276,-3.921875,0.710937,8.0,-0.65625,-0.042969,-1.458984,0.964539,-0.080627,0.245911,0.05188,up
205281,-3.804688,0.328125,8.078125,-0.65625,-0.042969,-1.458984,0.9646,-0.083191,0.245422,0.048889,up
205286,-3.765625,0.40625,8.226563,-0.654297,-0.019531,-1.308594,0.9646,-0.083191,0.245422,0.048889,up
205291,-3.765625,0.289063,8.460938,-0.654297,-0.019531,-1.308594,0.9646,-0.083191,0.245422,0.048889,up
205297,-3.691406,0.175781,8.460938,-0.544922,-0.011719,-1.148438,0.9646,-0.083191,0.245422,0.048889,up
205302,-3.691406,-0.054687,8.464844,-0.480469,-0.023437,-1.052734,0.9646,-0.083191,0.245422,0.048889,up
205307,-3.691406,-0.324219,8.648438,-0.480469,-0.023437,-1.052734,0.9646,-0.083191,0.245422,0.048889,up
205313,-3.726563,-0.589844,8.765625,-0.480469,-0.023437,-1.052734,0.964661,-0.095276,0.243225,0.034363,up
205318,-3.726563,-0.589844,8.765625,-0.238281,-0.083984,-0.679687,0.964722,-0.096375,0.242859,0.032837,up
205324,-3.691406,-1.089844,8.882813,0.037109,-0.189453,-0.476562,0.964722,-0.096375,0.242859,0.032837,up
205329,-3.921875,-0.859375,9.265625,0.037109,-0.189453,-0.476562,0.965088,-0.097534,0.241211,0.029175,up
205334,-3.957031,-0.746094,9.492188,0.037109,-0.189453,-0.476562,0.965393,-0.097168,0.240417,0.02832,up
205339,-4.035156,-0.515625,9.417969,0.488281,-0.484375,-0.214844,0.965393,-0.097168,0.240417,0.02832,up
205344,-4.457031,-0.285156,9.53125,0.488281,-0.484375,-0.214844,0.966187,-0.095093,0.238037,0.026978,up
205349,-4.609375,-0.054687,9.53125,0.642578,-0.707031,-0.054687,0.966187,-0.095093,0.238037,0.026978,up
205354,-4.6875,0.058594,9.574219,0.642578,-0.707031,-0.054687,0.967346,-0.09198,0.23468,0.026306,up
205360,-4.839844,0.328125,9.492188,0.642578,-0.707031,-0.054687,0.967957,-0.090332,0.232788,0.026306,up
205365,-4.839844,0.40625,9.414063,0.642578,-0.707031,-0.054687,0.968628,-0.088684,0.230652,0.026489,up
205370,-4.800781,0.40625,9.417969,0.521484,-0.908203,0.248047,0.968628,-0.088684,0.230652,0.026489,up
205375,-4.800781,0.367188,9.457031,0.443359,-0.898437,0.304688,0.968628,-0.088684,0.230652,0.026489,up
205381,-4.609375,0.058594,9.535156,0.443359,-0.898437,0.304688,0.968628,-0.088684,0.230652,0.026489,up
205387,-4.609375,-0.015625,9.53125,0.322266,-0.839844,0.423828,0.968628,-0.088684,0.230652,0.026489,up
205392,-4.648437,-0.207031,9.339844,0.273438,-0.773437,0.5,0.968628,-0.088684,0.230652,0.026489,up
205397,-4.648437,-0.554687,9.300781,0.244141,-0.699219,0.576172,0.968628,-0.088684,0.230652,0.026489,up
205402,-4.609375,-0.554687,9.335938,0.244141,-0.699219,0.576172,0.972168,-0.080322,0.217529,0.033081,up
205407,-4.609375,-0.4375,9.457031,0.363281,-0.519531,0.691406,0.972168,-0.080322,0.217529,0.033081,up
205412,-4.609375,-0.359375,9.609375,0.486328,-0.443359,0.728516,0.972168,-0.080322,0.217529,0.033081,up
205417,-4.570312,-0.132812,9.875,0.486328,-0.443359,0.728516,0.972168,-0.080322,0.217529,0.033081,up
205422,-4.496094,-0.054687,9.917969,0.486328,-0.443359,0.728516,0.973328,-0.073853,0.213684,0.03949,up
205427,-4.457031,0.023437,9.953125,0.78125,-0.363281,0.746094,0.973328,-0.073853,0.213684,0.03949,up
205433,-4.417969,0.175781,10.03125,0.78125,-0.363281,0.746094,0.973816,-0.069153,0.212341,0.042419,up
205438,-4.265625,0.40625,10.105469,0.78125,-0.363281,0.746094,0.974304,-0.064331,0.210999,0.045166,up
205443,-4.265625,0.441406,10.183594,0.78125,-0.363281,0.746094,0.974304,-0.064331,0.210999,0.045166,up
205449,-4.265625,0.441406,10.21875,0.609375,-0.435547,0.685547,0.974304,-0.064331,0.210999,0.045166,up
205454,-4.226562,0.710937,10.300781,0.609375,-0.435547,0.685547,0.975098,-0.058105,0.208374,0.049561,up
205459,-4.226562,0.75,10.335938,0.609375,-0.435547,0.685547,0.975098,-0.058105,0.208374,0.049561,up
205464,-4.226562,0.75,10.335938,0.359375,-0.486328,0.654297,0.975281,-0.056763,0.207458,0.050903,up
205469,-4.226562,0.75,10.300781,0.214844,-0.519531,0.650391,0.975281,-0.056763,0.207458,0.050903,up
205474,-4.1875,0.710937,10.257813,0.214844,-0.519531,0.650391,0.975281,-0.056763,0.207458,0.050903,up
205479,-4.1875,0.710937,10.257813,0.013672,-0.560547,0.646484,0.975891,-0.054321,0.203918,0.055664,up
205484,-4.035156,0.519531,10.183594,0.013672,-0.560547,0.646484,0.976257,-0.05365,0.201294,0.059082,up
205489,-3.921875,0.40625,10.222656,0.013672,-0.560547,0.646484,0.97644,-0.053406,0.200073,0.060852,up
205494,-3.957031,0.214844,10.296875,0.013672,-0.560547,0.646484,0.97644,-0.053406,0.200073,0.060852,up
205499,-3.921875,0.136719,10.257813,0.058594,-0.451172,0.775391,0.97644,-0.053406,0.200073,0.060852,up
205504,-3.84375,0.097656,10.339844,0.058594,-0.451172,0.775391,0.976685,-0.052551,0.197876,0.064636,up
205510,-3.84375,0.097656,10.339844,0.244141,-0.345703,0.861328,0.976868,-0.050903,0.196167,0.068604,up
205515,-3.765625,0.289063,10.417969,0.337891,-0.298828,0.908203,0.976868,-0.049622,0.195496,0.070801,up
205521,-3.804688,0.480469,10.453125,0.337891,-0.298828,0.908203,0.976868,-0.048279,0.195007,0.072815,up
205526,-3.882813,0.710937,10.414063,0.337891,-0.298828,0.908203,0.976868,-0.048279,0.195007,0.072815,up
205532,-3.921875,0.789062,10.378906,0.503906,-0.179687,1.0625,0.976868,-0.048279,0.195007,0.072815,up
205538,-3.957031,0.789062,10.300781,0.498047,-0.154297,1.113281,0.976868,-0.048279,0.195007,0.072815,up
205544,-4.035156,0.789062,10.21875,0.498047,-0.154297,1.113281,0.976501,-0.039612,0.19397,0.085083,up
205549,-4.113281,0.828125,10.300781,0.498047,-0.154297,1.113281,0.976501,-0.039612,0.19397,0.085083,up
205554,-4.113281,0.828125,10.300781,0.380859,-0.128906,1.21875,0.976501,-0.039612,0.19397,0.085083,up
205559,-4.148437,0.828125,10.417969,0.322266,-0.140625,1.228516,0.976501,-0.039612,0.19397,0.085083,up
205564,-4.148437,0.828125,10.484375,0.236328,-0.181641,1.230469,0.976013,-0.035095,0.193481,0.093567,up
205569,-4.113281,0.828125,10.375,0.236328,-0.181641,1.230469,0.975769,-0.033752,0.193237,0.096741,up
205574,-4.113281,0.828125,10.335938,0.236328,-0.181641,1.230469,0.975586,-0.032593,0.192932,0.099609,up
205579,-4.035156,0.597656,10.484375,0.193359,-0.1875,1.212891,0.97522,-0.030396,0.192383,0.105164,up
205584,-3.957031,0.632812,10.335938,0.193359,-0.1875,1.212891,0.97522,-0.030396,0.192383,0.105164,up
205589,-3.996094,0.597656,10.339844,0.185547,-0.158203,1.175781,0.97522,-0.030396,0.192383,0.105164,up
205594,-3.996094,0.558594,10.414063,0.195312,-0.107422,1.162109,0.97522,-0.030396,0.192383,0.105164,up
205600,-3.957031,0.558594,10.488281,0.195312,-0.107422,1.162109,0.974182,-0.026062,0.191589,0.116394,up
205605,-3.921875,0.597656,10.488281,0.232422,-0.068359,1.175781,0.973877,-0.024841,0.191528,0.119324,up
205610,-3.921875,0.632812,10.605469,0.257813,-0.064453,1.179688,0.973572,-0.023621,0.191528,0.122131,up
205616,-3.996094,0.671875,10.761719,0.292969,-0.070312,1.195313,0.973267,-0.022461,0.191467,0.124695,up
205621,-4.226562,0.863281,10.71875,0.292969,-0.070312,1.195313,0.972961,-0.021057,0.191467,0.127441,up
205626,-4.304687,0.902344,10.761719,0.367188,-0.083984,1.246094,0.972961,-0.021057,0.191467,0.127441,up
205632,-4.496094,0.980469,10.722656,0.408203,-0.111328,1.267578,0.972961,-0.021057,0.191467,0.127441,up
205637,-4.496094,0.980469,10.722656,0.425781,-0.138672,1.283203,0.971924,-0.016357,0.191284,0.136108,up
205642,-4.496094,0.980469,10.722656,0.441406,-0.173828,1.304688,0.971558,-0.014526,0.191101,0.139099,up
205647,-4.570312,1.210938,10.910156,0.441406,-0.173828,1.304688,0.971191,-0.012756,0.190796,0.14209,up
205652,-4.800781,1.171875,10.875,0.441406,-0.173828,1.304688,0.971191,-0.012756,0.190796,0.14209,up
205658,-4.800781,1.171875,10.875,0.449219,-0.261719,1.318359,0.97052,-0.009155,0.189941,0.148132,up
205664,-4.722656,1.285156,10.683594,0.449219,-0.261719,1.318359,0.97052,-0.009155,0.189941,0.148132,up
205669,-4.6875,1.476563,10.527344,0.4375,-0.371094,1.337891,0.97052,-0.009155,0.189941,0.148132,up
205674,-4.6875,1.707031,10.453125,0.4375,-0.371094,1.337891,0.969482,-0.003601,0.187927,0.157227,up
205680,-4.609375,1.667969,10.566406,0.378906,-0.380859,1.341797,0.969482,-0.003601,0.187927,0.157227,up
205685,-4.417969,1.628906,10.335938,0.378906,-0.380859,1.341797,0.968384,0.00177,0.185547,0.166809,up
205690,-4.378906,1.628906,10.300781,0.378906,-0.380859,1.341797,0.968018,0.003235,0.184814,0.169678,up
205695,-4.378906,1.59375,10.183594,0.271484,-0.371094,1.347656,0.96759,0.004822,0.18396,0.172974,up
205701,-4.378906,1.554688,10.140625,0.271484,-0.371094,1.347656,0.967163,0.006104,0.183289,0.175842,up
205706,-4.265625,1.402344,10.105469,0.271484,-0.371094,1.347656,0.966736,0.007568,0.182495,0.179077,up
205712,-4.113281,1.210938,10.183594,0.271484,-0.371094,1.347656,0.966736,0.007568,0.182495,0.179077,up
205717,-4.148437,1.132813,10.222656,0.191406,-0.251953,1.361328,0.965759,0.010132,0.181152,0.185486,up
205723,-4.113281,1.09375,10.335938,0.191406,-0.216797,1.367188,0.965759,0.010132,0.181152,0.185486,up
205729,-4.148437,1.09375,10.417969,0.255859,-0.171875,1.410156,0.965759,0.010132,0.181152,0.185486,up
205734,-4.1875,1.09375,10.488281,0.255859,-0.171875,1.410156,0.96405,0.013916,0.17981,0.19519,up
205739,-4.226562,1.210938,10.488281,0.314453,-0.148437,1.441406,0.96405,0.013916,0.17981,0.19519,up
205744,-4.339844,1.285156,10.5625,0.314453,-0.148437,1.441406,0.962708,0.016968,0.17926,0.201843,up
205750,-4.457031,1.363281,10.5625,0.435547,-0.177734,1.574219,0.962708,0.016968,0.17926,0.201843,up
205755,-4.570312,1.515625,10.566406,0.435547,-0.177734,1.574219,0.960388,0.022461,0.178467,0.212769,up
205760,-4.648437,1.59375,10.566406,0.435547,-0.177734,1.574219,0.959656,0.024231,0.17804,0.216187,up
205765,-4.722656,1.785156,10.488281,0.435547,-0.177734,1.574219,0.958801,0.026245,0.177368,0.220276,up
205770,-4.722656,1.785156,10.453125,0.300781,-0.363281,1.666016,0.958008,0.027954,0.176636,0.22406,up
205775,-4.761719,1.898438,10.339844,0.300781,-0.363281,1.666016,0.957275,0.029541,0.175781,0.227722,up
205780,-4.800781,1.859375,10.21875,0.300781,-0.363281,1.666016,0.957275,0.029541,0.175781,0.227722,up
205785,-4.6875,1.820313,10.144531,0.185547,-0.464844,1.662109,0.957275,0.029541,0.175781,0.227722,up
205790,-4.6875,1.820313,10.144531,0.130859,-0.482422,1.65625,0.954956,0.033752,0.172302,0.239258,up
205795,-4.53125,1.820313,9.957031,0.130859,-0.482422,1.65625,0.954956,0.033752,0.172302,0.239258,up
205800,-4.53125,1.820313,9.957031,0.007813,-0.478516,1.626953,0.954163,0.034851,0.171021,0.243103,up
205805,-4.074219,1.820313,9.722656,0.007813,-0.478516,1.626953,0.952454,0.036682,0.168457,0.25116,up
205810,-3.765625,1.707031,9.6875,0.007813,-0.478516,1.626953,0.952454,0.036682,0.168457,0.25116,up
205815,-3.765625,1.667969,9.722656,0.007813,-0.478516,1.626953,0.951599,0.037415,0.167297,0.255127,up
205820,-3.765625,1.628906,9.6875,-0.152344,-0.244141,1.658203,0.951599,0.037415,0.167297,0.255127,up
205825,-3.726563,1.59375,9.757813,-0.152344,-0.244141,1.658203,0.94873,0.039063,0.164612,0.266968,up
205830,-3.765625,1.628906,9.761719,-0.152344,-0.244141,1.658203,0.947815,0.039612,0.164001,0.270569,up
205835,-3.882813,1.628906,9.648438,-0.152344,-0.244141,1.658203,0.946533,0.040344,0.16333,0.275208,up
205840,-3.957031,1.628906,9.71875,-0.152344,-0.244141,1.658203,0.946533,0.040344,0.16333,0.275208,up
205845,-4.074219,1.554688,9.691406,-0.041016,-0.148437,1.818359,0.946533,0.040344,0.16333,0.275208,up
205851,-4.113281,1.476563,9.71875,-0.041016,-0.148437,1.818359,0.942993,0.042664,0.16156,0.287842,up
205856,-4.074219,1.59375,9.6875,-0.041016,-0.148437,1.818359,0.941772,0.043457,0.161011,0.291992,up
205862,-4.113281,1.628906,9.757813,-0.025391,-0.185547,1.914063,0.94043,0.04425,0.160339,0.296448,up
205868,-4.074219,1.859375,9.800781,-0.025391,-0.185547,1.914063,0.939026,0.045227,0.159607,0.30127,up
205873,-4.226562,1.785156,9.648438,-0.078125,-0.230469,1.976563,0.939026,0.045227,0.159607,0.30127,up
205878,-4.226562,1.667969,9.953125,-0.169922,-0.246094,2.0,0.939026,0.045227,0.159607,0.30127,up
205883,-4.035156,1.746094,10.03125,-0.216797,-0.302734,2.037109,0.939026,0.045227,0.159607,0.30127,up
205888,-3.882813,1.746094,9.875,-0.216797,-0.302734,2.037109,0.939026,0.045227,0.159607,0.30127,up
205894,-3.882813,1.785156,9.835938,-0.216797,-0.302734,2.037109,0.931702,0.048462,0.154358,0.325195,up
205899,-3.882813,1.785156,9.835938,-0.324219,-0.431641,2.158203,0.930237,0.048889,0.152954,0.330017,up
205904,-3.882813,1.785156,9.835938,-0.306641,-0.447266,2.179688,0.92865,0.049438,0.151428,0.335083,up
205909,-3.882813,1.785156,9.574219,-0.306641,-0.447266,2.179688,0.92865,0.049438,0.151428,0.335083,up
205914,-3.84375,1.785156,9.609375,-0.261719,-0.451172,2.207031,0.92865,0.049438,0.151428,0.335083,up
205919,-3.84375,1.785156,9.609375,-0.273438,-0.435547,2.261719,0.923523,0.051208,0.146729,0.350647,up
205924,-3.574219,1.628906,9.269531,-0.273438,-0.435547,2.261719,0.921692,0.051758,0.145264,0.355896,up
205929,-3.613281,1.628906,9.265625,-0.273438,-0.435547,2.261719,0.919617,0.052368,0.143494,0.362,up
205935,-3.574219,1.746094,9.296875,-0.322266,-0.398438,2.283203,0.919617,0.052368,0.143494,0.362,up
205940,-3.535156,1.9375,9.109375,-0.333984,-0.400391,2.263672,0.915833,0.053284,0.140503,0.372314,up
205946,-3.308594,1.898438,9.070313,-0.333984,-0.400391,2.263672,0.912048,0.054077,0.137512,0.382446,up
205951,-3.152344,1.976563,9.148438,-0.433594,-0.363281,2.201172,0.910095,0.054321,0.135925,0.387756,up
205956,-3.152344,1.976563,9.148438,-0.486328,-0.332031,2.171875,0.908142,0.054382,0.134399,0.392761,up
205961,-2.769531,2.128906,9.03125,-0.486328,-0.332031,2.171875,0.906189,0.05426,0.132935,0.397705,up
205966,-2.886719,1.820313,9.113281,-0.634766,-0.205078,2.109375,0.903992,0.053833,0.131348,0.403381,up
205971,-2.65625,1.515625,9.570313,-0.644531,-0.171875,2.109375,0.901917,0.053284,0.129944,0.408447,up
205977,-2.539063,1.515625,9.722656,-0.634766,-0.121094,2.132813,0.900146,0.052795,0.128784,0.412781,up
205982,-3.039063,1.402344,9.691406,-0.634766,-0.121094,2.132813,0.89801,0.052185,0.127625,0.417725,up
205987,-3.191406,1.515625,9.71875,-0.619141,-0.099609,2.199219,0.89801,0.052185,0.127625,0.417725,up
205992,-3.230469,1.667969,9.761719,-0.601562,-0.105469,2.236328,0.89801,0.052185,0.127625,0.417725,up
205998,-3.078125,1.859375,9.722656,-0.601562,-0.105469,2.236328,0.891296,0.050659,0.124084,0.433167,up
206003,-2.960938,1.9375,9.609375,-0.589844,-0.125,2.289063,0.888977,0.050232,0.122864,0.438354,up
206009,-2.960938,1.859375,9.496094,-0.609375,-0.132812,2.296875,0.888977,0.050232,0.122864,0.438354,up
206014,-2.960938,1.859375,9.496094,-0.599609,-0.130859,2.279297,0.884094,0.049255,0.120361,0.448853,up
206019,-2.539063,1.976563,9.074219,-0.599609,-0.130859,2.279297,0.884094,0.049255,0.120361,0.448853,up
206024,-2.464844,2.359375,8.886719,-0.591797,-0.113281,2.242188,0.879211,0.048218,0.117981,0.459106,up
206030,-2.539063,2.589844,8.609375,-0.759766,0.072266,1.958984,0.879211,0.048218,0.117981,0.459106,up
206036,-2.695313,2.589844,8.460938,-0.759766,0.072266,1.958984,0.872375,0.045288,0.11499,0.472961,up
206041,-2.65625,2.625,8.34375,-1.050781,0.271484,1.773438,0.870117,0.043335,0.114014,0.477478,up
206046,-2.695313,2.550781,8.265625,-1.050781,0.271484,1.773438,0.867981,0.041016,0.11322,0.48175,up
206053,-2.808594,2.398438,8.425781,-1.050781,0.271484,1.773438,0.86615,0.038635,0.112549,0.485474,up
206058,-2.960938,2.359375,8.570313,-1.300781,0.568359,1.664063,0.864075,0.035767,0.112,0.489441,up
206063,-3.117188,2.089844,8.765625,-1.359375,0.617187,1.664063,0.864075,0.035767,0.112,0.489441,up
206068,-3.230469,1.785156,9.035156,-1.398438,0.648437,1.679688,0.864075,0.035767,0.112,0.489441,up
206074,-3.269531,1.746094,9.148438,-1.398438,0.648437,1.679688,0.857544,0.02594,0.110535,0.501709,up
206079,-3.269531,1.59375,9.300781,-1.378906,0.667969,1.757813,0.857544,0.02594,0.110535,0.501709,up
206085,-3.308594,1.628906,9.609375,-1.320313,0.642578,1.802734,0.857544,0.02594,0.110535,0.501709,up
206090,-3.460938,1.59375,9.800781,-1.115234,0.558594,1.904297,0.850464,0.016479,0.109253,0.514282,up
206095,-3.5,1.59375,9.992188,-1.115234,0.558594,1.904297,0.847717,0.013611,0.108887,0.518921,up
206100,-3.5,1.59375,9.992188,-1.03125,0.46875,1.960938,0.845337,0.011414,0.108582,0.522949,up
206105,-3.535156,1.554688,10.105469,-0.960937,0.365234,2.035156,0.845337,0.011414,0.108582,0.522949,up
206110,-3.535156,1.554688,10.105469,-0.916016,0.259766,2.101563,0.839783,0.007507,0.107422,0.532104,up
206115,-3.804688,1.285156,10.179688,-0.916016,0.259766,2.101563,0.836914,0.005981,0.106628,0.536804,up
206120,-3.804688,1.285156,10.179688,-0.849609,0.046875,2.25,0.833862,0.004639,0.105591,0.541748,up
206125,-3.765625,1.246094,10.140625,-0.849609,0.046875,2.25,0.827515,0.002563,0.103149,0.55188,up
206130,-3.804688,1.285156,10.140625,-0.849609,0.046875,2.25,0.827515,0.002563,0.103149,0.55188,up
206135,-3.765625,1.171875,10.03125,-0.765625,-0.220703,2.492188,0.827515,0.002563,0.103149,0.55188,up
206141,-3.691406,1.09375,9.839844,-0.765625,-0.220703,2.492188,0.817322,0.000549,0.098633,0.567627,up
206146,-3.613281,1.210938,9.71875,-0.701172,-0.236328,2.556641,0.813538,6.1e-05,0.097046,0.573364,up
206151,-3.535156,1.210938,9.71875,-0.662109,-0.220703,2.580078,0.813538,6.1e-05,0.097046,0.573364,up
206156,-3.5,1.324219,9.652344,-0.662109,-0.220703,2.580078,0.806274,-0.000671,0.094299,0.583984,up
206162,-3.535156,1.785156,9.71875,-0.662109,-0.220703,2.580078,0.802734,-0.000916,0.093079,0.58905,up
206167,-3.535156,1.785156,9.71875,-0.53125,-0.228516,2.621094,0.802734,-0.000916,0.093079,0.58905,up
206172,-3.535156,1.820313,9.71875,-0.517578,-0.265625,2.626953,0.802734,-0.000916,0.093079,0.58905,up
206177,-3.574219,1.9375,9.761719,-0.517578,-0.265625,2.626953,0.802734,-0.000916,0.093079,0.58905,up
206182,-3.652344,1.976563,9.609375,-0.513672,-0.318359,2.65625,0.791138,-0.001038,0.089172,0.605103,up
206187,-3.652344,1.976563,9.609375,-0.513672,-0.318359,2.65625,0.787048,-0.000916,0.087646,0.610657,up
206192,-3.691406,1.785156,9.957031,-0.572266,-0.462891,2.693359,0.779053,-0.000488,0.084106,0.621338,up
206197,-3.691406,1.785156,9.957031,-0.572266,-0.462891,2.693359,0.779053,-0.000488,0.084106,0.621338,up
206203,-3.765625,1.363281,9.613281,-0.623047,-0.708984,2.753906,0.77063,0.000488,0.079407,0.632324,up
206209,-3.691406,1.324219,9.375,-0.658203,-0.972656,2.814453,0.77063,0.000488,0.079407,0.632324,up
206215,-3.421875,1.210938,9.457031,-0.675781,-1.164063,2.833984,0.77063,0.000488,0.079407,0.632324,up
206220,-3.34375,1.210938,9.230469,-0.675781,-1.164063,2.833984,0.75769,0.003296,0.070312,0.648804,up
206225,-3.191406,1.171875,9.074219,-0.699219,-1.271484,2.841797,0.753357,0.004456,0.066956,0.654236,up
206230,-2.847656,1.210938,8.613281,-0.699219,-1.271484,2.841797,0.748718,0.005798,0.063293,0.659851,up
206236,-2.65625,1.210938,8.503906,-0.712891,-1.287109,2.853516,0.744263,0.00708,0.059753,0.665222,up
206241,-2.539063,1.210938,8.464844,-0.712891,-1.287109,2.853516,0.739563,0.008362,0.05603,0.670715,up
206246,-2.503906,1.019531,8.269531,-0.720703,-1.28125,2.878906,0.739563,0.008362,0.05603,0.670715,up
206252,-2.347656,0.902344,8.1875,-0.720703,-1.28125,2.878906,0.725586,0.012146,0.045227,0.686523,up
206257,-2.347656,0.902344,8.1875,-0.695312,-1.294922,3.017578,0.720459,0.013489,0.041565,0.692139,up
206262,-2.347656,0.902344,8.1875,-0.683594,-1.324219,3.076172,0.720459,0.013489,0.041565,0.692139,up
206267,-2.234375,0.558594,8.304688,-0.683594,-1.324219,3.076172,0.715393,0.014832,0.037903,0.69751,up
206272,-2.234375,0.558594,8.304688,-0.648437,-1.361328,3.142578,0.710144,0.016296,0.034302,0.703003,up
206277,-2.273438,0.519531,8.386719,-0.648437,-1.361328,3.142578,0.704529,0.018005,0.030518,0.708801,up
206283,-2.3125,-0.015625,8.574219,-0.474609,-1.544922,3.287109,0.692993,0.0224,0.023071,0.720215,up
206288,-2.195313,0.023437,8.570313,-0.474609,-1.544922,3.287109,0.687134,0.025269,0.019409,0.72583,up
206293,-2.082031,0.023437,8.382813,-0.082031,-1.964844,3.378906,0.687134,0.025269,0.019409,0.72583,up
206299,-2.003906,0.058594,8.226563,-0.009766,-2.097656,3.392578,0.687134,0.025269,0.019409,0.72583,up
206304,-1.851563,0.058594,8.308594,-0.009766,-2.097656,3.392578,0.668274,0.036926,0.00769,0.742981,up
206309,-1.546875,0.367188,8.109375,-0.009766,-2.097656,3.392578,0.668274,0.036926,0.00769,0.742981,up
206314,-1.46875,0.441406,8.003906,-0.009766,-2.097656,3.392578,0.655945,0.045654,-0.000488,0.753418,up
206320,-1.46875,0.441406,8.003906,0.013672,-2.560547,3.380859,0.649658,0.050293,-0.004883,0.758545,up
206325,-1.160156,0.136719,7.539062,0.013672,-2.560547,3.380859,0.649658,0.050293,-0.004883,0.758545,up
206330,-1.160156,0.136719,7.539062,-0.130859,-2.728516,3.322266,0.636658,0.060181,-0.014587,0.768677,up
206335,-0.96875,-0.324219,7.34375,-0.130859,-2.728516,3.322266,0.630066,0.065369,-0.019897,0.77356,up
206340,-0.96875,-0.324219,7.34375,-0.222656,-2.941406,3.212891,0.623718,0.070374,-0.025269,0.778076,up
206345,-1.046875,-0.589844,7.5,-0.222656,-2.941406,3.212891,0.623718,0.070374,-0.025269,0.778076,up
206350,-1.085938,-1.050781,7.5,-0.416016,-3.150391,3.001953,0.623718,0.070374,-0.025269,0.778076,up
206356,-0.855469,-1.585938,7.695312,-0.527344,-3.283203,2.898438,0.623718,0.070374,-0.025269,0.778076,up
206361,-0.742187,-1.511719,7.804687,-0.667969,-3.552734,2.699219,0.623718,0.070374,-0.025269,0.778076,up
206366,-0.703125,-1.433594,7.882812,-0.667969,-3.552734,2.699219,0.587219,0.103821,-0.065491,0.800049,up
206371,-0.511719,-1.816406,8.148438,-0.667969,-3.552734,2.699219,0.587219,0.103821,-0.065491,0.800049,up
206376,-0.511719,-1.816406,8.148438,-0.691406,-3.957031,2.583984,0.576355,0.115662,-0.079895,0.804993,up
206381,-0.359375,-2.429688,8.226563,-0.691406,-3.957031,2.583984,0.576355,0.115662,-0.079895,0.804993,up
206386,-0.28125,-2.8125,8.230469,-0.574219,-4.265625,2.634766,0.569702,0.123169,-0.088867,0.807678,up
206392,0.140625,-3.425781,8.265625,-0.574219,-4.265625,2.634766,0.557617,0.137329,-0.104492,0.811951,up
206398,0.253906,-3.808594,8.382813,-0.574219,-4.265625,2.634766,0.551575,0.144531,-0.111755,0.813904,up
206403,0.253906,-3.808594,8.382813,-0.111328,-4.609375,2.789063,0.544495,0.153015,-0.11969,0.815979,up
206408,0.410156,-4.152344,8.382813,-0.111328,-4.609375,2.789063,0.544495,0.153015,-0.11969,0.815979,up
206413,0.714844,-4.117187,7.765625,0.087891,-4.619141,2.828125,0.537476,0.161499,-0.126953,0.817871,up
206418,0.714844,-4.117187,7.765625,0.087891,-4.619141,2.828125,0.537476,0.161499,-0.126953,0.817871,up
206424,1.558594,-3.65625,7.234375,0.689453,-4.544922,2.802734,0.514771,0.188843,-0.145508,0.823486,up
206429,1.902344,-3.15625,7.382812,1.195313,-4.544922,2.771484,0.514771,0.188843,-0.145508,0.823486,up
206434,1.941406,-2.8125,7.382812,1.195313,-4.544922,2.771484,0.498657,0.208679,-0.154785,0.826965,up
206439,2.210938,-2.582031,7.304687,1.890625,-4.400391,2.794922,0.498657,0.208679,-0.154785,0.826965,up
206444,2.476563,-2.621094,7.304687,2.136719,-4.306641,2.808594,0.498657,0.208679,-0.154785,0.826965,up
206450,2.476563,-3.042969,7.195312,2.136719,-4.306641,2.808594,0.498657,0.208679,-0.154785,0.826965,up
206455,2.476563,-3.195313,6.894531,2.136719,-4.306641,2.808594,0.462952,0.250671,-0.164246,0.834167,up
206460,2.476563,-3.195313,6.894531,2.777344,-3.699219,2.917969,0.453796,0.260498,-0.164795,0.836121,up
206465,2.476563,-3.195313,6.894531,3.001953,-3.523438,3.025391,0.444641,0.269592,-0.164795,0.838135,up
206470,2.59375,-3.003906,6.351562,3.001953,-3.523438,3.025391,0.444641,0.269592,-0.164795,0.838135,up
206475,2.59375,-3.003906,6.351562,3.183594,-3.402344,3.107422,0.424255,0.288391,-0.163147,0.842712,up
206480,2.707031,-3.617188,6.199219,3.433594,-3.113281,3.253906,0.413818,0.297302,-0.161743,0.845093,up
206486,2.9375,-3.121094,5.851562,3.609375,-2.984375,3.332031,0.391602,0.31488,-0.157532,0.850098,up
206491,3.167969,-2.8125,5.8125,4.074219,-3.089844,3.460938,0.391602,0.31488,-0.157532,0.850098,up
206496,3.359375,-2.773438,5.894531,4.074219,-3.089844,3.460938,0.367859,0.33313,-0.15155,0.854858,up
206501,3.589844,-2.851563,5.738281,4.503906,-3.048828,3.46875,0.367859,0.33313,-0.15155,0.854858,up
206506,3.855469,-2.621094,5.507812,4.503906,-3.048828,3.46875,0.343323,0.351501,-0.143616,0.859009,up
206511,4.125,-2.160156,5.246094,4.503906,-3.048828,3.46875,0.343323,0.351501,-0.143616,0.859009,up
206516,4.394531,-1.664063,5.046875,5.253906,-3.214844,3.314453,0.343323,0.351501,-0.143616,0.859009,up
206521,4.660156,-1.320313,4.898437,5.253906,-3.214844,3.314453,0.317383,0.371216,-0.133118,0.862427,up
206526,4.855469,-0.820312,4.628906,5.306641,-3.230469,3.167969,0.304077,0.38147,-0.127075,0.863647,up
206531,4.855469,-0.820312,4.628906,5.244141,-3.220703,3.001953,0.291504,0.391296,-0.121155,0.864441,up
206536,4.855469,-0.820312,4.476562,5.244141,-3.220703,3.001953,0.279175,0.40094,-0.115112,0.864868,up
206541,4.855469,-0.820312,4.476562,5.240234,-3.115234,2.646484,0.266846,0.410767,-0.108582,0.865051,up
206547,5.238281,-0.898437,3.976563,5.240234,-3.115234,2.646484,0.243774,0.42926,-0.094727,0.864502,up
206552,5.160156,-0.746094,3.824219,5.226562,-2.925781,2.103516,0.231201,0.439453,-0.086365,0.863708,up
206557,5.117187,-0.628906,3.632813,5.226562,-2.925781,2.103516,0.221863,0.447144,-0.080139,0.862793,up
206562,5.078125,-0.667969,3.363281,5.226562,-2.925781,2.103516,0.221863,0.447144,-0.080139,0.862793,up
206567,5.316406,-0.628906,3.058594,4.529297,-2.851563,1.863281,0.221863,0.447144,-0.080139,0.862793,up
206573,5.960937,-0.859375,2.980469,4.048828,-2.953125,1.826172,0.193604,0.471802,-0.063416,0.857849,up
206578,5.960937,-0.859375,2.980469,4.048828,-2.953125,1.826172,0.193604,0.471802,-0.063416,0.857849,up
206583,7.570312,-0.285156,4.09375,2.693359,-3.351563,1.878906,0.193604,0.471802,-0.063416,0.857849,up
206589,8.378906,0.558594,4.898437,2.693359,-3.351563,1.878906,0.169739,0.495911,-0.055847,0.849792,up
206594,8.53125,1.132813,4.972656,2.693359,-3.351563,1.878906,0.162659,0.503418,-0.054932,0.846802,up
206600,8.640625,1.285156,4.78125,1.65625,-2.806641,1.638672,0.162659,0.503418,-0.054932,0.846802,up
206605,8.957031,0.980469,4.707031,1.546875,-2.654297,1.460938,0.162659,0.503418,-0.054932,0.846802,up
206610,9.605469,0.941406,4.667969,1.505859,-2.523438,1.292969,0.162659,0.503418,-0.054932,0.846802,up
206615,9.527344,0.863281,4.707031,1.505859,-2.523438,1.292969,0.14093,0.527466,-0.052979,0.836121,up
206620,9.527344,0.863281,4.707031,1.523438,-2.212891,1.017578,0.136292,0.532776,-0.051941,0.833618,up
206625,9.527344,0.863281,4.707031,1.501953,-2.042969,0.855469,0.132141,0.537476,-0.050781,0.831299,up
206630,10.328125,0.558594,4.859375,1.501953,-2.042969,0.855469,0.128418,0.541687,-0.049377,0.829224,up
206635,9.40625,0.289063,4.324219,1.501953,-2.042969,0.855469,0.128418,0.541687,-0.049377,0.829224,up
206640,9.300781,-0.015625,4.015625,1.345703,-1.333984,0.476562,0.121704,0.548706,-0.045959,0.825867,up
206645,8.953125,-0.324219,4.515625,1.25,-1.298828,0.376953,0.121704,0.548706,-0.045959,0.825867,up
206651,9.300781,-0.132812,4.707031,0.773437,-1.279297,0.205078,0.121704,0.548706,-0.045959,0.825867,up
206656,9.367188,-0.09375,4.742187,0.773437,-1.279297,0.205078,0.114624,0.557678,-0.041504,0.821045,up
206661,9.21875,-0.054687,4.550781,-0.019531,-1.234375,0.041016,0.114624,0.557678,-0.041504,0.821045,up
206666,8.796875,-0.324219,4.972656,-0.351563,-1.378906,-0.039063,0.112915,0.562927,-0.040955,0.817749,up
206671,8.679688,-0.4375,5.394531,-0.351563,-1.378906,-0.039063,0.113098,0.565491,-0.041687,0.815918,up
206676,8.953125,-0.554687,5.625,-0.556641,-1.583984,-0.109375,0.113098,0.565491,-0.041687,0.815918,up
206682,8.984375,-0.667969,5.433594,-0.650391,-1.65625,-0.207031,0.113098,0.565491,-0.041687,0.815918,up
206687,9.484375,-0.667969,5.28125,-0.650391,-1.65625,-0.207031,0.117554,0.578857,-0.047485,0.805542,up
206692,9.867188,-0.359375,4.972656,-0.587891,-1.806641,-0.455078,0.117554,0.578857,-0.047485,0.805542,up
206697,9.984375,-0.054687,4.589844,-0.587891,-1.806641,-0.455078,0.120605,0.585571,-0.0495,0.800049,up
206702,10.171875,0.058594,4.246094,-0.587891,-1.806641,-0.455078,0.122314,0.588318,-0.05011,0.797729,up
206707,9.71875,0.175781,3.902344,-0.425781,-1.248047,-0.667969,0.124268,0.591125,-0.050537,0.795349,up
206712,9.605469,0.25,3.941406,-0.257813,-1.089844,-0.705078,0.124268,0.591125,-0.050537,0.795349,up
206717,9.644531,0.175781,3.902344,-0.257813,-1.089844,-0.705078,0.127563,0.595337,-0.050232,0.791687,up
206722,8.984375,0.289063,3.941406,-0.257813,-1.089844,-0.705078,0.127563,0.595337,-0.050232,0.791687,up
206727,8.984375,0.289063,3.941406,-0.056641,-0.806641,-0.775391,0.12915,0.597046,-0.0495,0.790161,up
206732,8.839844,0.40625,4.015625,-0.056641,-0.806641,-0.775391,0.130676,0.598694,-0.048706,0.788757,up
206737,8.878906,0.367188,4.78125,-0.119141,-0.808594,-0.802734,0.132324,0.600342,-0.047913,0.787231,up
206742,8.878906,0.367188,4.78125,-0.244141,-0.878906,-0.832031,0.134094,0.602051,-0.047363,0.785706,up
206749,9.105469,0.441406,4.207031,-0.521484,-1.125,-0.941406,0.134094,0.602051,-0.047363,0.785706,up
206754,9.21875,0.519531,3.863281,-0.613281,-1.253906,-0.990234,0.134094,0.602051,-0.047363,0.785706,up
206759,9.566406,0.671875,3.328125,-0.613281,-1.253906,-0.990234,0.134094,0.602051,-0.047363,0.785706,up
206765,9.527344,0.828125,2.90625,-0.671875,-1.347656,-1.058594,0.134094,0.602051,-0.047363,0.785706,up
206771,9.683594,1.09375,2.558594,-0.671875,-1.347656,-1.058594,0.150085,0.615601,-0.047302,0.772156,up
206777,9.753906,1.246094,2.484375,-0.550781,-1.361328,-1.091797,0.150085,0.615601,-0.047302,0.772156,up
206782,9.871094,1.363281,2.367188,-0.300781,-1.298828,-1.166016,0.150085,0.615601,-0.047302,0.772156,up
206787,10.023438,1.4375,2.214844,-0.300781,-1.298828,-1.166016,0.161072,0.62561,-0.045471,0.761963,up
206792,10.175781,1.667969,2.101563,-0.300781,-1.298828,-1.166016,0.16333,0.627686,-0.044312,0.759827,up
206797,10.410156,2.28125,1.871094,-0.033203,-0.886719,-1.345703,0.16333,0.627686,-0.044312,0.759827,up
206802,10.40625,2.511719,1.871094,-0.033203,-0.886719,-1.345703,0.168396,0.631226,-0.041016,0.755981,up
206807,10.023438,2.78125,1.984375,-0.070312,-0.4375,-1.414063,0.168396,0.631226,-0.041016,0.755981,up
206813,9.828125,2.742188,2.023438,-0.070312,-0.4375,-1.414063,0.17395,0.633179,-0.03717,0.753296,up
206819,9.640625,2.742188,1.984375,-0.175781,-0.154297,-1.453125,0.17688,0.633667,-0.035217,0.752319,up
206826,9.371094,2.78125,1.871094,-0.302734,-0.0625,-1.462891,0.17688,0.633667,-0.035217,0.752319,up
206831,9.179688,2.855469,1.832031,-0.466797,-0.013672,-1.466797,0.183411,0.63385,-0.031799,0.750732,up
206836,9.027344,2.933594,1.71875,-0.466797,-0.013672,-1.466797,0.187012,0.633728,-0.030518,0.75,up
206842,9.027344,2.972656,1.566406,-0.75,-0.058594,-1.453125,0.195068,0.633423,-0.028687,0.748291,up
206847,8.875,3.125,1.371094,-0.75,-0.058594,-1.453125,0.199097,0.633301,-0.028137,0.747314,up
206852,8.875,3.085938,1.371094,-0.75,-0.058594,-1.453125,0.199097,0.633301,-0.028137,0.747314,up
206857,8.953125,3.085938,1.335938,-0.904297,-0.222656,-1.326172,0.199097,0.633301,-0.028137,0.747314,up
206862,8.953125,3.085938,1.335938,-0.837891,-0.310547,-1.277344,0.206787,0.633362,-0.027527,0.745178,up
206867,9.339844,3.125,1.296875,-0.730469,-0.390625,-1.234375,0.210327,0.633667,-0.027161,0.743958,up
206872,9.339844,3.125,1.296875,-0.603516,-0.457031,-1.208984,0.213745,0.634155,-0.026672,0.742554,up
206877,9.445313,3.085938,1.335938,-0.603516,-0.457031,-1.208984,0.216797,0.634827,-0.026062,0.74115,up
206883,9.445313,3.085938,1.335938,-0.398438,-0.470703,-1.154297,0.219604,0.635498,-0.025269,0.739746,up
206888,9.683594,3.046875,1.296875,-0.398438,-0.470703,-1.154297,0.224915,0.63678,-0.023376,0.737122,up
206893,9.605469,3.046875,1.257813,-0.398438,-0.470703,-1.154297,0.227417,0.637268,-0.022217,0.736023,up
206899,9.445313,3.277344,1.371094,-0.398438,-0.470703,-1.154297,0.227417,0.637268,-0.022217,0.736023,up
206904,9.40625,3.355469,1.488281,-0.222656,-0.136719,-1.058594,0.227417,0.637268,-0.022217,0.736023,up
206911,9.335938,3.394531,1.488281,-0.234375,-0.082031,-1.029297,0.227417,0.637268,-0.022217,0.736023,up
206916,9.410156,3.46875,1.601563,-0.240234,-0.029297,-1.033203,0.227417,0.637268,-0.022217,0.736023,up
206921,9.445313,3.507813,1.601563,-0.251953,-0.005859,-1.027344,0.227417,0.637268,-0.022217,0.736023,up
206926,9.523438,3.507813,1.566406,-0.253906,0.0,-1.013672,0.227417,0.637268,-0.022217,0.736023,up
206931,9.601563,3.507813,1.527344,-0.279297,-0.003906,-0.982422,0.227417,0.637268,-0.022217,0.736023,up
206936,9.679688,3.546875,1.601563,-0.292969,-0.029297,-0.953125,0.227417,0.637268,-0.022217,0.736023,up
206942,9.828125,3.699219,1.601563,-0.292969,-0.029297,-0.953125,0.248047,0.637268,-0.012085,0.729553,up
206947,9.867188,3.699219,1.601563,-0.349609,-0.050781,-0.880859,0.252625,0.636963,-0.010559,0.72821,up
206952,9.90625,3.660156,1.640625,-0.349609,-0.050781,-0.880859,0.252625,0.636963,-0.010559,0.72821,up
206957,9.910156,3.621094,1.71875,-0.349609,-0.050781,-0.880859,0.254822,0.63678,-0.01001,0.727661,up
206962,9.832031,3.621094,1.792969,-0.462891,-0.03125,-0.751953,0.254822,0.63678,-0.01001,0.727661,up
206967,9.71875,3.507813,1.792969,-0.458984,-0.037109,-0.664062,0.254822,0.63678,-0.01001,0.727661,up
206972,9.640625,3.429688,2.0625,-0.458984,-0.037109,-0.664062,0.261108,0.636047,-0.009094,0.726074,up
206977,9.71875,3.429688,2.175781,-0.419922,-0.105469,-0.595703,0.262939,0.635803,-0.008911,0.725647,up
206982,9.789063,3.394531,2.175781,-0.419922,-0.105469,-0.595703,0.264832,0.635681,-0.008728,0.725037,up
206987,9.90625,3.429688,2.253906,-0.384766,-0.166016,-0.554687,0.266357,0.63562,-0.008667,0.724548,up
206993,9.90625,3.429688,2.253906,-0.373047,-0.175781,-0.544922,0.269714,0.635681,-0.008484,0.723267,up
206998,10.105469,3.507813,2.140625,-0.345703,-0.179687,-0.539062,0.269714,0.635681,-0.008484,0.723267,up
207003,10.105469,3.507813,2.140625,-0.345703,-0.179687,-0.539062,0.272766,0.635803,-0.00824,0.721985,up
207008,10.105469,3.621094,2.175781,-0.345703,-0.179687,-0.539062,0.274353,0.635925,-0.008057,0.721313,up
207013,10.0625,3.699219,2.175781,-0.345703,-0.179687,-0.539062,0.275574,0.635986,-0.007813,0.720764,up
207018,9.984375,3.777344,2.140625,-0.195312,-0.146484,-0.511719,0.276917,0.636108,-0.007446,0.720154,up
207024,9.792969,3.96875,2.101563,-0.195312,-0.146484,-0.511719,0.278137,0.63623,-0.00708,0.719604,up
207030,9.644531,4.195312,2.214844,-0.195312,-0.146484,-0.511719,0.279236,0.636353,-0.006653,0.719055,up
207035,9.527344,4.3125,2.253906,-0.107422,-0.15625,-0.482422,0.279236,0.636353,-0.006653,0.719055,up
207041,9.488281,4.390625,2.175781,-0.060547,-0.167969,-0.476562,0.279236,0.636353,-0.006653,0.719055,up
207046,9.40625,4.464844,2.175781,-0.060547,-0.167969,-0.476562,0.28241,0.637024,-0.005127,0.717224,up
207051,9.257813,4.503906,2.214844,-0.060547,-0.167969,-0.476562,0.28241,0.637024,-0.005127,0.717224,up
207056,9.21875,4.503906,2.214844,-0.060547,-0.167969,-0.476562,0.283936,0.637573,-0.003906,0.716125,up
207062,9.296875,4.65625,2.332031,0.099609,-0.119141,-0.419922,0.283936,0.637573,-0.003906,0.716125,up
207067,9.296875,4.734375,2.292969,0.099609,-0.119141,-0.419922,0.285217,0.638123,-0.002319,0.715149,up
207072,9.300781,4.847656,2.332031,0.144531,-0.046875,-0.400391,0.285217,0.638123,-0.002319,0.715149,up
207078,9.179688,4.925781,2.332031,0.111328,0.023437,-0.369141,0.285217,0.638123,-0.002319,0.715149,up
207083,8.953125,4.964844,2.214844,0.111328,0.023437,-0.369141,0.286743,0.638489,0.000244,0.714233,up
207088,8.953125,4.964844,2.214844,0.076172,0.03125,-0.339844,0.287231,0.638489,0.000977,0.71405,up
207093,8.957031,5.0,2.214844,0.076172,0.03125,-0.339844,0.28772,0.638428,0.001648,0.713867,up
207098,8.957031,5.0,2.214844,-0.068359,0.046875,-0.292969,0.288269,0.638367,0.002197,0.713684,up
207103,8.878906,5.078125,2.292969,-0.068359,0.046875,-0.292969,0.288269,0.638367,0.002197,0.713684,up
207108,8.683594,4.808594,2.40625,-0.068359,0.046875,-0.292969,0.290283,0.637878,0.003113,0.713379,up
207113,8.640625,4.773437,2.445313,-0.068359,0.046875,-0.292969,0.291077,0.637573,0.003235,0.713257,up
207118,8.492188,4.617187,2.40625,-0.068359,0.046875,-0.292969,0.291931,0.637268,0.003235,0.713196,up
207123,8.496094,4.582031,2.367188,-0.314453,0.046875,-0.216797,0.291931,0.637268,0.003235,0.713196,up
207128,8.457031,4.503906,2.40625,-0.314453,0.046875,-0.216797,0.293762,0.636536,0.002869,0.713074,up
207133,8.414063,4.390625,2.40625,-0.314453,0.046875,-0.216797,0.2948,0.636169,0.002563,0.713013,up
207138,8.300781,4.351562,2.445313,-0.314453,0.046875,-0.216797,0.295715,0.635864,0.002197,0.712891,up
207143,8.109375,4.3125,2.332031,-0.314453,0.046875,-0.216797,0.295715,0.635864,0.002197,0.712891,up
207148,8.035156,4.273437,2.332031,-0.433594,0.013672,-0.166016,0.295715,0.635864,0.002197,0.712891,up
207153,7.992187,4.234375,2.332031,-0.433594,0.013672,-0.166016,0.298828,0.634705,0.000793,0.712646,up
207158,7.917969,4.195312,2.214844,-0.433594,0.013672,-0.166016,0.299744,0.634399,0.000366,0.712524,up
207163,8.035156,4.082031,2.140625,-0.384766,-0.037109,-0.199219,0.299744,0.634399,0.000366,0.712524,up
207168,7.992187,4.003906,2.023438,-0.384766,-0.037109,-0.199219,0.301758,0.633911,-0.000427,0.712097,up
207173,8.113281,3.96875,1.949219,-0.384766,-0.037109,-0.199219,0.302673,0.633972,-0.000854,0.71167,up
207179,8.453125,3.8125,1.757813,-0.384766,-0.037109,-0.199219,0.303711,0.634155,-0.001404,0.71106,up
207184,8.679688,3.8125,1.640625,-0.347656,-0.376953,-0.203125,0.304749,0.63446,-0.001953,0.710327,up
207189,8.953125,3.738281,1.527344,-0.347656,-0.376953,-0.203125,0.305481,0.634827,-0.002441,0.709717,up
207194,8.984375,3.738281,1.449219,-0.347656,-0.376953,-0.203125,0.306335,0.635254,-0.002991,0.708984,up
207199,9.144531,3.738281,1.488281,-0.347656,-0.376953,-0.203125,0.307068,0.635559,-0.00354,0.708313,up
207205,9.144531,3.738281,1.527344,-0.232422,-0.265625,-0.107422,0.307068,0.635559,-0.00354,0.708313,up
207210,9.0625,3.699219,1.679688,-0.232422,-0.265625,-0.107422,0.308228,0.636108,-0.004456,0.707336,up
207216,9.0625,3.585938,1.792969,-0.123047,-0.210937,-0.050781,0.308228,0.636108,-0.004456,0.707336,up
207221,9.105469,3.546875,1.832031,-0.064453,-0.197266,-0.044922,0.308228,0.636108,-0.004456,0.707336,up
207226,9.296875,3.546875,1.871094,-0.007813,-0.179687,-0.044922,0.308228,0.636108,-0.004456,0.707336,up
207231,9.371094,3.585938,1.757813,0.054687,-0.154297,-0.044922,0.308228,0.636108,-0.004456,0.707336,up
207237,9.410156,3.621094,1.757813,0.113281,-0.121094,-0.0625,0.308228,0.636108,-0.004456,0.707336,up
207243,9.371094,3.777344,1.601563,0.160156,-0.085937,-0.072266,0.308228,0.636108,-0.004456,0.707336,up
207248,9.445313,3.777344,1.527344,0.242187,-0.035156,-0.123047,0.308777,0.638062,-0.004272,0.705383,up
207253,9.445313,3.8125,1.488281,0.242187,-0.035156,-0.123047,0.308472,0.638489,-0.002991,0.705078,up
207258,9.367188,3.929688,1.527344,0.242187,-0.035156,-0.123047,0.308472,0.638489,-0.002991,0.705078,up
207263,9.0625,4.003906,1.410156,0.277344,0.044922,-0.175781,0.308472,0.638489,-0.002991,0.705078,up
207268,8.875,4.003906,1.335938,0.273438,0.046875,-0.179687,0.308289,0.638733,-0.001465,0.704956,up
207273,8.800781,3.96875,1.410156,0.273438,0.046875,-0.179687,0.308044,0.638977,0.000183,0.704895,up
207278,8.644531,3.96875,1.410156,0.273438,0.046875,-0.179687,0.308044,0.638977,0.000183,0.704895,up
207283,8.53125,3.96875,1.488281,0.208984,-0.058594,-0.154297,0.307983,0.639404,0.001282,0.704529,up
207288,8.5625,3.929688,1.566406,0.208984,-0.058594,-0.154297,0.307983,0.639404,0.001282,0.704529,up
207293,8.640625,3.929688,1.601563,0.121094,-0.189453,-0.103516,0.307983,0.639404,0.001282,0.704529,up
207298,8.601563,3.890625,1.640625,0.121094,-0.189453,-0.103516,0.307922,0.640503,0.002197,0.703491,up
207303,8.644531,3.929688,1.640625,0.123047,-0.232422,-0.0625,0.307922,0.640503,0.002197,0.703491,up
207308,8.757813,3.890625,1.679688,0.123047,-0.232422,-0.0625,0.307739,0.641541,0.002563,0.702637,up
207313,8.796875,3.929688,1.71875,0.166016,-0.236328,-0.041016,0.307739,0.641541,0.002563,0.702637,up
207318,8.835938,3.929688,1.679688,0.166016,-0.236328,-0.041016,0.307434,0.642517,0.00293,0.701904,up
207323,8.839844,3.96875,1.679688,0.166016,-0.236328,-0.041016,0.30719,0.643066,0.003174,0.701538,up
207328,8.839844,4.003906,1.640625,0.166016,-0.236328,-0.041016,0.30719,0.643066,0.003174,0.701538,up
207333,8.761719,4.003906,1.640625,0.185547,-0.216797,-0.052734,0.30719,0.643066,0.003174,0.701538,up
