timestamp,ax,ay,az,gx,gy,gz,qw,qx,qy,qz,label
484251,-0.082031,9.273438,3.746094,0.091797,-0.039063,-0.013672,0.813904,0.535645,0.129883,0.183655,up
484256,-0.082031,9.316406,3.667969,0.091797,-0.039063,-0.013672,0.813721,0.536011,0.129883,0.183472,up
484261,-0.121094,9.273438,3.667969,0.091797,-0.039063,-0.013672,0.813721,0.536011,0.129883,0.183472,up
484266,-0.082031,9.199219,3.707031,0.091797,-0.039063,-0.013672,0.813599,0.536255,0.129944,0.183411,up
484271,-0.082031,9.199219,3.746094,0.091797,-0.039063,-0.013672,0.813599,0.536255,0.129944,0.18335,up
484276,-0.15625,9.125,3.746094,0.091797,-0.039063,-0.013672,0.813599,0.536255,0.129944,0.18335,up
484281,-0.121094,9.089844,3.667969,0.025391,-0.013672,-0.027344,0.813538,0.536377,0.130066,0.183228,up
484287,-0.234375,9.007813,3.707031,0.025391,-0.013672,-0.027344,0.813538,0.536377,0.130127,0.183167,up
484293,-0.195312,9.046875,3.667969,0.050781,-0.025391,-0.044922,0.813477,0.536499,0.130188,0.183044,up
484299,-0.234375,9.007813,3.707031,0.050781,-0.041016,-0.056641,0.813477,0.536499,0.130188,0.183044,up
484305,-0.234375,8.933594,3.667969,0.050781,-0.041016,-0.056641,0.813477,0.536499,0.130188,0.183044,up
484310,-0.234375,8.96875,3.589844,0.076172,-0.074219,-0.076172,0.813477,0.536499,0.130188,0.183044,up
484316,-0.273438,8.96875,3.628906,0.113281,-0.099609,-0.078125,0.813477,0.536499,0.130188,0.183044,up
484321,-0.195312,8.972656,3.628906,0.113281,-0.099609,-0.078125,0.81311,0.537537,0.130249,0.181641,up
484326,-0.195312,9.085938,3.550781,0.136719,-0.113281,-0.078125,0.81311,0.537537,0.130249,0.181641,up
484331,-0.15625,9.089844,3.515625,0.136719,-0.113281,-0.078125,0.812988,0.537842,0.130188,0.181274,up
484336,-0.15625,9.199219,3.515625,0.136719,-0.109375,-0.080078,0.812988,0.537842,0.130188,0.181274,up
484341,-0.15625,9.199219,3.515625,0.136719,-0.109375,-0.080078,0.812561,0.538757,0.130188,0.180298,up
484346,-0.195312,9.238281,3.398438,0.136719,-0.109375,-0.080078,0.812561,0.538757,0.130188,0.180298,up
484351,-0.234375,9.273438,3.359375,0.175781,-0.064453,-0.082031,0.812561,0.538757,0.130188,0.180298,up
484356,-0.3125,9.394531,3.359375,0.169922,-0.052734,-0.082031,0.812561,0.538757,0.130188,0.180298,up
484361,-0.3125,9.433594,3.359375,0.117188,-0.033203,-0.078125,0.812012,0.539795,0.130432,0.179443,up
484366,-0.3125,9.433594,3.324219,0.117188,-0.033203,-0.078125,0.81189,0.5401,0.130554,0.179199,up
484371,-0.386719,9.433594,3.324219,0.117188,-0.033203,-0.078125,0.811768,0.540283,0.130676,0.179016,up
484376,-0.425781,9.429688,3.359375,0.041016,-0.025391,-0.064453,0.811768,0.540283,0.130676,0.179016,up
484382,-0.503906,9.429688,3.4375,0.041016,-0.025391,-0.064453,0.811646,0.540588,0.13092,0.178528,up
484387,-0.503906,9.472656,3.4375,0.007813,-0.039063,-0.044922,0.811646,0.540588,0.13092,0.178406,up
484392,-0.503906,9.46875,3.515625,0.007813,-0.039063,-0.044922,0.811646,0.540588,0.13092,0.178284,up
484397,-0.539062,9.511719,3.515625,0.007813,-0.039063,-0.044922,0.811707,0.540588,0.13092,0.178223,up
484402,-0.503906,9.46875,3.515625,0.005859,-0.035156,-0.03125,0.811707,0.540649,0.13092,0.178101,up
484407,-0.503906,9.429688,3.4375,0.017578,-0.046875,-0.029297,0.811707,0.540649,0.13092,0.17804,up
484413,-0.503906,9.429688,3.476563,0.033203,-0.041016,-0.03125,0.811707,0.54071,0.130859,0.177917,up
484418,-0.503906,9.316406,3.4375,0.033203,-0.041016,-0.03125,0.811646,0.540771,0.130859,0.177795,up
484423,-0.464844,9.316406,3.476563,0.054687,-0.041016,-0.033203,0.811646,0.540771,0.130859,0.177795,up
484428,-0.464844,9.273438,3.4375,0.054687,-0.033203,-0.035156,0.811646,0.540771,0.130859,0.177795,up
484434,-0.503906,9.238281,3.398438,0.054687,-0.033203,-0.035156,0.811523,0.541138,0.13092,0.177429,up
484439,-0.503906,9.234375,3.4375,0.048828,-0.029297,-0.035156,0.811523,0.541138,0.13092,0.177429,up
484444,-0.503906,9.199219,3.4375,0.048828,-0.023437,-0.044922,0.811523,0.541138,0.13092,0.177429,up
484450,-0.464844,9.15625,3.4375,0.048828,-0.023437,-0.044922,0.81134,0.541443,0.131104,0.177124,up
484455,-0.464844,9.15625,3.4375,0.064453,-0.019531,-0.066406,0.81134,0.541443,0.131104,0.177124,up
484460,-0.503906,9.128906,3.4375,0.068359,-0.013672,-0.070312,0.81134,0.541443,0.131104,0.177124,up
484465,-0.503906,9.128906,3.476563,0.068359,-0.013672,-0.070312,0.81134,0.541443,0.131104,0.177124,up
484470,-0.464844,9.125,3.515625,0.068359,-0.013672,-0.070312,0.811096,0.541931,0.131531,0.176453,up
484476,-0.464844,9.15625,3.4375,0.115234,-0.029297,-0.089844,0.811096,0.541931,0.131531,0.176453,up
484481,-0.464844,9.15625,3.476563,0.115234,-0.029297,-0.089844,0.810852,0.542358,0.131775,0.175964,up
484486,-0.464844,9.15625,3.476563,0.123047,-0.035156,-0.115234,0.81073,0.542603,0.131897,0.17572,up
484491,-0.503906,9.160156,3.515625,0.123047,-0.035156,-0.115234,0.810669,0.542786,0.132019,0.175476,up
484496,-0.425781,9.195313,3.476563,0.123047,-0.041016,-0.117188,0.810669,0.542786,0.132019,0.175476,up
484502,-0.425781,9.238281,3.4375,0.123047,-0.041016,-0.117188,0.810303,0.543457,0.132507,0.174561,up
484507,-0.464844,9.238281,3.515625,0.101563,-0.037109,-0.126953,0.810242,0.543701,0.13269,0.174194,up
484512,-0.386719,9.277344,3.515625,0.097656,-0.027344,-0.132812,0.81012,0.543823,0.132812,0.17395,up
484517,-0.386719,9.273438,3.476563,0.097656,-0.027344,-0.132812,0.810059,0.544006,0.133057,0.173645,up
484523,-0.464844,9.277344,3.515625,0.097656,-0.027344,-0.132812,0.809998,0.544128,0.13324,0.173401,up
484529,-0.464844,9.273438,3.589844,0.101563,-0.005859,-0.125,0.809998,0.544128,0.13324,0.173401,up
484534,-0.464844,9.277344,3.515625,0.109375,0.001953,-0.123047,0.809998,0.544128,0.13324,0.173401,up
484539,-0.464844,9.3125,3.515625,0.109375,0.001953,-0.123047,0.809692,0.544678,0.133911,0.172607,up
484545,-0.386719,9.351563,3.515625,0.132812,0.007813,-0.123047,0.809692,0.544678,0.133911,0.172607,up
484551,-0.464844,9.351563,3.550781,0.166016,0.007813,-0.134766,0.809692,0.544678,0.133911,0.172607,up
484557,-0.503906,9.394531,3.515625,0.166016,0.007813,-0.134766,0.809082,0.545715,0.135071,0.171448,up
484562,-0.503906,9.394531,3.515625,0.185547,0.001953,-0.134766,0.808838,0.546021,0.135376,0.171143,up
484567,-0.464844,9.433594,3.515625,0.189453,-0.009766,-0.136719,0.808655,0.546387,0.13562,0.170837,up
484573,-0.464844,9.429688,3.589844,0.189453,-0.009766,-0.136719,0.808472,0.546692,0.135925,0.170532,up
484578,-0.464844,9.390625,3.628906,0.189453,-0.009766,-0.136719,0.808228,0.547058,0.13623,0.170166,up
484583,-0.464844,9.390625,3.667969,0.195312,-0.017578,-0.148437,0.808228,0.547058,0.13623,0.170166,up
484588,-0.464844,9.355469,3.628906,0.183594,-0.027344,-0.152344,0.808228,0.547058,0.13623,0.170166,up
484594,-0.386719,9.390625,3.707031,0.166016,-0.052734,-0.154297,0.808228,0.547058,0.13623,0.170166,up
484600,-0.347656,9.355469,3.746094,0.167969,-0.0625,-0.164062,0.808228,0.547058,0.13623,0.170166,up
484605,-0.273438,9.3125,3.746094,0.154297,-0.076172,-0.164062,0.808228,0.547058,0.13623,0.170166,up
484610,-0.15625,9.238281,3.820313,0.148437,-0.087891,-0.181641,0.808228,0.547058,0.13623,0.170166,up
484615,-0.121094,9.238281,3.898438,0.152344,-0.09375,-0.191406,0.808228,0.547058,0.13623,0.170166,up
484620,-0.121094,9.238281,3.898438,0.152344,-0.103516,-0.208984,0.808228,0.547058,0.13623,0.170166,up
484625,-0.121094,9.234375,3.9375,0.177734,-0.111328,-0.216797,0.808228,0.547058,0.13623,0.170166,up
484630,-0.121094,9.234375,3.9375,0.177734,-0.111328,-0.216797,0.808228,0.547058,0.13623,0.170166,up
484636,-0.15625,9.277344,3.9375,0.177734,-0.111328,-0.216797,0.806641,0.550598,0.138367,0.164551,up
484642,-0.121094,9.394531,3.898438,0.277344,-0.140625,-0.255859,0.806641,0.550598,0.138367,0.164551,up
484647,-0.195312,9.550781,3.898438,0.277344,-0.140625,-0.255859,0.805969,0.552063,0.138977,0.162354,up
484652,-0.15625,9.578125,3.898438,0.277344,-0.140625,-0.255859,0.805725,0.552612,0.13916,0.161499,up
484657,-0.121094,9.699219,3.820313,0.351563,-0.201172,-0.273438,0.805725,0.552612,0.13916,0.161499,up
484662,-0.082031,9.734375,3.820313,0.351563,-0.201172,-0.273438,0.805359,0.553345,0.139282,0.160522,up
484667,-0.082031,9.734375,3.820313,0.371094,-0.240234,-0.279297,0.804749,0.554749,0.139526,0.158691,up
484672,-0.121094,9.816406,3.820313,0.371094,-0.240234,-0.279297,0.804749,0.554749,0.139526,0.158691,up
484677,-0.082031,9.855469,3.746094,0.373047,-0.277344,-0.28125,0.804749,0.554749,0.139526,0.158691,up
484683,-0.121094,9.890625,3.707031,0.373047,-0.277344,-0.28125,0.803772,0.557068,0.139587,0.155518,up
484688,-0.121094,9.890625,3.589844,0.373047,-0.277344,-0.28125,0.803467,0.5578,0.139465,0.15448,up
484693,-0.121094,9.890625,3.589844,0.371094,-0.371094,-0.263672,0.803162,0.558594,0.139282,0.15332,up
484698,-0.042969,9.933594,3.515625,0.371094,-0.371094,-0.263672,0.802795,0.559509,0.139038,0.152039,up
484704,-0.082031,10.003906,3.324219,0.371094,-0.371094,-0.263672,0.802551,0.560242,0.138794,0.151062,up
484710,-0.082031,10.0,3.207031,0.396484,-0.417969,-0.251953,0.802551,0.560242,0.138794,0.151062,up
484715,-0.042969,10.078125,3.167969,0.410156,-0.419922,-0.232422,0.802551,0.560242,0.138794,0.151062,up
484720,-0.082031,10.117188,3.167969,0.431641,-0.417969,-0.238281,0.802551,0.560242,0.138794,0.151062,up
484726,-0.121094,10.273438,3.09375,0.431641,-0.417969,-0.238281,0.802551,0.560242,0.138794,0.151062,up
484731,-0.195312,10.347656,3.054688,0.458984,-0.400391,-0.216797,0.802551,0.560242,0.138794,0.151062,up
484736,-0.195312,10.347656,3.054688,0.451172,-0.400391,-0.201172,0.800232,0.565857,0.136841,0.143982,up
484741,-0.234375,10.34375,3.054688,0.451172,-0.400391,-0.201172,0.800232,0.565857,0.136841,0.143982,up
484746,-0.195312,10.347656,3.015625,0.443359,-0.400391,-0.183594,0.799377,0.567749,0.136169,0.141907,up
484751,-0.195312,10.347656,3.015625,0.443359,-0.400391,-0.183594,0.799377,0.567749,0.136169,0.141907,up
484756,-0.3125,10.234375,3.132813,0.373047,-0.382813,-0.148437,0.799377,0.567749,0.136169,0.141907,up
484761,-0.347656,10.199219,3.09375,0.373047,-0.382813,-0.148437,0.798279,0.570312,0.134949,0.138977,up
484767,-0.386719,10.15625,3.132813,0.332031,-0.394531,-0.126953,0.798279,0.570312,0.134949,0.138977,up
484772,-0.425781,10.082031,3.09375,0.332031,-0.394531,-0.126953,0.797607,0.571838,0.134094,0.137146,up
484778,-0.503906,10.003906,3.015625,0.332031,-0.394531,-0.126953,0.796997,0.573425,0.133118,0.135315,up
484783,-0.503906,9.964844,3.015625,0.376953,-0.425781,-0.123047,0.796631,0.57428,0.132568,0.134399,up
484788,-0.503906,9.964844,2.941406,0.408203,-0.433594,-0.121094,0.796204,0.575134,0.13208,0.133423,up
484793,-0.503906,9.929688,2.902344,0.408203,-0.433594,-0.121094,0.795776,0.57605,0.131531,0.132446,up
484798,-0.464844,9.960938,2.902344,0.445312,-0.439453,-0.109375,0.795288,0.577209,0.13092,0.131348,up
484803,-0.464844,9.964844,2.824219,0.46875,-0.435547,-0.109375,0.7948,0.578247,0.130371,0.130371,up
484809,-0.425781,9.960938,2.824219,0.46875,-0.435547,-0.109375,0.794312,0.579102,0.129944,0.129578,up
484814,-0.425781,9.851563,2.785156,0.46875,-0.435547,-0.109375,0.793823,0.580139,0.129456,0.128601,up
484820,-0.425781,9.851563,2.75,0.466797,-0.396484,-0.089844,0.793823,0.580139,0.129456,0.128601,up
484825,-0.464844,9.855469,2.785156,0.449219,-0.382813,-0.089844,0.793823,0.580139,0.129456,0.128601,up
484831,-0.464844,9.734375,2.710938,0.449219,-0.382813,-0.089844,0.792236,0.583191,0.128052,0.126038,up
484837,-0.425781,9.738281,2.710938,0.373047,-0.341797,-0.083984,0.792236,0.583191,0.128052,0.126038,up
484842,-0.464844,9.738281,2.671875,0.373047,-0.341797,-0.083984,0.791321,0.584961,0.127136,0.124451,up
484847,-0.464844,9.65625,2.59375,0.363281,-0.337891,-0.087891,0.791321,0.584961,0.127136,0.124451,up
484852,-0.503906,9.578125,2.632813,0.363281,-0.337891,-0.087891,0.790527,0.586548,0.126343,0.122986,up
484857,-0.503906,9.582031,2.554688,0.330078,-0.283203,-0.082031,0.790527,0.586548,0.126343,0.122986,up
484862,-0.578125,9.550781,2.519531,0.330078,-0.283203,-0.082031,0.789734,0.588013,0.125671,0.121643,up
484867,-0.578125,9.550781,2.519531,0.330078,-0.283203,-0.082031,0.78894,0.589417,0.125122,0.120361,up
484872,-0.578125,9.578125,2.480469,0.330078,-0.283203,-0.082031,0.78894,0.589417,0.125122,0.120361,up
484877,-0.578125,9.550781,2.59375,0.332031,-0.251953,-0.048828,0.78894,0.589417,0.125122,0.120361,up
484882,-0.578125,9.546875,2.554688,0.333984,-0.242187,-0.046875,0.788147,0.59082,0.124512,0.119263,up
484887,-0.539062,9.546875,2.554688,0.333984,-0.242187,-0.046875,0.78772,0.591553,0.124268,0.118713,up
484892,-0.503906,9.511719,2.519531,0.333984,-0.242187,-0.046875,0.787292,0.592346,0.123962,0.118164,up
484897,-0.503906,9.511719,2.519531,0.302734,-0.212891,-0.046875,0.786865,0.593018,0.123718,0.117676,up
484903,-0.539062,9.511719,2.554688,0.283203,-0.201172,-0.060547,0.786499,0.593628,0.123474,0.117249,up
484908,-0.539062,9.390625,2.554688,0.283203,-0.201172,-0.060547,0.785767,0.59491,0.123047,0.116211,up
484913,-0.539062,9.355469,2.554688,0.283203,-0.201172,-0.060547,0.785767,0.59491,0.123047,0.116211,up
484918,-0.617187,9.394531,2.519531,0.277344,-0.169922,-0.060547,0.785095,0.596008,0.122803,0.115417,up
484923,-0.578125,9.429688,2.480469,0.259766,-0.128906,-0.091797,0.784729,0.596558,0.122803,0.114929,up
484928,-0.578125,9.429688,2.480469,0.244141,-0.125,-0.097656,0.784424,0.597107,0.122803,0.114502,up
484933,-0.578125,9.429688,2.441406,0.244141,-0.125,-0.097656,0.784119,0.597534,0.122803,0.114136,up
484939,-0.617187,9.507813,2.402344,0.244141,-0.125,-0.097656,0.783813,0.597961,0.122864,0.11377,up
484944,-0.617187,9.546875,2.441406,0.261719,-0.0625,-0.117188,0.783508,0.59845,0.122986,0.113342,up
484949,-0.65625,9.550781,2.363281,0.265625,-0.021484,-0.113281,0.783508,0.59845,0.122986,0.113342,up
484954,-0.65625,9.621094,2.363281,0.273438,0.005859,-0.121094,0.783508,0.59845,0.122986,0.113342,up
484960,-0.730469,9.773438,2.363281,0.273438,0.005859,-0.121094,0.783508,0.59845,0.122986,0.113342,up
484966,-0.769531,9.8125,2.328125,0.253906,0.029297,-0.109375,0.783508,0.59845,0.122986,0.113342,up
484971,-0.769531,9.8125,2.363281,0.242187,0.03125,-0.107422,0.783508,0.59845,0.122986,0.113342,up
484976,-0.769531,9.851563,2.363281,0.242187,0.03125,-0.107422,0.783508,0.59845,0.122986,0.113342,up
484981,-0.769531,9.933594,2.363281,0.199219,0.041016,-0.103516,0.783508,0.59845,0.122986,0.113342,up
484986,-0.769531,9.894531,2.363281,0.171875,0.060547,-0.111328,0.783508,0.59845,0.122986,0.113342,up
484991,-0.730469,9.851563,2.441406,0.136719,0.072266,-0.101563,0.783508,0.59845,0.122986,0.113342,up
484997,-0.730469,9.8125,2.480469,0.027344,0.111328,-0.105469,0.783508,0.59845,0.122986,0.113342,up
485002,-0.730469,9.777344,2.554688,0.027344,0.111328,-0.105469,0.780273,0.602356,0.126526,0.111145,up
485008,-0.695312,9.65625,2.59375,-0.021484,0.128906,-0.101563,0.780273,0.602356,0.126526,0.111145,up
485013,-0.730469,9.65625,2.632813,-0.021484,0.128906,-0.101563,0.780396,0.601868,0.127869,0.111267,up
485018,-0.695312,9.617188,2.59375,-0.171875,0.179687,-0.113281,0.78064,0.60144,0.128357,0.111389,up
485023,-0.65625,9.550781,2.59375,-0.171875,0.179687,-0.113281,0.78064,0.60144,0.128357,0.111389,up
485028,-0.695312,9.578125,2.632813,-0.171875,0.179687,-0.113281,0.781128,0.600525,0.129395,0.111694,up
485033,-0.769531,9.617188,2.554688,-0.208984,0.238281,-0.125,0.781128,0.600525,0.129395,0.111694,up
485038,-0.769531,9.65625,2.554688,-0.208984,0.238281,-0.125,0.781616,0.599548,0.130615,0.112122,up
485043,-0.847656,9.65625,2.59375,-0.208984,0.238281,-0.125,0.78186,0.598999,0.131348,0.112305,up
485048,-0.847656,9.65625,2.632813,-0.208984,0.238281,-0.125,0.781982,0.598633,0.132019,0.112488,up
485053,-0.847656,9.660156,2.671875,-0.095703,0.255859,-0.152344,0.782104,0.598328,0.132751,0.11261,up
485058,-0.886719,9.65625,2.59375,-0.095703,0.255859,-0.152344,0.782227,0.598022,0.133484,0.112793,up
485063,-0.886719,9.660156,2.554688,-0.095703,0.255859,-0.152344,0.782288,0.597717,0.134277,0.112915,up
485068,-0.960937,9.695313,2.59375,-0.072266,0.255859,-0.154297,0.782349,0.597412,0.135071,0.113098,up
485073,-0.886719,9.65625,2.632813,-0.087891,0.25,-0.146484,0.782349,0.597412,0.135071,0.113098,up
485078,-0.847656,9.660156,2.671875,-0.087891,0.25,-0.146484,0.782471,0.596863,0.136475,0.113403,up
485083,-0.769531,9.65625,2.671875,-0.087891,0.25,-0.146484,0.782532,0.596619,0.137146,0.113586,up
485088,-0.808594,9.582031,2.75,-0.074219,0.308594,-0.125,0.782532,0.596619,0.137146,0.113586,up
485093,-0.769531,9.621094,2.710938,-0.074219,0.308594,-0.125,0.782593,0.596069,0.138794,0.114136,up
485098,-0.847656,9.621094,2.671875,-0.087891,0.363281,-0.126953,0.782593,0.596069,0.138794,0.114136,up
485104,-0.847656,9.578125,2.59375,-0.087891,0.363281,-0.126953,0.782654,0.595459,0.140564,0.114807,up
485109,-0.886719,9.617188,2.632813,-0.103516,0.375,-0.123047,0.782654,0.595093,0.141479,0.115173,up
485114,-0.886719,9.578125,2.632813,-0.089844,0.388672,-0.140625,0.782715,0.594788,0.142395,0.11554,up
485121,-0.847656,9.578125,2.519531,-0.089844,0.388672,-0.140625,0.782715,0.594421,0.143372,0.115906,up
485126,-0.886719,9.621094,2.554688,-0.052734,0.417969,-0.175781,0.782715,0.594421,0.143372,0.115906,up
485131,-0.925781,9.617188,2.480469,-0.052734,0.427734,-0.183594,0.782715,0.594421,0.143372,0.115906,up
485137,-0.886719,9.578125,2.402344,-0.044922,0.427734,-0.201172,0.782593,0.593262,0.147827,0.117126,up
485142,-0.886719,9.550781,2.441406,-0.044922,0.427734,-0.201172,0.782593,0.593262,0.147827,0.117126,up
485147,-0.886719,9.511719,2.363281,-0.087891,0.464844,-0.238281,0.782593,0.593262,0.147827,0.117126,up
485152,-0.886719,9.472656,2.402344,-0.087891,0.464844,-0.238281,0.782593,0.592529,0.15033,0.117676,up
485157,-0.925781,9.429688,2.441406,-0.082031,0.476562,-0.253906,0.782593,0.591736,0.152893,0.118225,up
485162,-0.960937,9.433594,2.402344,-0.082031,0.476562,-0.253906,0.782593,0.591736,0.152893,0.118225,up
485167,-1.0,9.394531,2.402344,-0.097656,0.507812,-0.253906,0.782593,0.591736,0.152893,0.118225,up
485172,-1.0,9.46875,2.519531,-0.097656,0.507812,-0.253906,0.782593,0.590942,0.155579,0.118835,up
485178,-1.0,9.546875,2.554688,-0.097656,0.507812,-0.253906,0.782654,0.590027,0.158325,0.119446,up
485183,-1.078125,9.507813,2.632813,-0.097656,0.507812,-0.253906,0.782654,0.590027,0.158325,0.119446,up
485188,-1.117188,9.582031,2.75,-0.134766,0.474609,-0.28125,0.782654,0.590027,0.158325,0.119446,up
485193,-1.117188,9.582031,2.785156,-0.134766,0.474609,-0.28125,0.782898,0.588501,0.162292,0.119995,up
485198,-1.117188,9.550781,2.785156,-0.134766,0.474609,-0.28125,0.782898,0.588501,0.162292,0.119995,up
485203,-1.117188,9.507813,2.785156,-0.095703,0.445312,-0.347656,0.78302,0.587524,0.165161,0.120056,up
485208,-1.191406,9.546875,2.75,-0.095703,0.445312,-0.347656,0.782959,0.587158,0.166565,0.119995,up
485213,-1.152344,9.550781,2.75,-0.095703,0.445312,-0.347656,0.782898,0.586853,0.167969,0.119934,up
485218,-1.191406,9.546875,2.710938,-0.095703,0.445312,-0.347656,0.782898,0.586853,0.167969,0.119934,up
485223,-1.230469,9.578125,2.75,0.003906,0.462891,-0.449219,0.782898,0.586853,0.167969,0.119934,up
485228,-1.34375,9.550781,2.75,0.0,0.470703,-0.453125,0.782776,0.586243,0.171082,0.119629,up
485233,-1.308594,9.550781,2.75,0.0,0.470703,-0.453125,0.782715,0.585876,0.172852,0.119385,up
485238,-1.308594,9.550781,2.75,-0.005859,0.462891,-0.464844,0.782593,0.585205,0.175842,0.118958,up
485243,-1.34375,9.507813,2.75,-0.005859,0.462891,-0.464844,0.782593,0.585205,0.175842,0.118958,up
485248,-1.382813,9.433594,2.75,-0.005859,0.462891,-0.464844,0.782593,0.585205,0.175842,0.118958,up
485253,-1.382813,9.433594,2.75,-0.035156,0.435547,-0.519531,0.782532,0.584473,0.179077,0.118347,up
485258,-1.382813,9.433594,2.75,-0.035156,0.435547,-0.519531,0.782532,0.583557,0.182373,0.117615,up
485263,-1.574219,9.355469,2.785156,-0.035156,0.435547,-0.519531,0.782532,0.58313,0.184082,0.117188,up
485268,-1.652344,9.351563,2.785156,-0.001953,0.361328,-0.560547,0.782532,0.58313,0.184082,0.117188,up
485273,-1.691406,9.429688,2.785156,0.015625,0.296875,-0.548828,0.782532,0.582642,0.185791,0.116638,up
485278,-1.726563,9.507813,2.863281,0.015625,0.296875,-0.548828,0.782532,0.582092,0.188477,0.115479,up
485283,-1.84375,9.699219,3.015625,0.015625,0.296875,-0.548828,0.782532,0.582092,0.188477,0.115479,up
485288,-1.882813,9.738281,3.132813,0.017578,0.128906,-0.480469,0.782532,0.581787,0.18988,0.114685,up
485293,-1.882813,9.738281,3.167969,0.017578,0.128906,-0.480469,0.782593,0.581543,0.190918,0.113953,up
485299,-1.84375,9.695313,3.285156,0.017578,0.128906,-0.480469,0.782654,0.581116,0.192444,0.112549,up
485305,-1.882813,9.621094,3.207031,0.017578,0.128906,-0.480469,0.782715,0.581055,0.193176,0.111694,up
485310,-1.917969,9.660156,3.132813,0.064453,-0.001953,-0.314453,0.782715,0.580994,0.193604,0.111084,up
485316,-1.917969,9.660156,3.132813,0.083984,-0.025391,-0.271484,0.782654,0.580994,0.194092,0.110474,up
485321,-1.882813,9.777344,2.902344,0.083984,-0.025391,-0.271484,0.782654,0.580994,0.194092,0.110474,up
485326,-1.882813,9.816406,2.824219,0.070312,-0.029297,-0.205078,0.782654,0.580994,0.194092,0.110474,up
485332,-1.84375,9.777344,2.785156,0.085937,-0.044922,-0.191406,0.782654,0.580994,0.194092,0.110474,up
485337,-1.84375,9.738281,2.785156,0.085937,-0.044922,-0.191406,0.782654,0.580994,0.194092,0.110474,up
485343,-1.804688,9.734375,2.785156,0.109375,-0.050781,-0.203125,0.782654,0.580994,0.194092,0.110474,up
485348,-1.804688,9.816406,2.710938,0.109375,-0.050781,-0.203125,0.782349,0.581421,0.195618,0.107605,up
485353,-1.804688,9.738281,2.671875,0.162109,-0.056641,-0.242187,0.782349,0.581421,0.195618,0.107605,up
485359,-1.804688,9.699219,2.59375,0.162109,-0.056641,-0.242187,0.782104,0.581787,0.196167,0.106506,up
485365,-1.804688,9.699219,2.59375,0.175781,-0.044922,-0.289063,0.781799,0.582214,0.196899,0.105103,up
485370,-1.84375,9.699219,2.554688,0.175781,-0.044922,-0.289063,0.781616,0.582397,0.197266,0.104492,up
485376,-1.882813,9.699219,2.441406,0.175781,-0.044922,-0.289063,0.781494,0.582581,0.197754,0.10376,up
485382,-1.996094,9.777344,2.402344,0.125,0.019531,-0.314453,0.781494,0.582581,0.197754,0.10376,up
485388,-2.074219,9.855469,2.328125,0.103516,0.029297,-0.3125,0.781494,0.582581,0.197754,0.10376,up
485393,-2.074219,9.890625,2.402344,0.013672,0.009766,-0.298828,0.781189,0.582764,0.199402,0.101929,up
485398,-2.113281,9.851563,2.402344,0.013672,0.009766,-0.298828,0.781189,0.582642,0.19989,0.101379,up
485403,-2.074219,9.851563,2.480469,-0.041016,-0.015625,-0.261719,0.781189,0.582642,0.19989,0.101379,up
485408,-2.113281,9.894531,2.519531,-0.041016,-0.015625,-0.261719,0.781372,0.582275,0.200745,0.100281,up
485413,-2.113281,9.855469,2.480469,-0.041016,-0.015625,-0.261719,0.781494,0.582092,0.20105,0.099854,up
485419,-2.113281,9.855469,2.480469,-0.058594,-0.037109,-0.181641,0.781494,0.582092,0.20105,0.099854,up
485424,-2.113281,9.773438,2.480469,-0.058594,-0.037109,-0.181641,0.781921,0.581482,0.201782,0.098694,up
485429,-2.074219,9.8125,2.441406,-0.058594,-0.037109,-0.181641,0.782104,0.581299,0.201904,0.09845,up
485434,-2.074219,9.738281,2.441406,-0.080078,-0.064453,-0.121094,0.782104,0.581299,0.201904,0.09845,up
485439,-2.113281,9.699219,2.480469,-0.080078,-0.064453,-0.121094,0.78241,0.580872,0.202026,0.097839,up
485444,-2.074219,9.660156,2.554688,-0.080078,-0.064453,-0.121094,0.782593,0.580688,0.201965,0.097595,up
485449,-1.996094,9.582031,2.519531,-0.064453,-0.087891,-0.083984,0.782593,0.580688,0.201965,0.097595,up
485454,-1.957031,9.546875,2.554688,-0.046875,-0.087891,-0.072266,0.782776,0.580505,0.201904,0.097351,up
485459,-1.957031,9.546875,2.554688,-0.046875,-0.095703,-0.070312,0.78302,0.580322,0.201782,0.096924,up
485465,-1.804688,9.394531,2.441406,-0.046875,-0.095703,-0.070312,0.783142,0.5802,0.201721,0.096741,up
485470,-1.765625,9.355469,2.402344,-0.066406,-0.076172,-0.074219,0.783264,0.580078,0.201721,0.096497,up
485476,-1.726563,9.394531,2.363281,-0.052734,-0.066406,-0.082031,0.783264,0.580078,0.201721,0.096497,up
485482,-1.691406,9.316406,2.363281,-0.052734,-0.066406,-0.082031,0.783569,0.579773,0.201721,0.096069,up
485487,-1.691406,9.355469,2.363281,-0.029297,-0.035156,-0.115234,0.783569,0.579773,0.201721,0.096069,up
485492,-1.691406,9.355469,2.289063,-0.007813,-0.011719,-0.132812,0.783569,0.579773,0.201721,0.096069,up
485497,-1.765625,9.355469,2.289063,-0.009766,0.007813,-0.142578,0.783569,0.579773,0.201721,0.096069,up
485502,-1.882813,9.433594,2.289063,-0.009766,0.007813,-0.142578,0.783569,0.579773,0.201721,0.096069,up
485508,-1.882813,9.46875,2.328125,-0.009766,0.007813,-0.142578,0.783813,0.579285,0.202698,0.09491,up
485514,-1.882813,9.433594,2.363281,-0.009766,0.03125,-0.132812,0.783813,0.579285,0.202698,0.09491,up
485519,-1.917969,9.507813,2.363281,-0.009766,0.03125,-0.132812,0.783875,0.578979,0.203491,0.094299,up
485524,-1.957031,9.507813,2.402344,-0.009766,0.03125,-0.132812,0.783875,0.578979,0.203491,0.094299,up
485529,-1.996094,9.578125,2.480469,-0.029297,0.015625,-0.115234,0.783875,0.578979,0.203491,0.094299,up
485534,-1.996094,9.578125,2.480469,-0.029297,0.015625,-0.115234,0.783997,0.578674,0.204224,0.093811,up
485540,-2.035156,9.617188,2.480469,-0.029297,0.015625,-0.115234,0.784058,0.578552,0.204407,0.093689,up
485545,-2.035156,9.582031,2.519531,-0.035156,-0.011719,-0.105469,0.784058,0.578552,0.204407,0.093689,up
485551,-2.035156,9.617188,2.554688,-0.035156,-0.021484,-0.095703,0.784058,0.578552,0.204407,0.093689,up
485556,-1.996094,9.578125,2.480469,-0.035156,-0.021484,-0.095703,0.784302,0.578186,0.204773,0.09314,up
485562,-2.074219,9.621094,2.480469,-0.042969,-0.033203,-0.095703,0.784302,0.578186,0.204773,0.09314,up
485568,-1.996094,9.582031,2.519531,-0.054687,-0.029297,-0.097656,0.784302,0.578186,0.204773,0.09314,up
485573,-1.957031,9.546875,2.480469,-0.074219,-0.023437,-0.089844,0.784607,0.577698,0.205078,0.09259,up
485578,-1.917969,9.511719,2.441406,-0.064453,-0.011719,-0.082031,0.784607,0.577698,0.205078,0.09259,up
485584,-1.917969,9.507813,2.402344,-0.083984,0.033203,-0.082031,0.784607,0.577698,0.205078,0.09259,up
485589,-1.917969,9.511719,2.480469,-0.083984,0.033203,-0.082031,0.785095,0.576904,0.205627,0.092285,up
485594,-1.882813,9.472656,2.441406,-0.083984,0.033203,-0.082031,0.785156,0.576721,0.205872,0.092285,up
485599,-1.917969,9.433594,2.402344,-0.083984,0.09375,-0.078125,0.785278,0.576477,0.206177,0.092346,up
485605,-1.957031,9.394531,2.363281,-0.083984,0.09375,-0.078125,0.785339,0.576233,0.206543,0.092346,up
485610,-1.996094,9.433594,2.363281,-0.083984,0.09375,-0.078125,0.7854,0.575989,0.206787,0.092407,up
485615,-1.996094,9.433594,2.363281,-0.070312,0.089844,-0.091797,0.785522,0.575806,0.207092,0.092407,up
485620,-1.996094,9.433594,2.363281,-0.048828,0.087891,-0.103516,0.785583,0.575562,0.207458,0.092407,up
485626,-1.996094,9.507813,2.402344,-0.048828,0.087891,-0.103516,0.785583,0.575439,0.207764,0.092346,up
485631,-2.035156,9.582031,2.402344,-0.021484,0.078125,-0.123047,0.785583,0.575439,0.207764,0.092346,up
485636,-2.113281,9.617188,2.441406,-0.011719,0.083984,-0.125,0.785645,0.575195,0.208435,0.092224,up
485643,-2.1875,9.65625,2.441406,-0.011719,0.083984,-0.125,0.785645,0.575073,0.208862,0.092102,up
485649,-2.148438,9.695313,2.480469,-0.021484,0.052734,-0.103516,0.785645,0.575073,0.208862,0.092102,up
485654,-2.1875,9.734375,2.441406,-0.056641,0.044922,-0.085937,0.785645,0.57489,0.209412,0.091858,up
485659,-2.226563,9.695313,2.519531,-0.056641,0.044922,-0.085937,0.785767,0.574524,0.2099,0.091797,up
485664,-2.226563,9.734375,2.441406,-0.056641,0.044922,-0.085937,0.785767,0.574524,0.2099,0.091797,up
485669,-2.265625,9.738281,2.441406,-0.136719,0.03125,-0.058594,0.785889,0.57428,0.210083,0.091797,up
485675,-2.304688,9.695313,2.441406,-0.136719,0.03125,-0.058594,0.786255,0.573669,0.210327,0.091797,up
485680,-2.265625,9.660156,2.480469,-0.136719,0.03125,-0.058594,0.786499,0.573303,0.210388,0.091797,up
485686,-2.265625,9.621094,2.480469,-0.136719,0.03125,-0.058594,0.786743,0.572998,0.210449,0.091797,up
485691,-2.226563,9.578125,2.480469,-0.179687,-0.025391,-0.064453,0.786743,0.572998,0.210449,0.091797,up
485697,-2.226563,9.550781,2.519531,-0.177734,-0.041016,-0.072266,0.786743,0.572998,0.210449,0.091797,up
485703,-2.1875,9.46875,2.59375,-0.179687,-0.054687,-0.072266,0.786743,0.572998,0.210449,0.091797,up
485709,-2.226563,9.433594,2.59375,-0.173828,-0.0625,-0.078125,0.786743,0.572998,0.210449,0.091797,up
485714,-2.226563,9.351563,2.519531,-0.150391,-0.041016,-0.072266,0.786743,0.572998,0.210449,0.091797,up
485720,-2.226563,9.433594,2.519531,-0.150391,-0.041016,-0.072266,0.788696,0.570435,0.210449,0.091187,up
485725,-2.1875,9.472656,2.480469,-0.144531,0.009766,-0.054687,0.78894,0.570068,0.21051,0.091187,up
485730,-2.265625,9.429688,2.519531,-0.123047,0.033203,-0.054687,0.789124,0.569763,0.210632,0.091187,up
485736,-2.304688,9.46875,2.554688,-0.123047,0.033203,-0.054687,0.789246,0.569519,0.210754,0.091248,up
485741,-2.417969,9.546875,2.554688,-0.123047,0.033203,-0.054687,0.789429,0.569214,0.210937,0.091309,up
485747,-2.457031,9.582031,2.519531,-0.097656,0.054687,-0.037109,0.789429,0.569214,0.210937,0.091309,up
485752,-2.496094,9.617188,2.554688,-0.095703,0.046875,-0.037109,0.789429,0.569214,0.210937,0.091309,up
485757,-2.53125,9.65625,2.59375,-0.089844,0.042969,-0.023437,0.789429,0.569214,0.210937,0.091309,up
485763,-2.53125,9.65625,2.59375,-0.085937,0.03125,-0.025391,0.789429,0.569214,0.210937,0.091309,up
485769,-2.570313,9.660156,2.519531,-0.080078,0.025391,-0.017578,0.789429,0.569214,0.210937,0.091309,up
485774,-2.53125,9.65625,2.519531,-0.080078,0.025391,-0.017578,0.790161,0.56781,0.21167,0.091797,up
485779,-2.53125,9.65625,2.519531,-0.080078,0.025391,-0.017578,0.790161,0.56781,0.21167,0.091797,up
485784,-2.53125,9.65625,2.59375,-0.095703,-0.005859,0.001953,0.790466,0.567444,0.211609,0.091919,up
485789,-2.457031,9.699219,2.671875,-0.095703,-0.005859,0.001953,0.790466,0.567444,0.211609,0.091919,up
485794,-2.378906,9.617188,2.671875,-0.095703,-0.005859,0.001953,0.790588,0.5672,0.211548,0.092041,up
485799,-2.378906,9.617188,2.671875,-0.132812,-0.001953,0.025391,0.790588,0.5672,0.211548,0.092041,up
485804,-2.339844,9.582031,2.75,-0.132812,-0.001953,0.025391,0.790955,0.566711,0.211426,0.092285,up
485809,-2.339844,9.550781,2.75,-0.132812,-0.001953,0.025391,0.791138,0.566467,0.211365,0.092407,up
485814,-2.304688,9.546875,2.785156,-0.142578,0.0,0.039063,0.791138,0.566467,0.211365,0.092407,up
485820,-2.304688,9.546875,2.785156,-0.166016,0.021484,0.03125,0.791138,0.566467,0.211365,0.092407,up
485825,-2.304688,9.546875,2.785156,-0.177734,0.027344,0.025391,0.791931,0.565308,0.211182,0.09314,up
485830,-2.339844,9.507813,2.785156,-0.177734,0.027344,0.025391,0.792175,0.56488,0.211182,0.093384,up
485835,-2.339844,9.472656,2.824219,-0.177734,0.027344,0.025391,0.792419,0.564514,0.211243,0.093567,up
485840,-2.378906,9.46875,2.863281,-0.177734,0.027344,0.025391,0.792419,0.564514,0.211243,0.093567,up
485845,-2.417969,9.472656,2.824219,-0.228516,0.048828,0.013672,0.792419,0.564514,0.211243,0.093567,up
485850,-2.417969,9.507813,2.863281,-0.228516,0.048828,0.013672,0.793335,0.56311,0.211365,0.094299,up
485855,-2.417969,9.550781,2.902344,-0.228516,0.048828,0.013672,0.793335,0.56311,0.211365,0.094299,up
485860,-2.496094,9.695313,2.902344,-0.208984,0.037109,0.001953,0.793823,0.562317,0.211426,0.094666,up
485865,-2.457031,9.734375,2.941406,-0.201172,0.027344,0.001953,0.794128,0.561829,0.211487,0.09491,up
485870,-2.496094,9.855469,2.941406,-0.199219,0.027344,0.0,0.794128,0.561829,0.211487,0.09491,up
485875,-2.53125,9.960938,2.902344,-0.199219,0.027344,0.0,0.794617,0.561035,0.211548,0.095215,up
485881,-2.570313,10.238281,2.902344,-0.199219,0.027344,0.0,0.7948,0.56073,0.211548,0.095398,up
485886,-2.609375,10.273438,2.863281,-0.189453,0.037109,0.007813,0.795044,0.560303,0.211609,0.095581,up
485891,-2.570313,10.3125,2.902344,-0.214844,0.046875,0.013672,0.795044,0.560303,0.211609,0.095581,up
485898,-2.570313,10.277344,2.976563,-0.240234,0.041016,0.009766,0.795044,0.560303,0.211609,0.095581,up
485903,-2.496094,10.273438,3.054688,-0.283203,0.042969,0.023437,0.795044,0.560303,0.211609,0.095581,up
485908,-2.496094,10.277344,3.132813,-0.349609,0.042969,0.029297,0.795044,0.560303,0.211609,0.095581,up
485913,-2.457031,10.277344,3.246094,-0.412109,0.052734,0.037109,0.795044,0.560303,0.211609,0.095581,up
485919,-2.378906,10.078125,3.324219,-0.412109,0.052734,0.037109,0.797424,0.556641,0.21167,0.097351,up
485924,-2.417969,10.039063,3.398438,-0.550781,0.121094,0.044922,0.797424,0.556641,0.21167,0.097351,up
485929,-2.417969,9.960938,3.398438,-0.683594,0.164062,0.056641,0.797424,0.556641,0.21167,0.097351,up
485935,-2.417969,9.738281,3.476563,-0.683594,0.164062,0.056641,0.799561,0.553101,0.211853,0.099182,up
485940,-2.417969,9.660156,3.476563,-0.789062,0.179687,0.070312,0.800476,0.551697,0.211975,0.099976,up
485945,-2.417969,9.582031,3.589844,-0.789062,0.179687,0.070312,0.802551,0.548279,0.212097,0.101746,up
485950,-2.457031,9.550781,3.667969,-0.789062,0.179687,0.070312,0.803345,0.546875,0.212158,0.102478,up
485955,-2.417969,9.46875,3.707031,-0.818359,0.162109,0.085937,0.803345,0.546875,0.212158,0.102478,up
485960,-2.417969,9.433594,3.707031,-0.818359,0.162109,0.085937,0.80542,0.543579,0.212219,0.104187,up
485965,-2.417969,9.394531,3.820313,-0.802734,0.115234,0.09375,0.806519,0.541748,0.212158,0.105103,up
485971,-2.339844,9.351563,3.9375,-0.802734,0.115234,0.09375,0.807373,0.540283,0.212036,0.105835,up
485976,-2.339844,9.351563,3.9375,-0.757812,0.087891,0.074219,0.808411,0.538757,0.211975,0.106567,up
485981,-2.339844,9.351563,3.9375,-0.757812,0.087891,0.074219,0.808411,0.538757,0.211975,0.106567,up
485986,-2.304688,9.277344,3.898438,-0.724609,0.082031,0.058594,0.808411,0.538757,0.211975,0.106567,up
485991,-2.265625,9.316406,3.972656,-0.697266,0.068359,0.048828,0.810181,0.535828,0.211792,0.107788,up
485997,-2.265625,9.316406,3.972656,-0.689453,0.052734,0.027344,0.811035,0.534424,0.21167,0.108337,up
486003,-2.265625,9.355469,4.011719,-0.673828,0.035156,0.009766,0.812805,0.531677,0.211426,0.109192,up
486009,-2.304688,9.472656,4.011719,-0.673828,0.035156,0.009766,0.814636,0.528809,0.211304,0.109924,up
486014,-2.304688,9.511719,4.011719,-0.673828,0.035156,0.009766,0.814636,0.528809,0.211304,0.109924,up
486019,-2.304688,9.546875,4.011719,-0.699219,0.011719,-0.056641,0.814636,0.528809,0.211304,0.109924,up
486024,-2.304688,9.546875,3.9375,-0.789062,0.046875,-0.068359,0.814636,0.528809,0.211304,0.109924,up
486029,-2.378906,9.578125,3.859375,-0.789062,0.046875,-0.068359,0.817505,0.524231,0.211121,0.110901,up
486035,-2.417969,9.621094,3.820313,-0.833984,0.052734,-0.056641,0.817505,0.524231,0.211121,0.110901,up
486040,-2.457031,9.699219,3.898438,-0.876953,0.035156,-0.033203,0.817505,0.524231,0.211121,0.110901,up
486046,-2.417969,9.773438,4.164062,-0.876953,0.035156,-0.033203,0.82196,0.516968,0.210632,0.112732,up
486051,-2.457031,9.734375,4.242187,-1.017578,0.019531,0.041016,0.82196,0.516968,0.210632,0.112732,up
486056,-2.496094,9.699219,4.242187,-1.074219,0.056641,0.080078,0.82196,0.516968,0.210632,0.112732,up
486063,-2.6875,9.65625,4.203125,-1.074219,0.056641,0.080078,0.825867,0.510559,0.209778,0.11499,up
486068,-2.6875,9.578125,4.28125,-1.142578,0.046875,0.146484,0.825867,0.510559,0.209778,0.11499,up
486073,-2.609375,9.507813,4.394531,-1.175781,-0.023437,0.167969,0.825867,0.510559,0.209778,0.11499,up
486078,-2.53125,9.390625,4.546875,-1.207031,-0.087891,0.183594,0.825867,0.510559,0.209778,0.11499,up
486083,-2.378906,9.089844,4.738281,-1.207031,-0.087891,0.183594,0.825867,0.510559,0.209778,0.11499,up
486089,-2.304688,8.929688,4.855469,-1.207031,-0.087891,0.183594,0.833252,0.498657,0.206665,0.11969,up
486095,-2.113281,8.777344,4.855469,-1.294922,-0.136719,0.169922,0.833252,0.498657,0.206665,0.11969,up
486100,-2.035156,8.746094,4.933594,-1.263672,-0.179687,0.121094,0.833252,0.498657,0.206665,0.11969,up
486105,-1.882813,8.746094,5.007812,-1.263672,-0.179687,0.121094,0.839844,0.488159,0.203125,0.122925,up
486110,-1.765625,8.703125,5.007812,-1.216797,-0.115234,0.044922,0.839844,0.488159,0.203125,0.122925,up
486115,-1.765625,8.742188,5.085937,-1.216797,-0.115234,0.044922,0.842834,0.483276,0.201782,0.124084,up
486120,-1.691406,9.011719,5.046875,-1.216797,-0.115234,0.044922,0.844238,0.480835,0.201416,0.124695,up
486125,-1.5,8.089844,4.738281,-1.216797,-0.115234,0.044922,0.844238,0.480835,0.201416,0.124695,up
486130,-1.917969,9.011719,4.703125,-1.300781,0.261719,-0.056641,0.844238,0.480835,0.201416,0.124695,up
486136,-1.917969,9.011719,4.703125,-1.285156,0.416016,-0.083984,0.84845,0.47229,0.202209,0.127319,up
486141,-1.882813,8.472656,4.894531,-1.271484,0.478516,-0.103516,0.849915,0.468994,0.203003,0.128479,up
486146,-1.957031,8.550781,5.046875,-1.257813,0.496094,-0.111328,0.851135,0.466125,0.203735,0.129456,up
486152,-2.417969,8.667969,5.507812,-1.257813,0.496094,-0.111328,0.852234,0.463562,0.204407,0.130371,up
486157,-2.53125,8.507813,5.507812,-1.255859,0.498047,-0.126953,0.853455,0.460632,0.2052,0.131348,up
486162,-2.609375,8.46875,5.507812,-1.201172,0.480469,-0.130859,0.853455,0.460632,0.2052,0.131348,up
486167,-2.761719,8.390625,5.621094,-1.150391,0.412109,-0.125,0.853455,0.460632,0.2052,0.131348,up
486172,-2.648438,8.28125,5.964844,-1.150391,0.412109,-0.125,0.853455,0.460632,0.2052,0.131348,up
486177,-2.648438,8.28125,5.964844,-1.150391,0.412109,-0.125,0.853455,0.460632,0.2052,0.131348,up
486182,-2.609375,8.28125,6.042969,-1.003906,0.244141,-0.113281,0.85907,0.447754,0.207947,0.135071,up
486187,-2.609375,8.28125,6.042969,-0.912109,0.103516,-0.095703,0.860046,0.44574,0.208069,0.135498,up
486192,-2.304688,8.28125,6.082031,-0.912109,0.103516,-0.095703,0.860046,0.44574,0.208069,0.135498,up
486197,-2.304688,8.28125,6.082031,-0.875,0.070312,-0.103516,0.862,0.441711,0.208069,0.13623,up
486204,-1.996094,8.320313,5.507812,-0.875,0.070312,-0.103516,0.862,0.441711,0.208069,0.13623,up
486209,-1.996094,8.394531,5.390625,-0.837891,0.130859,-0.103516,0.862,0.441711,0.208069,0.13623,up
486215,-1.996094,8.46875,5.429687,-0.849609,0.140625,-0.091797,0.862,0.441711,0.208069,0.13623,up
486220,-1.996094,8.472656,5.507812,-0.925781,0.164062,-0.080078,0.862,0.441711,0.208069,0.13623,up
486226,-1.882813,8.667969,5.621094,-0.925781,0.164062,-0.080078,0.867676,0.429321,0.208679,0.138916,up
486231,-1.917969,8.589844,5.621094,-1.113281,0.267578,-0.099609,0.868713,0.42688,0.208984,0.139526,up
486237,-2.148438,8.46875,5.621094,-1.113281,0.267578,-0.099609,0.86969,0.424561,0.20929,0.140137,up
486242,-2.226563,8.429688,5.582031,-1.113281,0.267578,-0.099609,0.87085,0.421692,0.209656,0.140869,up
486248,-2.304688,8.324219,5.542969,-1.351563,0.322266,-0.162109,0.87085,0.421692,0.209656,0.140869,up
486253,-2.378906,8.207031,5.660156,-1.392578,0.300781,-0.197266,0.87085,0.421692,0.209656,0.140869,up
486259,-2.457031,7.941406,5.660156,-1.417969,0.25,-0.212891,0.87085,0.421692,0.209656,0.140869,up
486264,-2.496094,7.902344,5.699219,-1.429688,0.228516,-0.224609,0.87085,0.421692,0.209656,0.140869,up
486270,-2.496094,7.820312,5.890625,-1.421875,0.126953,-0.240234,0.87085,0.421692,0.209656,0.140869,up
486275,-2.457031,7.707031,5.925781,-1.421875,0.126953,-0.240234,0.880554,0.398804,0.211365,0.144653,up
486280,-2.378906,7.667969,5.890625,-1.347656,0.099609,-0.253906,0.880554,0.398804,0.211365,0.144653,up
486285,-2.378906,7.515625,5.851562,-1.289063,0.082031,-0.248047,0.881958,0.39563,0.211365,0.144958,up
486290,-2.378906,7.398437,5.851562,-1.289063,0.082031,-0.248047,0.883362,0.392273,0.211304,0.145203,up
486295,-2.378906,7.4375,5.890625,-1.160156,0.048828,-0.238281,0.884705,0.389282,0.211243,0.145447,up
486301,-2.226563,7.28125,5.8125,-1.160156,0.048828,-0.238281,0.886963,0.384033,0.211121,0.145752,up
486306,-2.1875,7.136719,5.8125,-1.076172,0.056641,-0.246094,0.888123,0.381287,0.211121,0.145874,up
486311,-2.074219,7.097656,5.773437,-1.076172,0.056641,-0.246094,0.889221,0.378723,0.211121,0.145935,up
486316,-2.035156,7.132812,5.773437,-1.076172,0.056641,-0.246094,0.890137,0.376465,0.211121,0.145996,up
486321,-2.035156,7.167969,5.734375,-1.001953,0.105469,-0.287109,0.891235,0.37384,0.211243,0.146057,up
486326,-1.957031,7.09375,5.773437,-0.992187,0.15625,-0.328125,0.892212,0.371338,0.211487,0.145996,up
486331,-2.113281,6.671875,5.542969,-0.992187,0.15625,-0.328125,0.893188,0.368835,0.211853,0.145935,up
486336,-2.226563,6.480469,5.351562,-0.992187,0.15625,-0.328125,0.893982,0.366638,0.212402,0.145813,up
486341,-2.417969,6.480469,5.160156,-0.966797,0.248047,-0.503906,0.89502,0.36377,0.213135,0.145508,up
486347,-2.839844,6.671875,4.933594,-0.966797,0.248047,-0.503906,0.895996,0.361145,0.213745,0.14502,up
486353,-2.878906,6.710937,5.046875,-0.966797,0.248047,-0.503906,0.896851,0.359009,0.214111,0.144531,up
486359,-2.878906,6.710937,5.046875,-1.074219,-0.033203,-0.609375,0.898071,0.356262,0.214294,0.143738,up
486364,-2.878906,6.710937,5.046875,-1.126953,-0.123047,-0.611328,0.899292,0.353516,0.214294,0.142944,up
486369,-2.800781,6.78125,5.429687,-1.126953,-0.123047,-0.611328,0.900574,0.350647,0.214111,0.14209,up
486374,-2.722656,6.480469,5.621094,-1.126953,-0.123047,-0.611328,0.900574,0.350647,0.214111,0.14209,up
486379,-2.722656,6.371094,5.542969,-1.214844,-0.226562,-0.621094,0.90332,0.344666,0.213379,0.140137,up
486385,-2.953125,5.976562,5.351562,-1.216797,-0.267578,-0.591797,0.90332,0.344666,0.213379,0.140137,up
486390,-2.953125,5.792969,5.390625,-1.216797,-0.267578,-0.591797,0.906128,0.338684,0.212341,0.138367,up
486395,-2.914063,5.632812,5.351562,-1.21875,-0.361328,-0.537109,0.906128,0.338684,0.212341,0.138367,up
486401,-2.878906,5.484375,5.390625,-1.134766,-0.408203,-0.492187,0.906128,0.338684,0.212341,0.138367,up
486406,-2.878906,5.484375,5.390625,-1.035156,-0.429687,-0.457031,0.911499,0.327454,0.209045,0.134949,up
486411,-2.953125,5.566406,5.46875,-0.876953,-0.433594,-0.427734,0.911499,0.327454,0.209045,0.134949,up
486416,-3.105469,5.832031,5.238281,-0.876953,-0.433594,-0.427734,0.913696,0.323181,0.207153,0.13324,up
486421,-3.300781,6.367187,5.007812,-0.876953,-0.433594,-0.427734,0.914734,0.321411,0.206055,0.132141,up
486426,-3.261719,6.597656,4.96875,-0.876953,-0.433594,-0.427734,0.915588,0.320129,0.204956,0.131104,up
486431,-3.183594,6.820312,4.933594,-0.544922,-0.75,-0.474609,0.915588,0.320129,0.204956,0.131104,up
486436,-3.144531,6.9375,4.894531,-0.544922,-0.75,-0.474609,0.917542,0.317566,0.201965,0.128357,up
486441,-2.992188,6.753906,4.546875,-0.544922,-0.75,-0.474609,0.91864,0.316284,0.200195,0.126648,up
486446,-2.992188,6.671875,4.320312,-0.544922,-0.75,-0.474609,0.91864,0.316284,0.200195,0.126648,up
486451,-2.878906,6.554687,4.203125,-0.669922,-0.994141,-0.662109,0.91864,0.316284,0.200195,0.126648,up
486456,-2.722656,6.402344,4.089844,-0.669922,-0.994141,-0.662109,0.92218,0.311707,0.194519,0.120972,up
486461,-2.53125,6.210937,4.203125,-0.669922,-0.994141,-0.662109,0.923523,0.309692,0.192444,0.119141,up
486466,-2.148438,5.828125,4.394531,-1.285156,-1.117188,-0.677734,0.923523,0.309692,0.192444,0.119141,up
486471,-1.957031,5.566406,4.472656,-1.285156,-1.117188,-0.677734,0.927063,0.303589,0.187378,0.115417,up
486476,-1.957031,5.566406,4.472656,-1.484375,-1.052734,-0.625,0.928772,0.300232,0.184998,0.113831,up
486481,-1.726563,5.144531,4.625,-1.484375,-1.052734,-0.625,0.93042,0.296997,0.1828,0.112427,up
486487,-1.882813,4.871094,4.96875,-1.484375,-1.052734,-0.625,0.932007,0.293823,0.180664,0.111084,up
486492,-2.074219,5.0625,5.046875,-1.099609,-0.867187,-0.490234,0.933655,0.29071,0.178345,0.109619,up
486498,-2.1875,5.523437,5.429687,-1.099609,-0.867187,-0.490234,0.934692,0.288696,0.176636,0.108521,up
486503,-2.1875,5.789062,5.390625,-0.664062,-0.917969,-0.417969,0.934692,0.288696,0.176636,0.108521,up
486509,-2.1875,5.828125,5.316406,-0.488281,-0.955078,-0.384766,0.934692,0.288696,0.176636,0.108521,up
486515,-2.265625,5.980469,5.390625,-0.357422,-1.007813,-0.375,0.934692,0.288696,0.176636,0.108521,up
486520,-2.265625,5.980469,5.390625,-0.357422,-1.007813,-0.375,0.934692,0.288696,0.176636,0.108521,up
486525,-2.304688,5.976562,5.351562,-0.222656,-1.080078,-0.378906,0.934692,0.288696,0.176636,0.108521,up
486530,-2.1875,5.945312,5.621094,0.003906,-1.248047,-0.390625,0.939575,0.283936,0.163269,0.09967,up
486535,-2.1875,5.945312,5.621094,0.003906,-1.248047,-0.390625,0.939575,0.283936,0.163269,0.09967,up
486540,-2.113281,5.976562,5.734375,-0.013672,-1.339844,-0.390625,0.940918,0.284058,0.157532,0.096008,up
486546,-2.074219,5.945312,5.734375,-0.353516,-1.431641,-0.378906,0.942749,0.282654,0.15094,0.092407,up
486551,-1.957031,5.828125,5.773437,-0.353516,-1.431641,-0.378906,0.943787,0.281372,0.147705,0.090881,up
486556,-1.691406,5.636719,6.15625,-0.896484,-1.533203,-0.347656,0.945068,0.279541,0.144043,0.089233,up
486561,-1.535156,5.636719,6.386719,-0.896484,-1.533203,-0.347656,0.946228,0.27771,0.140747,0.08783,up
486566,-1.308594,5.597656,6.464844,-0.902344,-1.320313,-0.328125,0.946228,0.27771,0.140747,0.08783,up
486572,-1.421875,5.5625,6.769531,-0.902344,-1.320313,-0.328125,0.948547,0.273743,0.13446,0.085022,up
486577,-1.421875,5.5625,6.769531,-0.710937,-1.046875,-0.347656,0.948547,0.273743,0.13446,0.085022,up
486582,-1.460938,5.597656,6.921875,-0.710937,-1.046875,-0.347656,0.950439,0.270508,0.129395,0.082275,up
486588,-1.84375,5.789062,7.1875,-0.710937,-1.046875,-0.347656,0.950989,0.269653,0.127747,0.081116,up
486593,-2.035156,5.980469,7.304687,-0.060547,-0.736328,-0.455078,0.950989,0.269653,0.127747,0.081116,up
486598,-2.113281,6.019531,7.570312,0.152344,-0.71875,-0.496094,0.951721,0.269409,0.124756,0.078003,up
486603,-2.304688,6.175781,7.691406,0.322266,-0.759766,-0.556641,0.951721,0.269409,0.124756,0.078003,up
486608,-2.339844,6.289062,7.726562,0.464844,-0.855469,-0.623047,0.951721,0.269409,0.124756,0.078003,up
486613,-2.496094,6.402344,7.726562,0.570312,-1.011719,-0.679687,0.951721,0.269409,0.124756,0.078003,up
486619,-2.6875,6.59375,7.808594,0.625,-1.175781,-0.710937,0.951721,0.269409,0.124756,0.078003,up
486624,-2.53125,7.054687,7.808594,0.625,-1.175781,-0.710937,0.952087,0.275024,0.115845,0.066528,up
486629,-2.417969,7.246094,7.6875,0.623047,-1.552734,-0.767578,0.952087,0.275024,0.115845,0.066528,up
486634,-2.378906,7.324219,7.609375,0.550781,-1.666016,-0.757812,0.952087,0.275024,0.115845,0.066528,up
486639,-2.304688,7.246094,7.648437,0.408203,-1.736328,-0.730469,0.952087,0.275024,0.115845,0.066528,up
486644,-1.917969,7.132812,7.726562,0.408203,-1.736328,-0.730469,0.952087,0.275024,0.115845,0.066528,up
486650,-1.765625,6.976562,7.765625,0.408203,-1.736328,-0.730469,0.953308,0.28064,0.098694,0.051636,up
486656,-1.613281,6.902344,7.84375,-0.005859,-1.794922,-0.542969,0.953308,0.28064,0.098694,0.051636,up
486661,-1.078125,6.632812,7.808594,-0.005859,-1.794922,-0.542969,0.954224,0.281189,0.09082,0.046265,up
486666,-0.925781,6.519531,7.808594,-0.097656,-1.65625,-0.466797,0.954224,0.281189,0.09082,0.046265,up
486671,-0.925781,6.519531,7.808594,-0.173828,-1.525391,-0.371094,0.955627,0.280518,0.080322,0.0401,up
486676,-0.730469,6.671875,7.84375,-0.173828,-1.525391,-0.371094,0.955994,0.280212,0.077576,0.038696,up
486681,-0.503906,6.671875,8.03125,-0.173828,-1.525391,-0.371094,0.956299,0.280029,0.075012,0.037537,up
486686,-0.578125,6.671875,8.070313,-0.173828,-1.525391,-0.371094,0.956299,0.280029,0.075012,0.037537,up
486691,-0.730469,6.632812,8.113281,0.070312,-0.804687,-0.140625,0.956543,0.280457,0.07135,0.035767,up
486696,-0.886719,6.710937,8.269531,0.070312,-0.804687,-0.140625,0.956543,0.280457,0.07135,0.035767,up
486701,-0.925781,6.75,8.335938,0.503906,-0.607422,-0.158203,0.956482,0.281189,0.069946,0.034973,up
486706,-0.960937,6.671875,8.339844,0.503906,-0.607422,-0.158203,0.956238,0.282349,0.068481,0.034058,up
486712,-0.960937,6.710937,8.453125,0.503906,-0.607422,-0.158203,0.955627,0.285339,0.065979,0.032166,up
486718,-0.808594,6.785156,8.453125,0.503906,-0.607422,-0.158203,0.9552,0.287109,0.064819,0.031128,up
486723,-0.464844,6.863281,8.339844,0.943359,-0.607422,-0.273438,0.95459,0.28949,0.063477,0.029846,up
486729,-0.425781,6.785156,8.335938,0.980469,-0.560547,-0.298828,0.95459,0.28949,0.063477,0.029846,up
486734,-0.273438,6.863281,8.109375,0.980469,-0.560547,-0.298828,0.95343,0.293884,0.061523,0.027527,up
486739,-0.15625,6.902344,7.996094,0.941406,-0.4375,-0.267578,0.95343,0.293884,0.061523,0.027527,up
486744,-0.082031,7.015625,8.03125,0.882812,-0.367188,-0.238281,0.95343,0.293884,0.061523,0.027527,up
486749,-0.003906,7.207031,8.378906,0.8125,-0.277344,-0.195312,0.95343,0.293884,0.061523,0.027527,up
486754,0.035156,7.207031,8.375,0.726562,-0.166016,-0.144531,0.95343,0.293884,0.061523,0.027527,up
486759,-0.003906,7.167969,8.417969,0.667969,-0.037109,-0.085937,0.95343,0.293884,0.061523,0.027527,up
486765,-0.195312,7.167969,8.417969,0.636719,0.09375,-0.005859,0.95343,0.293884,0.061523,0.027527,up
486770,-0.464844,7.285156,8.535156,0.636719,0.09375,-0.005859,0.95343,0.293884,0.061523,0.027527,up
486775,-0.464844,7.324219,8.609375,0.636719,0.09375,-0.005859,0.948975,0.308594,0.059998,0.023804,up
486780,-0.503906,7.363281,8.652344,0.712891,0.287109,0.169922,0.948975,0.308594,0.059998,0.023804,up
486785,-0.503906,7.398437,8.648438,0.712891,0.287109,0.169922,0.947815,0.311951,0.061157,0.024902,up
486790,-0.769531,7.4375,8.648438,0.712891,0.287109,0.169922,0.947815,0.311951,0.061157,0.024902,up
486795,-0.65625,7.4375,8.609375,0.712891,0.287109,0.169922,0.946533,0.315491,0.062439,0.026428,up
486800,-0.578125,7.4375,8.648438,0.787109,0.357422,0.294922,0.946533,0.315491,0.062439,0.026428,up
486805,-0.347656,7.4375,8.535156,0.787109,0.357422,0.294922,0.946533,0.315491,0.062439,0.026428,up
486811,-0.347656,7.476562,8.339844,0.787109,0.357422,0.294922,0.944214,0.321472,0.064758,0.029297,up
486817,-0.425781,7.554687,8.296875,0.878906,0.605469,0.328125,0.944214,0.321472,0.064758,0.029297,up
486822,-0.578125,7.4375,8.492188,0.878906,0.605469,0.328125,0.941772,0.327637,0.068176,0.032593,up
486827,-0.808594,7.476562,8.53125,0.837891,0.658203,0.333984,0.940857,0.329834,0.069641,0.033936,up
486833,-0.925781,7.398437,8.535156,0.851562,0.644531,0.328125,0.940002,0.331848,0.071045,0.035156,up
486838,-1.0,7.324219,8.652344,0.851562,0.644531,0.328125,0.939209,0.333618,0.072205,0.036194,up
486843,-0.695312,7.246094,8.496094,0.851562,0.644531,0.328125,0.938354,0.335693,0.073486,0.037231,up
486848,-0.539062,7.167969,8.375,0.9375,0.615234,0.222656,0.938354,0.335693,0.073486,0.037231,up
486853,-0.464844,7.132812,8.339844,0.976562,0.675781,0.158203,0.938354,0.335693,0.073486,0.037231,up
486858,-0.539062,7.054687,8.1875,0.976562,0.675781,0.158203,0.938354,0.335693,0.073486,0.037231,up
486863,-0.578125,6.976562,8.109375,1.056641,0.759766,0.107422,0.935486,0.342346,0.077942,0.039795,up
486868,-0.65625,7.015625,8.113281,1.160156,0.839844,0.054687,0.933105,0.347656,0.082031,0.041138,up
486874,-0.886719,7.09375,7.992187,1.160156,0.839844,0.054687,0.931763,0.350647,0.084473,0.041687,up
486879,-1.078125,7.398437,7.992187,1.160156,0.839844,0.054687,0.930359,0.353699,0.086975,0.042175,up
486885,-1.152344,7.554687,7.953125,1.390625,1.03125,-0.080078,0.930359,0.353699,0.086975,0.042175,up
486890,-1.117188,7.628906,7.996094,1.404297,1.039063,-0.076172,0.930359,0.353699,0.086975,0.042175,up
486896,-1.269531,7.859375,7.953125,1.455078,1.080078,-0.046875,0.930359,0.353699,0.086975,0.042175,up
486901,-1.230469,7.941406,7.882812,1.455078,1.080078,-0.046875,0.924316,0.366272,0.097595,0.044128,up
486907,-1.269531,7.898437,7.953125,1.498047,1.097656,-0.011719,0.920898,0.373108,0.10321,0.045471,up
486912,-1.5,8.203125,7.84375,1.498047,1.097656,-0.011719,0.919128,0.376587,0.105957,0.046265,up
486917,-1.613281,8.242188,7.726562,1.498047,1.097656,-0.011719,0.919128,0.376587,0.105957,0.046265,up
486922,-1.613281,8.085938,7.652344,1.587891,1.126953,0.125,0.919128,0.376587,0.105957,0.046265,up
486927,-1.535156,7.972656,7.5,1.580078,1.111328,0.138672,0.915344,0.383911,0.11145,0.048096,up
486933,-1.574219,7.972656,7.421875,1.580078,1.111328,0.138672,0.911743,0.390625,0.116516,0.049988,up
486938,-1.613281,8.085938,7.34375,1.583984,1.101563,0.115234,0.909851,0.394226,0.119202,0.050903,up
486943,-1.691406,8.207031,7.308594,1.589844,1.117188,0.087891,0.909851,0.394226,0.119202,0.050903,up
486948,-1.691406,8.390625,7.34375,1.589844,1.117188,0.087891,0.906006,0.401184,0.124451,0.052612,up
486953,-1.917969,8.8125,6.960937,1.589844,1.117188,0.087891,0.906006,0.401184,0.124451,0.052612,up
486958,-2.074219,8.933594,6.886719,1.533203,1.15625,0.0625,0.906006,0.401184,0.124451,0.052612,up
486964,-2.226563,9.15625,6.921875,1.439453,1.144531,0.085937,0.906006,0.401184,0.124451,0.052612,up
486969,-2.457031,9.273438,6.921875,1.439453,1.144531,0.085937,0.906006,0.401184,0.124451,0.052612,up
486975,-2.457031,9.234375,6.847656,1.173828,1.078125,0.167969,0.906006,0.401184,0.124451,0.052612,up
486980,-2.457031,9.234375,6.847656,1.044922,1.019531,0.236328,0.894958,0.419556,0.14032,0.058472,up
486985,-2.457031,9.234375,6.847656,0.925781,0.958984,0.304688,0.893494,0.421631,0.142334,0.059753,up
486990,-2.457031,8.96875,7.039062,0.847656,0.896484,0.365234,0.892212,0.423584,0.144226,0.061218,up
486995,-2.265625,8.777344,6.921875,0.847656,0.896484,0.365234,0.892212,0.423584,0.144226,0.061218,up
487001,-2.226563,8.667969,6.847656,0.847656,0.896484,0.365234,0.889709,0.427246,0.147461,0.064331,up
487007,-2.113281,8.390625,6.847656,0.847656,0.896484,0.365234,0.887268,0.430847,0.150208,0.067566,up
487012,-2.113281,8.320313,6.730469,0.847656,0.896484,0.365234,0.887268,0.430847,0.150208,0.067566,up
487017,-2.148438,8.28125,6.695312,1.054688,0.728516,0.417969,0.887268,0.430847,0.150208,0.067566,up
487022,-1.804688,8.363281,6.539062,1.054688,0.728516,0.417969,0.882935,0.437622,0.154358,0.071838,up
487027,-1.765625,8.394531,6.386719,1.054688,0.728516,0.417969,0.882935,0.437622,0.154358,0.071838,up
487032,-1.691406,8.429688,6.234375,1.363281,0.849609,0.273438,0.882935,0.437622,0.154358,0.071838,up
487037,-1.613281,8.511719,6.121094,1.363281,0.849609,0.273438,0.87738,0.446228,0.159607,0.075134,up
487042,-1.765625,8.746094,5.925781,1.363281,0.849609,0.273438,0.875427,0.449158,0.161621,0.076172,up
487047,-1.996094,9.011719,5.660156,1.363281,0.849609,0.273438,0.875427,0.449158,0.161621,0.076172,up
487052,-2.035156,9.128906,5.621094,1.207031,1.041016,0.246094,0.875427,0.449158,0.161621,0.076172,up
487057,-2.1875,9.234375,5.582031,1.207031,1.041016,0.246094,0.869629,0.457153,0.168335,0.079834,up
487062,-2.53125,9.433594,5.46875,1.207031,1.041016,0.246094,0.869629,0.457153,0.168335,0.079834,up
487067,-2.722656,9.472656,5.46875,0.648437,0.943359,0.365234,0.867859,0.459412,0.170715,0.081482,up
487073,-2.6875,9.429688,5.542969,0.449219,0.849609,0.416016,0.866577,0.460876,0.172485,0.082947,up
487078,-2.6875,9.429688,5.542969,0.265625,0.765625,0.464844,0.864685,0.462769,0.175354,0.086243,up
487083,-2.496094,8.890625,5.660156,0.265625,0.765625,0.464844,0.863953,0.463318,0.176453,0.088196,up
487089,-2.417969,8.933594,5.734375,0.09375,0.650391,0.572266,0.863403,0.463623,0.177307,0.090088,up
487095,-2.226563,8.742188,5.699219,0.09375,0.650391,0.572266,0.862854,0.463989,0.178101,0.092224,up
487101,-2.1875,8.773438,5.660156,0.130859,0.628906,0.677734,0.862854,0.463989,0.178101,0.092224,up
487106,-2.148438,8.707031,5.699219,0.179687,0.642578,0.724609,0.862854,0.463989,0.178101,0.092224,up
487112,-2.1875,8.855469,5.582031,0.230469,0.662109,0.742187,0.862854,0.463989,0.178101,0.092224,up
487117,-2.226563,8.890625,5.46875,0.230469,0.662109,0.742187,0.860168,0.466187,0.180603,0.101074,up
487123,-2.265625,8.929688,5.390625,0.330078,0.755859,0.697266,0.860168,0.466187,0.180603,0.101074,up
487128,-2.304688,9.199219,5.199219,0.330078,0.755859,0.697266,0.857361,0.468689,0.183289,0.108154,up
487133,-2.378906,9.355469,5.277344,0.330078,0.755859,0.697266,0.856506,0.469421,0.184143,0.110046,up
487138,-2.378906,9.429688,5.351562,0.287109,0.787109,0.601562,0.85553,0.470215,0.185303,0.112366,up
487144,-2.339844,9.472656,5.125,0.287109,0.787109,0.601562,0.854797,0.470764,0.186279,0.114319,up
487149,-2.339844,9.617188,5.007812,0.287109,0.787109,0.601562,0.854004,0.47113,0.187317,0.116455,up
487155,-2.304688,9.65625,4.855469,0.287109,0.787109,0.601562,0.854004,0.47113,0.187317,0.116455,up
487161,-2.304688,9.582031,4.894531,-0.185547,0.728516,0.601562,0.853088,0.47113,0.189087,0.120728,up
487167,-2.339844,9.316406,4.96875,-0.185547,0.728516,0.601562,0.852783,0.470581,0.189941,0.123291,up
487172,-2.417969,9.199219,5.160156,-0.513672,0.617187,0.673828,0.852722,0.46991,0.190491,0.125366,up
487178,-2.417969,9.046875,5.160156,-0.513672,0.617187,0.673828,0.852844,0.468018,0.191284,0.130249,up
487183,-2.339844,8.855469,5.238281,-0.513672,0.617187,0.673828,0.852844,0.468018,0.191284,0.130249,up
487188,-2.339844,8.855469,5.238281,-0.542969,0.521484,0.728516,0.853027,0.467041,0.191406,0.13269,up
487193,-2.339844,8.855469,5.238281,-0.375,0.476562,0.759766,0.853088,0.466187,0.191467,0.135071,up
487199,-2.1875,8.890625,5.507812,-0.375,0.476562,0.759766,0.852966,0.465027,0.191528,0.139832,up
487205,-2.148438,9.050781,5.46875,-0.375,0.476562,0.759766,0.8526,0.464966,0.19165,0.142151,up
487210,-2.226563,9.160156,5.429687,0.15625,0.523437,0.734375,0.8526,0.464966,0.19165,0.142151,up
487216,-2.304688,9.234375,5.390625,0.322266,0.544922,0.732422,0.8526,0.464966,0.19165,0.142151,up
487221,-2.378906,9.578125,5.160156,0.453125,0.552734,0.728516,0.8526,0.464966,0.19165,0.142151,up
487227,-2.339844,9.738281,5.199219,0.541016,0.556641,0.734375,0.8526,0.464966,0.19165,0.142151,up
487232,-2.339844,9.929688,5.125,0.494141,0.558594,0.767578,0.8526,0.464966,0.19165,0.142151,up
487237,-2.339844,10.160156,4.855469,0.494141,0.558594,0.767578,0.846619,0.470703,0.194336,0.15448,up
487242,-2.339844,10.160156,4.855469,0.224609,0.517578,0.849609,0.845581,0.471802,0.194763,0.156616,up
487247,-2.457031,10.117188,4.933594,0.224609,0.517578,0.849609,0.844604,0.472595,0.195007,0.158813,up
487252,-2.417969,10.039063,4.96875,0.070312,0.486328,0.884766,0.84314,0.47345,0.195068,0.163818,up
487257,-2.265625,9.660156,4.96875,0.070312,0.486328,0.884766,0.84314,0.47345,0.195068,0.163818,up
487262,-2.1875,9.511719,4.933594,0.070312,0.486328,0.884766,0.842712,0.473511,0.194885,0.16626,up
487268,-2.113281,9.351563,5.046875,-0.296875,0.375,0.949219,0.842224,0.4729,0.193909,0.17157,up
487273,-1.84375,9.089844,5.125,-0.386719,0.304688,0.974609,0.842224,0.4729,0.193909,0.17157,up
487278,-1.84375,9.089844,5.125,-0.337891,0.296875,0.974609,0.841919,0.472046,0.192688,0.176636,up
487284,-1.613281,8.746094,5.238281,-0.337891,0.296875,0.974609,0.841675,0.471741,0.192017,0.179321,up
487289,-1.5,8.707031,5.238281,-0.091797,0.314453,0.986328,0.841248,0.471741,0.191406,0.181824,up
487294,-1.460938,8.664063,5.199219,-0.091797,0.314453,0.986328,0.840637,0.472107,0.190918,0.184448,up
487300,-1.460938,8.890625,5.277344,-0.091797,0.314453,0.986328,0.839844,0.472717,0.190613,0.186768,up
487305,-1.535156,9.089844,5.238281,0.390625,0.423828,0.980469,0.839844,0.472717,0.190613,0.186768,up
487311,-1.691406,9.46875,5.125,0.5,0.464844,0.966797,0.839844,0.472717,0.190613,0.186768,up
487317,-1.691406,9.621094,5.160156,0.564453,0.486328,0.943359,0.839844,0.472717,0.190613,0.186768,up
487322,-1.765625,9.777344,5.160156,0.572266,0.492187,0.921875,0.839844,0.472717,0.190613,0.186768,up
487327,-1.765625,9.933594,5.007812,0.572266,0.492187,0.921875,0.833435,0.479065,0.190979,0.198486,up
487332,-1.726563,10.039063,4.933594,0.572266,0.492187,0.921875,0.832031,0.480469,0.191162,0.200867,up
487338,-1.726563,10.039063,4.894531,0.445312,0.482422,0.9375,0.832031,0.480469,0.191162,0.200867,up
487343,-1.765625,10.117188,4.855469,0.330078,0.476562,0.957031,0.832031,0.480469,0.191162,0.200867,up
487349,-1.804688,9.894531,4.894531,0.330078,0.476562,0.957031,0.827576,0.484009,0.191101,0.21051,up
487354,-1.765625,9.738281,4.894531,-0.033203,0.410156,1.080078,0.826782,0.484375,0.190735,0.213257,up
487359,-1.726563,9.617188,4.933594,-0.121094,0.361328,1.109375,0.826111,0.484497,0.190186,0.216003,up
487364,-1.652344,9.546875,4.894531,-0.121094,0.361328,1.109375,0.825439,0.484558,0.189331,0.219177,up
487369,-1.535156,9.429688,4.894531,-0.121094,0.361328,1.109375,0.825439,0.484558,0.189331,0.219177,up
487375,-1.421875,9.433594,4.894531,-0.220703,0.232422,1.146484,0.824463,0.484497,0.187561,0.224487,up
487380,-1.421875,9.433594,4.894531,-0.189453,0.228516,1.152344,0.823914,0.484497,0.186523,0.227173,up
487385,-1.269531,9.238281,4.855469,-0.189453,0.228516,1.152344,0.823914,0.484497,0.186523,0.227173,up
487390,-1.269531,9.238281,4.855469,-0.136719,0.234375,1.150391,0.822693,0.484741,0.18457,0.232727,up
487396,-1.191406,9.089844,4.816406,-0.136719,0.234375,1.150391,0.821899,0.485046,0.183655,0.235413,up
487402,-1.152344,9.011719,4.738281,0.039063,0.291016,1.154297,0.821899,0.485046,0.183655,0.235413,up
487407,-1.078125,9.046875,4.664062,0.066406,0.308594,1.150391,0.821899,0.485046,0.183655,0.235413,up
487412,-1.078125,9.046875,4.625,0.042969,0.349609,1.134766,0.821899,0.485046,0.183655,0.235413,up
487417,-1.078125,9.085938,4.546875,0.042969,0.349609,1.134766,0.818298,0.486816,0.180725,0.246399,up
487422,-1.0,9.238281,4.472656,0.042969,0.349609,1.134766,0.816528,0.487488,0.179565,0.251831,up
487427,-1.039063,9.234375,4.394531,0.042969,0.349609,1.134766,0.816528,0.487488,0.179565,0.251831,up
487433,-0.960937,9.234375,4.28125,-0.066406,0.431641,1.130859,0.816528,0.487488,0.179565,0.251831,up
487438,-1.039063,9.15625,4.203125,-0.066406,0.431641,1.130859,0.814758,0.487854,0.178467,0.257507,up
487443,-1.039063,9.089844,4.203125,-0.123047,0.447266,1.142578,0.813171,0.487793,0.177307,0.263428,up
487448,-1.0,9.011719,4.203125,-0.228516,0.457031,1.169922,0.813171,0.487793,0.177307,0.263428,up
487453,-1.117188,8.816406,4.433594,-0.228516,0.457031,1.169922,0.812378,0.48761,0.176636,0.266663,up
487458,-1.117188,8.667969,4.585937,-0.228516,0.457031,1.169922,0.811157,0.486938,0.175171,0.272461,up
487463,-1.117188,8.472656,4.703125,-0.228516,0.457031,1.169922,0.811157,0.486938,0.175171,0.272461,up
487468,-1.039063,8.320313,4.894531,-0.341797,0.363281,1.169922,0.809937,0.486145,0.173279,0.278564,up
487473,-0.886719,8.324219,5.160156,-0.341797,0.363281,1.169922,0.809326,0.485901,0.172241,0.281372,up
487478,-0.808594,8.28125,5.199219,-0.341797,0.363281,1.169922,0.808594,0.485901,0.171265,0.284119,up
487483,-0.695312,8.246094,5.316406,-0.341797,0.363281,1.169922,0.808594,0.485901,0.171265,0.284119,up
487488,-0.617187,8.324219,5.316406,0.021484,0.214844,1.160156,0.806702,0.486694,0.16925,0.289368,up
487493,-0.425781,8.628906,5.160156,0.021484,0.214844,1.160156,0.805542,0.487427,0.168457,0.29187,up
487498,-0.234375,8.742188,5.046875,0.326172,0.207031,1.152344,0.805542,0.487427,0.168457,0.29187,up
487503,-0.15625,8.816406,4.933594,0.326172,0.207031,1.152344,0.80426,0.488342,0.167664,0.29425,up
487508,-0.042969,9.050781,4.777344,0.349609,0.234375,1.158203,0.80426,0.488342,0.167664,0.29425,up
487513,-0.042969,9.050781,4.738281,0.261719,0.287109,1.140625,0.801392,0.490417,0.16626,0.299316,up
487518,-0.042969,9.007813,4.585937,0.261719,0.287109,1.140625,0.799927,0.491394,0.165527,0.302124,up
487523,-0.042969,9.011719,4.546875,0.072266,0.298828,1.119141,0.798828,0.492004,0.164978,0.304321,up
487529,0.070312,8.96875,4.546875,0.072266,0.298828,1.119141,0.796631,0.492798,0.163452,0.30957,up
487535,0.148437,8.929688,4.546875,0.072266,0.298828,1.119141,0.795776,0.492859,0.162659,0.311951,up
487540,0.148437,8.929688,4.546875,-0.208984,0.265625,1.041016,0.794983,0.492737,0.161743,0.314636,up
487545,0.148437,8.929688,4.546875,-0.246094,0.248047,1.025391,0.794373,0.492554,0.160828,0.317017,up
487550,0.339844,8.855469,4.664062,-0.246094,0.248047,1.025391,0.794373,0.492554,0.160828,0.317017,up
487555,0.339844,8.855469,4.664062,-0.21875,0.220703,0.986328,0.793213,0.492004,0.158875,0.321777,up
487561,0.261719,9.011719,4.703125,-0.21875,0.220703,0.986328,0.792542,0.491882,0.157898,0.324036,up
487566,0.226562,9.089844,4.894531,-0.21875,0.220703,0.986328,0.792542,0.491882,0.157898,0.324036,up
487572,0.226562,9.15625,4.777344,-0.021484,0.177734,1.035156,0.792542,0.491882,0.157898,0.324036,up
487578,0.300781,9.316406,4.816406,0.035156,0.152344,1.119141,0.792542,0.491882,0.157898,0.324036,up
487583,0.417969,9.3125,4.816406,0.035156,0.152344,1.119141,0.787964,0.492981,0.152954,0.335693,up
487588,0.417969,9.390625,4.738281,0.0,0.158203,1.199219,0.787964,0.492981,0.152954,0.335693,up
487593,0.457031,9.390625,4.703125,0.0,0.158203,1.199219,0.786804,0.493408,0.151733,0.338379,up
487598,0.53125,9.277344,4.738281,-0.033203,0.203125,1.226563,0.786804,0.493408,0.151733,0.338379,up
487604,0.683594,9.195313,4.777344,-0.033203,0.203125,1.226563,0.78363,0.494141,0.148315,0.34613,up
487609,0.722656,9.128906,4.664062,-0.056641,0.277344,1.216797,0.78241,0.494263,0.147217,0.348999,up
487615,0.839844,9.046875,4.738281,-0.056641,0.277344,1.216797,0.781372,0.494385,0.146301,0.351624,up
487620,0.914062,9.007813,4.738281,-0.035156,0.318359,1.162109,0.781372,0.494385,0.146301,0.351624,up
487626,0.992187,9.085938,4.625,-0.035156,0.318359,1.162109,0.779175,0.494568,0.144592,0.356995,up
487632,1.03125,9.160156,4.664062,-0.011719,0.341797,1.103516,0.779175,0.494568,0.144592,0.356995,up
487637,0.992187,9.195313,4.777344,-0.011719,0.341797,1.103516,0.776855,0.49469,0.143005,0.362427,up
487642,0.875,9.351563,4.703125,-0.011719,0.341797,1.103516,0.776855,0.49469,0.143005,0.362427,up
487647,0.839844,9.316406,4.738281,-0.011719,0.341797,1.103516,0.774719,0.494751,0.141663,0.36731,up
487652,0.839844,9.273438,4.777344,-0.076172,0.328125,1.058594,0.774719,0.494751,0.141663,0.36731,up
487657,0.800781,9.199219,4.816406,-0.076172,0.328125,1.058594,0.774719,0.494751,0.141663,0.36731,up
487663,0.761719,9.238281,4.816406,-0.076172,0.328125,1.058594,0.77179,0.494507,0.139282,0.374695,up
487669,0.839844,9.160156,4.855469,-0.222656,0.279297,1.121094,0.77002,0.493896,0.137085,0.379883,up
487675,1.183594,9.050781,4.933594,-0.222656,0.279297,1.121094,0.769226,0.493591,0.135986,0.382324,up
487680,1.257813,8.933594,4.96875,-0.308594,0.226562,1.197266,0.768372,0.493164,0.134644,0.385071,up
487685,1.414063,8.851563,4.96875,-0.294922,0.21875,1.226563,0.768372,0.493164,0.134644,0.385071,up
487690,1.488281,8.703125,5.007812,-0.265625,0.224609,1.228516,0.768372,0.493164,0.134644,0.385071,up
487695,1.679688,8.628906,4.933594,-0.265625,0.224609,1.228516,0.768372,0.493164,0.134644,0.385071,up
487700,1.679688,8.628906,4.933594,-0.134766,0.263672,1.226563,0.764465,0.492065,0.129395,0.395813,up
487705,1.679688,8.628906,4.933594,-0.091797,0.304688,1.201172,0.764465,0.492065,0.129395,0.395813,up
487710,1.757813,8.664063,4.777344,-0.091797,0.304688,1.201172,0.763367,0.491943,0.128296,0.398499,up
487715,1.757813,8.664063,4.777344,-0.056641,0.333984,1.1875,0.762146,0.491882,0.12738,0.401245,up
487721,1.71875,8.8125,4.777344,-0.056641,0.333984,1.1875,0.759583,0.491882,0.125793,0.406616,up
487727,1.757813,8.8125,4.933594,0.023437,0.388672,1.109375,0.759583,0.491882,0.125793,0.406616,up
487733,1.71875,8.8125,4.933594,-0.001953,0.396484,1.068359,0.759583,0.491882,0.125793,0.406616,up
487738,1.71875,8.8125,4.894531,-0.001953,0.396484,1.068359,0.755737,0.491821,0.123962,0.414246,up
487744,1.757813,8.703125,4.933594,-0.021484,0.382813,1.058594,0.755737,0.491821,0.123962,0.414246,up
487750,1.796875,8.667969,5.007812,-0.021484,0.382813,1.058594,0.752197,0.491516,0.122009,0.421631,up
487755,1.796875,8.746094,5.007812,-0.064453,0.310547,1.082031,0.751038,0.491394,0.121216,0.424011,up
487760,1.835938,8.664063,5.007812,-0.091797,0.294922,1.097656,0.749878,0.491272,0.120361,0.426514,up
487766,1.910156,8.625,5.085937,-0.091797,0.294922,1.097656,0.748718,0.49115,0.119385,0.428894,up
487772,1.988281,8.625,5.125,-0.113281,0.265625,1.134766,0.748718,0.49115,0.119385,0.428894,up
487777,1.988281,8.585938,5.125,-0.105469,0.259766,1.150391,0.748718,0.49115,0.119385,0.428894,up
487782,2.0625,8.589844,5.046875,-0.091797,0.259766,1.154297,0.748718,0.49115,0.119385,0.428894,up
487788,2.140625,8.589844,5.007812,-0.058594,0.261719,1.164063,0.748718,0.49115,0.119385,0.428894,up
487793,2.179688,8.628906,4.96875,-0.023437,0.283203,1.175781,0.748718,0.49115,0.119385,0.428894,up
487798,2.21875,8.625,4.933594,-0.023437,0.283203,1.175781,0.741272,0.49054,0.113281,0.443848,up
487804,2.179688,8.707031,4.894531,-0.023437,0.283203,1.175781,0.738403,0.49054,0.111328,0.449158,up
487809,2.140625,8.703125,4.816406,-0.021484,0.330078,1.195313,0.738403,0.49054,0.111328,0.449158,up
487814,2.140625,8.707031,4.96875,-0.021484,0.330078,1.195313,0.735596,0.490356,0.109497,0.454407,up
487819,2.179688,8.707031,4.96875,-0.021484,0.330078,1.195313,0.734314,0.490295,0.108643,0.456726,up
487824,2.179688,8.511719,5.007812,-0.054687,0.267578,1.212891,0.734314,0.490295,0.108643,0.456726,up
487829,2.253906,8.46875,5.125,-0.054687,0.267578,1.212891,0.731384,0.490173,0.106384,0.462036,up
487834,2.332031,8.433594,5.085937,-0.054687,0.267578,1.212891,0.731384,0.490173,0.106384,0.462036,up
487839,2.445313,8.394531,5.085937,-0.054687,0.267578,1.212891,0.728699,0.490173,0.104187,0.466797,up
487844,2.5625,8.394531,5.007812,-0.054687,0.267578,1.212891,0.728699,0.490173,0.104187,0.466797,up
487849,2.675781,8.285156,5.007812,-0.068359,0.224609,1.25,0.728699,0.490173,0.104187,0.466797,up
487854,2.832031,8.125,4.96875,-0.068359,0.224609,1.25,0.724304,0.490051,0.100464,0.474487,up
487859,2.832031,8.050781,4.933594,-0.068359,0.224609,1.25,0.724304,0.490051,0.100464,0.474487,up
487864,2.832031,8.050781,4.933594,-0.089844,0.251953,1.253906,0.722839,0.489929,0.099304,0.477051,up
487869,2.867188,7.96875,4.933594,-0.087891,0.263672,1.244141,0.722839,0.489929,0.099304,0.477051,up
487874,2.867188,7.96875,5.007812,-0.089844,0.287109,1.224609,0.722839,0.489929,0.099304,0.477051,up
487879,2.832031,7.9375,4.96875,-0.121094,0.332031,1.183594,0.722839,0.489929,0.099304,0.477051,up
487884,2.792969,7.863281,4.96875,-0.121094,0.332031,1.183594,0.717163,0.489075,0.094849,0.487244,up
487889,2.753906,7.742187,5.046875,-0.132812,0.357422,1.162109,0.717163,0.489075,0.094849,0.487244,up
487894,2.640625,7.664062,5.085937,-0.113281,0.384766,1.152344,0.714417,0.488281,0.092834,0.492493,up
487900,2.601563,7.558594,5.160156,-0.113281,0.384766,1.152344,0.711731,0.487549,0.091187,0.497375,up
487905,2.5625,7.4375,5.125,-0.113281,0.384766,1.152344,0.710144,0.487122,0.09021,0.500244,up
487912,2.640625,7.28125,5.085937,-0.113281,0.384766,1.152344,0.708923,0.486816,0.089539,0.502441,up
487917,2.714844,7.207031,5.085937,-0.044922,0.369141,1.150391,0.708923,0.486816,0.089539,0.502441,up
487922,2.832031,7.167969,5.007812,-0.007813,0.332031,1.138672,0.708923,0.486816,0.089539,0.502441,up
487927,2.945313,7.167969,5.007812,0.033203,0.298828,1.150391,0.708923,0.486816,0.089539,0.502441,up
487932,3.023438,7.164062,4.96875,0.078125,0.257813,1.166016,0.708923,0.486816,0.089539,0.502441,up
487937,3.136719,7.164062,4.855469,0.128906,0.222656,1.185547,0.708923,0.486816,0.089539,0.502441,up
487942,3.214844,7.320312,4.703125,0.154297,0.207031,1.205078,0.708923,0.486816,0.089539,0.502441,up
487948,3.25,7.515625,4.664062,0.154297,0.207031,1.205078,0.708923,0.486816,0.089539,0.502441,up
487954,3.289063,7.519531,4.546875,0.130859,0.205078,1.236328,0.708923,0.486816,0.089539,0.502441,up
487959,3.289063,7.589844,4.546875,0.042969,0.246094,1.25,0.708923,0.486816,0.089539,0.502441,up
487964,3.289063,7.585937,4.625,0.042969,0.246094,1.25,0.690552,0.487305,0.079285,0.528564,up
487969,3.25,7.515625,4.738281,0.042969,0.246094,1.25,0.690552,0.487305,0.079285,0.528564,up
487974,3.175781,7.515625,4.777344,-0.080078,0.326172,1.228516,0.690552,0.487305,0.079285,0.528564,up
487979,3.136719,7.398437,4.855469,-0.080078,0.326172,1.228516,0.687317,0.486877,0.077209,0.533508,up
487984,3.214844,7.28125,5.046875,-0.107422,0.337891,1.208984,0.684204,0.486084,0.075073,0.538452,up
487989,3.25,7.242187,5.125,-0.107422,0.337891,1.208984,0.684204,0.486084,0.075073,0.538452,up
487994,3.328125,7.164062,5.125,-0.070312,0.333984,1.193359,0.684204,0.486084,0.075073,0.538452,up
487999,3.40625,6.976562,5.199219,-0.070312,0.333984,1.193359,0.681091,0.485291,0.072937,0.543396,up
488005,3.480469,6.980469,5.199219,-0.037109,0.328125,1.183594,0.677917,0.484741,0.071106,0.548096,up
488010,3.597656,6.859375,5.199219,0.074219,0.357422,1.166016,0.675964,0.484558,0.070251,0.550781,up
488015,3.710938,6.824219,5.160156,0.074219,0.357422,1.166016,0.674194,0.484436,0.06958,0.553101,up
488020,3.828125,6.859375,5.238281,0.074219,0.357422,1.166016,0.674194,0.484436,0.06958,0.553101,up
488025,3.828125,6.859375,5.238281,0.210937,0.378906,1.142578,0.672485,0.484436,0.069092,0.555237,up
488030,3.828125,6.785156,5.199219,0.255859,0.375,1.130859,0.672485,0.484436,0.069092,0.555237,up
488035,3.980469,7.058594,5.238281,0.289063,0.365234,1.128906,0.668701,0.484619,0.068298,0.559753,up
488040,3.941406,7.132812,5.277344,0.285156,0.361328,1.111328,0.668701,0.484619,0.068298,0.559753,up
488045,4.019531,7.203125,5.277344,0.248047,0.353516,1.097656,0.668701,0.484619,0.068298,0.559753,up
488050,4.132812,7.28125,5.160156,0.248047,0.353516,1.097656,0.660706,0.485229,0.06665,0.568848,up
488055,4.171875,7.359375,5.199219,0.248047,0.353516,1.097656,0.659058,0.485229,0.066223,0.57074,up
488060,4.171875,7.441406,5.199219,0.173828,0.369141,1.099609,0.657043,0.485229,0.065735,0.573181,up
488066,4.171875,7.359375,5.199219,0.173828,0.369141,1.099609,0.655396,0.485107,0.065247,0.575195,up
488071,4.171875,7.246094,5.277344,0.173828,0.369141,1.099609,0.653625,0.484924,0.064636,0.577454,up
488077,4.171875,7.164062,5.316406,0.173828,0.369141,1.099609,0.653625,0.484924,0.064636,0.577454,up
488082,4.210937,7.019531,5.316406,-0.001953,0.371094,1.136719,0.650269,0.484314,0.063232,0.581909,up
488087,4.363281,6.863281,5.390625,-0.021484,0.353516,1.126953,0.650269,0.484314,0.063232,0.581909,up
488092,4.515625,6.820312,5.351562,-0.025391,0.328125,1.121094,0.650269,0.484314,0.063232,0.581909,up
488097,4.59375,6.785156,5.390625,-0.009766,0.320313,1.109375,0.650269,0.484314,0.063232,0.581909,up
488102,4.707031,6.785156,5.429687,0.003906,0.316406,1.083984,0.643677,0.482971,0.059814,0.590637,up
488107,4.898437,6.710937,5.351562,0.042969,0.300781,1.0625,0.643677,0.482971,0.059814,0.590637,up
488113,4.898437,6.714844,5.429687,0.042969,0.300781,1.0625,0.640381,0.482544,0.058289,0.594727,up
488119,4.9375,6.78125,5.351562,0.142578,0.306641,1.019531,0.640381,0.482544,0.058289,0.594727,up
488124,4.898437,6.785156,5.507812,0.142578,0.306641,1.019531,0.636963,0.4823,0.057007,0.598694,up
488129,4.898437,6.820312,5.582031,0.142578,0.306641,1.019531,0.635132,0.482239,0.056458,0.600708,up
488134,4.859375,6.863281,5.542969,0.179687,0.296875,1.023438,0.635132,0.482239,0.056458,0.600708,up
488139,4.898437,6.863281,5.507812,0.179687,0.296875,1.023438,0.631531,0.482178,0.05542,0.604675,up
488144,4.976562,6.898437,5.507812,0.179687,0.296875,1.023438,0.629761,0.482117,0.054871,0.606567,up
488149,5.050781,6.9375,5.542969,0.179687,0.296875,1.023438,0.628174,0.482117,0.054382,0.608276,up
488154,5.089844,6.898437,5.507812,0.146484,0.316406,1.046875,0.628174,0.482117,0.054382,0.608276,up
488159,5.089844,6.976562,5.429687,0.146484,0.316406,1.046875,0.624512,0.481934,0.053223,0.612244,up
488164,5.089844,6.863281,5.429687,0.138672,0.335938,1.039063,0.624512,0.481934,0.053223,0.612244,up
488169,5.089844,6.820312,5.429687,0.138672,0.335938,1.039063,0.620972,0.481689,0.052124,0.61615,up
488174,5.050781,6.785156,5.351562,0.095703,0.355469,1.042969,0.620972,0.481689,0.052124,0.61615,up
488179,5.089844,6.753906,5.351562,0.095703,0.355469,1.042969,0.617371,0.481262,0.050964,0.620178,up
488184,5.128906,6.554687,5.351562,0.095703,0.355469,1.042969,0.615723,0.480957,0.050354,0.622131,up
488189,5.089844,6.4375,5.316406,0.095703,0.355469,1.042969,0.613892,0.480591,0.049744,0.624268,up
488195,4.9375,6.292969,5.351562,0.029297,0.396484,1.027344,0.613892,0.480591,0.049744,0.624268,up
488200,4.898437,6.097656,5.390625,0.029297,0.396484,1.027344,0.610535,0.479797,0.048523,0.628235,up
488205,4.898437,6.097656,5.390625,0.021484,0.390625,1.017578,0.609009,0.47937,0.047974,0.630127,up
488210,4.898437,5.945312,5.390625,0.021484,0.390625,1.017578,0.607361,0.478943,0.047302,0.632019,up
488215,4.9375,5.671875,5.46875,0.015625,0.322266,1.003906,0.605713,0.478516,0.046631,0.634033,up
488220,4.976562,5.636719,5.46875,0.037109,0.302734,0.998047,0.604126,0.478149,0.045898,0.635864,up
488225,5.050781,5.597656,5.390625,0.037109,0.302734,0.998047,0.600647,0.477844,0.044556,0.639465,up
488230,5.089844,5.636719,5.351562,0.271484,0.212891,1.035156,0.598572,0.477966,0.043945,0.641357,up
488235,5.167969,5.671875,5.351562,0.271484,0.212891,1.035156,0.596741,0.47821,0.043518,0.642883,up
488240,5.320312,5.75,5.199219,0.384766,0.195312,1.080078,0.594482,0.478577,0.043091,0.644714,up
488245,5.359375,5.871094,5.199219,0.384766,0.195312,1.080078,0.594482,0.478577,0.043091,0.644714,up
488250,5.433594,5.949219,5.160156,0.433594,0.205078,1.074219,0.594482,0.478577,0.043091,0.644714,up
488256,5.472656,5.945312,5.085937,0.433594,0.205078,1.074219,0.58783,0.479858,0.042236,0.649902,up
488262,5.511719,5.949219,5.046875,0.445312,0.234375,1.041016,0.585632,0.480286,0.041992,0.651611,up
488269,5.589844,5.980469,4.96875,0.408203,0.253906,1.013672,0.585632,0.480286,0.041992,0.651611,up
488275,5.625,5.867187,4.96875,0.253906,0.285156,0.962891,0.585632,0.480286,0.041992,0.651611,up
488280,5.550781,5.675781,5.007812,0.175781,0.279297,0.935547,0.579285,0.480957,0.041199,0.65686,up
488285,5.550781,5.675781,5.007812,0.107422,0.279297,0.898437,0.575867,0.480774,0.040344,0.659973,up
488290,5.589844,5.523437,5.046875,0.107422,0.279297,0.898437,0.574341,0.48053,0.039795,0.661499,up
488295,5.589844,5.140625,5.390625,0.107422,0.279297,0.898437,0.574341,0.48053,0.039795,0.661499,up
488300,5.628906,5.0625,5.582031,0.134766,0.255859,0.820312,0.574341,0.48053,0.039795,0.661499,up
488305,5.667969,4.71875,5.542969,0.134766,0.255859,0.820312,0.57135,0.480103,0.038757,0.66449,up
488310,5.667969,4.71875,5.542969,0.347656,0.248047,0.763672,0.568176,0.480042,0.038269,0.667236,up
488315,5.855469,4.679687,5.773437,0.347656,0.248047,0.763672,0.568176,0.480042,0.038269,0.667236,up
488320,5.894531,4.71875,5.734375,0.71875,0.291016,0.71875,0.564453,0.480835,0.038879,0.669861,up
488325,5.890625,4.910156,5.8125,0.71875,0.291016,0.71875,0.562317,0.481506,0.039795,0.671082,up
488330,5.972656,5.371094,5.542969,1.060547,0.369141,0.666016,0.562317,0.481506,0.039795,0.671082,up
488335,5.933594,5.5625,5.390625,1.060547,0.369141,0.666016,0.559814,0.482483,0.041199,0.672424,up
488340,5.894531,5.789062,5.277344,1.214844,0.447266,0.607422,0.559814,0.482483,0.041199,0.672424,up
488345,5.78125,6.054687,5.199219,1.214844,0.447266,0.607422,0.552612,0.485352,0.046448,0.675964,up
488350,5.664062,6.253906,5.199219,1.214844,0.447266,0.607422,0.552612,0.485352,0.046448,0.675964,up
488355,5.589844,6.480469,5.160156,1.175781,0.482422,0.550781,0.552612,0.485352,0.046448,0.675964,up
488360,5.589844,6.671875,5.085937,1.175781,0.482422,0.550781,0.54541,0.488037,0.052246,0.679443,up
488366,5.511719,7.097656,4.933594,1.175781,0.482422,0.550781,0.543274,0.488647,0.053711,0.680542,up
488371,5.550781,7.09375,4.933594,0.654297,0.378906,0.59375,0.543274,0.488647,0.053711,0.680542,up
488376,5.550781,6.980469,5.046875,0.427734,0.330078,0.619141,0.539612,0.489319,0.055481,0.682861,up
488381,5.550781,6.820312,5.085937,0.427734,0.330078,0.619141,0.539612,0.489319,0.055481,0.682861,up
488386,5.550781,6.820312,5.085937,0.253906,0.291016,0.65625,0.538086,0.48938,0.055664,0.684021,up
488391,5.550781,6.785156,5.125,0.253906,0.291016,0.65625,0.536743,0.489258,0.055481,0.685181,up
488396,5.550781,6.785156,5.125,-0.107422,0.193359,0.732422,0.534363,0.488647,0.05426,0.687622,up
488401,5.855469,5.945312,5.351562,-0.107422,0.193359,0.732422,0.533203,0.48822,0.053406,0.688843,up
488406,5.855469,5.753906,5.542969,-0.0625,0.1875,0.763672,0.531921,0.487854,0.052429,0.690125,up
488411,5.851562,5.597656,5.734375,0.072266,0.191406,0.771484,0.530579,0.487671,0.051697,0.691406,up
488417,6.089844,5.40625,5.925781,0.072266,0.191406,0.771484,0.529236,0.487671,0.051331,0.692444,up
488422,6.164062,5.523437,5.964844,0.488281,0.246094,0.763672,0.527466,0.487854,0.051331,0.693665,up
488428,6.203125,5.636719,5.890625,0.708984,0.283203,0.75,0.527466,0.487854,0.051331,0.693665,up
488433,6.238281,5.945312,5.699219,0.921875,0.314453,0.744141,0.527466,0.487854,0.051331,0.693665,up
488438,6.3125,6.175781,5.507812,1.082031,0.347656,0.722656,0.52063,0.489807,0.053894,0.697266,up
488444,6.238281,6.402344,5.351562,1.208984,0.380859,0.708984,0.52063,0.489807,0.053894,0.697266,up
488449,6.085937,6.820312,5.007812,1.273438,0.408203,0.708984,0.52063,0.489807,0.053894,0.697266,up
488454,6.046875,7.015625,4.96875,1.273438,0.408203,0.708984,0.51239,0.492798,0.059082,0.700806,up
488460,5.972656,7.136719,4.777344,1.25,0.425781,0.712891,0.51239,0.492798,0.059082,0.700806,up
488465,5.816406,7.242187,4.703125,0.990234,0.388672,0.742187,0.51239,0.492798,0.059082,0.700806,up
488471,5.664062,7.320312,4.585937,0.990234,0.388672,0.742187,0.501709,0.496094,0.065247,0.705627,up
488476,5.625,7.242187,4.546875,0.615234,0.310547,0.78125,0.499146,0.496582,0.06604,0.707031,up
488481,5.664062,7.132812,4.585937,0.615234,0.310547,0.78125,0.497498,0.496826,0.066223,0.708008,up
488486,5.78125,6.859375,4.546875,0.615234,0.310547,0.78125,0.495422,0.496948,0.06604,0.709412,up
488492,5.855469,6.515625,4.703125,0.615234,0.310547,0.78125,0.493958,0.496948,0.065552,0.710449,up
488498,5.933594,6.371094,4.816406,-0.021484,0.162109,0.837891,0.493958,0.496948,0.065552,0.710449,up
488503,6.046875,6.019531,4.816406,-0.080078,0.144531,0.849609,0.493958,0.496948,0.065552,0.710449,up
488509,6.203125,5.675781,4.894531,-0.080078,0.144531,0.849609,0.493958,0.496948,0.065552,0.710449,up
488515,6.203125,5.523437,4.933594,-0.009766,0.171875,0.859375,0.493958,0.496948,0.065552,0.710449,up
488520,6.207031,5.40625,5.046875,0.287109,0.222656,0.837891,0.493958,0.496948,0.065552,0.710449,up
488526,6.3125,5.523437,5.085937,0.287109,0.222656,0.837891,0.482971,0.496277,0.060364,0.718933,up
488531,6.355469,5.5625,5.160156,0.658203,0.296875,0.787109,0.480591,0.496582,0.06073,0.720215,up
488536,6.351562,5.523437,4.96875,0.794922,0.335938,0.755859,0.478333,0.497009,0.061401,0.721375,up
488541,6.164062,5.714844,4.816406,0.794922,0.335938,0.755859,0.476196,0.497498,0.062317,0.722412,up
488547,6.128906,5.945312,4.777344,0.794922,0.335938,0.755859,0.473694,0.498108,0.063477,0.723511,up
488552,6.089844,5.980469,4.738281,0.949219,0.349609,0.671875,0.473694,0.498108,0.063477,0.723511,up
488557,6.085937,6.019531,4.585937,0.900391,0.345703,0.646484,0.468994,0.499268,0.065918,0.725586,up
488563,6.167969,6.136719,4.433594,0.900391,0.345703,0.646484,0.466675,0.499756,0.067017,0.726624,up
488568,6.234375,6.058594,4.472656,0.667969,0.337891,0.628906,0.466675,0.499756,0.067017,0.726624,up
488574,6.207031,5.945312,4.433594,0.539062,0.333984,0.625,0.466675,0.499756,0.067017,0.726624,up
488580,6.234375,5.753906,4.585937,0.417969,0.337891,0.630859,0.466675,0.499756,0.067017,0.726624,up
488585,6.234375,5.753906,4.585937,0.314453,0.337891,0.642578,0.466675,0.499756,0.067017,0.726624,up
488591,6.234375,5.714844,4.738281,0.314453,0.337891,0.642578,0.459412,0.500305,0.069275,0.730652,up
488596,6.277344,5.332031,5.046875,0.216797,0.332031,0.667969,0.456299,0.499878,0.069336,0.73291,up
488601,6.277344,5.332031,5.046875,0.230469,0.335938,0.689453,0.454773,0.499695,0.069214,0.734009,up
488606,6.273437,5.101562,5.277344,0.230469,0.335938,0.689453,0.45105,0.499451,0.069458,0.736389,up
488611,6.316406,5.140625,5.316406,0.230469,0.335938,0.689453,0.448914,0.499573,0.069885,0.737549,up
488616,6.394531,5.214844,5.199219,0.230469,0.335938,0.689453,0.44696,0.499817,0.070557,0.738525,up
488621,6.390625,5.253906,5.085937,0.949219,0.380859,0.763672,0.444275,0.500305,0.071716,0.739746,up
488626,6.394531,5.292969,5.046875,0.949219,0.380859,0.763672,0.441833,0.500793,0.072876,0.740723,up
488631,6.429687,5.5625,4.933594,1.105469,0.400391,0.773437,0.441833,0.500793,0.072876,0.740723,up
488637,6.390625,5.753906,4.777344,1.105469,0.400391,0.773437,0.436157,0.502014,0.075806,0.742981,up
488643,6.394531,5.867187,4.703125,1.080078,0.404297,0.759766,0.433289,0.502625,0.077332,0.74408,up
488649,6.390625,5.945312,4.664062,1.005859,0.394531,0.746094,0.433289,0.502625,0.077332,0.74408,up
488654,6.394531,6.058594,4.664062,1.005859,0.394531,0.746094,0.433289,0.502625,0.077332,0.74408,up
488660,6.433594,6.058594,4.625,0.746094,0.376953,0.730469,0.433289,0.502625,0.077332,0.74408,up
488665,6.394531,6.019531,4.664062,0.458984,0.363281,0.736328,0.433289,0.502625,0.077332,0.74408,up
488670,6.390625,5.828125,4.816406,0.458984,0.363281,0.736328,0.421204,0.50415,0.082031,0.749451,up
488675,6.351562,5.714844,4.855469,0.458984,0.363281,0.736328,0.419373,0.504028,0.082153,0.750549,up
488680,6.355469,5.597656,4.894531,0.068359,0.322266,0.765625,0.419373,0.504028,0.082153,0.750549,up
488685,6.546875,5.253906,4.96875,0.068359,0.322266,0.765625,0.416077,0.503479,0.081543,0.752869,up
488690,6.65625,5.0625,5.007812,0.068359,0.322266,0.765625,0.41449,0.503052,0.080933,0.754089,up
488696,6.617187,4.871094,5.160156,-0.044922,0.296875,0.787109,0.41449,0.503052,0.080933,0.754089,up
488701,6.699219,4.792969,5.238281,-0.044922,0.296875,0.787109,0.410156,0.501709,0.078613,0.757568,up
488706,6.734375,4.832031,5.277344,-0.044922,0.296875,0.787109,0.40863,0.501465,0.078125,0.758606,up
488711,6.851562,4.792969,5.046875,-0.044922,0.296875,0.787109,0.406616,0.501282,0.07782,0.759827,up
488716,6.890625,4.871094,4.96875,0.400391,0.355469,0.808594,0.404541,0.50116,0.07782,0.760986,up
488721,6.816406,4.871094,4.933594,0.400391,0.355469,0.808594,0.402649,0.501038,0.077942,0.762085,up
488726,6.777344,4.949219,4.933594,0.400391,0.355469,0.808594,0.400269,0.500977,0.078308,0.763367,up
488731,6.777344,5.023437,4.96875,0.400391,0.355469,0.808594,0.400269,0.500977,0.078308,0.763367,up
488736,6.773437,5.0625,4.933594,0.585937,0.433594,0.791016,0.400269,0.500977,0.078308,0.763367,up
488741,6.777344,5.179687,4.96875,0.585937,0.433594,0.791016,0.393677,0.500732,0.079712,0.766724,up
488747,6.589844,5.292969,4.933594,0.585937,0.433594,0.791016,0.391541,0.50061,0.080078,0.767883,up
488752,6.546875,5.332031,4.96875,0.373047,0.380859,0.818359,0.391541,0.50061,0.080078,0.767883,up
488757,6.65625,5.332031,4.894531,0.25,0.339844,0.824219,0.387451,0.500183,0.080078,0.770264,up
488763,6.777344,5.371094,4.855469,0.25,0.339844,0.824219,0.38562,0.499939,0.079712,0.771362,up
488769,6.773437,5.371094,4.777344,-0.005859,0.259766,0.849609,0.38562,0.499939,0.079712,0.771362,up
488774,6.734375,5.292969,4.777344,-0.128906,0.210937,0.855469,0.38562,0.499939,0.079712,0.771362,up
488779,6.734375,4.871094,4.777344,-0.128906,0.210937,0.855469,0.38092,0.498901,0.076782,0.774658,up
488784,6.734375,4.871094,4.777344,-0.128906,0.210937,0.855469,0.38092,0.498901,0.076782,0.774658,up
488789,6.773437,4.601562,4.933594,-0.337891,0.140625,0.880859,0.378296,0.498047,0.073486,0.776794,up
488794,6.773437,4.601562,4.933594,-0.386719,0.095703,0.929687,0.377075,0.497681,0.071716,0.777832,up
488800,6.8125,3.914063,5.316406,-0.386719,0.095703,0.929687,0.375671,0.497375,0.069824,0.77887,up
488805,6.773437,3.683594,5.507812,-0.386719,0.095703,0.929687,0.374146,0.497131,0.068054,0.779907,up
488811,6.855469,3.644531,5.507812,-0.095703,0.019531,1.097656,0.370178,0.497253,0.064941,0.781982,up
488816,7.039062,3.835938,5.46875,-0.095703,0.019531,1.097656,0.367493,0.497681,0.06366,0.783081,up
488821,7.117187,4.105469,5.390625,0.431641,0.011719,1.177734,0.367493,0.497681,0.06366,0.783081,up
488826,7.234375,4.21875,5.277344,0.431641,0.011719,1.177734,0.365051,0.498108,0.062927,0.783997,up
488831,7.316406,4.375,5.125,0.560547,0.019531,1.162109,0.365051,0.498108,0.062927,0.783997,up
488836,7.390625,4.488281,5.007812,0.703125,0.027344,1.074219,0.359192,0.499451,0.062134,0.78595,up
488842,7.425781,4.527344,4.933594,0.703125,0.027344,1.074219,0.353394,0.500916,0.062134,0.787598,up
488847,7.460937,4.527344,4.703125,0.703125,0.027344,1.074219,0.350403,0.501648,0.062256,0.788452,up
488853,7.542969,4.449219,4.625,0.703125,0.027344,1.074219,0.348206,0.502136,0.062256,0.789124,up
488859,7.578125,4.375,4.585937,0.337891,0.035156,0.867187,0.348206,0.502136,0.062256,0.789124,up
488864,7.539062,4.257812,4.625,0.128906,0.03125,0.837891,0.348206,0.502136,0.062256,0.789124,up
488870,7.421875,4.105469,4.777344,-0.064453,0.033203,0.839844,0.348206,0.502136,0.062256,0.789124,up
488876,7.3125,3.992188,4.855469,-0.234375,0.017578,0.859375,0.348206,0.502136,0.062256,0.789124,up
488881,7.3125,3.761719,4.894531,-0.337891,0.011719,0.888672,0.348206,0.502136,0.062256,0.789124,up
488886,7.238281,3.605469,5.007812,-0.373047,0.015625,0.917969,0.336914,0.502441,0.053528,0.794434,up
488891,7.277344,3.570313,5.085937,-0.373047,0.015625,0.917969,0.335388,0.502319,0.051819,0.795288,up
488896,7.355469,3.644531,5.277344,-0.373047,0.015625,0.917969,0.335388,0.502319,0.051819,0.795288,up
488901,7.390625,3.605469,5.199219,0.271484,0.056641,1.058594,0.335388,0.502319,0.051819,0.795288,up
488906,7.394531,3.800781,5.046875,0.271484,0.056641,1.058594,0.328369,0.502869,0.048706,0.798096,up
488911,7.394531,3.992188,5.046875,0.271484,0.056641,1.058594,0.328369,0.502869,0.048706,0.798096,up
488916,7.425781,4.183594,5.007812,0.976562,0.140625,1.0625,0.328369,0.502869,0.048706,0.798096,up
488921,7.425781,4.375,4.894531,0.976562,0.140625,1.0625,0.32251,0.503906,0.049133,0.799805,up
488926,7.390625,4.488281,4.625,1.091797,0.160156,1.019531,0.315918,0.505249,0.051025,0.801453,up
488931,7.390625,4.566406,4.546875,1.091797,0.160156,1.019531,0.315918,0.505249,0.051025,0.801453,up
488936,7.464844,4.601562,4.472656,0.917969,0.125,0.824219,0.315918,0.505249,0.051025,0.801453,up
488941,7.542969,4.449219,4.433594,0.917969,0.125,0.824219,0.309753,0.506531,0.053101,0.802856,up
488947,7.578125,4.410156,4.394531,0.757812,0.09375,0.75,0.304932,0.507568,0.054321,0.804016,up
488952,7.695312,4.296875,4.433594,0.394531,0.054687,0.683594,0.302734,0.507935,0.054443,0.804565,up
488957,7.734375,4.105469,4.472656,0.394531,0.054687,0.683594,0.301025,0.508179,0.054199,0.805115,up
488963,7.699219,4.066406,4.472656,0.394531,0.054687,0.683594,0.299683,0.50824,0.05365,0.805603,up
488969,7.660156,3.953125,4.511719,-0.087891,0.058594,0.75,0.298096,0.50824,0.052612,0.806274,up
488974,7.65625,3.835938,4.585937,-0.175781,0.080078,0.806641,0.298096,0.50824,0.052612,0.806274,up
488980,7.738281,3.722656,4.738281,-0.175781,0.080078,0.806641,0.298096,0.50824,0.052612,0.806274,up
488985,7.738281,3.722656,4.738281,-0.119141,0.158203,0.916016,0.298096,0.50824,0.052612,0.806274,up
488991,7.734375,3.683594,4.777344,-0.119141,0.158203,0.916016,0.293945,0.507629,0.048767,0.808411,up
488996,7.582031,3.761719,5.007812,0.167969,0.222656,0.978516,0.293945,0.507629,0.048767,0.808411,up
489001,7.578125,3.800781,4.933594,0.326172,0.224609,0.990234,0.293945,0.507629,0.048767,0.808411,up
489006,7.617187,3.875,4.933594,0.585937,0.201172,0.964844,0.293945,0.507629,0.048767,0.808411,up
489012,7.777344,3.875,5.046875,0.662109,0.175781,0.919922,0.282471,0.506958,0.045654,0.81311,up
489018,7.882812,3.800781,4.894531,0.662109,0.175781,0.919922,0.277344,0.507385,0.046143,0.814575,up
489023,8.0,3.761719,4.894531,0.658203,0.126953,0.820312,0.274719,0.507629,0.046509,0.815247,up
489029,8.121094,3.683594,4.894531,0.597656,0.111328,0.761719,0.274719,0.507629,0.046509,0.815247,up
489034,8.191406,3.605469,5.046875,0.597656,0.111328,0.761719,0.270264,0.508179,0.047058,0.816406,up
489040,8.117188,3.492188,5.046875,0.378906,0.128906,0.673828,0.270264,0.508179,0.047058,0.816406,up
489045,8.160156,3.414063,5.085937,0.238281,0.152344,0.644531,0.270264,0.508179,0.047058,0.816406,up
489051,8.1875,3.1875,5.238281,0.076172,0.171875,0.621094,0.270264,0.508179,0.047058,0.816406,up
489056,8.15625,3.148438,5.316406,-0.193359,0.207031,0.595703,0.270264,0.508179,0.047058,0.816406,up
489061,8.121094,3.03125,5.351562,-0.193359,0.207031,0.595703,0.261963,0.506897,0.043884,0.820068,up
489066,7.925781,2.804688,5.660156,-0.193359,0.207031,0.595703,0.261963,0.506897,0.043884,0.820068,up
489072,7.921875,2.613281,5.8125,-0.273438,0.195312,0.535156,0.261963,0.506897,0.043884,0.820068,up
489077,7.804687,2.382813,5.964844,-0.273438,0.195312,0.535156,0.259644,0.50531,0.040344,0.82196,up
489082,7.773437,2.191406,6.042969,-0.064453,0.152344,0.498047,0.259644,0.50531,0.040344,0.82196,up
489087,7.808594,2.0,6.15625,-0.064453,0.152344,0.498047,0.257874,0.5047,0.039063,0.822937,up
489092,7.84375,1.960938,6.15625,0.263672,0.105469,0.462891,0.257874,0.5047,0.039063,0.822937,up
489097,7.886719,1.960938,6.121094,0.263672,0.105469,0.462891,0.255249,0.5047,0.039001,0.82373,up
489102,7.804687,2.0,6.003906,0.599609,0.056641,0.457031,0.253723,0.504944,0.039551,0.824036,up
489108,7.582031,2.535156,5.8125,0.599609,0.056641,0.457031,0.252136,0.50531,0.040283,0.82428,up
489113,7.539062,2.765625,5.660156,0.845703,-0.03125,0.494141,0.250244,0.505859,0.04126,0.824463,up
489118,7.503906,2.996094,5.582031,0.890625,-0.083984,0.511719,0.250244,0.505859,0.04126,0.824463,up
489124,7.503906,3.222656,5.507812,0.890625,-0.083984,0.511719,0.245972,0.507446,0.043457,0.824707,up
489129,7.539062,3.414063,5.351562,0.890625,-0.083984,0.511719,0.243774,0.508423,0.044434,0.824646,up
489134,7.578125,3.414063,5.238281,0.75,-0.273438,0.548828,0.243774,0.508423,0.044434,0.824646,up
489140,7.660156,3.378906,5.125,0.626953,-0.324219,0.539062,0.243774,0.508423,0.044434,0.824646,up
489145,7.695312,3.222656,5.125,0.494141,-0.371094,0.53125,0.243774,0.508423,0.044434,0.824646,up
489150,7.734375,3.148438,5.085937,0.369141,-0.400391,0.513672,0.243774,0.508423,0.044434,0.824646,up
489155,7.734375,3.03125,4.96875,0.273438,-0.40625,0.492187,0.243774,0.508423,0.044434,0.824646,up
489161,7.882812,2.648438,4.738281,0.273438,-0.40625,0.492187,0.234009,0.514893,0.045227,0.823425,up
489166,8.003906,2.457031,4.816406,0.273438,-0.40625,0.492187,0.233032,0.515808,0.044556,0.823181,up
489172,8.082031,2.34375,4.816406,-0.095703,-0.400391,0.451172,0.231506,0.517517,0.04248,0.822632,up
489177,8.003906,2.226563,4.816406,-0.095703,-0.400391,0.451172,0.230957,0.518188,0.041382,0.822449,up
489182,7.925781,2.152344,4.816406,-0.113281,-0.318359,0.400391,0.230408,0.518799,0.040405,0.822266,up
489187,7.886719,2.152344,4.894531,0.009766,-0.314453,0.380859,0.230408,0.518799,0.040405,0.822266,up
489192,7.847656,2.226563,4.894531,0.009766,-0.314453,0.380859,0.229675,0.519531,0.03949,0.822021,up
489197,7.847656,2.226563,4.894531,0.386719,-0.275391,0.341797,0.227905,0.520996,0.03894,0.821655,up
489202,7.777344,2.574219,4.816406,0.386719,-0.275391,0.341797,0.227905,0.520996,0.03894,0.821655,up
489207,7.738281,2.6875,4.777344,0.720703,-0.296875,0.324219,0.227905,0.520996,0.03894,0.821655,up
489212,7.847656,3.070313,4.664062,0.720703,-0.296875,0.324219,0.223572,0.523926,0.041016,0.820862,up
489217,7.886719,3.222656,4.585937,0.720703,-0.296875,0.324219,0.222046,0.525024,0.042053,0.820557,up
489222,7.925781,3.378906,4.546875,0.720703,-0.296875,0.324219,0.222046,0.525024,0.042053,0.820557,up
489227,7.964844,3.453125,4.511719,0.751953,-0.345703,0.289063,0.222046,0.525024,0.042053,0.820557,up
489232,8.039063,3.453125,4.472656,0.751953,-0.345703,0.289063,0.217346,0.528503,0.045105,0.819397,up
489237,8.15625,3.453125,4.511719,0.751953,-0.345703,0.289063,0.217346,0.528503,0.045105,0.819397,up
489242,8.1875,3.378906,4.394531,0.523437,-0.351563,0.257813,0.217346,0.528503,0.045105,0.819397,up
489247,8.34375,3.222656,4.433594,0.371094,-0.341797,0.246094,0.217346,0.528503,0.045105,0.819397,up
489252,8.347656,3.1875,4.472656,0.066406,-0.289063,0.214844,0.214233,0.531494,0.046204,0.818237,up
489258,8.425781,3.03125,4.546875,0.066406,-0.289063,0.214844,0.213318,0.532837,0.045593,0.817627,up
489263,8.5,2.917969,4.585937,0.066406,-0.289063,0.214844,0.213196,0.533264,0.045105,0.817383,up
489268,8.691406,2.839844,4.472656,0.066406,-0.289063,0.214844,0.213196,0.533264,0.045105,0.817383,up
489273,8.691406,2.839844,4.472656,-0.183594,-0.201172,0.144531,0.213135,0.533691,0.044373,0.8172,up
489278,8.691406,2.839844,4.472656,-0.183594,-0.201172,0.144531,0.213257,0.534241,0.043213,0.816833,up
489285,8.539063,2.613281,4.394531,-0.183594,-0.201172,0.144531,0.213257,0.534241,0.043213,0.816833,up
489290,8.5,2.6875,4.433594,0.085937,-0.134766,-0.001953,0.213257,0.534241,0.043213,0.816833,up
489295,8.503906,2.804688,4.394531,0.205078,-0.115234,-0.027344,0.213257,0.534241,0.043213,0.816833,up
489300,8.382813,2.804688,4.511719,0.322266,-0.109375,-0.039063,0.213257,0.534241,0.043213,0.816833,up
489305,8.226563,3.03125,4.472656,0.392578,-0.111328,-0.033203,0.213257,0.534241,0.043213,0.816833,up
489311,8.121094,3.070313,4.546875,0.392578,-0.111328,-0.033203,0.212158,0.536377,0.045105,0.815674,up
489317,8.121094,3.1875,4.546875,0.449219,-0.166016,0.0,0.212158,0.536377,0.045105,0.815674,up
489322,8.226563,3.339844,4.433594,0.449219,-0.166016,0.0,0.21106,0.537415,0.046814,0.815125,up
489327,8.308594,3.339844,4.394531,0.412109,-0.199219,0.017578,0.210022,0.538635,0.048218,0.814514,up
489332,8.386719,3.414063,4.28125,0.275391,-0.263672,0.042969,0.210022,0.538635,0.048218,0.814514,up
489337,8.539063,3.339844,4.242187,0.275391,-0.263672,0.042969,0.209534,0.539429,0.048706,0.814087,up
489342,8.613281,3.222656,4.203125,0.275391,-0.263672,0.042969,0.208984,0.54071,0.049011,0.813354,up
489347,8.613281,3.1875,4.164062,0.275391,-0.263672,0.042969,0.208801,0.541382,0.049072,0.812988,up
489352,8.648438,3.148438,4.164062,0.275391,-0.263672,0.042969,0.208801,0.541382,0.049072,0.812988,up
489357,8.691406,3.070313,4.011719,0.083984,-0.271484,0.050781,0.208801,0.541382,0.049072,0.812988,up
489362,8.730469,2.957031,4.011719,0.029297,-0.212891,0.037109,0.208496,0.542603,0.04895,0.812256,up
489367,8.769531,2.957031,4.050781,0.029297,-0.212891,0.037109,0.208435,0.543091,0.048889,0.811951,up
489373,8.6875,2.765625,4.089844,0.041016,-0.164062,-0.009766,0.208374,0.543518,0.048767,0.811646,up
489379,8.730469,2.6875,4.128906,0.041016,-0.164062,-0.009766,0.208435,0.54425,0.048767,0.811157,up
489384,8.726563,2.726563,4.242187,0.113281,-0.160156,-0.056641,0.208435,0.544617,0.04895,0.810913,up
489391,8.730469,2.804688,4.203125,0.167969,-0.169922,-0.068359,0.208435,0.544617,0.04895,0.810913,up
489396,8.769531,2.917969,4.28125,0.167969,-0.169922,-0.068359,0.208435,0.544617,0.04895,0.810913,up
489402,8.804688,3.03125,4.28125,0.273438,-0.191406,-0.085937,0.208435,0.544617,0.04895,0.810913,up
489407,8.847656,3.109375,4.242187,0.376953,-0.195312,-0.099609,0.208435,0.544617,0.04895,0.810913,up
489413,8.769531,3.261719,4.203125,0.376953,-0.195312,-0.099609,0.207642,0.547668,0.052246,0.808838,up
489418,8.726563,3.339844,4.203125,0.439453,-0.195312,-0.087891,0.207214,0.548279,0.053223,0.808472,up
489424,8.648438,3.414063,4.050781,0.439453,-0.195312,-0.087891,0.206909,0.548889,0.054016,0.808105,up
489430,8.730469,3.453125,3.898438,0.439453,-0.195312,-0.087891,0.206482,0.549561,0.054871,0.807678,up
489436,8.726563,3.53125,3.9375,0.396484,-0.236328,-0.039063,0.206482,0.549561,0.054871,0.807678,up
489442,8.730469,3.53125,3.898438,0.341797,-0.25,-0.025391,0.206482,0.549561,0.054871,0.807678,up
489447,8.6875,3.492188,3.9375,0.291016,-0.261719,-0.027344,0.206482,0.549561,0.054871,0.807678,up
489452,8.6875,3.492188,3.9375,0.291016,-0.261719,-0.027344,0.205139,0.552246,0.057251,0.80603,up
489457,8.648438,3.378906,3.972656,0.234375,-0.285156,-0.035156,0.205139,0.552246,0.057251,0.80603,up
489462,8.730469,3.378906,3.972656,0.234375,-0.285156,-0.035156,0.204712,0.55365,0.057983,0.805115,up
489467,8.613281,3.378906,3.898438,0.234375,-0.285156,-0.035156,0.20459,0.554321,0.058289,0.804626,up
489472,8.542969,3.339844,3.972656,0.234375,-0.285156,-0.035156,0.204346,0.555603,0.059021,0.803772,up
489477,8.539063,3.339844,4.050781,0.234375,-0.285156,-0.035156,0.204346,0.555603,0.059021,0.803772,up
489482,8.425781,3.414063,3.972656,0.208984,-0.279297,-0.095703,0.204346,0.555603,0.059021,0.803772,up
489488,8.5,3.339844,3.78125,0.208984,-0.279297,-0.095703,0.204163,0.557556,0.06012,0.802368,up
489493,8.613281,3.300781,3.746094,0.203125,-0.273438,-0.09375,0.204163,0.558289,0.060547,0.80188,up
489498,8.726563,3.300781,3.628906,0.203125,-0.257813,-0.099609,0.204102,0.558899,0.060974,0.801392,up
489503,8.804688,3.300781,3.550781,0.203125,-0.257813,-0.099609,0.204102,0.559448,0.06134,0.801025,up
489508,8.847656,3.339844,3.476563,0.214844,-0.216797,-0.085937,0.204102,0.559448,0.06134,0.801025,up
489513,8.808594,3.339844,3.398438,0.214844,-0.216797,-0.085937,0.203979,0.560608,0.062256,0.800171,up
489518,8.808594,3.378906,3.359375,0.214844,-0.216797,-0.085937,0.203857,0.561035,0.062622,0.799866,up
489524,8.648438,3.570313,3.667969,0.214844,-0.216797,-0.085937,0.203674,0.561523,0.063171,0.7995,up
489529,8.609375,3.605469,3.746094,0.304688,-0.179687,-0.066406,0.203674,0.561523,0.063171,0.7995,up
489534,8.582031,3.644531,3.898438,0.318359,-0.189453,-0.076172,0.203674,0.561523,0.063171,0.7995,up
489541,8.425781,3.683594,3.9375,0.318359,-0.189453,-0.076172,0.203003,0.56311,0.065002,0.798462,up
489546,8.539063,3.683594,3.9375,0.310547,-0.248047,-0.072266,0.203003,0.56311,0.065002,0.798462,up
489551,8.578125,3.644531,3.820313,0.273438,-0.292969,-0.074219,0.203003,0.56311,0.065002,0.798462,up
489556,8.648438,3.605469,3.9375,0.224609,-0.332031,-0.076172,0.203003,0.56311,0.065002,0.798462,up
489561,8.804688,3.53125,3.859375,0.224609,-0.332031,-0.076172,0.203003,0.56311,0.065002,0.798462,up
489566,8.882813,3.53125,3.667969,0.146484,-0.402344,-0.085937,0.203003,0.56311,0.065002,0.798462,up
489571,8.921875,3.492188,3.515625,0.103516,-0.429687,-0.091797,0.203003,0.56311,0.065002,0.798462,up
489576,9.035156,3.378906,3.398438,0.103516,-0.429687,-0.091797,0.202759,0.568542,0.067261,0.794434,up
489581,9.03125,3.300781,3.359375,0.0625,-0.439453,-0.130859,0.202759,0.568542,0.067261,0.794434,up
489586,8.996094,3.339844,3.324219,0.060547,-0.427734,-0.164062,0.202759,0.568542,0.067261,0.794434,up
489591,8.960938,3.261719,3.324219,0.107422,-0.425781,-0.179687,0.202759,0.568542,0.067261,0.794434,up
489596,8.925781,3.222656,3.359375,0.107422,-0.425781,-0.179687,0.202759,0.568542,0.067261,0.794434,up
489601,8.808594,3.261719,3.324219,0.107422,-0.425781,-0.179687,0.204224,0.572876,0.068359,0.790833,up
489606,8.808594,3.300781,3.285156,0.28125,-0.404297,-0.234375,0.204224,0.572876,0.068359,0.790833,up
489611,8.730469,3.378906,3.207031,0.324219,-0.40625,-0.242187,0.204224,0.572876,0.068359,0.790833,up
489616,8.726563,3.453125,3.167969,0.324219,-0.40625,-0.242187,0.204224,0.572876,0.068359,0.790833,up
489621,8.726563,3.492188,3.09375,0.324219,-0.40625,-0.242187,0.204773,0.576599,0.071289,0.78772,up
489627,8.765625,3.605469,2.902344,0.357422,-0.417969,-0.257813,0.204773,0.576599,0.071289,0.78772,up
489633,8.765625,3.644531,2.824219,0.314453,-0.408203,-0.253906,0.204773,0.576599,0.071289,0.78772,up
489638,8.804688,3.683594,2.824219,0.314453,-0.408203,-0.253906,0.205322,0.580444,0.074524,0.784485,up
489643,8.726563,3.800781,2.785156,0.314453,-0.408203,-0.253906,0.205505,0.581177,0.075134,0.783813,up
489648,8.726563,3.835938,2.75,0.314453,-0.408203,-0.253906,0.205811,0.581909,0.075684,0.783142,up
489653,8.6875,3.835938,2.75,0.314453,-0.408203,-0.253906,0.205811,0.581909,0.075684,0.783142,up
489658,8.726563,3.800781,2.785156,0.123047,-0.332031,-0.273438,0.205811,0.581909,0.075684,0.783142,up
489663,8.6875,3.835938,2.785156,0.123047,-0.332031,-0.273438,0.207092,0.583984,0.077148,0.781067,up
489668,8.6875,3.875,2.785156,0.123047,-0.332031,-0.273438,0.207581,0.584656,0.077576,0.780457,up
489673,8.652344,3.875,2.785156,0.123047,-0.332031,-0.273438,0.207581,0.584656,0.077576,0.780457,up
489678,8.578125,3.875,2.785156,0.095703,-0.402344,-0.300781,0.207581,0.584656,0.077576,0.780457,up
489683,8.5,3.835938,2.785156,0.095703,-0.402344,-0.300781,0.20929,0.586914,0.078796,0.778137,up
489688,8.460938,3.835938,2.785156,0.095703,-0.402344,-0.300781,0.209778,0.587769,0.079163,0.777344,up
489693,8.382813,3.914063,2.59375,0.095703,-0.402344,-0.300781,0.209778,0.587769,0.079163,0.777344,up
489698,8.34375,3.835938,2.59375,0.167969,-0.490234,-0.251953,0.209778,0.587769,0.079163,0.777344,up
489703,8.503906,3.875,2.671875,0.167969,-0.490234,-0.251953,0.210999,0.590698,0.080444,0.774658,up
489708,8.5,3.914063,2.710938,0.167969,-0.490234,-0.251953,0.211243,0.591675,0.080933,0.773743,up
489713,8.542969,3.914063,2.671875,0.167969,-0.490234,-0.251953,0.211243,0.591675,0.080933,0.773743,up
489718,8.460938,4.027344,2.519531,0.255859,-0.501953,-0.199219,0.211243,0.591675,0.080933,0.773743,up
489723,8.5,4.105469,2.480469,0.255859,-0.501953,-0.199219,0.211548,0.594788,0.08252,0.771118,up
489728,8.542969,4.144531,2.554688,0.255859,-0.501953,-0.199219,0.211548,0.594788,0.08252,0.771118,up
489733,8.542969,4.257812,2.671875,0.335938,-0.388672,-0.148437,0.211548,0.594788,0.08252,0.771118,up
489738,8.691406,4.257812,2.554688,0.335938,-0.388672,-0.148437,0.211365,0.597595,0.084412,0.76886,up
489743,8.6875,4.257812,2.519531,0.335938,-0.388672,-0.148437,0.211365,0.597595,0.084412,0.76886,up
489748,8.6875,4.257812,2.519531,0.347656,-0.330078,-0.15625,0.211243,0.598328,0.085083,0.768188,up
489753,8.769531,4.296875,2.554688,0.308594,-0.322266,-0.150391,0.211243,0.598328,0.085083,0.768188,up
489758,8.769531,4.257812,2.632813,0.259766,-0.310547,-0.158203,0.211243,0.598328,0.085083,0.768188,up
489763,8.769531,4.21875,2.59375,0.195312,-0.306641,-0.15625,0.211243,0.598328,0.085083,0.768188,up
489768,8.769531,4.21875,2.59375,0.076172,-0.314453,-0.167969,0.211243,0.598328,0.085083,0.768188,up
489774,8.691406,4.296875,2.59375,0.076172,-0.314453,-0.167969,0.211914,0.602417,0.087769,0.764526,up
489780,8.6875,4.144531,2.710938,0.076172,-0.314453,-0.167969,0.21228,0.603027,0.08783,0.763977,up
489786,8.765625,4.105469,2.75,0.001953,-0.380859,-0.175781,0.212708,0.603699,0.087891,0.763245,up
489791,8.769531,4.183594,2.75,0.039063,-0.373047,-0.195312,0.212708,0.603699,0.087891,0.763245,up
489797,8.882813,4.21875,2.863281,0.039063,-0.373047,-0.195312,0.212708,0.603699,0.087891,0.763245,up
489802,8.882813,4.21875,2.976563,0.148437,-0.339844,-0.224609,0.212708,0.603699,0.087891,0.763245,up
489808,8.886719,4.257812,3.015625,0.296875,-0.251953,-0.236328,0.212708,0.603699,0.087891,0.763245,up
489813,8.886719,4.410156,3.015625,0.296875,-0.251953,-0.236328,0.214294,0.607605,0.090698,0.759399,up
489818,8.964844,4.410156,3.015625,0.296875,-0.251953,-0.236328,0.214294,0.607605,0.090698,0.759399,up
489823,8.921875,4.488281,3.054688,0.404297,-0.134766,-0.224609,0.214294,0.607605,0.090698,0.759399,up
489828,9.03125,4.566406,3.132813,0.419922,-0.097656,-0.193359,0.214294,0.607605,0.090698,0.759399,up
489834,9.03125,4.640625,3.132813,0.349609,-0.050781,-0.126953,0.213806,0.608765,0.093689,0.75824,up
489839,8.960938,4.71875,3.09375,0.349609,-0.050781,-0.126953,0.213257,0.609314,0.095398,0.75769,up
489845,8.84375,4.757812,2.976563,0.349609,-0.050781,-0.126953,0.213074,0.609497,0.095947,0.757568,up
489851,8.765625,4.757812,3.015625,0.349609,-0.050781,-0.126953,0.212891,0.609741,0.096375,0.757385,up
489857,8.730469,4.792969,3.015625,0.167969,-0.083984,-0.041016,0.212891,0.609741,0.096375,0.757385,up
489862,8.648438,4.792969,2.941406,0.164062,-0.101563,-0.044922,0.212891,0.609741,0.096375,0.757385,up
489868,8.652344,4.71875,2.902344,0.164062,-0.101563,-0.044922,0.212463,0.610535,0.097412,0.756714,up
489873,8.652344,4.601562,2.902344,0.164062,-0.101563,-0.044922,0.212402,0.610901,0.097656,0.756409,up
489878,8.769531,4.601562,2.863281,0.167969,-0.230469,-0.091797,0.212402,0.610901,0.097656,0.756409,up
489883,8.804688,4.566406,2.863281,0.167969,-0.230469,-0.091797,0.212341,0.611816,0.098328,0.755615,up
489888,8.882813,4.527344,2.902344,0.167969,-0.230469,-0.091797,0.212402,0.612305,0.098633,0.755127,up
489893,8.960938,4.488281,2.785156,0.128906,-0.240234,-0.132812,0.212463,0.612854,0.098999,0.754639,up
489898,8.882813,4.488281,2.785156,0.128906,-0.240234,-0.132812,0.212585,0.613342,0.099304,0.75415,up
489903,8.84375,4.527344,2.75,0.128906,-0.240234,-0.132812,0.212708,0.613831,0.099548,0.753662,up
489908,8.808594,4.527344,2.75,-0.005859,-0.205078,-0.130859,0.212708,0.613831,0.099548,0.753662,up
489913,8.765625,4.488281,2.671875,-0.005859,-0.205078,-0.130859,0.213196,0.614624,0.099854,0.752869,up
489918,8.730469,4.449219,2.59375,-0.048828,-0.193359,-0.123047,0.213196,0.614624,0.099854,0.752869,up
489923,8.765625,4.375,2.554688,-0.048828,-0.193359,-0.123047,0.213989,0.615234,0.099854,0.752136,up
489928,8.730469,4.375,2.441406,-0.132812,-0.091797,-0.113281,0.213989,0.615234,0.099854,0.752136,up
489933,8.726563,4.21875,2.402344,-0.128906,-0.056641,-0.105469,0.214905,0.61554,0.099609,0.751709,up
489938,8.84375,4.027344,2.328125,-0.128906,-0.056641,-0.105469,0.215332,0.615601,0.099487,0.751526,up
489943,8.921875,4.066406,2.25,-0.128906,-0.056641,-0.105469,0.215698,0.61554,0.099426,0.751465,up
489949,8.960938,4.027344,2.289063,-0.080078,0.025391,-0.074219,0.216309,0.615295,0.099365,0.751465,up
489954,8.921875,4.066406,2.210938,-0.080078,0.025391,-0.074219,0.216431,0.615112,0.099487,0.751587,up
489959,8.921875,4.183594,2.171875,-0.080078,0.025391,-0.074219,0.216492,0.614868,0.09967,0.75177,up
489964,8.921875,4.21875,2.171875,0.085937,0.193359,-0.064453,0.216492,0.614502,0.099976,0.752014,up
489970,8.847656,4.335937,2.171875,0.085937,0.193359,-0.064453,0.216431,0.614197,0.100403,0.752197,up
489975,8.726563,4.410156,2.25,0.085937,0.193359,-0.064453,0.21637,0.613831,0.100891,0.752441,up
489980,8.726563,4.410156,2.25,0.085937,0.193359,-0.064453,0.216309,0.613525,0.101379,0.752686,up
489985,8.769531,4.410156,2.289063,0.119141,0.179687,-0.123047,0.216309,0.613525,0.101379,0.752686,up
489990,8.765625,4.449219,2.25,0.087891,0.144531,-0.132812,0.21637,0.612915,0.102356,0.752991,up
489996,8.84375,4.375,2.25,0.087891,0.144531,-0.132812,0.216492,0.612671,0.102783,0.753113,up
490002,8.921875,4.296875,2.210938,0.005859,0.105469,-0.144531,0.216492,0.612671,0.102783,0.753113,up
490007,9.035156,4.335937,2.289063,-0.035156,0.091797,-0.144531,0.216492,0.612671,0.102783,0.753113,up
490013,9.070313,4.335937,2.328125,-0.046875,0.083984,-0.146484,0.216492,0.612671,0.102783,0.753113,up
490018,8.992188,4.296875,2.328125,-0.042969,0.099609,-0.15625,0.216492,0.612671,0.102783,0.753113,up
490023,8.992188,4.410156,2.441406,-0.025391,0.115234,-0.160156,0.216492,0.612671,0.102783,0.753113,up
490029,8.925781,4.449219,2.554688,0.023437,0.107422,-0.15625,0.216492,0.612671,0.102783,0.753113,up
490034,8.882813,4.527344,2.59375,0.128906,0.111328,-0.162109,0.218506,0.611023,0.104675,0.753662,up
490039,8.847656,4.601562,2.554688,0.128906,0.111328,-0.162109,0.218689,0.610657,0.105774,0.753723,up
490044,8.886719,4.601562,2.554688,0.128906,0.111328,-0.162109,0.218689,0.610657,0.105774,0.753723,up
490049,8.84375,4.679687,2.554688,0.195312,0.087891,-0.140625,0.218628,0.610474,0.106995,0.753723,up
490054,8.921875,4.679687,2.519531,0.201172,0.066406,-0.101563,0.218628,0.610474,0.106995,0.753723,up
490059,8.882813,4.679687,2.480469,0.201172,0.066406,-0.101563,0.218384,0.610352,0.108154,0.753723,up
490064,8.925781,4.71875,2.402344,0.201172,0.066406,-0.101563,0.218384,0.610352,0.108154,0.753723,up
490069,9.03125,4.757812,2.441406,0.166016,0.076172,-0.056641,0.218079,0.610229,0.10907,0.753784,up
490074,8.992188,4.832031,2.441406,0.166016,0.076172,-0.056641,0.218079,0.610229,0.10907,0.753784,up
490079,8.992188,4.871094,2.480469,0.09375,0.101563,-0.009766,0.217834,0.609924,0.109497,0.754028,up
490084,8.921875,4.910156,2.554688,0.09375,0.101563,-0.009766,0.217773,0.609741,0.109619,0.754211,up
490089,8.882813,4.910156,2.632813,0.09375,0.101563,-0.009766,0.217773,0.609741,0.109619,0.754211,up
490094,8.882813,4.910156,2.710938,-0.021484,0.142578,0.017578,0.217712,0.609131,0.109619,0.7547,up
490099,8.84375,4.871094,2.75,-0.066406,0.160156,0.019531,0.217712,0.609131,0.109619,0.7547,up
490104,8.882813,4.871094,2.785156,-0.066406,0.160156,0.019531,0.217773,0.608459,0.109497,0.755249,up
490109,8.925781,4.871094,2.785156,-0.066406,0.160156,0.019531,0.217834,0.608093,0.109375,0.755493,up
490114,8.882813,4.871094,2.785156,-0.066406,0.160156,0.019531,0.217834,0.608093,0.109375,0.755493,up
490119,8.730469,4.792969,2.824219,-0.097656,0.15625,0.019531,0.217834,0.608093,0.109375,0.755493,up
490124,8.648438,4.757812,2.824219,-0.091797,0.142578,0.011719,0.218018,0.607422,0.10907,0.756042,up
490129,8.578125,4.71875,2.785156,-0.091797,0.142578,0.011719,0.218201,0.606812,0.108826,0.756531,up
490134,8.578125,4.679687,2.824219,-0.091797,0.142578,0.011719,0.218201,0.606812,0.108826,0.756531,up
490139,8.582031,4.640625,2.785156,-0.091797,0.142578,0.011719,0.218445,0.606445,0.108582,0.756775,up
490144,8.582031,4.679687,2.785156,-0.091797,0.142578,0.011719,0.218445,0.606445,0.108582,0.756775,up
490149,8.613281,4.679687,2.824219,-0.066406,0.0,-0.003906,0.218689,0.606323,0.108337,0.756836,up
490154,8.652344,4.679687,2.824219,-0.066406,0.0,-0.003906,0.21875,0.606384,0.108276,0.756836,up
490159,8.648438,4.71875,2.824219,-0.066406,0.0,-0.003906,0.21875,0.606384,0.108337,0.756775,up
490164,8.648438,4.757812,2.824219,0.042969,-0.009766,-0.001953,0.21875,0.606384,0.108337,0.756775,up
490169,8.613281,4.679687,2.824219,0.042969,-0.009766,-0.001953,0.218689,0.606445,0.108398,0.756714,up
490174,8.582031,4.679687,2.785156,0.054687,-0.013672,0.003906,0.218689,0.606445,0.108398,0.756714,up
490179,8.542969,4.640625,2.785156,0.025391,-0.019531,0.007813,0.218567,0.606506,0.108521,0.756653,up
490184,8.539063,4.601562,2.785156,0.025391,-0.019531,0.007813,0.218506,0.606628,0.108582,0.756592,up
490189,8.582031,4.566406,2.75,0.025391,-0.019531,0.007813,0.218506,0.606628,0.108582,0.756592,up
490194,8.539063,4.527344,2.75,-0.054687,-0.03125,0.033203,0.218506,0.606689,0.108459,0.756592,up
490199,8.5,4.527344,2.75,-0.054687,-0.03125,0.033203,0.218567,0.60675,0.108337,0.756531,up
490204,8.539063,4.527344,2.75,-0.054687,-0.03125,0.033203,0.218567,0.60675,0.108154,0.756531,up
490209,8.539063,4.527344,2.75,-0.09375,-0.013672,0.048828,0.218567,0.60675,0.108154,0.756531,up
490214,8.5,4.488281,2.75,-0.09375,-0.013672,0.048828,0.21875,0.60675,0.107361,0.756592,up
490219,8.5,4.527344,2.710938,-0.09375,-0.013672,0.048828,0.21875,0.60675,0.107361,0.756592,up
490224,8.539063,4.488281,2.75,-0.103516,-0.003906,0.054687,0.21875,0.60675,0.107361,0.756592,up
490230,8.421875,4.449219,2.75,-0.103516,-0.003906,0.054687,0.218933,0.606628,0.106506,0.756775,up
490235,8.382813,4.410156,2.710938,-0.146484,-0.041016,0.058594,0.219055,0.606628,0.10614,0.756775,up
490240,8.425781,4.410156,2.710938,-0.150391,-0.060547,0.060547,0.219177,0.606689,0.105713,0.756775,up
490245,8.539063,4.335937,2.710938,-0.150391,-0.060547,0.060547,0.21936,0.606689,0.105347,0.756775,up
490250,8.582031,4.296875,2.710938,-0.150391,-0.060547,0.060547,0.219543,0.60675,0.104858,0.756714,up
490255,8.582031,4.257812,2.671875,-0.177734,-0.085937,0.033203,0.219849,0.606812,0.10437,0.756653,up
490260,8.578125,4.183594,2.632813,-0.177734,-0.085937,0.033203,0.220093,0.606934,0.103943,0.756592,up
490265,8.578125,4.183594,2.59375,-0.177734,-0.085937,0.033203,0.220276,0.606995,0.103638,0.756531,up
490270,8.652344,4.183594,2.59375,-0.111328,-0.103516,0.0,0.22052,0.607117,0.103271,0.756348,up
490275,8.613281,4.183594,2.519531,-0.083984,-0.113281,-0.005859,0.220703,0.6073,0.103027,0.756226,up
490280,8.765625,4.257812,2.441406,-0.083984,-0.113281,-0.005859,0.220886,0.607483,0.102844,0.756042,up
490285,8.769531,4.296875,2.441406,-0.083984,-0.113281,-0.005859,0.221008,0.607605,0.102722,0.75592,up
490290,8.804688,4.296875,2.402344,-0.017578,-0.103516,-0.037109,0.22113,0.607849,0.102661,0.755737,up
490295,8.804688,4.296875,2.402344,-0.017578,-0.103516,-0.037109,0.221252,0.607971,0.102661,0.755554,up
490300,8.804688,4.296875,2.328125,-0.017578,-0.103516,-0.037109,0.221375,0.608154,0.102661,0.755371,up
490306,8.84375,4.335937,2.363281,-0.017578,-0.103516,-0.037109,0.221497,0.608276,0.1026,0.755249,up
490311,8.84375,4.375,2.328125,-0.035156,-0.080078,-0.021484,0.221619,0.608398,0.1026,0.755127,up
490316,8.84375,4.375,2.402344,-0.046875,-0.068359,-0.015625,0.221619,0.608398,0.1026,0.755127,up
490322,8.804688,4.449219,2.328125,-0.046875,-0.068359,-0.015625,0.221863,0.608582,0.102356,0.754883,up
490328,8.808594,4.488281,2.328125,-0.052734,-0.037109,-0.005859,0.221863,0.608582,0.102356,0.754883,up
