timestamp,ax,ay,az,gx,gy,gz,qw,qx,qy,qz,label
85034,3.128906,2.28125,8.613281,1.410156,0.466797,-0.148437,0.982178,0.151001,-0.110168,0.020813,up
85039,3.128906,2.433594,8.6875,1.445313,0.677734,-0.296875,0.982178,0.151001,-0.110168,0.020813,up
85044,3.089844,2.589844,8.691406,1.462891,0.736328,-0.349609,0.982178,0.151001,-0.110168,0.020813,up
85049,2.9375,2.894531,8.808594,1.462891,0.736328,-0.349609,0.981079,0.161743,-0.10437,0.02002,up
85054,2.859375,3.007813,8.847656,1.447266,0.822266,-0.466797,0.981079,0.161743,-0.10437,0.02002,up
85059,2.785156,3.046875,8.765625,1.416016,0.845703,-0.509766,0.981079,0.161743,-0.10437,0.02002,up
85065,2.628906,3.203125,8.769531,1.365234,0.869141,-0.554687,0.981079,0.161743,-0.10437,0.02002,up
85070,2.476563,3.316406,8.691406,1.302734,0.869141,-0.589844,0.981079,0.161743,-0.10437,0.02002,up
85076,2.476563,3.316406,8.691406,1.259766,0.855469,-0.607422,0.97937,0.178955,-0.09259,0.016479,up
85081,2.402344,3.429688,8.730469,1.193359,0.833984,-0.625,0.97937,0.178955,-0.09259,0.016479,up
85086,2.324219,3.507813,8.914063,1.193359,0.833984,-0.625,0.97937,0.178955,-0.09259,0.016479,up
85091,2.324219,3.507813,8.914063,1.082031,0.783203,-0.603516,0.978333,0.187927,-0.08551,0.013672,up
85097,2.210938,3.699219,9.074219,1.03125,0.773437,-0.580078,0.977722,0.193115,-0.081177,0.011902,up
85102,2.171875,3.699219,9.152344,1.03125,0.773437,-0.580078,0.977478,0.195557,-0.078918,0.010986,up
85107,2.132813,3.777344,9.1875,1.03125,0.773437,-0.580078,0.977478,0.195557,-0.078918,0.010986,up
85112,2.019531,3.8125,9.152344,0.880859,0.761719,-0.478516,0.977478,0.195557,-0.078918,0.010986,up
85117,1.980469,3.851563,9.109375,0.794922,0.773437,-0.40625,0.977478,0.195557,-0.078918,0.010986,up
85122,1.902344,3.929688,9.109375,0.794922,0.773437,-0.40625,0.976379,0.204102,-0.070312,0.00824,up
85127,1.863281,3.96875,9.1875,0.794922,0.773437,-0.40625,0.976379,0.204102,-0.070312,0.00824,up
85132,1.789063,4.042969,9.1875,0.677734,0.835937,-0.308594,0.976379,0.204102,-0.070312,0.00824,up
85137,1.671875,4.121094,9.230469,0.648437,0.869141,-0.291016,0.975952,0.207581,-0.06604,0.007446,up
85143,1.632813,4.195312,9.226563,0.648437,0.869141,-0.291016,0.975769,0.209106,-0.063904,0.007141,up
85148,1.558594,4.195312,9.226563,0.611328,0.919922,-0.298828,0.975403,0.212402,-0.059021,0.006592,up
85154,1.480469,4.351562,9.191406,0.611328,0.919922,-0.298828,0.97522,0.213745,-0.056763,0.006287,up
85159,1.40625,4.425781,9.335938,0.611328,0.919922,-0.298828,0.975037,0.215149,-0.054199,0.005981,up
85164,1.328125,4.464844,9.296875,0.519531,0.978516,-0.351563,0.975037,0.215149,-0.054199,0.005981,up
85169,1.328125,4.425781,9.265625,0.503906,1.0,-0.378906,0.975037,0.215149,-0.054199,0.005981,up
85174,1.289063,4.425781,9.265625,0.503906,1.011719,-0.400391,0.975037,0.215149,-0.054199,0.005981,up
85179,1.25,4.425781,9.265625,0.503906,1.011719,-0.400391,0.975037,0.215149,-0.054199,0.005981,up
85185,1.175781,4.503906,9.226563,0.501953,1.064453,-0.427734,0.975037,0.215149,-0.054199,0.005981,up
85190,1.058594,4.542969,9.269531,0.511719,1.095703,-0.429687,0.975037,0.215149,-0.054199,0.005981,up
85195,0.792969,4.617187,9.496094,0.511719,1.095703,-0.429687,0.973938,0.22406,-0.035156,0.002747,up
85200,0.714844,4.65625,9.496094,0.451172,1.109375,-0.396484,0.973938,0.22406,-0.035156,0.002747,up
85205,0.5625,4.695312,9.414063,0.412109,1.138672,-0.386719,0.973938,0.22406,-0.035156,0.002747,up
85210,0.253906,4.65625,9.070313,0.380859,1.162109,-0.371094,0.973938,0.22406,-0.035156,0.002747,up
85215,0.253906,4.65625,9.070313,0.380859,1.162109,-0.371094,0.973938,0.22406,-0.035156,0.002747,up
85221,0.179687,4.695312,9.070313,0.351563,1.158203,-0.351563,0.973206,0.229004,-0.020203,0.000977,up
85226,0.179687,4.695312,9.070313,0.308594,1.09375,-0.298828,0.973083,0.229797,-0.017334,0.000854,up
85231,-0.203125,4.925781,9.113281,0.308594,1.09375,-0.298828,0.973083,0.229797,-0.017334,0.000854,up
85237,-0.28125,5.0,9.035156,0.279297,1.044922,-0.263672,0.973083,0.229797,-0.017334,0.000854,up
85243,-0.394531,4.886719,8.953125,0.283203,0.988281,-0.248047,0.972534,0.232666,-0.006714,0.000366,up
85249,-0.28125,4.964844,9.148438,0.283203,0.988281,-0.248047,0.972412,0.233337,-0.004578,0.000183,up
85254,-0.203125,4.964844,9.265625,0.298828,0.734375,-0.169922,0.972229,0.234131,-0.002563,6.1e-05,up
85259,-0.164062,4.847656,9.300781,0.300781,0.669922,-0.15625,0.972046,0.234802,-0.000793,0.0,up
85264,-0.089844,4.808594,9.414063,0.300781,0.669922,-0.15625,0.971863,0.235596,0.000977,-6.1e-05,up
85270,-0.050781,4.65625,9.378906,0.300781,0.669922,-0.15625,0.97168,0.236389,0.002441,-6.1e-05,up
85275,-0.011719,4.617187,9.335938,0.363281,0.570312,-0.070312,0.971436,0.237244,0.003845,-6.1e-05,up
85280,-0.011719,4.65625,9.300781,0.40625,0.574219,-0.058594,0.971436,0.237244,0.003845,-6.1e-05,up
85286,0.0625,4.734375,9.226563,0.40625,0.574219,-0.058594,0.971436,0.237244,0.003845,-6.1e-05,up
85291,0.140625,4.808594,9.148438,0.40625,0.574219,-0.058594,0.970642,0.240356,0.008118,0.000244,up
85296,0.140625,4.886719,9.070313,0.503906,0.603516,-0.03125,0.970642,0.240356,0.008118,0.000244,up
85301,0.253906,4.925781,8.996094,0.503906,0.603516,-0.03125,0.970032,0.242798,0.011108,0.00061,up
85307,0.21875,5.078125,8.957031,0.503906,0.603516,-0.03125,0.970032,0.242798,0.011108,0.00061,up
85312,0.140625,5.117187,9.03125,0.587891,0.724609,-0.050781,0.970032,0.242798,0.011108,0.00061,up
85317,-0.011719,5.308594,8.847656,0.599609,0.779297,-0.064453,0.970032,0.242798,0.011108,0.00061,up
85322,-0.242187,5.308594,8.84375,0.599609,0.779297,-0.064453,0.968506,0.248413,0.018311,0.001404,up
85328,-0.394531,5.269531,8.726563,0.476562,0.960937,-0.160156,0.968506,0.248413,0.018311,0.001404,up
85333,-0.550781,5.269531,8.5,0.476562,0.960937,-0.160156,0.967346,0.252258,0.025513,0.001709,up
85338,-0.664062,5.230469,8.304688,0.476562,0.960937,-0.160156,0.967041,0.253113,0.027649,0.001831,up
85343,-1.007813,5.078125,8.039063,0.476562,0.960937,-0.160156,0.966736,0.253906,0.029907,0.002014,up
85349,-1.085938,5.078125,8.0,0.267578,0.597656,-0.046875,0.966553,0.254578,0.031616,0.002136,up
85354,-1.085938,5.117187,8.1875,0.267578,0.597656,-0.046875,0.966309,0.255188,0.032776,0.002258,up
85360,-0.96875,5.230469,8.503906,0.267578,0.597656,-0.046875,0.966125,0.25592,0.033752,0.00238,up
85365,-0.855469,5.269531,8.609375,0.417969,0.291016,0.005859,0.966125,0.25592,0.033752,0.00238,up
85370,-0.816406,5.308594,8.648438,0.517578,0.275391,0.011719,0.965515,0.257996,0.035217,0.002563,up
85375,-0.703125,5.460937,8.5,0.517578,0.275391,0.011719,0.965088,0.259338,0.035828,0.002625,up
85381,-0.585937,5.539062,8.460938,0.685547,0.304688,0.033203,0.965088,0.259338,0.035828,0.002625,up
85387,-0.585937,5.652344,8.425781,0.746094,0.3125,0.074219,0.965088,0.259338,0.035828,0.002625,up
85392,-0.550781,5.882812,8.425781,0.746094,0.3125,0.074219,0.963623,0.264465,0.037964,0.003052,up
85398,-0.550781,5.882812,8.460938,0.693359,0.271484,0.134766,0.963623,0.264465,0.037964,0.003052,up
85403,-0.550781,5.804687,8.503906,0.693359,0.271484,0.134766,0.962585,0.268005,0.039307,0.003662,up
85408,-0.472656,5.691406,8.570313,0.628906,0.253906,0.162109,0.962585,0.268005,0.039307,0.003662,up
85413,-0.472656,5.652344,8.609375,0.628906,0.253906,0.162109,0.961304,0.272339,0.040894,0.004944,up
85418,-0.472656,5.578125,8.691406,0.339844,0.332031,0.173828,0.961304,0.272339,0.040894,0.004944,up
85423,-0.511719,5.578125,8.574219,0.205078,0.416016,0.148437,0.960999,0.273438,0.041565,0.005554,up
85428,-0.742187,5.460937,8.34375,0.205078,0.416016,0.148437,0.960571,0.274475,0.043274,0.006531,up
85433,-0.816406,5.386719,8.152344,0.095703,0.582031,0.089844,0.960571,0.274475,0.043274,0.006531,up
85438,-0.816406,5.386719,8.152344,0.095703,0.582031,0.089844,0.960449,0.27478,0.044556,0.00708,up
85443,-1.046875,5.230469,7.660156,0.099609,0.630859,0.052734,0.960327,0.275024,0.045837,0.007568,up
85448,-1.199219,5.191406,7.421875,0.099609,0.630859,0.052734,0.960144,0.27533,0.047363,0.007996,up
85453,-1.199219,5.191406,7.421875,0.099609,0.630859,0.052734,0.960144,0.27533,0.047363,0.007996,up
85458,-1.199219,5.269531,7.425781,0.373047,0.345703,0.001953,0.959351,0.277588,0.050354,0.008667,up
85463,-1.125,5.84375,7.730469,0.707031,0.160156,-0.027344,0.959351,0.277588,0.050354,0.008667,up
85468,-1.046875,5.996094,7.769531,0.707031,0.160156,-0.027344,0.958252,0.281189,0.05127,0.008362,up
85473,-1.046875,6.152344,7.769531,1.019531,0.105469,-0.066406,0.958252,0.281189,0.05127,0.008362,up
85478,-0.933594,6.378906,7.730469,1.019531,0.105469,-0.066406,0.957642,0.283264,0.051514,0.008118,up
85483,-0.933594,6.378906,7.730469,1.019531,0.105469,-0.066406,0.956055,0.28833,0.052063,0.007446,up
85488,-0.855469,6.535156,7.769531,1.019531,0.105469,-0.066406,0.956055,0.28833,0.052063,0.007446,up
85493,-0.777344,6.609375,7.726562,0.972656,0.058594,-0.054687,0.956055,0.28833,0.052063,0.007446,up
85498,-0.703125,6.574219,7.65625,0.820312,0.058594,-0.03125,0.956055,0.28833,0.052063,0.007446,up
85503,-0.625,6.535156,7.695312,0.324219,0.107422,0.03125,0.954102,0.294739,0.052612,0.006714,up
85508,-0.625,6.457031,7.730469,0.324219,0.107422,0.03125,0.953735,0.295898,0.052795,0.006653,up
85513,-0.585937,6.304687,7.726562,0.324219,0.107422,0.03125,0.953552,0.296448,0.053101,0.006775,up
85518,-0.550781,6.265625,7.769531,-0.318359,0.300781,0.095703,0.953552,0.296448,0.053101,0.006775,up
85523,-0.585937,5.996094,7.730469,-0.318359,0.300781,0.095703,0.953918,0.294922,0.054749,0.007813,up
85528,-0.664062,5.804687,7.65625,-0.496094,0.460937,0.105469,0.953918,0.294922,0.054749,0.007813,up
85533,-0.664062,5.652344,7.582031,-0.496094,0.460937,0.105469,0.954468,0.292725,0.056641,0.008911,up
85538,-0.703125,5.460937,7.621094,-0.496094,0.460937,0.105469,0.954712,0.291687,0.057678,0.00946,up
85543,-0.742187,5.308594,7.695312,-0.496094,0.460937,0.105469,0.954712,0.291687,0.057678,0.00946,up
85548,-0.777344,5.308594,7.765625,-0.150391,0.501953,0.080078,0.954712,0.291687,0.057678,0.00946,up
85553,-0.777344,5.347656,7.808594,-0.150391,0.501953,0.080078,0.954956,0.2901,0.061096,0.011108,up
85558,-0.816406,5.386719,7.886719,-0.150391,0.501953,0.080078,0.954834,0.290405,0.062317,0.011475,up
85563,-0.855469,5.5,7.960937,-0.150391,0.501953,0.080078,0.954834,0.290405,0.062317,0.011475,up
85568,-0.894531,5.578125,8.0,0.443359,0.541016,0.011719,0.954834,0.290405,0.062317,0.011475,up
85573,-1.046875,5.769531,7.960937,0.443359,0.541016,0.011719,0.954163,0.291992,0.06488,0.012085,up
85579,-1.085938,5.84375,7.964844,0.474609,0.537109,0.013672,0.953308,0.294189,0.067383,0.012634,up
85584,-1.125,5.921875,7.925781,0.427734,0.539062,0.037109,0.95282,0.295349,0.068787,0.013,up
85589,-1.199219,6.035156,7.960937,0.427734,0.539062,0.037109,0.952454,0.296326,0.070068,0.013367,up
85594,-1.199219,6.113281,7.960937,0.427734,0.539062,0.037109,0.952148,0.296936,0.071106,0.013672,up
85599,-1.199219,6.113281,8.082031,0.150391,0.53125,0.076172,0.951843,0.297485,0.072449,0.014221,up
85605,-1.277344,6.074219,8.042969,0.150391,0.53125,0.076172,0.951721,0.297729,0.073547,0.014648,up
85610,-1.316406,6.035156,8.082031,0.150391,0.53125,0.076172,0.951599,0.297791,0.074768,0.015198,up
85616,-1.316406,5.996094,8.042969,0.150391,0.53125,0.076172,0.951599,0.297791,0.074768,0.015198,up
85621,-1.390625,5.921875,8.078125,-0.15625,0.521484,0.115234,0.951599,0.297791,0.074768,0.015198,up
85626,-1.351563,5.804687,8.109375,-0.185547,0.5,0.111328,0.951599,0.297791,0.074768,0.015198,up
85632,-1.46875,5.769531,8.226563,-0.191406,0.476562,0.123047,0.951599,0.297791,0.074768,0.015198,up
85637,-1.429688,5.730469,8.308594,-0.1875,0.445312,0.115234,0.951599,0.296021,0.0802,0.01825,up
85643,-1.507813,5.613281,8.382813,-0.15625,0.423828,0.107422,0.951599,0.296021,0.0802,0.01825,up
85648,-1.507813,5.578125,8.425781,-0.083984,0.376953,0.087891,0.95166,0.295349,0.082031,0.019287,up
85653,-1.546875,5.613281,8.421875,-0.083984,0.376953,0.087891,0.95166,0.295044,0.082947,0.019836,up
85658,-1.507813,5.539062,8.382813,-0.033203,0.298828,0.066406,0.95166,0.294922,0.083679,0.020203,up
85664,-1.507813,5.613281,8.382813,-0.033203,0.298828,0.066406,0.951538,0.2948,0.084961,0.020813,up
85669,-1.507813,5.613281,8.5,0.011719,0.212891,0.037109,0.951477,0.294861,0.085571,0.021057,up
85675,-1.507813,5.730469,8.53125,0.011719,0.212891,0.037109,0.951416,0.294922,0.085937,0.021179,up
85680,-1.429688,5.769531,8.609375,0.011719,0.212891,0.037109,0.951355,0.294983,0.086304,0.021362,up
85685,-1.429688,5.882812,8.53125,0.011719,0.212891,0.037109,0.951294,0.295044,0.086609,0.021423,up
85690,-1.390625,5.921875,8.570313,0.0,0.144531,0.017578,0.951294,0.295044,0.086609,0.021423,up
85695,-1.351563,5.921875,8.574219,-0.042969,0.132812,0.015625,0.951294,0.295044,0.086609,0.021423,up
85700,-1.316406,5.882812,8.503906,-0.042969,0.132812,0.015625,0.951233,0.294922,0.087585,0.021729,up
85706,-1.199219,5.882812,8.421875,-0.042969,0.132812,0.015625,0.951294,0.294678,0.087891,0.021851,up
85712,-1.085938,5.882812,8.382813,-0.15625,0.160156,0.019531,0.951294,0.294678,0.087891,0.021851,up
85717,-0.855469,5.921875,8.425781,-0.189453,0.166016,0.017578,0.951294,0.294678,0.087891,0.021851,up
85723,-0.816406,5.921875,8.5,-0.208984,0.195312,0.005859,0.951294,0.294678,0.087891,0.021851,up
85728,-0.777344,5.921875,8.503906,-0.208984,0.195312,0.005859,0.95166,0.29303,0.089417,0.0224,up
85733,-0.742187,5.921875,8.503906,-0.197266,0.251953,-0.013672,0.95166,0.29303,0.089417,0.0224,up
85739,-0.777344,5.921875,8.609375,-0.197266,0.251953,-0.013672,0.951904,0.291565,0.091064,0.022888,up
85744,-0.855469,5.960937,8.648438,-0.138672,0.316406,-0.033203,0.951904,0.291565,0.091064,0.022888,up
85749,-0.894531,5.996094,8.652344,-0.138672,0.316406,-0.033203,0.951965,0.290894,0.092651,0.023132,up
85754,-0.933594,6.152344,8.769531,-0.138672,0.316406,-0.033203,0.951965,0.290649,0.093445,0.023254,up
85759,-1.046875,6.1875,8.847656,-0.138672,0.316406,-0.033203,0.951965,0.290405,0.09436,0.023315,up
85764,-1.085938,6.226562,8.917969,-0.101563,0.400391,-0.064453,0.951965,0.290405,0.09436,0.023315,up
85769,-1.125,6.265625,8.992188,-0.119141,0.423828,-0.060547,0.951965,0.2901,0.095398,0.023437,up
85774,-1.125,6.265625,8.992188,-0.148437,0.458984,-0.052734,0.951904,0.28949,0.097412,0.023743,up
85779,-1.160156,6.378906,9.035156,-0.148437,0.458984,-0.052734,0.951904,0.28949,0.097412,0.023743,up
85784,-1.277344,6.378906,9.070313,-0.208984,0.494141,-0.044922,0.951965,0.288452,0.099792,0.024231,up
85789,-1.351563,6.304687,9.074219,-0.208984,0.494141,-0.044922,0.952087,0.28772,0.101013,0.024597,up
85794,-1.429688,6.265625,9.035156,-0.208984,0.494141,-0.044922,0.952209,0.286804,0.102234,0.024963,up
85799,-1.46875,6.226562,9.035156,-0.507812,0.583984,0.013672,0.952209,0.286804,0.102234,0.024963,up
85804,-1.546875,6.152344,8.992188,-0.507812,0.583984,0.013672,0.952637,0.284241,0.105042,0.026062,up
85809,-1.546875,6.074219,8.917969,-0.507812,0.583984,0.013672,0.95282,0.282959,0.106262,0.026611,up
85814,-1.621094,5.960937,8.996094,-0.625,0.605469,0.0625,0.953125,0.281433,0.107727,0.027344,up
85820,-1.660156,5.769531,9.152344,-0.625,0.605469,0.0625,0.953369,0.279968,0.109009,0.028015,up
85825,-1.699219,5.613281,9.148438,-0.603516,0.597656,0.060547,0.953613,0.278564,0.110352,0.028687,up
85830,-1.8125,5.5,9.1875,-0.603516,0.597656,0.060547,0.953857,0.277161,0.111633,0.029358,up
85836,-1.851563,5.5,9.226563,-0.550781,0.564453,0.085937,0.954102,0.275757,0.112976,0.03009,up
85842,-1.851563,5.421875,9.230469,-0.521484,0.546875,0.099609,0.954102,0.275757,0.112976,0.03009,up
85848,-1.8125,5.269531,9.339844,-0.521484,0.546875,0.099609,0.954102,0.275757,0.112976,0.03009,up
85853,-1.8125,5.15625,9.296875,-0.447266,0.496094,0.115234,0.954102,0.275757,0.112976,0.03009,up
85858,-1.8125,5.15625,9.296875,-0.423828,0.472656,0.111328,0.954773,0.271179,0.117432,0.032837,up
85863,-1.8125,5.078125,9.269531,-0.412109,0.439453,0.125,0.954895,0.270142,0.118408,0.033508,up
85868,-1.8125,5.078125,9.269531,-0.451172,0.402344,0.130859,0.955078,0.269165,0.119263,0.03418,up
85873,-1.890625,5.039062,9.230469,-0.451172,0.402344,0.130859,0.955261,0.268066,0.120056,0.034851,up
85878,-1.890625,5.039062,9.230469,-0.574219,0.339844,0.115234,0.955505,0.266724,0.120789,0.035583,up
85883,-1.890625,5.078125,8.765625,-0.574219,0.339844,0.115234,0.955811,0.265381,0.121399,0.036194,up
85889,-1.890625,5.078125,8.765625,-0.685547,0.214844,0.089844,0.955811,0.265381,0.121399,0.036194,up
85894,-1.890625,5.039062,8.765625,-0.685547,0.214844,0.089844,0.956848,0.26062,0.122742,0.037842,up
85900,-1.851563,4.886719,8.691406,-0.685547,0.214844,0.089844,0.957275,0.258972,0.122986,0.038269,up
85905,-1.851563,4.773437,8.6875,-0.736328,0.103516,0.0625,0.957275,0.258972,0.122986,0.038269,up
85910,-1.851563,4.773437,8.726563,-0.748047,0.060547,0.050781,0.957275,0.258972,0.122986,0.038269,up
85915,-1.851563,4.773437,8.726563,-0.751953,0.027344,0.035156,0.958557,0.253723,0.12323,0.039307,up
85920,-1.773438,4.695312,8.769531,-0.751953,0.027344,0.035156,0.959106,0.251709,0.123169,0.039673,up
85926,-1.738281,4.464844,8.765625,-0.751953,0.027344,0.035156,0.959534,0.250183,0.122986,0.039917,up
85931,-1.738281,4.351562,8.691406,-0.775391,-0.074219,0.048828,0.960022,0.248413,0.122742,0.040161,up
85936,-1.8125,4.234375,8.535156,-0.775391,-0.074219,0.048828,0.96051,0.246521,0.122437,0.040405,up
85942,-1.773438,4.234375,8.464844,-0.828125,-0.111328,0.068359,0.96051,0.246521,0.122437,0.040405,up
85948,-1.738281,4.160156,8.386719,-0.847656,-0.142578,0.083984,0.96051,0.246521,0.122437,0.040405,up
85953,-1.738281,4.121094,8.191406,-0.869141,-0.162109,0.072266,0.96051,0.246521,0.122437,0.040405,up
85958,-1.699219,4.042969,8.078125,-0.869141,-0.162109,0.072266,0.962708,0.238647,0.120544,0.041626,up
85963,-1.660156,4.003906,7.960937,-0.851562,-0.189453,0.042969,0.962708,0.238647,0.120544,0.041626,up
85968,-1.621094,3.929688,7.886719,-0.839844,-0.201172,0.019531,0.962708,0.238647,0.120544,0.041626,up
85973,-1.546875,3.890625,7.617187,-0.839844,-0.201172,0.019531,0.962708,0.238647,0.120544,0.041626,up
85978,-1.429688,3.890625,7.5,-0.839844,-0.201172,0.019531,0.964905,0.230591,0.118103,0.042175,up
85984,-1.351563,3.929688,7.347656,-0.794922,-0.238281,-0.041016,0.965942,0.226929,0.116882,0.042114,up
85989,-1.160156,3.96875,7.15625,-0.794922,-0.238281,-0.041016,0.966492,0.225098,0.116211,0.041931,up
85994,-1.085938,3.890625,7.003906,-0.794922,-0.238281,-0.041016,0.96698,0.223206,0.115601,0.041687,up
85999,-0.96875,3.851563,6.855469,-0.794922,-0.238281,-0.041016,0.96698,0.223206,0.115601,0.041687,up
86004,-0.894531,3.777344,6.734375,-0.78125,-0.244141,-0.146484,0.968018,0.219482,0.114441,0.041077,up
86010,-0.816406,3.660156,6.507812,-0.78125,-0.244141,-0.146484,0.968628,0.217224,0.113892,0.04071,up
86015,-0.855469,3.660156,6.433594,-0.912109,-0.126953,-0.181641,0.969116,0.21521,0.113525,0.040466,up
86020,-1.007813,3.699219,6.46875,-0.947266,-0.058594,-0.185547,0.969666,0.212708,0.113281,0.040161,up
86026,-1.316406,3.777344,6.542969,-0.947266,-0.058594,-0.185547,0.970154,0.210632,0.11322,0.039978,up
86032,-1.46875,3.8125,6.617187,-1.042969,0.105469,-0.222656,0.970154,0.210632,0.11322,0.039978,up
86038,-1.507813,3.777344,6.617187,-1.109375,0.189453,-0.244141,0.970154,0.210632,0.11322,0.039978,up
86043,-1.851563,3.660156,6.734375,-1.191406,0.275391,-0.279297,0.970154,0.210632,0.11322,0.039978,up
86048,-2.003906,3.585938,6.960937,-1.310547,0.441406,-0.359375,0.970154,0.210632,0.11322,0.039978,up
86053,-2.15625,3.546875,7.15625,-1.310547,0.441406,-0.359375,0.9729,0.196228,0.116089,0.038696,up
86058,-2.386719,3.585938,7.382812,-1.355469,0.537109,-0.410156,0.9729,0.196228,0.116089,0.038696,up
86063,-2.425781,3.546875,7.578125,-1.396484,0.591797,-0.476562,0.9729,0.196228,0.116089,0.038696,up
86068,-2.464844,3.546875,7.695312,-1.396484,0.591797,-0.476562,0.974548,0.185364,0.120544,0.037354,up
86074,-2.503906,3.546875,7.765625,-1.603516,0.763672,-0.652344,0.974548,0.185364,0.120544,0.037354,up
86079,-2.539063,3.46875,7.921875,-1.603516,0.763672,-0.652344,0.975586,0.177673,0.124146,0.03595,up
86084,-2.539063,3.46875,7.921875,-1.671875,0.789062,-0.689453,0.976074,0.173462,0.12616,0.035156,up
86089,-2.539063,3.429688,8.082031,-1.744141,0.792969,-0.720703,0.976074,0.173462,0.12616,0.035156,up
86095,-2.503906,3.125,8.191406,-1.744141,0.792969,-0.720703,0.976685,0.168884,0.128235,0.034241,up
86100,-2.503906,3.125,8.191406,-1.916016,0.826172,-0.714844,0.977722,0.159424,0.132446,0.032532,up
86105,-2.539063,2.664063,8.269531,-1.916016,0.826172,-0.714844,0.978882,0.148987,0.136658,0.031189,up
86110,-2.578125,2.511719,8.230469,-2.132813,0.785156,-0.613281,0.979492,0.142822,0.138916,0.030518,up
86115,-2.617188,2.28125,8.269531,-2.132813,0.785156,-0.613281,0.979919,0.138,0.140625,0.03009,up
86121,-2.886719,2.242188,8.464844,-2.132813,0.785156,-0.613281,0.980408,0.132568,0.142456,0.029602,up
86126,-2.925781,2.167969,8.53125,-2.115234,0.712891,-0.605469,0.980408,0.132568,0.142456,0.029602,up
86131,-2.960938,2.089844,8.648438,-2.074219,0.675781,-0.634766,0.981384,0.121643,0.146057,0.028503,up
86137,-3.0,1.976563,8.730469,-2.074219,0.675781,-0.634766,0.98175,0.116394,0.147705,0.027832,up
86142,-3.0,1.9375,8.691406,-1.986328,0.595703,-0.705078,0.98175,0.116394,0.147705,0.027832,up
86147,-3.0,1.976563,8.691406,-1.957031,0.560547,-0.75,0.98175,0.116394,0.147705,0.027832,up
86152,-2.960938,2.015625,8.570313,-1.957031,0.560547,-0.75,0.982849,0.100891,0.152161,0.025024,up
86158,-2.925781,1.976563,8.53125,-1.957031,0.560547,-0.75,0.983215,0.095581,0.153503,0.023804,up
86164,-2.886719,1.976563,8.535156,-2.076172,0.449219,-0.892578,0.983215,0.095581,0.153503,0.023804,up
86169,-2.734375,1.785156,8.421875,-2.185547,0.427734,-0.945312,0.983215,0.095581,0.153503,0.023804,up
86174,-2.617188,1.554688,8.382813,-2.185547,0.427734,-0.945312,0.984253,0.078796,0.156982,0.019714,up
86179,-2.617188,1.554688,8.382813,-2.449219,0.414062,-1.027344,0.984619,0.072083,0.158142,0.018066,up
86184,-2.617188,1.554688,8.382813,-2.568359,0.416016,-1.058594,0.984924,0.06604,0.159119,0.016663,up
86189,-2.503906,1.324219,8.304688,-2.667969,0.400391,-1.097656,0.984924,0.06604,0.159119,0.016663,up
86194,-2.347656,1.054688,8.386719,-2.667969,0.400391,-1.097656,0.984924,0.06604,0.159119,0.016663,up
86199,-2.347656,1.054688,8.386719,-2.816406,0.373047,-1.167969,0.985657,0.044678,0.162231,0.01178,up
86205,-2.3125,0.75,8.460938,-2.833984,0.324219,-1.212891,0.985657,0.044678,0.162231,0.01178,up
86211,-2.234375,0.289063,8.421875,-2.833984,0.324219,-1.212891,0.986023,0.022278,0.164856,0.006348,up
86216,-2.234375,0.289063,8.421875,-2.732422,0.269531,-1.251953,0.986084,0.014526,0.165649,0.004272,up
86222,-2.003906,0.175781,8.769531,-2.630859,0.214844,-1.283203,0.986084,0.014526,0.165649,0.004272,up
86228,-1.964844,-0.207031,8.769531,-2.533203,0.185547,-1.320313,0.986084,0.014526,0.165649,0.004272,up
86233,-1.929688,-0.359375,8.613281,-2.449219,0.144531,-1.355469,0.986084,0.014526,0.165649,0.004272,up
86238,-1.964844,-0.4375,8.5,-2.373047,0.115234,-1.396484,0.986084,0.014526,0.165649,0.004272,up
86244,-2.003906,-0.554687,8.464844,-2.373047,0.115234,-1.396484,0.985474,-0.024963,0.167664,-0.009888,up
86249,-2.234375,-0.589844,8.574219,-2.373047,0.115234,-1.396484,0.985474,-0.024963,0.167664,-0.009888,up
86254,-2.578125,-0.746094,8.574219,-2.259766,0.035156,-1.507813,0.985474,-0.024963,0.167664,-0.009888,up
86259,-2.578125,-0.746094,8.574219,-2.316406,0.095703,-1.556641,0.984985,-0.037415,0.167847,-0.015564,up
86264,-2.347656,-1.164063,7.425781,-2.316406,0.095703,-1.556641,0.984985,-0.037415,0.167847,-0.015564,up
86269,-2.273438,-0.515625,7.730469,-2.369141,0.367188,-1.625,0.984985,-0.037415,0.167847,-0.015564,up
86275,-2.273438,-0.515625,7.730469,-2.259766,0.476562,-1.613281,0.983521,-0.056824,0.169861,-0.024658,up
86280,-2.734375,-0.746094,8.347656,-2.259766,0.476562,-1.613281,0.982056,-0.069153,0.172852,-0.031067,up
86285,-2.695313,-0.589844,8.535156,-2.259766,0.476562,-1.613281,0.98114,-0.074951,0.174744,-0.034363,up
86290,-2.695313,-0.515625,8.730469,-2.089844,0.994141,-1.636719,0.98114,-0.074951,0.174744,-0.034363,up
86295,-2.769531,-0.898437,8.425781,-2.089844,0.994141,-1.636719,0.980103,-0.081299,0.177124,-0.038025,up
86300,-2.808594,-0.972656,8.386719,-1.974609,1.224609,-1.650391,0.980103,-0.081299,0.177124,-0.038025,up
86305,-2.769531,-0.9375,8.464844,-1.974609,1.224609,-1.650391,0.976562,-0.098022,0.185303,-0.048523,up
86310,-2.695313,-0.9375,8.613281,-1.974609,1.224609,-1.650391,0.975403,-0.102539,0.188049,-0.051697,up
86315,-2.695313,-1.050781,8.574219,-1.818359,1.498047,-1.742188,0.973999,-0.107727,0.191467,-0.055603,up
86320,-2.808594,-1.011719,8.421875,-1.818359,1.498047,-1.742188,0.972473,-0.112732,0.194946,-0.059448,up
86325,-3.152344,-1.164063,8.570313,-1.830078,1.689453,-1.800781,0.972473,-0.112732,0.194946,-0.059448,up
86330,-3.574219,-1.011719,8.535156,-1.798828,1.814453,-1.818359,0.970764,-0.118103,0.198914,-0.06366,up
86336,-3.574219,-1.011719,8.535156,-1.785156,1.929688,-1.818359,0.967346,-0.127625,0.206848,-0.071472,up
86341,-3.574219,-1.011719,8.535156,-1.785156,1.929688,-1.818359,0.967346,-0.127625,0.206848,-0.071472,up
86346,-3.84375,-1.089844,8.503906,-1.771484,2.013672,-1.808594,0.967346,-0.127625,0.206848,-0.071472,up
86351,-4.339844,-1.242188,8.726563,-1.753906,2.101563,-1.787109,0.963379,-0.137329,0.216125,-0.079834,up
86356,-4.339844,-1.242188,8.726563,-1.753906,2.101563,-1.787109,0.963379,-0.137329,0.216125,-0.079834,up
86362,-4.914062,-1.777344,9.03125,-1.748047,2.25,-1.714844,0.956665,-0.151306,0.231262,-0.091919,up
86367,-5.375,-1.546875,9.035156,-1.699219,2.363281,-1.615234,0.956665,-0.151306,0.231262,-0.091919,up
86372,-5.453125,-1.511719,9.1875,-1.644531,2.410156,-1.568359,0.956665,-0.151306,0.231262,-0.091919,up
86378,-5.644531,-1.742188,9.230469,-1.595703,2.419922,-1.539063,0.949219,-0.164307,0.24762,-0.103271,up
86384,-6.21875,-1.894531,9.414063,-1.564453,2.458984,-1.519531,0.949219,-0.164307,0.24762,-0.103271,up
86389,-6.714844,-1.777344,8.914063,-1.564453,2.458984,-1.519531,0.94397,-0.172241,0.25885,-0.110718,up
86395,-6.640625,-1.511719,8.914063,-1.146484,2.320313,-1.507813,0.94397,-0.172241,0.25885,-0.110718,up
86400,-6.679687,-1.511719,9.574219,-1.40625,2.267578,-1.451172,0.936035,-0.1828,0.274902,-0.121826,up
86405,-7.214844,-1.933594,9.148438,-1.40625,2.267578,-1.451172,0.933472,-0.186096,0.279846,-0.125122,up
86410,-7.484375,-1.472656,9.03125,-1.160156,2.142578,-1.318359,0.933472,-0.186096,0.279846,-0.125122,up
86415,-7.710937,-1.242188,9.269531,-1.216797,2.076172,-1.283203,0.930725,-0.189392,0.285217,-0.128784,up
86420,-7.710937,-1.242188,9.269531,-1.216797,2.076172,-1.283203,0.928406,-0.192139,0.28949,-0.131775,up
86425,-8.210938,-1.816406,8.917969,-1.289063,2.052734,-1.238281,0.925903,-0.19519,0.294006,-0.134766,up
86430,-8.210938,-1.816406,8.917969,-1.396484,2.029297,-1.205078,0.92334,-0.198425,0.298523,-0.137634,up
86435,-8.25,-1.742188,8.953125,-1.396484,2.029297,-1.205078,0.920715,-0.201904,0.30304,-0.140198,up
86440,-8.25,-1.742188,8.953125,-1.685547,1.96875,-1.041016,0.917969,-0.205811,0.307739,-0.142578,up
86445,-8.9375,-2.507813,8.804688,-1.685547,1.96875,-1.041016,0.915161,-0.209839,0.312317,-0.144592,up
86450,-8.9375,-2.507813,8.804688,-1.685547,1.96875,-1.041016,0.90918,-0.219177,0.321777,-0.147583,up
86455,-9.207031,-2.964844,9.074219,-1.685547,1.96875,-1.041016,0.90918,-0.219177,0.321777,-0.147583,up
86460,-9.207031,-3.425781,9.226563,-2.248047,1.853516,-0.732422,0.90918,-0.219177,0.321777,-0.147583,up
86465,-9.320313,-3.464844,9.265625,-2.164063,1.664063,-0.587891,0.903198,-0.228943,0.330872,-0.149353,up
86470,-9.320313,-3.425781,9.226563,-2.164063,1.664063,-0.587891,0.900024,-0.234192,0.335632,-0.150024,up
86475,-9.320313,-3.578125,9.378906,-1.808594,1.335938,-0.386719,0.897278,-0.238586,0.3396,-0.150513,up
86481,-9.320313,-3.578125,9.378906,-1.630859,1.152344,-0.259766,0.892639,-0.246033,0.346313,-0.150757,up
86486,-9.628906,-3.769531,9.457031,-1.419922,0.976562,-0.107422,0.890442,-0.249573,0.349548,-0.150513,up
86492,-9.625,-3.925781,9.148438,-1.419922,0.976562,-0.107422,0.889038,-0.251831,0.351685,-0.150085,up
86497,-9.628906,-3.769531,8.996094,-1.419922,0.976562,-0.107422,0.889038,-0.251831,0.351685,-0.150085,up
86502,-9.664063,-3.808594,8.765625,-1.076172,0.611328,0.230469,0.886719,-0.255737,0.35553,-0.147949,up
86507,-9.664063,-3.808594,8.765625,-1.076172,0.611328,0.230469,0.886719,-0.255737,0.35553,-0.147949,up
86512,-9.664063,-3.808594,8.765625,-0.736328,0.216797,0.775391,0.885498,-0.258057,0.358398,-0.144348,up
86517,-9.511719,-4.191406,8.230469,-0.675781,0.128906,0.933594,0.885498,-0.258057,0.358398,-0.144348,up
86522,-9.511719,-4.191406,8.230469,-0.619141,0.064453,1.076172,0.885071,-0.259216,0.360657,-0.13916,up
86529,-9.511719,-4.421875,7.808594,-0.619141,0.064453,1.076172,0.885071,-0.259216,0.360657,-0.13916,up
86535,-9.546875,-4.34375,7.730469,-0.488281,-0.023437,1.316406,0.885071,-0.259216,0.360657,-0.13916,up
86540,-9.589844,-4.34375,7.503906,-0.404297,-0.082031,1.394531,0.885071,-0.259216,0.360657,-0.13916,up
86545,-9.507813,-4.269531,7.425781,-0.351563,-0.113281,1.470703,0.886047,-0.257935,0.365295,-0.122131,up
86550,-9.585938,-4.382812,7.308594,-0.351563,-0.113281,1.470703,0.886047,-0.257935,0.365295,-0.122131,up
86555,-9.511719,-4.308594,7.347656,-0.351563,-0.113281,1.470703,0.886536,-0.257141,0.366028,-0.118347,up
86560,-9.585938,-4.152344,7.15625,-0.212891,-0.34375,1.740234,0.886536,-0.257141,0.366028,-0.118347,up
86565,-9.507813,-3.960938,7.15625,-0.212891,-0.34375,1.740234,0.887695,-0.255188,0.367126,-0.110046,up
86570,-9.585938,-3.960938,7.117187,-0.212891,-0.34375,1.740234,0.888367,-0.254089,0.367432,-0.105713,up
86575,-9.625,-4.039062,7.117187,-0.212891,-0.34375,1.740234,0.889221,-0.252808,0.367615,-0.101013,up
86580,-9.625,-4.039062,7.117187,-0.1875,-0.730469,2.087891,0.890137,-0.251526,0.367554,-0.096375,up
86585,-9.167969,-4.191406,6.773437,-0.1875,-0.730469,2.087891,0.891113,-0.250244,0.367371,-0.091492,up
86590,-9.058594,-4.421875,6.734375,-0.1875,-0.730469,2.087891,0.892151,-0.248779,0.367065,-0.085999,up
86595,-8.785156,-4.535156,6.8125,-0.1875,-0.730469,2.087891,0.893372,-0.247192,0.366638,-0.079895,up
86601,-8.519531,-5.226562,6.507812,-0.173828,-0.933594,2.492188,0.893372,-0.247192,0.366638,-0.079895,up
86607,-8.285156,-5.609375,6.429687,-0.173828,-0.933594,2.492188,0.896912,-0.241638,0.365356,-0.061218,up
86612,-8.25,-5.761719,6.507812,0.123047,-0.912109,2.84375,0.896912,-0.241638,0.365356,-0.061218,up
86618,-8.25,-5.761719,6.507812,0.285156,-0.880859,2.921875,0.899475,-0.235962,0.364624,-0.047607,up
86623,-8.210938,-5.570312,6.964844,0.285156,-0.880859,2.921875,0.899475,-0.235962,0.364624,-0.047607,up
86628,-8.363281,-5.417969,6.851562,0.667969,-0.875,3.025391,0.900879,-0.232483,0.36438,-0.040894,up
86633,-8.363281,-5.417969,6.851562,0.667969,-0.875,3.025391,0.900879,-0.232483,0.36438,-0.040894,up
86638,-8.4375,-4.652344,6.8125,0.941406,-0.898437,3.089844,0.905212,-0.21936,0.363342,-0.020813,up
86643,-8.59375,-4.34375,6.621094,0.941406,-0.898437,3.089844,0.905212,-0.21936,0.363342,-0.020813,up
86648,-8.703125,-4.117187,6.734375,0.96875,-0.84375,3.158203,0.905212,-0.21936,0.363342,-0.020813,up
86653,-8.742188,-3.847656,6.621094,0.943359,-0.835937,3.195313,0.905212,-0.21936,0.363342,-0.020813,up
86658,-8.785156,-3.730469,6.429687,0.849609,-0.824219,3.238281,0.905212,-0.21936,0.363342,-0.020813,up
86663,-8.898438,-3.503906,6.351562,0.849609,-0.824219,3.238281,0.905212,-0.21936,0.363342,-0.020813,up
86669,-8.902344,-3.539063,6.277344,0.849609,-0.824219,3.238281,0.912537,-0.189575,0.361755,0.020508,up
86675,-8.785156,-3.617188,6.660156,0.474609,-0.759766,3.412109,0.912537,-0.189575,0.361755,0.020508,up
86681,-8.902344,-3.464844,6.429687,0.369141,-0.724609,3.517578,0.912537,-0.189575,0.361755,0.020508,up
86686,-8.941406,-3.3125,6.507812,0.369141,-0.724609,3.517578,0.914917,-0.171875,0.361389,0.052917,up
86691,-8.78125,-3.273438,6.734375,0.369141,-0.724609,3.517578,0.915222,-0.16803,0.361267,0.059998,up
86696,-9.015625,-3.195313,6.660156,0.369141,-0.724609,3.517578,0.915222,-0.16803,0.361267,0.059998,up
86701,-9.015625,-3.195313,6.660156,0.470703,-0.806641,3.574219,0.915588,-0.163635,0.361023,0.067932,up
86706,-9.054688,-3.386719,6.851562,0.470703,-0.806641,3.574219,0.915894,-0.158936,0.360596,0.076172,up
86711,-9.019531,-3.003906,6.925781,0.605469,-0.939453,3.494141,0.91626,-0.154297,0.360046,0.083923,up
86716,-9.019531,-3.003906,6.925781,0.640625,-1.007813,3.458984,0.91626,-0.154297,0.360046,0.083923,up
86722,-8.980469,-2.699219,6.734375,0.648437,-1.142578,3.363281,0.916626,-0.149475,0.359253,0.091614,up
86727,-8.78125,-2.542969,6.507812,0.648437,-1.142578,3.363281,0.917664,-0.134827,0.355713,0.114563,up
86733,-8.554688,-2.351563,6.351562,0.648437,-1.142578,3.363281,0.917969,-0.130249,0.354309,0.121948,up
86739,-8.480469,-2.351563,6.351562,0.398438,-1.191406,3.28125,0.917969,-0.130249,0.354309,0.121948,up
86744,-8.25,-2.277344,6.390625,0.306641,-1.181641,3.28125,0.917969,-0.130249,0.354309,0.121948,up
86749,-8.097656,-2.085938,6.277344,0.238281,-1.160156,3.302734,0.917969,-0.130249,0.354309,0.121948,up
86755,-7.976562,-1.96875,6.160156,0.169922,-1.126953,3.328125,0.917969,-0.130249,0.354309,0.121948,up
86760,-7.976562,-1.96875,6.160156,0.113281,-1.074219,3.359375,0.917725,-0.109985,0.346436,0.160278,up
86765,-7.902344,-1.933594,6.160156,0.076172,-1.011719,3.398438,0.917725,-0.109985,0.346436,0.160278,up
86770,-7.902344,-1.933594,6.160156,0.066406,-0.943359,3.447266,0.916687,-0.102783,0.343689,0.175964,up
86775,-7.898437,-1.777344,6.199219,0.066406,-0.943359,3.447266,0.916687,-0.102783,0.343689,0.175964,up
86780,-7.898437,-1.777344,6.199219,0.089844,-0.875,3.490234,0.915039,-0.095398,0.341492,0.192322,up
86786,-8.054688,-1.472656,6.199219,0.255859,-0.765625,3.544922,0.912964,-0.08728,0.339844,0.208374,up
86792,-8.210938,-0.820312,6.582031,0.396484,-0.679687,3.486328,0.911682,-0.082703,0.339172,0.216675,up
86797,-8.28125,-0.246094,6.734375,0.396484,-0.679687,3.486328,0.910522,-0.078552,0.338562,0.223938,up
86802,-8.398438,0.023437,6.734375,0.396484,-0.679687,3.486328,0.90918,-0.074097,0.337952,0.231689,up
86808,-8.402344,0.441406,6.699219,0.396484,-0.679687,3.486328,0.907959,-0.070007,0.337341,0.238708,up
86813,-8.402344,0.441406,6.773437,0.322266,-0.660156,3.302734,0.907959,-0.070007,0.337341,0.238708,up
86818,-8.402344,0.441406,6.773437,0.251953,-0.652344,3.269531,0.90509,-0.06189,0.335815,0.253357,up
86823,-8.402344,0.480469,6.773437,0.251953,-0.652344,3.269531,0.90509,-0.06189,0.335815,0.253357,up
86828,-8.402344,0.480469,6.773437,0.058594,-0.630859,3.21875,0.903625,-0.058228,0.334961,0.260559,up
86833,-8.285156,0.519531,7.082031,0.058594,-0.630859,3.21875,0.903625,-0.058228,0.334961,0.260559,up
86838,-8.058594,0.75,7.347656,-0.097656,-0.664062,3.244141,0.898621,-0.048462,0.331909,0.282776,up
86843,-8.210938,0.75,7.464844,-0.097656,-0.664062,3.244141,0.898621,-0.048462,0.331909,0.282776,up
86849,-8.175781,0.789062,7.464844,-0.195312,-0.744141,3.308594,0.898621,-0.048462,0.331909,0.282776,up
86854,-8.097656,0.863281,7.65625,-0.207031,-0.802734,3.330078,0.898621,-0.048462,0.331909,0.282776,up
86859,-7.675781,1.054688,7.695312,-0.207031,-0.802734,3.330078,0.891296,-0.03656,0.32605,0.313049,up
86864,-7.871094,0.941406,7.539062,-0.173828,-0.949219,3.412109,0.891296,-0.03656,0.32605,0.313049,up
86869,-7.941406,0.863281,7.386719,-0.197266,-1.005859,3.472656,0.891296,-0.03656,0.32605,0.313049,up
86874,-7.789062,0.710937,7.308594,-0.246094,-1.089844,3.484375,0.891296,-0.03656,0.32605,0.313049,up
86879,-7.710937,0.710937,7.15625,-0.246094,-1.089844,3.484375,0.891296,-0.03656,0.32605,0.313049,up
86884,-7.792969,0.632812,7.042969,-0.246094,-1.089844,3.484375,0.881042,-0.020386,0.314819,0.352478,up
86889,-7.75,0.558594,6.890625,-0.25,-1.185547,3.494141,0.881042,-0.020386,0.314819,0.352478,up
86894,-7.675781,0.597656,6.8125,-0.25,-1.185547,3.494141,0.876404,-0.013367,0.309204,0.369019,up
86899,-7.636719,0.710937,6.8125,-0.25,-1.185547,3.494141,0.876404,-0.013367,0.309204,0.369019,up
86904,-7.632812,0.789062,6.734375,-0.207031,-1.210938,3.5,0.871826,-0.006775,0.303772,0.384216,up
86909,-7.632812,0.789062,6.734375,-0.28125,-1.251953,3.513672,0.869385,-0.003418,0.300903,0.391968,up
86914,-7.40625,0.980469,6.660156,-0.28125,-1.251953,3.513672,0.869385,-0.003418,0.300903,0.391968,up
86920,-7.40625,0.980469,6.660156,-0.324219,-1.265625,3.535156,0.864197,0.003052,0.294739,0.407837,up
86925,-6.984375,1.054688,6.660156,-0.324219,-1.265625,3.535156,0.864197,0.003052,0.294739,0.407837,up
86931,-6.753906,1.210938,6.660156,-0.435547,-1.265625,3.564453,0.864197,0.003052,0.294739,0.407837,up
86936,-6.75,1.324219,6.660156,-0.509766,-1.259766,3.617188,0.855774,0.012146,0.285095,0.431519,up
86941,-6.710937,1.285156,6.699219,-0.509766,-1.259766,3.617188,0.849609,0.018005,0.278259,0.447693,up
86946,-6.679687,1.324219,6.8125,-0.509766,-1.259766,3.617188,0.849609,0.018005,0.278259,0.447693,up
86951,-6.5625,1.363281,6.894531,-0.509766,-1.259766,3.617188,0.842834,0.023804,0.27063,0.464539,up
86956,-6.523437,1.285156,6.960937,-0.509766,-1.259766,3.617188,0.842834,0.023804,0.27063,0.464539,up
86961,-6.523437,1.285156,6.960937,-0.716797,-1.373047,3.820313,0.839539,0.026428,0.266907,0.472473,up
86966,-6.488281,1.210938,7.042969,-0.728516,-1.414063,3.871094,0.839539,0.026428,0.266907,0.472473,up
86971,-6.488281,1.210938,7.042969,-0.720703,-1.453125,3.916016,0.832275,0.031982,0.258789,0.489197,up
86976,-5.949219,1.171875,7.042969,-0.720703,-1.453125,3.916016,0.832275,0.031982,0.258789,0.489197,up
86981,-5.757812,1.054688,7.078125,-0.693359,-1.472656,3.951172,0.824402,0.037903,0.250183,0.506226,up
86987,-5.527344,1.210938,7.121094,-0.693359,-1.472656,3.951172,0.815674,0.044922,0.241028,0.523987,up
86992,-5.492187,1.210938,6.964844,-0.470703,-1.597656,3.980469,0.81134,0.048584,0.236572,0.532349,up
86998,-5.335937,1.324219,6.855469,-0.470703,-1.597656,3.980469,0.807739,0.051758,0.23291,0.539124,up
87004,-5.261719,1.4375,6.855469,-0.470703,-1.597656,3.980469,0.803284,0.055603,0.228333,0.547302,up
87009,-5.222656,1.628906,6.816406,-0.417969,-1.689453,3.925781,0.803284,0.055603,0.228333,0.547302,up
87014,-5.222656,1.628906,6.773437,-0.427734,-1.716797,3.921875,0.803284,0.055603,0.228333,0.547302,up
87019,-5.222656,1.628906,6.773437,-0.455078,-1.75,3.929688,0.789917,0.0672,0.214478,0.570557,up
87024,-5.222656,1.554688,6.582031,-0.455078,-1.75,3.929688,0.789917,0.0672,0.214478,0.570557,up
87029,-5.183594,1.476563,6.582031,-0.539062,-1.808594,4.021484,0.789917,0.0672,0.214478,0.570557,up
87034,-5.183594,1.476563,6.582031,-0.539062,-1.808594,4.021484,0.789917,0.0672,0.214478,0.570557,up
87039,-4.914062,0.828125,6.695312,-0.582031,-1.837891,4.109375,0.789917,0.0672,0.214478,0.570557,up
87045,-4.761719,0.328125,6.816406,-0.578125,-1.871094,4.205078,0.764893,0.086426,0.188721,0.609802,up
87051,-4.339844,-0.707031,6.816406,-0.578125,-1.871094,4.205078,0.764893,0.086426,0.188721,0.609802,up
87056,-3.957031,-1.28125,6.964844,-0.207031,-1.828125,4.396484,0.764893,0.086426,0.188721,0.609802,up
87061,-3.957031,-1.28125,6.964844,-0.207031,-1.828125,4.396484,0.764893,0.086426,0.188721,0.609802,up
87066,-3.652344,-1.050781,7.195312,0.078125,-1.804688,4.341797,0.764893,0.086426,0.188721,0.609802,up
87071,-3.652344,-1.050781,7.195312,0.734375,-1.796875,4.119141,0.735107,0.110901,0.166138,0.647888,up
87076,-3.5,-0.398438,7.421875,0.734375,-1.796875,4.119141,0.729126,0.117188,0.163086,0.654236,up
87081,-3.765625,1.132813,7.304687,0.734375,-1.796875,4.119141,0.723206,0.123779,0.1604,0.660217,up
87086,-4.035156,2.703125,7.386719,0.734375,-1.796875,4.119141,0.711792,0.13855,0.154907,0.670959,up
87091,-3.957031,3.355469,7.382812,0.734375,-1.796875,4.119141,0.711792,0.13855,0.154907,0.670959,up
87096,-3.726563,3.007813,7.421875,0.734375,-1.796875,4.119141,0.706177,0.146667,0.15155,0.675903,up
87101,-3.726563,3.007813,7.421875,1.142578,-2.623047,3.332031,0.701233,0.154175,0.148071,0.680176,up
87106,-3.535156,2.472656,7.382812,0.931641,-2.722656,3.28125,0.701233,0.154175,0.148071,0.680176,up
87111,-2.886719,1.785156,7.421875,0.728516,-2.804688,3.292969,0.701233,0.154175,0.148071,0.680176,up
87116,-2.886719,1.785156,7.421875,0.582031,-2.951172,3.302734,0.701233,0.154175,0.148071,0.680176,up
87122,-2.65625,0.980469,7.464844,0.265625,-3.101563,3.384766,0.686218,0.176575,0.13385,0.69281,up
87127,-1.738281,-0.476562,7.847656,0.265625,-3.101563,3.384766,0.676025,0.190979,0.121948,0.701172,up
87133,-1.007813,-0.972656,7.964844,0.265625,-3.101563,3.384766,0.665588,0.204956,0.108521,0.709351,up
87138,-1.007813,-0.972656,7.964844,0.25,-3.121094,3.470703,0.660278,0.211792,0.101929,0.713318,up
87143,-1.007813,-0.972656,7.964844,0.496094,-3.091797,3.486328,0.65448,0.219116,0.095459,0.717285,up
87148,-0.128906,-1.546875,8.042969,0.496094,-3.091797,3.486328,0.65448,0.219116,0.095459,0.717285,up
87153,0.179687,-1.546875,8.082031,0.964844,-3.160156,3.484375,0.642395,0.235168,0.085022,0.724426,up
87158,0.179687,-1.546875,8.082031,0.964844,-3.160156,3.484375,0.642395,0.235168,0.085022,0.724426,up
87164,0.5625,-1.433594,8.148438,2.146484,-3.257813,3.394531,0.628601,0.255432,0.078247,0.730408,up
87169,1.023438,-0.246094,8.386719,2.146484,-3.257813,3.394531,0.621216,0.26709,0.076538,0.732727,up
87175,1.097656,-0.132812,8.769531,4.15625,-3.738281,3.275391,0.621216,0.26709,0.076538,0.732727,up
87180,1.328125,-0.132812,8.914063,4.738281,-3.992188,3.228516,0.621216,0.26709,0.076538,0.732727,up
87186,1.441406,-0.285156,8.113281,4.738281,-3.992188,3.228516,0.621216,0.26709,0.076538,0.732727,up
87191,1.367188,-0.054687,7.464844,5.699219,-3.955078,3.275391,0.621216,0.26709,0.076538,0.732727,up
87196,1.367188,0.289063,6.65625,5.699219,-3.955078,3.275391,0.576599,0.342712,0.079468,0.737366,up
87201,1.367188,0.289063,6.65625,5.699219,-3.955078,3.275391,0.565918,0.359314,0.081604,0.737549,up
87206,1.519531,0.941406,5.125,5.699219,-3.955078,3.275391,0.565918,0.359314,0.081604,0.737549,up
87211,1.632813,1.09375,4.4375,5.722656,-3.841797,3.726563,0.565918,0.359314,0.081604,0.737549,up
87216,1.632813,1.09375,4.4375,5.554687,-3.742188,3.912109,0.565918,0.359314,0.081604,0.737549,up
87222,4.085937,4.15625,1.792969,5.554687,-3.742188,3.912109,0.531616,0.406555,0.087036,0.737915,up
87227,4.507812,4.882812,1.757813,4.494141,-3.119141,4.419922,0.507324,0.43457,0.088684,0.738831,up
87232,4.777344,4.84375,2.214844,4.494141,-3.119141,4.419922,0.481201,0.460388,0.087891,0.740784,up
87237,5.351562,4.121094,3.019531,4.494141,-3.119141,4.419922,0.481201,0.460388,0.087891,0.740784,up
87242,5.351562,4.121094,3.019531,3.982422,-2.716797,4.501953,0.469788,0.47052,0.086975,0.741821,up
87247,5.5,4.042969,3.554688,3.982422,-2.716797,4.501953,0.457092,0.481079,0.085815,0.743164,up
87252,5.5,4.042969,3.554688,3.513672,-1.78125,4.197266,0.444946,0.490295,0.084717,0.744629,up
87257,5.5,4.042969,3.554688,3.513672,-1.78125,4.197266,0.432678,0.498901,0.083923,0.746216,up
87262,5.886719,3.429688,3.941406,3.142578,-1.742188,3.865234,0.432678,0.498901,0.083923,0.746216,up
87267,5.886719,3.429688,3.941406,3.142578,-1.742188,3.865234,0.399231,0.521484,0.081604,0.749695,up
87272,6.1875,2.550781,3.441406,2.726563,-2.367188,3.398438,0.399231,0.521484,0.081604,0.749695,up
87277,6.265625,2.28125,3.25,2.726563,-2.367188,3.398438,0.388611,0.529663,0.080078,0.749695,up
87283,6.265625,2.28125,3.25,2.484375,-2.691406,3.111328,0.372131,0.544922,0.076172,0.747498,up
87288,6.460937,2.242188,3.171875,2.484375,-2.691406,3.111328,0.372131,0.544922,0.076172,0.747498,up
87293,7.035156,2.816406,2.828125,2.169922,-3.326172,2.59375,0.36438,0.553589,0.07373,0.745178,up
87298,7.035156,2.816406,2.828125,1.865234,-3.617188,1.945313,0.36438,0.553589,0.07373,0.745178,up
87303,7.035156,2.816406,2.828125,1.865234,-3.617188,1.945313,0.346191,0.579224,0.066406,0.735046,up
87309,9.949219,2.816406,5.777344,1.865234,-3.617188,1.945313,0.346191,0.579224,0.066406,0.735046,up
87314,9.40625,2.742188,4.246094,1.662109,-1.212891,1.169922,0.346191,0.579224,0.066406,0.735046,up
87320,9.257813,2.664063,3.171875,1.429688,-0.769531,1.097656,0.346191,0.579224,0.066406,0.735046,up
87325,9.140625,2.855469,2.714844,1.115234,-0.5625,1.060547,0.346191,0.579224,0.066406,0.735046,up
87331,8.914063,3.355469,2.828125,1.115234,-0.5625,1.060547,0.325562,0.597961,0.065613,0.729492,up
87336,8.914063,3.429688,2.90625,0.458984,-0.517578,0.990234,0.325562,0.597961,0.065613,0.729492,up
87342,8.988281,3.355469,2.90625,0.142578,-0.626953,0.884766,0.319336,0.602173,0.061768,0.729126,up
87348,8.414063,3.046875,2.867188,0.142578,-0.626953,0.884766,0.318726,0.602905,0.059814,0.728943,up
87353,8.414063,3.164063,2.945313,-0.783203,-0.636719,0.578125,0.318726,0.602905,0.059814,0.728943,up
87358,8.414063,3.164063,2.945313,-0.851562,-0.65625,0.488281,0.31897,0.604126,0.054443,0.72821,up
87363,8.414063,3.164063,3.554688,-0.851562,-0.65625,0.488281,0.31897,0.604126,0.054443,0.72821,up
87368,8.414063,3.164063,3.554688,-0.791016,-0.662109,0.410156,0.319458,0.604736,0.051819,0.727722,up
87373,8.457031,3.085938,3.710938,-0.632812,-0.617187,0.302734,0.319458,0.604736,0.051819,0.727722,up
87378,8.457031,3.085938,3.710938,-0.253906,-0.623047,0.115234,0.320679,0.606934,0.046387,0.725708,up
87384,8.757813,3.203125,2.714844,-0.253906,-0.623047,0.115234,0.320862,0.60791,0.045471,0.724854,up
87390,8.957031,3.238281,2.675781,-0.058594,-0.591797,-0.033203,0.320862,0.60791,0.045471,0.724854,up
87395,9.023438,3.277344,2.675781,-0.117188,-0.580078,-0.083984,0.320862,0.60791,0.045471,0.724854,up
87401,9.023438,3.277344,2.558594,-0.232422,-0.566406,-0.111328,0.321777,0.610718,0.043884,0.722168,up
87406,9.0625,3.316406,2.523438,-0.34375,-0.580078,-0.125,0.321777,0.610718,0.043884,0.722168,up
87411,9.144531,3.277344,2.597656,-0.490234,-0.591797,-0.130859,0.321777,0.610718,0.043884,0.722168,up
87416,8.957031,3.277344,2.675781,-0.621094,-0.597656,-0.138672,0.321777,0.610718,0.043884,0.722168,up
87421,8.917969,3.355469,2.636719,-0.6875,-0.59375,-0.169922,0.321777,0.610718,0.043884,0.722168,up
87426,8.875,3.46875,2.597656,-0.714844,-0.580078,-0.214844,0.321777,0.610718,0.043884,0.722168,up
87431,8.839844,3.585938,2.558594,-0.714844,-0.580078,-0.248047,0.321777,0.610718,0.043884,0.722168,up
87436,8.878906,3.660156,2.484375,-0.669922,-0.560547,-0.298828,0.321777,0.610718,0.043884,0.722168,up
87442,8.917969,3.8125,2.484375,-0.669922,-0.560547,-0.298828,0.333191,0.615417,0.034058,0.713501,up
87447,8.917969,3.96875,2.523438,-0.669922,-0.560547,-0.298828,0.333191,0.615417,0.034058,0.713501,up
87452,8.917969,4.195312,2.484375,-0.263672,-0.505859,-0.441406,0.335571,0.616699,0.033752,0.711243,up
87457,8.988281,4.617187,2.367188,-0.263672,-0.505859,-0.441406,0.336548,0.617432,0.034119,0.710144,up
87462,8.957031,4.808594,2.253906,-0.263672,-0.505859,-0.441406,0.336548,0.617432,0.034119,0.710144,up
87467,8.878906,5.0,2.253906,0.074219,-0.386719,-0.556641,0.338257,0.618774,0.035583,0.70813,up
87473,8.917969,5.078125,2.253906,0.074219,-0.386719,-0.556641,0.339111,0.619385,0.03656,0.707153,up
87478,8.914063,5.078125,2.175781,0.078125,-0.222656,-0.623047,0.340027,0.619812,0.037537,0.706299,up
87483,8.953125,5.117187,2.140625,0.029297,-0.154297,-0.640625,0.341064,0.620117,0.038574,0.705444,up
87488,8.839844,5.386719,1.984375,0.029297,-0.154297,-0.640625,0.342163,0.620239,0.039612,0.704773,up
87493,8.757813,5.5,1.984375,0.029297,-0.154297,-0.640625,0.343262,0.620117,0.040466,0.704224,up
87498,8.644531,5.578125,2.023438,-0.210937,0.074219,-0.644531,0.344727,0.619812,0.041321,0.703796,up
87503,8.644531,5.578125,2.023438,-0.259766,0.089844,-0.632812,0.346008,0.619385,0.042053,0.703491,up
87508,8.335938,5.84375,2.023438,-0.259766,0.089844,-0.632812,0.347595,0.618896,0.042725,0.703064,up
87513,8.21875,5.960937,2.023438,-0.259766,0.089844,-0.632812,0.348877,0.61853,0.043274,0.702759,up
87518,8.148438,6.074219,2.101563,-0.287109,-0.019531,-0.603516,0.350342,0.618164,0.043823,0.702271,up
87523,8.183594,6.265625,2.292969,-0.287109,-0.019531,-0.603516,0.351929,0.617859,0.044373,0.701721,up
87528,8.261719,6.34375,2.292969,-0.287109,-0.019531,-0.603516,0.353027,0.617737,0.044861,0.701233,up
87533,8.179688,6.378906,2.253906,-0.287109,-0.019531,-0.603516,0.354187,0.617737,0.045532,0.700623,up
87539,8.152344,6.34375,2.253906,-0.287109,-0.019531,-0.603516,0.355164,0.617798,0.046265,0.700012,up
87544,8.222656,6.34375,2.214844,0.078125,-0.183594,-0.507812,0.355164,0.617798,0.046265,0.700012,up
87550,8.339844,6.378906,2.292969,0.078125,-0.183594,-0.507812,0.356628,0.618408,0.047974,0.698669,up
87555,8.375,6.457031,2.40625,0.105469,-0.214844,-0.445312,0.356628,0.618408,0.047974,0.698669,up
87561,8.496094,6.457031,2.445313,0.0625,-0.212891,-0.402344,0.356628,0.618408,0.047974,0.698669,up
87566,8.492188,6.457031,2.40625,0.0625,-0.212891,-0.402344,0.356628,0.618408,0.047974,0.698669,up
87572,8.457031,6.34375,2.445313,-0.107422,-0.177734,-0.341797,0.356628,0.618408,0.047974,0.698669,up
87577,8.492188,6.34375,2.367188,-0.246094,-0.148437,-0.300781,0.356628,0.618408,0.047974,0.698669,up
87583,8.5625,6.226562,2.40625,-0.246094,-0.148437,-0.300781,0.361389,0.61969,0.050659,0.694824,up
87588,8.5625,6.1875,2.367188,-0.349609,-0.083984,-0.289063,0.361389,0.61969,0.050659,0.694824,up
87593,8.566406,6.152344,2.445313,-0.349609,-0.083984,-0.289063,0.363403,0.619202,0.050354,0.694214,up
87598,8.605469,5.996094,2.445313,-0.349609,-0.083984,-0.289063,0.364258,0.618896,0.050171,0.694031,up
87603,8.679688,5.882812,2.445313,-0.349609,-0.083984,-0.289063,0.365234,0.61853,0.050049,0.693909,up
87608,8.5625,5.84375,2.484375,-0.326172,0.0625,-0.267578,0.365234,0.61853,0.050049,0.693909,up
87613,8.535156,5.730469,2.484375,-0.326172,0.0625,-0.267578,0.367065,0.617615,0.050049,0.693787,up
87618,8.453125,5.578125,2.40625,-0.326172,0.0625,-0.267578,0.367737,0.617187,0.050232,0.693787,up
87623,8.453125,5.5,2.40625,-0.326172,0.0625,-0.267578,0.368408,0.61676,0.050537,0.693787,up
87628,8.414063,5.5,2.484375,-0.134766,0.128906,-0.271484,0.36908,0.616333,0.050903,0.693787,up
87633,8.300781,5.5,2.40625,-0.134766,0.128906,-0.271484,0.369629,0.615906,0.051331,0.693848,up
87638,8.257813,5.5,2.40625,-0.134766,0.128906,-0.271484,0.370117,0.61554,0.051819,0.693909,up
