timestamp,ax,ay,az,gx,gy,gz,qw,qx,qy,qz,label
140345,-4.609375,5.117187,6.394531,0.845703,-0.162109,0.455078,0.903442,0.335083,0.267151,0.010315,up
140350,-4.570312,5.191406,6.351562,0.845703,-0.169922,0.443359,0.903442,0.335083,0.267151,0.010315,up
140355,-4.496094,5.191406,6.351562,0.814453,-0.169922,0.425781,0.903442,0.335083,0.267151,0.010315,up
140360,-4.496094,5.269531,6.273437,0.759766,-0.169922,0.410156,0.903442,0.335083,0.267151,0.010315,up
140366,-4.457031,5.347656,6.195312,0.759766,-0.169922,0.410156,0.903442,0.335083,0.267151,0.010315,up
140371,-4.496094,5.386719,6.195312,0.675781,-0.150391,0.382813,0.903442,0.335083,0.267151,0.010315,up
140377,-4.457031,5.460937,6.199219,0.638672,-0.160156,0.341797,0.903442,0.335083,0.267151,0.010315,up
140382,-4.378906,5.386719,6.121094,0.638672,-0.160156,0.341797,0.897278,0.356812,0.259583,0.013794,up
140387,-4.417969,5.5,6.046875,0.611328,-0.136719,0.292969,0.897278,0.356812,0.259583,0.013794,up
140392,-4.417969,5.578125,5.972656,0.580078,-0.136719,0.269531,0.896729,0.358582,0.258972,0.013977,up
140397,-4.417969,5.578125,5.972656,0.556641,-0.138672,0.240234,0.895874,0.361389,0.257996,0.01416,up
140402,-4.417969,5.730469,5.96875,0.556641,-0.138672,0.240234,0.895874,0.361389,0.257996,0.01416,up
140407,-4.417969,5.804687,5.933594,0.521484,-0.123047,0.177734,0.895447,0.362915,0.257507,0.014221,up
140412,-4.378906,5.882812,5.929687,0.521484,-0.123047,0.177734,0.89502,0.364258,0.25708,0.01416,up
140418,-4.339844,5.921875,5.96875,0.521484,-0.123047,0.177734,0.894287,0.366577,0.256287,0.014038,up
140423,-4.417969,5.992187,5.96875,0.375,-0.134766,0.130859,0.893921,0.367676,0.255859,0.013977,up
140428,-4.457031,6.03125,5.894531,0.318359,-0.125,0.119141,0.893677,0.36853,0.255493,0.013916,up
140434,-4.457031,6.035156,5.816406,0.318359,-0.125,0.119141,0.893494,0.369202,0.255188,0.013855,up
140439,-4.457031,6.148437,5.738281,0.318359,-0.125,0.119141,0.893372,0.369873,0.254822,0.013794,up
140444,-4.457031,6.148437,5.777344,0.212891,-0.152344,0.089844,0.893372,0.369873,0.254822,0.013794,up
140450,-4.457031,6.191406,5.777344,0.191406,-0.169922,0.068359,0.893372,0.369873,0.254822,0.013794,up
140455,-4.417969,6.191406,5.777344,0.164062,-0.201172,0.060547,0.893372,0.369873,0.254822,0.013794,up
140461,-4.378906,6.109375,5.777344,0.128906,-0.212891,0.044922,0.893372,0.369873,0.254822,0.013794,up
140466,-4.378906,6.109375,5.664062,0.097656,-0.220703,0.033203,0.893372,0.369873,0.254822,0.013794,up
140471,-4.339844,6.148437,5.625,0.078125,-0.234375,0.021484,0.893372,0.369873,0.254822,0.013794,up
140477,-4.339844,6.230469,5.625,0.078125,-0.234375,0.021484,0.893311,0.372681,0.250977,0.012451,up
140482,-4.304687,6.226562,5.585937,0.078125,-0.234375,0.021484,0.893311,0.372681,0.250977,0.012451,up
140487,-4.304687,6.269531,5.585937,0.089844,-0.259766,-0.035156,0.893311,0.372681,0.250977,0.012451,up
140492,-4.304687,6.375,5.546875,0.099609,-0.251953,-0.041016,0.893433,0.373108,0.249878,0.01178,up
140498,-4.304687,6.375,5.546875,0.099609,-0.251953,-0.041016,0.893555,0.373474,0.24884,0.010986,up
140503,-4.304687,6.417969,5.585937,0.095703,-0.244141,-0.066406,0.893616,0.373657,0.248291,0.010498,up
140509,-4.265625,6.417969,5.433594,0.095703,-0.244141,-0.066406,0.893677,0.37384,0.247925,0.010132,up
140514,-4.265625,6.417969,5.433594,0.072266,-0.207031,-0.080078,0.893738,0.373962,0.247498,0.009644,up
140520,-4.148437,6.417969,5.394531,0.072266,-0.207031,-0.080078,0.893738,0.373962,0.247498,0.009644,up
140525,-4.1875,6.414062,5.394531,0.03125,-0.167969,-0.080078,0.893738,0.373962,0.247498,0.009644,up
140531,-4.148437,6.417969,5.394531,0.025391,-0.134766,-0.082031,0.893738,0.373962,0.247498,0.009644,up
140536,-4.148437,6.453125,5.320312,0.03125,-0.109375,-0.085937,0.893738,0.373962,0.247498,0.009644,up
140542,-4.113281,6.574219,5.28125,0.044922,-0.066406,-0.103516,0.893738,0.373962,0.247498,0.009644,up
140547,-4.113281,6.570312,5.355469,0.044922,-0.066406,-0.103516,0.893921,0.374329,0.246399,0.007263,up
140552,-4.035156,6.570312,5.355469,0.044922,-0.066406,-0.103516,0.893921,0.374329,0.246399,0.007263,up
140557,-4.035156,6.570312,5.355469,0.070312,-0.009766,-0.132812,0.893921,0.374329,0.246399,0.007263,up
140562,-4.074219,6.570312,5.28125,0.066406,0.019531,-0.134766,0.893921,0.374329,0.246399,0.007263,up
140567,-4.113281,6.609375,5.242187,0.066406,0.019531,-0.134766,0.893738,0.374573,0.246826,0.006226,up
140572,-4.148437,6.652344,5.242187,0.070312,0.072266,-0.121094,0.893738,0.374573,0.246826,0.006226,up
140577,-4.265625,6.726562,5.203125,0.070312,0.072266,-0.121094,0.893494,0.374756,0.247375,0.005676,up
140582,-4.265625,6.726562,5.203125,0.070312,0.105469,-0.117188,0.893372,0.374878,0.247681,0.005371,up
140587,-4.378906,6.800781,5.203125,0.070312,0.105469,-0.117188,0.89325,0.374939,0.247986,0.005188,up
140592,-4.457031,6.835937,5.203125,0.042969,0.142578,-0.121094,0.89325,0.374939,0.247986,0.005188,up
140597,-4.496094,6.992187,5.203125,0.042969,0.142578,-0.121094,0.892944,0.375061,0.248779,0.004761,up
140602,-4.570312,6.992187,5.203125,0.042969,0.142578,-0.121094,0.892822,0.375122,0.249268,0.004578,up
140608,-4.609375,7.035156,5.203125,0.023437,0.173828,-0.119141,0.892822,0.375122,0.249268,0.004578,up
140613,-4.6875,7.074219,5.242187,0.023437,0.173828,-0.119141,0.892395,0.375061,0.250793,0.004211,up
140619,-4.761719,7.183594,5.203125,0.023437,0.173828,-0.119141,0.892334,0.375061,0.251221,0.004089,up
140624,-4.839844,7.148437,5.242187,0.023437,0.173828,-0.119141,0.892212,0.374939,0.251709,0.004028,up
140629,-4.839844,7.148437,5.242187,-0.056641,0.158203,-0.085937,0.892212,0.374939,0.251709,0.004028,up
140634,-4.839844,7.109375,5.203125,-0.056641,0.158203,-0.085937,0.89209,0.374634,0.252563,0.003967,up
140639,-4.839844,7.074219,5.28125,-0.056641,0.158203,-0.085937,0.89209,0.37439,0.252991,0.003967,up
140645,-4.839844,6.996094,5.320312,-0.085937,0.121094,-0.054687,0.89209,0.37439,0.252991,0.003967,up
140650,-4.839844,6.957031,5.320312,-0.099609,0.119141,-0.044922,0.89209,0.37439,0.252991,0.003967,up
140655,-4.953125,6.796875,5.242187,-0.099609,0.119141,-0.044922,0.89209,0.373718,0.253967,0.004089,up
140660,-4.953125,6.796875,5.242187,-0.125,0.099609,-0.023437,0.89209,0.373718,0.253967,0.004089,up
140666,-4.992187,6.769531,5.28125,-0.126953,0.097656,-0.011719,0.89209,0.373718,0.253967,0.004089,up
140672,-5.03125,6.796875,5.242187,-0.105469,0.085937,-0.009766,0.89209,0.373718,0.253967,0.004089,up
140677,-5.03125,6.796875,5.28125,-0.041016,0.080078,-0.019531,0.89209,0.373718,0.253967,0.004089,up
140683,-5.03125,6.765625,5.320312,-0.041016,0.080078,-0.019531,0.892212,0.37262,0.255066,0.004578,up
140688,-5.109375,6.875,5.320312,-0.005859,0.0625,-0.023437,0.892212,0.37262,0.255066,0.004578,up
140693,-5.144531,6.875,5.355469,-0.005859,0.0625,-0.023437,0.89209,0.37262,0.255615,0.004578,up
140698,-5.109375,6.878906,5.28125,-0.005859,0.0625,-0.023437,0.89209,0.37262,0.255615,0.004578,up
140703,-5.109375,6.878906,5.28125,0.015625,0.0625,-0.027344,0.891968,0.372681,0.255981,0.004517,up
140709,-5.109375,6.839844,5.242187,0.015625,0.0625,-0.027344,0.891907,0.372681,0.256104,0.004517,up
140714,-5.070312,6.800781,5.28125,-0.039063,0.072266,-0.005859,0.891846,0.37262,0.256287,0.004578,up
140719,-5.070312,6.765625,5.242187,-0.068359,0.082031,0.011719,0.891846,0.37262,0.256287,0.004578,up
140724,-5.03125,6.726562,5.242187,-0.091797,0.09375,0.013672,0.891846,0.37262,0.256287,0.004578,up
140729,-4.953125,6.652344,5.28125,-0.091797,0.09375,0.013672,0.891907,0.372192,0.256897,0.005005,up
140735,-4.992187,6.570312,5.28125,-0.111328,0.109375,0.029297,0.891907,0.371948,0.25708,0.005188,up
140741,-4.992187,6.570312,5.28125,-0.115234,0.121094,0.03125,0.891907,0.371948,0.25708,0.005188,up
140747,-5.03125,6.570312,5.242187,-0.115234,0.121094,0.03125,0.891907,0.371948,0.25708,0.005188,up
140752,-5.03125,6.570312,5.242187,-0.097656,0.142578,0.041016,0.891907,0.371948,0.25708,0.005188,up
140757,-4.992187,6.613281,5.28125,-0.035156,0.115234,0.050781,0.891907,0.371948,0.25708,0.005188,up
140762,-5.03125,6.648437,5.320312,-0.035156,0.115234,0.050781,0.891907,0.371155,0.258423,0.006409,up
140767,-5.03125,6.609375,5.355469,-0.035156,0.115234,0.050781,0.891846,0.371094,0.258606,0.006653,up
140772,-5.070312,6.648437,5.28125,0.048828,0.09375,0.039063,0.891846,0.371094,0.258606,0.006653,up
140777,-5.03125,6.726562,5.242187,0.048828,0.09375,0.039063,0.891602,0.371277,0.259033,0.006958,up
140783,-4.992187,6.769531,5.242187,0.048828,0.09375,0.039063,0.891357,0.371704,0.259399,0.00708,up
140788,-4.953125,6.796875,5.203125,0.048828,0.09375,0.039063,0.891357,0.371704,0.259399,0.00708,up
140793,-4.992187,6.796875,5.164062,0.121094,0.056641,0.033203,0.891357,0.371704,0.259399,0.00708,up
140798,-4.953125,6.878906,5.164062,0.132812,0.042969,0.029297,0.891357,0.371704,0.259399,0.00708,up
140803,-4.914062,6.875,5.128906,0.136719,0.019531,0.039063,0.890869,0.37262,0.259644,0.007141,up
140809,-4.878906,6.878906,5.128906,0.136719,0.019531,0.039063,0.890564,0.373352,0.259644,0.007141,up
140814,-4.800781,6.875,5.128906,0.136719,0.019531,0.039063,0.890442,0.373657,0.259644,0.00708,up
140820,-4.800781,6.875,5.089844,0.136719,0.019531,0.039063,0.89032,0.374023,0.259644,0.00708,up
140825,-4.800781,6.835937,5.011719,0.146484,0.025391,0.050781,0.89032,0.374023,0.259644,0.00708,up
140830,-4.800781,6.914062,5.011719,0.160156,0.03125,0.058594,0.889954,0.374817,0.259644,0.007141,up
140835,-4.800781,6.996094,4.933594,0.160156,0.03125,0.058594,0.889832,0.375183,0.259644,0.007141,up
140841,-4.839844,7.074219,4.933594,0.169922,0.037109,0.070312,0.889832,0.375183,0.259644,0.007141,up
140847,-4.878906,7.148437,4.933594,0.179687,0.041016,0.082031,0.889832,0.375183,0.259644,0.007141,up
140852,-4.953125,7.296875,4.898437,0.185547,0.039063,0.099609,0.889832,0.375183,0.259644,0.007141,up
140857,-4.992187,7.417969,4.898437,0.201172,0.041016,0.125,0.889832,0.375183,0.259644,0.007141,up
140863,-5.070312,7.5625,4.898437,0.230469,0.037109,0.175781,0.888489,0.378418,0.259583,0.008057,up
140869,-5.109375,7.796875,4.898437,0.230469,0.037109,0.175781,0.888184,0.379089,0.25946,0.008484,up
140874,-5.144531,7.917969,4.78125,0.230469,0.037109,0.175781,0.887939,0.379761,0.259277,0.009155,up
140879,-5.222656,8.101563,4.707031,0.136719,0.103516,0.505859,0.887695,0.380493,0.259033,0.010132,up
140884,-5.300781,8.140625,4.707031,0.136719,0.103516,0.505859,0.887512,0.381104,0.258728,0.011536,up
140891,-5.261719,7.984375,4.589844,0.136719,0.103516,0.505859,0.88739,0.381531,0.258545,0.012939,up
140897,-5.261719,7.914062,4.515625,-0.154297,0.275391,0.861328,0.88739,0.381531,0.258545,0.012939,up
140903,-5.183594,7.683594,4.476562,-0.283203,0.351563,0.974609,0.88739,0.381531,0.258545,0.012939,up
140908,-5.070312,7.378906,4.589844,-0.283203,0.351563,0.974609,0.887207,0.381897,0.257996,0.020386,up
140913,-4.953125,7.152344,4.742187,-0.283203,0.351563,0.974609,0.887268,0.381592,0.257996,0.023804,up
140918,-4.839844,7.074219,4.859375,-0.455078,0.667969,1.173828,0.887268,0.381592,0.257996,0.023804,up
140923,-4.570312,6.726562,5.089844,-0.455078,0.667969,1.173828,0.887207,0.380981,0.258362,0.030579,up
140928,-4.457031,6.414062,5.242187,-0.287109,0.763672,1.085938,0.887085,0.380737,0.258789,0.033875,up
140933,-4.378906,6.226562,5.472656,-0.287109,0.763672,1.085938,0.88678,0.380676,0.259399,0.037476,up
140939,-4.226562,6.109375,5.625,-0.146484,0.769531,1.017578,0.88678,0.380676,0.259399,0.037476,up
140945,-4.1875,5.992187,5.777344,-0.146484,0.769531,1.017578,0.885132,0.38208,0.261658,0.045776,up
140950,-4.113281,6.230469,5.664062,0.564453,0.736328,0.714844,0.885132,0.38208,0.261658,0.045776,up
140956,-4.113281,6.453125,5.625,0.849609,0.683594,0.617187,0.885132,0.38208,0.261658,0.045776,up
140961,-4.304687,6.652344,5.738281,0.849609,0.683594,0.617187,0.88147,0.387878,0.264648,0.050781,up
140967,-4.265625,6.796875,5.703125,1.351563,0.46875,0.433594,0.88147,0.387878,0.264648,0.050781,up
140973,-4.265625,7.035156,5.625,1.521484,0.371094,0.357422,0.88147,0.387878,0.264648,0.050781,up
140978,-4.265625,7.035156,5.625,1.642578,0.253906,0.306641,0.876221,0.397949,0.266785,0.051697,up
140983,-4.265625,7.457031,5.625,1.642578,0.253906,0.306641,0.876221,0.397949,0.266785,0.051697,up
140988,-4.265625,7.640625,5.625,1.683594,0.150391,0.265625,0.876221,0.397949,0.266785,0.051697,up
140993,-4.265625,7.640625,5.625,1.613281,-0.019531,0.244141,0.87085,0.409424,0.267334,0.050354,up
140998,-4.148437,7.953125,5.320312,1.613281,-0.019531,0.244141,0.869263,0.412964,0.267151,0.049805,up
141003,-4.074219,7.953125,5.355469,1.115234,-0.21875,0.279297,0.867798,0.41626,0.266785,0.049255,up
141008,-3.996094,7.914062,5.394531,1.115234,-0.21875,0.279297,0.866577,0.419373,0.266174,0.048767,up
141013,-3.957031,7.796875,5.355469,0.732422,-0.273438,0.308594,0.865601,0.421814,0.265442,0.048462,up
141019,-3.765625,7.457031,5.28125,0.732422,-0.273438,0.308594,0.864319,0.425415,0.263855,0.048157,up
141024,-3.691406,7.339844,5.28125,0.503906,-0.271484,0.275391,0.863831,0.427002,0.262939,0.048096,up
141029,-3.535156,7.148437,5.28125,0.503906,-0.271484,0.275391,0.863464,0.428284,0.262146,0.048035,up
141034,-3.5,7.113281,5.320312,0.503906,-0.271484,0.275391,0.863159,0.429321,0.261475,0.047913,up
141039,-3.382813,7.070312,5.320312,0.435547,-0.224609,0.164062,0.863159,0.429321,0.261475,0.047913,up
141044,-3.308594,6.996094,5.355469,0.435547,-0.224609,0.164062,0.862427,0.431641,0.260254,0.047485,up
141049,-3.230469,7.03125,5.355469,0.435547,-0.224609,0.164062,0.861938,0.4328,0.259827,0.047119,up
141054,-3.191406,7.109375,5.355469,0.435547,-0.224609,0.164062,0.861511,0.433838,0.259583,0.046753,up
141059,-3.191406,7.183594,5.355469,0.630859,-0.070312,-0.039063,0.86084,0.435303,0.25946,0.046143,up
141064,-3.230469,7.21875,5.320312,0.630859,-0.070312,-0.039063,0.860229,0.436584,0.25946,0.045532,up
141069,-3.230469,7.492187,5.320312,0.630859,-0.070312,-0.039063,0.859497,0.43811,0.259583,0.0448,up
141074,-3.269531,7.640625,5.320312,0.630859,-0.070312,-0.039063,0.859497,0.43811,0.259583,0.0448,up
141079,-3.269531,7.722656,5.355469,0.630859,0.009766,-0.140625,0.859497,0.43811,0.259583,0.0448,up
141084,-3.34375,7.761719,5.355469,0.630859,0.009766,-0.140625,0.8573,0.4422,0.260254,0.042542,up
141089,-3.308594,7.761719,5.320312,0.630859,0.009766,-0.140625,0.85675,0.443115,0.260498,0.041931,up
141094,-3.269531,7.761719,5.355469,0.630859,0.009766,-0.140625,0.856262,0.443909,0.260742,0.041321,up
141099,-3.308594,7.683594,5.394531,0.255859,0.019531,-0.158203,0.855896,0.44458,0.261047,0.04071,up
141104,-3.269531,7.640625,5.472656,0.255859,0.019531,-0.158203,0.855652,0.444946,0.261292,0.040222,up
141109,-3.34375,7.535156,5.472656,0.255859,0.019531,-0.158203,0.85553,0.445129,0.261414,0.039795,up
141114,-3.269531,7.496094,5.472656,0.255859,0.019531,-0.158203,0.85553,0.445129,0.261414,0.039795,up
141119,-3.230469,7.414062,5.511719,-0.009766,-0.058594,-0.152344,0.85553,0.445129,0.261414,0.039795,up
141124,-3.230469,7.414062,5.511719,-0.011719,-0.082031,-0.167969,0.855591,0.445007,0.261658,0.038513,up
141129,-3.230469,7.21875,5.546875,0.015625,-0.099609,-0.169922,0.855591,0.445007,0.261658,0.038513,up
141134,-3.191406,7.179687,5.585937,0.015625,-0.099609,-0.169922,0.855652,0.444946,0.261597,0.037476,up
141139,-3.152344,6.996094,5.546875,0.015625,-0.099609,-0.169922,0.855652,0.445129,0.261536,0.036804,up
141144,-3.117188,6.957031,5.546875,0.015625,-0.099609,-0.169922,0.85553,0.445374,0.261475,0.036133,up
141149,-3.117188,6.878906,5.511719,0.279297,-0.132812,-0.220703,0.85553,0.445374,0.261475,0.036133,up
141154,-3.078125,6.769531,5.511719,0.279297,-0.132812,-0.220703,0.855103,0.44635,0.261475,0.034485,up
141159,-3.039063,6.726562,5.320312,0.279297,-0.132812,-0.220703,0.854797,0.447083,0.261475,0.033508,up
141164,-3.0,6.691406,5.28125,0.470703,-0.097656,-0.232422,0.854797,0.447083,0.261475,0.033508,up
141169,-3.0,6.648437,5.28125,0.470703,-0.097656,-0.232422,0.853821,0.448853,0.261658,0.031555,up
141174,-3.0,6.648437,5.242187,0.568359,-0.050781,-0.232422,0.853821,0.448853,0.261658,0.031555,up
141179,-3.039063,6.726562,5.128906,0.568359,-0.050781,-0.232422,0.852661,0.450989,0.262024,0.029724,up
141184,-3.039063,6.769531,5.089844,0.626953,-0.011719,-0.226562,0.852661,0.450989,0.262024,0.029724,up
141189,-3.078125,6.796875,5.089844,0.626953,-0.011719,-0.226562,0.851929,0.452271,0.262268,0.028687,up
141194,-3.117188,6.957031,5.011719,0.667969,0.050781,-0.216797,0.851929,0.452271,0.262268,0.028687,up
141199,-3.230469,7.03125,4.972656,0.667969,0.050781,-0.216797,0.849731,0.455994,0.263306,0.026062,up
141204,-3.230469,7.074219,4.972656,0.6875,0.097656,-0.205078,0.849731,0.455994,0.263306,0.026062,up
141209,-3.34375,7.148437,4.898437,0.689453,0.126953,-0.207031,0.848816,0.457397,0.263794,0.025208,up
141214,-3.382813,7.339844,4.820312,0.689453,0.126953,-0.207031,0.847168,0.460022,0.264832,0.023682,up
141219,-3.421875,7.375,4.820312,0.689453,0.126953,-0.207031,0.847168,0.460022,0.264832,0.023682,up
141224,-3.5,7.457031,4.820312,0.662109,0.177734,-0.208984,0.847168,0.460022,0.264832,0.023682,up
141229,-3.5,7.605469,4.707031,0.662109,0.177734,-0.208984,0.845337,0.462708,0.266113,0.022156,up
141234,-3.5,7.640625,4.628906,0.662109,0.177734,-0.208984,0.843628,0.465149,0.267456,0.020752,up
141239,-3.5,7.640625,4.628906,0.662109,0.177734,-0.208984,0.842773,0.466309,0.268188,0.02002,up
141244,-3.5,7.796875,4.589844,0.662109,0.177734,-0.208984,0.842773,0.466309,0.268188,0.02002,up
141249,-3.5,7.988281,4.515625,0.578125,0.224609,-0.255859,0.842773,0.466309,0.268188,0.02002,up
141254,-3.421875,8.023438,4.4375,0.578125,0.224609,-0.255859,0.841064,0.468445,0.269836,0.018616,up
141260,-3.421875,8.023438,4.4375,0.537109,0.248047,-0.277344,0.839478,0.470337,0.271545,0.017273,up
141265,-3.421875,8.023438,4.4375,0.537109,0.248047,-0.277344,0.839478,0.470337,0.271545,0.017273,up
141270,-3.308594,8.261719,4.398437,0.470703,0.28125,-0.289063,0.839478,0.470337,0.271545,0.017273,up
141275,-3.308594,8.261719,4.398437,0.429687,0.3125,-0.291016,0.839478,0.470337,0.271545,0.017273,up
141280,-3.308594,8.339844,4.324219,0.429687,0.3125,-0.291016,0.83728,0.472656,0.274414,0.015442,up
141285,-3.269531,8.40625,4.324219,0.429687,0.3125,-0.291016,0.835876,0.473999,0.276489,0.014404,up
141290,-3.34375,8.488281,4.285156,0.429687,0.3125,-0.291016,0.835876,0.473999,0.276489,0.014404,up
141295,-3.308594,8.488281,4.285156,0.308594,0.388672,-0.269531,0.835876,0.473999,0.276489,0.014404,up
141300,-3.34375,8.5625,4.285156,0.267578,0.404297,-0.261719,0.835876,0.473999,0.276489,0.014404,up
141305,-3.382813,8.644531,4.285156,0.267578,0.404297,-0.261719,0.835876,0.473999,0.276489,0.014404,up
141310,-3.421875,8.601563,4.359375,0.267578,0.404297,-0.261719,0.832764,0.476135,0.282227,0.012817,up
141315,-3.460938,8.644531,4.285156,0.267578,0.404297,-0.261719,0.832275,0.476257,0.283386,0.012756,up
141320,-3.5,8.640625,4.359375,0.056641,0.484375,-0.203125,0.832275,0.476257,0.283386,0.012756,up
141326,-3.574219,8.5625,4.398437,0.056641,0.484375,-0.203125,0.831482,0.476196,0.285889,0.012939,up
141332,-3.613281,8.484375,4.398437,-0.044922,0.523437,-0.181641,0.831482,0.476196,0.285889,0.012939,up
141338,-3.613281,8.371094,4.476562,-0.089844,0.53125,-0.162109,0.831482,0.476196,0.285889,0.012939,up
141343,-3.652344,8.257813,4.476562,-0.123047,0.560547,-0.158203,0.831482,0.476196,0.285889,0.012939,up
141348,-3.652344,8.140625,4.515625,-0.123047,0.560547,-0.158203,0.830261,0.475098,0.291138,0.014099,up
141354,-3.652344,8.066406,4.550781,-0.125,0.585937,-0.152344,0.830261,0.475098,0.291138,0.014099,up
141359,-3.765625,8.023438,4.589844,-0.107422,0.599609,-0.148437,0.829346,0.47406,0.295288,0.015442,up
141364,-3.765625,8.023438,4.667969,-0.107422,0.599609,-0.148437,0.829346,0.47406,0.295288,0.015442,up
141369,-3.804688,8.066406,4.667969,-0.027344,0.669922,-0.167969,0.829346,0.47406,0.295288,0.015442,up
141374,-3.957031,8.144531,4.667969,-0.027344,0.669922,-0.167969,0.828003,0.47345,0.299927,0.016785,up
141379,-4.074219,8.339844,4.667969,-0.027344,0.669922,-0.167969,0.827454,0.473328,0.301575,0.017151,up
141384,-4.457031,8.722656,4.742187,-0.027344,0.669922,-0.167969,0.827454,0.473328,0.301575,0.017151,up
141389,-4.648437,8.945313,4.78125,0.021484,0.736328,-0.292969,0.827454,0.473328,0.301575,0.017151,up
141394,-4.839844,9.210938,4.742187,0.021484,0.736328,-0.292969,0.825745,0.472839,0.307007,0.017883,up
141399,-5.03125,9.410156,4.742187,0.021484,0.736328,-0.292969,0.825256,0.472412,0.308899,0.018066,up
141404,-5.335937,9.753906,4.78125,0.021484,0.736328,-0.292969,0.825256,0.472412,0.308899,0.018066,up
141409,-5.492187,9.792969,4.78125,-0.351563,0.652344,-0.400391,0.825256,0.472412,0.308899,0.018066,up
141414,-5.644531,9.714844,4.78125,-0.351563,0.652344,-0.400391,0.824768,0.470886,0.312622,0.018372,up
141420,-5.644531,9.59375,4.820312,-0.523437,0.597656,-0.412109,0.825073,0.468018,0.315979,0.01886,up
141425,-5.605469,9.40625,4.859375,-0.886719,0.460937,-0.394531,0.825684,0.465881,0.317566,0.019287,up
141430,-5.492187,8.871094,4.859375,-0.886719,0.460937,-0.394531,0.826416,0.463623,0.318787,0.019714,up
141435,-5.414062,8.601563,4.859375,-0.886719,0.460937,-0.394531,0.827332,0.461365,0.319763,0.020142,up
141440,-5.335937,8.296875,4.820312,-1.199219,0.199219,-0.289063,0.828552,0.458557,0.320618,0.020752,up
141445,-5.144531,7.796875,4.859375,-1.199219,0.199219,-0.289063,0.829895,0.455688,0.321228,0.021301,up
141450,-5.109375,7.535156,4.859375,-1.199219,0.199219,-0.289063,0.830994,0.45343,0.321533,0.021729,up
141455,-5.070312,7.339844,4.820312,-1.039063,-0.039063,-0.164062,0.832336,0.450867,0.321655,0.022217,up
141460,-4.992187,7.179687,4.742187,-1.039063,-0.039063,-0.164062,0.833435,0.448853,0.321594,0.022583,up
141465,-4.878906,7.070312,4.707031,-1.039063,-0.039063,-0.164062,0.834534,0.44696,0.32135,0.022888,up
141471,-4.839844,7.152344,4.476562,-1.039063,-0.039063,-0.164062,0.835266,0.445801,0.321045,0.02301,up
141476,-4.839844,7.152344,4.476562,-0.28125,-0.236328,-0.007813,0.835876,0.445007,0.320557,0.02301,up
141481,-4.839844,7.335937,4.324219,-0.28125,-0.236328,-0.007813,0.836243,0.444702,0.320068,0.022827,up
141487,-4.839844,7.535156,4.207031,-0.28125,-0.236328,-0.007813,0.836426,0.444763,0.319397,0.022583,up
141492,-4.839844,7.640625,4.09375,0.205078,-0.28125,0.074219,0.836426,0.444763,0.319397,0.022583,up
141498,-4.878906,7.761719,4.09375,0.269531,-0.28125,0.089844,0.836426,0.444763,0.319397,0.022583,up
141504,-4.878906,7.878906,3.902344,0.285156,-0.277344,0.113281,0.836243,0.447144,0.316711,0.02124,up
141509,-4.878906,7.953125,3.824219,0.285156,-0.277344,0.113281,0.836243,0.447144,0.316711,0.02124,up
141514,-4.914062,7.917969,3.824219,0.238281,-0.265625,0.134766,0.836243,0.447144,0.316711,0.02124,up
141519,-4.878906,7.917969,3.710938,0.171875,-0.253906,0.140625,0.836243,0.447144,0.316711,0.02124,up
141524,-4.839844,7.957031,3.710938,0.171875,-0.253906,0.140625,0.836121,0.448914,0.314575,0.020691,up
141530,-4.839844,7.953125,3.671875,-0.023437,-0.238281,0.136719,0.836121,0.448914,0.314575,0.020691,up
141535,-4.839844,8.023438,3.671875,-0.023437,-0.238281,0.136719,0.836609,0.449402,0.3125,0.02063,up
141541,-4.800781,8.066406,3.59375,-0.023437,-0.238281,0.136719,0.836853,0.449402,0.31189,0.02063,up
141546,-4.722656,8.105469,3.480469,-0.023437,-0.238281,0.136719,0.837158,0.44928,0.311218,0.02063,up
141552,-4.761719,8.140625,3.554688,-0.089844,-0.275391,0.099609,0.837158,0.44928,0.311218,0.02063,up
141558,-4.6875,8.179688,3.554688,-0.064453,-0.300781,0.089844,0.837158,0.44928,0.311218,0.02063,up
141564,-4.6875,8.140625,3.480469,-0.064453,-0.300781,0.089844,0.837158,0.44928,0.311218,0.02063,up
141569,-4.648437,8.140625,3.402344,-0.078125,-0.367188,0.095703,0.837158,0.44928,0.311218,0.02063,up
141574,-4.609375,8.0625,3.441406,-0.078125,-0.367188,0.095703,0.838745,0.449097,0.307373,0.02002,up
141579,-4.53125,8.066406,3.363281,-0.078125,-0.367188,0.095703,0.839111,0.449036,0.306396,0.019836,up
141584,-4.53125,8.023438,3.328125,-0.078125,-0.367188,0.095703,0.8396,0.448914,0.305298,0.019653,up
141590,-4.496094,7.984375,3.289063,-0.191406,-0.431641,0.107422,0.8396,0.448914,0.305298,0.019653,up
141595,-4.496094,7.957031,3.210938,-0.191406,-0.431641,0.107422,0.841003,0.448181,0.302368,0.019226,up
141600,-4.496094,7.953125,3.171875,-0.191406,-0.431641,0.107422,0.841003,0.448181,0.302368,0.019226,up
141605,-4.53125,7.917969,3.171875,-0.226562,-0.417969,0.101563,0.842163,0.44751,0.300171,0.018982,up
141610,-4.609375,7.988281,3.289063,-0.226562,-0.417969,0.101563,0.842712,0.447144,0.299194,0.018921,up
141615,-4.570312,7.957031,3.25,-0.226562,-0.417969,0.101563,0.843201,0.446838,0.29834,0.01886,up
141620,-4.6875,7.917969,3.210938,-0.21875,-0.347656,0.117188,0.843201,0.446838,0.29834,0.01886,up
141625,-4.722656,7.875,3.171875,-0.21875,-0.347656,0.117188,0.844238,0.446106,0.296448,0.01886,up
141630,-4.722656,7.914062,3.136719,-0.21875,-0.347656,0.117188,0.844666,0.445801,0.295715,0.018921,up
141635,-4.722656,7.878906,3.210938,-0.214844,-0.269531,0.128906,0.845154,0.445496,0.294861,0.018982,up
141640,-4.800781,7.839844,3.136719,-0.214844,-0.269531,0.128906,0.84552,0.44519,0.294189,0.019104,up
141645,-4.800781,7.878906,3.097656,-0.222656,-0.228516,0.121094,0.84552,0.44519,0.294189,0.019104,up
141651,-4.800781,7.917969,3.171875,-0.222656,-0.228516,0.121094,0.846313,0.444458,0.292908,0.019409,up
141656,-4.800781,7.917969,3.171875,-0.232422,-0.1875,0.117188,0.846741,0.444092,0.292297,0.019531,up
141661,-4.839844,7.914062,3.171875,-0.244141,-0.164062,0.115234,0.847168,0.443665,0.291687,0.019775,up
141667,-4.878906,7.917969,3.328125,-0.244141,-0.164062,0.115234,0.847473,0.443298,0.29126,0.019958,up
141673,-4.878906,7.917969,3.289063,-0.269531,-0.138672,0.099609,0.847473,0.443298,0.29126,0.019958,up
141678,-4.839844,7.917969,3.328125,-0.269531,-0.126953,0.111328,0.847473,0.443298,0.29126,0.019958,up
141683,-4.839844,7.839844,3.402344,-0.277344,-0.121094,0.111328,0.847473,0.443298,0.29126,0.019958,up
141688,-4.800781,7.839844,3.480469,-0.291016,-0.111328,0.115234,0.847473,0.443298,0.29126,0.019958,up
141693,-4.839844,7.878906,3.402344,-0.291016,-0.09375,0.117188,0.847473,0.443298,0.29126,0.019958,up
141699,-4.839844,7.878906,3.402344,-0.291016,-0.085937,0.121094,0.849792,0.44043,0.288818,0.021667,up
141704,-4.800781,7.878906,3.480469,-0.298828,-0.072266,0.123047,0.850159,0.43988,0.288452,0.022034,up
141709,-4.800781,7.878906,3.480469,-0.298828,-0.060547,0.136719,0.850525,0.439392,0.288147,0.0224,up
141714,-4.839844,7.800781,3.554688,-0.330078,-0.046875,0.138672,0.850525,0.439392,0.288147,0.0224,up
141719,-4.839844,7.800781,3.554688,-0.34375,-0.027344,0.146484,0.851318,0.438232,0.287598,0.023376,up
141724,-4.761719,7.605469,3.632813,-0.34375,-0.027344,0.146484,0.851685,0.437561,0.287292,0.023926,up
141729,-4.761719,7.5625,3.671875,-0.384766,-0.019531,0.158203,0.851685,0.437561,0.287292,0.023926,up
141735,-4.800781,7.492187,3.710938,-0.359375,0.019531,0.175781,0.851685,0.437561,0.287292,0.023926,up
141740,-4.878906,7.414062,3.824219,-0.359375,0.019531,0.175781,0.853271,0.434998,0.286438,0.026306,up
141745,-4.878906,7.378906,3.863281,-0.359375,0.019531,0.175781,0.853271,0.434998,0.286438,0.026306,up
141750,-4.914062,7.335937,3.902344,-0.384766,0.068359,0.195312,0.853271,0.434998,0.286438,0.026306,up
141755,-4.878906,7.300781,3.941406,-0.384766,0.068359,0.195312,0.854309,0.433044,0.286072,0.028503,up
141760,-4.878906,7.21875,4.015625,-0.384766,0.068359,0.195312,0.854614,0.432434,0.286011,0.029175,up
141765,-4.914062,7.179687,4.015625,-0.384766,0.068359,0.195312,0.854614,0.432434,0.286011,0.029175,up
141770,-4.953125,7.183594,4.09375,-0.255859,0.125,0.1875,0.854614,0.432434,0.286011,0.029175,up
141775,-4.992187,7.148437,4.132812,-0.255859,0.125,0.1875,0.855225,0.431091,0.286011,0.031311,up
141780,-4.992187,7.183594,4.167969,-0.255859,0.125,0.1875,0.855347,0.430725,0.286011,0.031982,up
141785,-5.03125,7.148437,4.285156,-0.255859,0.125,0.1875,0.855347,0.430725,0.286011,0.031982,up
141790,-5.03125,7.113281,4.324219,-0.197266,0.132812,0.1875,0.855347,0.430725,0.286011,0.031982,up
141795,-5.070312,7.148437,4.359375,-0.197266,0.132812,0.1875,0.855652,0.429932,0.286133,0.033936,up
141800,-5.070312,7.109375,4.398437,-0.197266,0.132812,0.1875,0.855652,0.429932,0.286133,0.033936,up
141805,-5.109375,7.152344,4.359375,-0.162109,0.115234,0.193359,0.855652,0.429932,0.286133,0.033936,up
141811,-5.070312,7.113281,4.476562,-0.162109,0.115234,0.193359,0.855835,0.429321,0.286194,0.035828,up
141816,-5.03125,7.109375,4.476562,-0.162109,0.115234,0.193359,0.855957,0.429138,0.286194,0.036438,up
141821,-4.992187,7.109375,4.476562,-0.158203,0.074219,0.195312,0.856079,0.428894,0.286072,0.037048,up
141826,-4.953125,7.148437,4.589844,-0.158203,0.074219,0.195312,0.85614,0.428711,0.286011,0.037659,up
141831,-4.914062,7.109375,4.589844,-0.158203,0.074219,0.195312,0.856262,0.428589,0.285828,0.038147,up
141836,-4.878906,7.113281,4.589844,-0.130859,0.023437,0.207031,0.856323,0.428406,0.285645,0.038757,up
141842,-4.800781,7.113281,4.515625,-0.130859,0.023437,0.207031,0.856445,0.428345,0.285461,0.039246,up
141847,-4.800781,7.148437,4.589844,-0.130859,0.023437,0.207031,0.856567,0.428284,0.285156,0.039734,up
141854,-4.722656,7.152344,4.589844,-0.130859,0.023437,0.207031,0.856567,0.428284,0.285156,0.039734,up
141859,-4.722656,7.148437,4.550781,-0.076172,-0.054687,0.214844,0.856567,0.428284,0.285156,0.039734,up
141865,-4.6875,7.113281,4.589844,-0.064453,-0.068359,0.201172,0.856567,0.428284,0.285156,0.039734,up
141870,-4.648437,7.070312,4.550781,-0.064453,-0.068359,0.201172,0.856934,0.428345,0.283752,0.041382,up
141875,-4.609375,7.035156,4.515625,-0.046875,-0.09375,0.205078,0.856934,0.428345,0.283752,0.041382,up
141880,-4.609375,6.996094,4.515625,-0.033203,-0.109375,0.199219,0.856934,0.428345,0.283752,0.041382,up
141885,-4.609375,6.996094,4.515625,-0.033203,-0.109375,0.199219,0.8573,0.428711,0.28186,0.042664,up
141890,-4.609375,7.074219,4.476562,-0.033203,-0.109375,0.199219,0.8573,0.428711,0.28186,0.042664,up
141895,-4.53125,7.03125,4.476562,-0.025391,-0.123047,0.1875,0.8573,0.428711,0.28186,0.042664,up
141900,-4.53125,7.148437,4.476562,-0.013672,-0.128906,0.183594,0.8573,0.428711,0.28186,0.042664,up
141905,-4.53125,7.179687,4.398437,-0.013672,-0.128906,0.183594,0.857544,0.429077,0.280396,0.043457,up
141910,-4.53125,7.257812,4.476562,0.007813,-0.119141,0.150391,0.857544,0.429077,0.280396,0.043457,up
141915,-4.53125,7.300781,4.4375,0.007813,-0.119141,0.150391,0.857666,0.429382,0.279419,0.043823,up
141920,-4.53125,7.414062,4.4375,0.007813,-0.119141,0.150391,0.857727,0.429504,0.278992,0.044006,up
141925,-4.496094,7.457031,4.476562,0.007813,-0.119141,0.150391,0.857788,0.429626,0.278625,0.044128,up
141930,-4.53125,7.492187,4.476562,-0.048828,-0.125,0.132812,0.857788,0.429626,0.278625,0.044128,up
141935,-4.457031,7.492187,4.550781,-0.048828,-0.125,0.132812,0.857971,0.42981,0.277771,0.044495,up
141941,-4.417969,7.453125,4.550781,-0.048828,-0.125,0.132812,0.858276,0.429749,0.276855,0.0448,up
141946,-4.339844,7.375,4.515625,-0.126953,-0.158203,0.138672,0.858521,0.429626,0.276306,0.045044,up
141951,-4.265625,7.261719,4.550781,-0.126953,-0.158203,0.138672,0.858765,0.429443,0.275818,0.045227,up
141956,-4.226562,7.21875,4.550781,-0.126953,-0.158203,0.138672,0.859009,0.429321,0.275269,0.04541,up
141961,-4.226562,7.148437,4.550781,-0.130859,-0.197266,0.146484,0.859253,0.429138,0.274658,0.045593,up
141967,-4.1875,7.148437,4.515625,-0.101563,-0.210937,0.144531,0.859558,0.429016,0.273987,0.045776,up
141972,-4.148437,7.070312,4.515625,-0.101563,-0.210937,0.144531,0.859741,0.428955,0.273438,0.045898,up
141978,-4.148437,7.109375,4.4375,-0.101563,-0.210937,0.144531,0.859924,0.429016,0.272766,0.045959,up
141984,-4.148437,7.148437,4.476562,0.03125,-0.234375,0.130859,0.859924,0.429016,0.272766,0.045959,up
141989,-4.1875,7.296875,4.4375,0.083984,-0.240234,0.126953,0.859924,0.429016,0.272766,0.045959,up
141995,-4.1875,7.417969,4.4375,0.121094,-0.240234,0.128906,0.859924,0.429016,0.272766,0.045959,up
142000,-4.1875,7.457031,4.4375,0.160156,-0.228516,0.123047,0.859924,0.429016,0.272766,0.045959,up
142006,-4.1875,7.53125,4.398437,0.166016,-0.21875,0.109375,0.859924,0.429016,0.272766,0.045959,up
142011,-4.1875,7.53125,4.398437,0.142578,-0.212891,0.107422,0.860046,0.43158,0.268311,0.045349,up
142017,-4.148437,7.71875,4.4375,0.142578,-0.212891,0.107422,0.860046,0.432007,0.267761,0.045227,up
142022,-4.113281,7.800781,4.398437,0.083984,-0.183594,0.083984,0.860046,0.432312,0.267212,0.045166,up
142027,-4.113281,7.835937,4.398437,0.048828,-0.185547,0.078125,0.860046,0.432556,0.266724,0.045044,up
142033,-4.035156,7.917969,4.4375,0.048828,-0.185547,0.078125,0.860168,0.432678,0.266296,0.044983,up
142038,-4.035156,7.953125,4.398437,-0.017578,-0.160156,0.046875,0.860229,0.4328,0.265808,0.044861,up
142043,-4.035156,7.984375,4.476562,-0.041016,-0.154297,0.035156,0.860229,0.4328,0.265808,0.044861,up
142048,-4.035156,8.027344,4.4375,-0.041016,-0.154297,0.035156,0.860535,0.432739,0.265076,0.044678,up
142054,-3.996094,8.027344,4.4375,-0.048828,-0.138672,0.019531,0.860535,0.432739,0.265076,0.044678,up
142059,-4.035156,8.027344,4.4375,-0.054687,-0.123047,0.017578,0.860535,0.432739,0.265076,0.044678,up
142064,-3.957031,8.0625,4.4375,-0.060547,-0.115234,0.015625,0.860535,0.432739,0.265076,0.044678,up
142070,-3.996094,7.984375,4.4375,-0.085937,-0.095703,0.027344,0.860535,0.432739,0.265076,0.044678,up
142075,-3.957031,7.984375,4.4375,-0.085937,-0.095703,0.027344,0.861206,0.432312,0.26355,0.044312,up
142081,-3.957031,7.988281,4.398437,-0.089844,-0.09375,0.025391,0.861206,0.432312,0.26355,0.044312,up
142086,-3.921875,7.988281,4.4375,-0.125,-0.0625,0.056641,0.861511,0.432007,0.263,0.044312,up
142091,-3.921875,7.988281,4.476562,-0.125,-0.0625,0.056641,0.861877,0.43158,0.262573,0.044556,up
142096,-3.921875,7.953125,4.476562,-0.125,-0.0625,0.056641,0.861877,0.43158,0.262573,0.044556,up
142101,-3.882813,7.988281,4.515625,-0.152344,-0.046875,0.072266,0.862244,0.431091,0.262146,0.044861,up
142106,-3.882813,7.953125,4.515625,-0.162109,-0.015625,0.097656,0.862244,0.431091,0.262146,0.044861,up
142111,-3.882813,7.957031,4.589844,-0.162109,-0.015625,0.097656,0.862549,0.430542,0.261841,0.045471,up
142116,-3.882813,7.988281,4.550781,-0.162109,-0.015625,0.097656,0.862549,0.430542,0.261841,0.045471,up
142121,-3.84375,8.023438,4.550781,-0.130859,0.015625,0.113281,0.862793,0.430176,0.261597,0.046082,up
142126,-3.882813,8.027344,4.589844,-0.09375,0.044922,0.134766,0.862793,0.430176,0.261597,0.046082,up
142131,-3.882813,8.027344,4.628906,-0.09375,0.044922,0.134766,0.862915,0.429932,0.261414,0.046814,up
142136,-3.921875,7.953125,4.589844,-0.09375,0.044922,0.134766,0.862915,0.429932,0.261414,0.046814,up
142141,-3.882813,7.957031,4.589844,-0.082031,0.082031,0.166016,0.862915,0.429871,0.261414,0.047241,up
142146,-3.957031,7.917969,4.667969,-0.082031,0.082031,0.166016,0.862976,0.429749,0.261353,0.048218,up
142151,-3.957031,7.796875,4.667969,-0.082031,0.082031,0.166016,0.862976,0.429749,0.261353,0.048218,up
142156,-3.882813,7.761719,4.667969,-0.082031,0.082031,0.166016,0.862976,0.429687,0.261292,0.048767,up
142161,-3.921875,7.683594,4.667969,-0.091797,0.099609,0.207031,0.862976,0.429565,0.26123,0.049866,up
142166,-3.882813,7.605469,4.628906,-0.078125,0.09375,0.232422,0.862976,0.429565,0.26123,0.049866,up
142171,-3.804688,7.53125,4.667969,-0.078125,0.09375,0.232422,0.862976,0.429565,0.261169,0.050598,up
142176,-3.765625,7.53125,4.628906,-0.078125,0.09375,0.232422,0.862915,0.429626,0.260986,0.051819,up
142181,-3.726563,7.457031,4.628906,-0.078125,0.09375,0.232422,0.862915,0.429626,0.260986,0.051819,up
142186,-3.691406,7.453125,4.628906,0.001953,0.097656,0.255859,0.862732,0.429993,0.260864,0.053101,up
142191,-3.652344,7.496094,4.589844,0.001953,0.097656,0.255859,0.862549,0.430298,0.260803,0.053711,up
142196,-3.652344,7.566406,4.589844,0.117188,0.123047,0.255859,0.862549,0.430298,0.260803,0.053711,up
142201,-3.613281,7.601562,4.550781,0.117188,0.123047,0.255859,0.862305,0.430664,0.260742,0.05426,up
142206,-3.652344,7.757812,4.515625,0.130859,0.134766,0.255859,0.862305,0.430664,0.260742,0.05426,up
142211,-3.613281,7.800781,4.550781,0.119141,0.154297,0.242187,0.861755,0.43158,0.260803,0.055481,up
142217,-3.613281,7.835937,4.550781,0.119141,0.154297,0.242187,0.861267,0.432373,0.260925,0.056641,up
142222,-3.613281,7.875,4.515625,0.0625,0.177734,0.21875,0.861023,0.432739,0.261047,0.057312,up
142228,-3.652344,8.027344,4.589844,0.0625,0.177734,0.21875,0.86084,0.432922,0.261169,0.057861,up
142234,-3.691406,8.023438,4.628906,-0.033203,0.203125,0.189453,0.86084,0.432922,0.261169,0.057861,up
142239,-3.726563,8.101563,4.628906,-0.085937,0.216797,0.171875,0.86084,0.432922,0.261169,0.057861,up
142245,-3.765625,8.179688,4.667969,-0.140625,0.224609,0.158203,0.86084,0.432922,0.261169,0.057861,up
142251,-3.804688,8.222656,4.707031,-0.230469,0.246094,0.109375,0.86084,0.432922,0.261169,0.057861,up
142256,-3.84375,8.222656,4.742187,-0.230469,0.246094,0.109375,0.860657,0.431641,0.262939,0.061768,up
142261,-3.882813,8.222656,4.742187,-0.230469,0.246094,0.109375,0.860779,0.431091,0.263306,0.062317,up
142266,-3.996094,8.261719,4.859375,-0.230469,0.246094,0.109375,0.860779,0.431091,0.263306,0.062317,up
142271,-4.035156,8.296875,4.898437,-0.326172,0.289063,0.027344,0.860779,0.431091,0.263306,0.062317,up
142276,-4.113281,8.335938,4.972656,-0.326172,0.289063,0.027344,0.861084,0.429749,0.264343,0.063538,up
142281,-4.226562,8.40625,5.050781,-0.34375,0.304688,0.003906,0.861084,0.429749,0.264343,0.063538,up
142286,-4.265625,8.484375,5.089844,-0.34375,0.304688,0.003906,0.861389,0.428223,0.265442,0.064575,up
142291,-4.339844,8.566406,5.164062,-0.404297,0.333984,-0.0625,0.861389,0.428223,0.265442,0.064575,up
142296,-4.378906,8.605469,5.203125,-0.404297,0.333984,-0.0625,0.861816,0.426331,0.266846,0.065613,up
142301,-4.378906,8.523438,5.28125,-0.404297,0.333984,-0.0625,0.862305,0.424316,0.26825,0.066528,up
142306,-4.417969,8.449219,5.242187,-0.404297,0.333984,-0.0625,0.862305,0.424316,0.26825,0.066528,up
142311,-4.378906,8.335938,5.320312,-0.568359,0.347656,-0.103516,0.862305,0.424316,0.26825,0.066528,up
142316,-4.378906,8.21875,5.320312,-0.568359,0.347656,-0.103516,0.863342,0.420532,0.270447,0.068054,up
142321,-4.339844,8.144531,5.320312,-0.568359,0.347656,-0.103516,0.86377,0.419128,0.271179,0.068542,up
142326,-4.339844,7.984375,5.355469,-0.568359,0.347656,-0.103516,0.86377,0.419128,0.271179,0.068542,up
142331,-4.304687,7.839844,5.433594,-0.625,0.314453,-0.097656,0.86377,0.419128,0.271179,0.068542,up
142336,-4.226562,7.683594,5.433594,-0.625,0.314453,-0.097656,0.864685,0.416199,0.272522,0.069641,up
142342,-4.226562,7.605469,5.472656,-0.578125,0.28125,-0.097656,0.864685,0.416199,0.272522,0.069641,up
142347,-4.226562,7.535156,5.472656,-0.578125,0.28125,-0.097656,0.866028,0.411865,0.274414,0.071106,up
142353,-4.113281,7.417969,5.472656,-0.578125,0.28125,-0.097656,0.866333,0.410828,0.274963,0.071472,up
142358,-4.113281,7.339844,5.355469,-0.578125,0.28125,-0.097656,0.866577,0.409851,0.275574,0.071777,up
142365,-4.074219,7.339844,5.394531,-0.347656,0.253906,-0.119141,0.866577,0.409851,0.275574,0.071777,up
142371,-4.074219,7.339844,5.394531,-0.308594,0.248047,-0.128906,0.866577,0.409851,0.275574,0.071777,up
142376,-4.074219,7.375,5.320312,-0.261719,0.232422,-0.128906,0.867126,0.407349,0.277344,0.072388,up
142381,-4.074219,7.335937,5.320312,-0.261719,0.232422,-0.128906,0.867249,0.406616,0.277893,0.07251,up
142387,-4.113281,7.417969,5.320312,-0.25,0.224609,-0.126953,0.867249,0.406616,0.277893,0.07251,up
142393,-4.113281,7.496094,5.320312,-0.25,0.224609,-0.126953,0.867676,0.404602,0.279541,0.072876,up
142399,-4.113281,7.535156,5.320312,-0.322266,0.207031,-0.130859,0.867859,0.403809,0.28009,0.072998,up
142404,-4.113281,7.535156,5.320312,-0.375,0.201172,-0.140625,0.867859,0.403809,0.28009,0.072998,up
142409,-4.113281,7.53125,5.242187,-0.375,0.201172,-0.140625,0.868347,0.401978,0.281067,0.073303,up
142414,-4.148437,7.535156,5.242187,-0.462891,0.189453,-0.162109,0.868347,0.401978,0.281067,0.073303,up
142419,-4.148437,7.535156,5.242187,-0.501953,0.191406,-0.181641,0.86908,0.399658,0.282043,0.073547,up
142424,-4.148437,7.535156,5.242187,-0.546875,0.193359,-0.205078,0.869507,0.398315,0.282532,0.073669,up
142429,-4.074219,7.535156,5.28125,-0.546875,0.193359,-0.205078,0.869507,0.398315,0.282532,0.073669,up
142434,-4.113281,7.5625,5.28125,-0.582031,0.193359,-0.224609,0.869507,0.398315,0.282532,0.073669,up
142439,-4.113281,7.5625,5.28125,-0.658203,0.230469,-0.275391,0.870483,0.395508,0.28363,0.073914,up
142445,-4.074219,7.679687,5.242187,-0.658203,0.230469,-0.275391,0.870972,0.393799,0.284241,0.073975,up
142451,-4.074219,7.640625,5.242187,-0.736328,0.273438,-0.330078,0.870972,0.393799,0.284241,0.073975,up
142456,-4.074219,7.679687,5.28125,-0.792969,0.324219,-0.380859,0.870972,0.393799,0.284241,0.073975,up
142461,-4.113281,7.679687,5.320312,-0.792969,0.324219,-0.380859,0.873291,0.386414,0.287292,0.074219,up
142466,-4.148437,7.71875,5.320312,-0.792969,0.324219,-0.380859,0.873962,0.384094,0.288391,0.07428,up
142472,-4.148437,7.722656,5.28125,-0.921875,0.421875,-0.472656,0.873962,0.384094,0.288391,0.07428,up
142477,-4.148437,7.761719,5.242187,-0.921875,0.421875,-0.472656,0.875854,0.377075,0.291809,0.074341,up
142483,-4.1875,7.640625,5.355469,-0.921875,0.421875,-0.472656,0.876526,0.374634,0.29303,0.074341,up
142488,-4.226562,7.679687,5.355469,-1.087891,0.511719,-0.566406,0.876526,0.374634,0.29303,0.074341,up
142493,-4.304687,7.679687,5.394531,-1.140625,0.548828,-0.583984,0.876526,0.374634,0.29303,0.074341,up
142516,-4.648437,7.605469,5.664062,-1.388672,0.640625,-0.626953,0.878723,0.365723,0.297485,0.074463,up
142521,-4.722656,7.535156,5.816406,-1.427734,0.650391,-0.632812,0.882141,0.351746,0.304138,0.075195,up
142527,-4.839844,7.535156,5.855469,-1.451172,0.660156,-0.626953,0.883911,0.343872,0.307739,0.075745,up
142532,-4.992187,7.300781,6.046875,-1.451172,0.660156,-0.626953,0.884766,0.340088,0.309448,0.07605,up
142537,-5.109375,7.179687,6.085937,-1.451172,0.660156,-0.626953,0.885559,0.336426,0.311096,0.076355,up
142542,-5.183594,7.152344,6.160156,-1.4375,0.667969,-0.621094,0.885559,0.336426,0.311096,0.076355,up
142547,-5.261719,6.996094,6.199219,-1.4375,0.667969,-0.621094,0.887146,0.328613,0.314636,0.076965,up
142552,-5.261719,6.875,6.277344,-1.4375,0.667969,-0.621094,0.887878,0.325256,0.316162,0.077209,up
142557,-5.375,6.609375,6.316406,-1.339844,0.625,-0.595703,0.888611,0.321289,0.317932,0.077515,up
142562,-5.414062,6.492187,6.316406,-1.339844,0.625,-0.595703,0.889221,0.318115,0.319397,0.077698,up
142567,-5.492187,6.378906,6.394531,-1.214844,0.570312,-0.548828,0.889221,0.318115,0.319397,0.077698,up
142572,-5.644531,6.304687,6.472656,-1.214844,0.570312,-0.548828,0.890442,0.311584,0.322266,0.078064,up
142577,-5.644531,6.226562,6.542969,-1.214844,0.570312,-0.548828,0.890442,0.311584,0.322266,0.078064,up
142582,-5.644531,6.226562,6.542969,-1.066406,0.494141,-0.496094,0.891541,0.305847,0.324829,0.078369,up
142587,-5.757812,6.265625,6.617187,-1.066406,0.494141,-0.496094,0.891541,0.305847,0.324829,0.078369,up
142592,-5.910156,6.226562,6.851562,-0.898437,0.382813,-0.419922,0.891541,0.305847,0.324829,0.078369,up
142597,-5.910156,6.226562,6.851562,-0.830078,0.326172,-0.373047,0.892395,0.301086,0.326782,0.078491,up
142602,-5.910156,6.226562,6.851562,-0.830078,0.326172,-0.373047,0.89325,0.296997,0.328125,0.078674,up
142607,-5.875,6.035156,6.921875,-0.830078,0.326172,-0.373047,0.89325,0.296997,0.328125,0.078674,up
142612,-5.875,6.035156,7.003906,-0.611328,0.025391,-0.144531,0.893738,0.295227,0.328491,0.078857,up
142617,-5.757812,6.074219,7.039062,-0.611328,0.025391,-0.144531,0.894592,0.292297,0.328552,0.079163,up
142622,-5.71875,5.960937,7.121094,-0.611328,0.025391,-0.144531,0.894592,0.292297,0.328552,0.079163,up
142627,-5.71875,5.960937,7.082031,-0.611328,0.025391,-0.144531,0.89563,0.289917,0.327698,0.079712,up
142632,-5.683594,5.960937,7.121094,-0.449219,-0.322266,0.091797,0.89563,0.289917,0.327698,0.079712,up
142637,-5.71875,5.921875,7.039062,-0.449219,-0.322266,0.091797,0.89679,0.288208,0.325989,0.080322,up
142642,-5.644531,5.84375,7.042969,-0.449219,-0.322266,0.091797,0.8974,0.287598,0.324646,0.080688,up
142647,-5.683594,5.882812,7.003906,-0.449219,-0.322266,0.091797,0.8974,0.287598,0.324646,0.080688,up
142652,-5.644531,5.960937,7.003906,-0.248047,-0.654297,0.242187,0.8974,0.287598,0.324646,0.080688,up
142657,-5.605469,5.882812,6.960937,-0.248047,-0.654297,0.242187,0.898682,0.286926,0.321655,0.081299,up
142662,-5.492187,5.804687,6.855469,-0.216797,-0.720703,0.269531,0.898682,0.286926,0.321655,0.081299,up
142667,-5.375,5.769531,6.8125,-0.195312,-0.833984,0.308594,0.900024,0.286682,0.317993,0.081787,up
142672,-5.300781,5.769531,6.8125,-0.195312,-0.833984,0.308594,0.90155,0.286682,0.313477,0.082214,up
142677,-5.183594,5.769531,6.738281,-0.195312,-0.833984,0.308594,0.902222,0.286743,0.311401,0.082397,up
142682,-5.03125,5.882812,6.777344,-0.195312,-0.833984,0.308594,0.903076,0.286804,0.308777,0.082642,up
142687,-4.953125,5.996094,6.894531,-0.195312,-0.833984,0.308594,0.903076,0.286804,0.308777,0.082642,up
142692,-4.839844,5.996094,6.890625,-0.173828,-1.033203,0.339844,0.903076,0.286804,0.308777,0.082642,up
142697,-4.722656,5.996094,6.855469,-0.173828,-1.033203,0.339844,0.905518,0.287109,0.301208,0.083069,up
142702,-4.570312,5.996094,6.855469,-0.173828,-1.033203,0.339844,0.906372,0.287109,0.298523,0.083191,up
142707,-4.265625,6.035156,6.894531,-0.173828,-1.033203,0.339844,0.906372,0.287109,0.298523,0.083191,up
142712,-4.226562,6.035156,6.855469,-0.294922,-1.152344,0.337891,0.908325,0.286804,0.292725,0.083496,up
142717,-4.035156,5.996094,6.855469,-0.294922,-1.152344,0.337891,0.908325,0.286804,0.292725,0.083496,up
142722,-4.035156,6.035156,6.816406,-0.398438,-1.222656,0.304688,0.908325,0.286804,0.292725,0.083496,up
142727,-4.035156,5.84375,6.855469,-0.484375,-1.261719,0.253906,0.908325,0.286804,0.292725,0.083496,up
142732,-4.074219,5.960937,6.777344,-0.484375,-1.261719,0.253906,0.911865,0.285339,0.28302,0.08374,up
142737,-3.996094,5.84375,6.773437,-0.673828,-1.277344,0.193359,0.913086,0.284607,0.279846,0.08374,up
142742,-3.882813,5.613281,6.773437,-0.724609,-1.291016,0.164062,0.914368,0.283569,0.276611,0.08374,up
142747,-3.691406,5.386719,7.039062,-0.724609,-1.291016,0.164062,0.915527,0.282532,0.273743,0.083679,up
142752,-3.691406,5.308594,7.003906,-0.724609,-1.291016,0.164062,0.917114,0.281067,0.270081,0.083618,up
142757,-3.726563,5.230469,6.964844,-0.724609,-1.291016,0.164062,0.918335,0.279846,0.267212,0.083435,up
142763,-3.726563,5.15625,7.039062,-0.712891,-1.279297,0.033203,0.921143,0.277039,0.26062,0.082642,up
142768,-3.726563,5.15625,7.234375,-0.712891,-1.279297,0.033203,0.922424,0.275757,0.257629,0.082092,up
142774,-3.691406,5.117187,7.304687,-0.712891,-1.279297,0.033203,0.923523,0.274597,0.255005,0.081482,up
142779,-3.691406,5.117187,7.304687,-0.601562,-1.259766,-0.171875,0.924866,0.273254,0.251831,0.080566,up
142785,-3.613281,5.117187,7.34375,-0.601562,-1.259766,-0.171875,0.924866,0.273254,0.251831,0.080566,up
142791,-3.574219,5.308594,7.503906,-0.601562,-1.259766,-0.171875,0.927307,0.270874,0.246155,0.078674,up
142796,-3.535156,5.386719,7.582031,-0.601562,-1.234375,-0.230469,0.927307,0.270874,0.246155,0.078674,up
142801,-3.535156,5.347656,7.621094,-0.675781,-1.21875,-0.230469,0.927307,0.270874,0.246155,0.078674,up
142806,-3.574219,5.347656,7.617187,-0.763672,-1.207031,-0.220703,0.927307,0.270874,0.246155,0.078674,up
142811,-3.535156,5.269531,7.65625,-0.865234,-1.183594,-0.199219,0.927307,0.270874,0.246155,0.078674,up
142817,-3.5,5.308594,7.65625,-0.939453,-1.158203,-0.171875,0.927307,0.270874,0.246155,0.078674,up
142822,-3.5,5.308594,7.65625,-1.003906,-1.126953,-0.158203,0.934875,0.260803,0.229309,0.073608,up
142827,-3.535156,5.15625,7.726562,-1.003906,-1.126953,-0.158203,0.934875,0.260803,0.229309,0.073608,up
142832,-3.574219,5.078125,7.921875,-1.039063,-1.099609,-0.138672,0.934875,0.260803,0.229309,0.073608,up
142837,-3.574219,5.078125,7.921875,-1.001953,-1.050781,-0.121094,0.938782,0.254028,0.221313,0.072266,up
142842,-3.574219,5.078125,8.078125,-1.001953,-1.050781,-0.121094,0.939941,0.251831,0.218811,0.071899,up
142847,-3.574219,5.078125,8.078125,-0.826172,-0.949219,-0.121094,0.941162,0.249756,0.216309,0.071411,up
142852,-3.765625,5.15625,8.1875,-0.826172,-0.949219,-0.121094,0.942261,0.247742,0.213745,0.070923,up
142857,-3.804688,5.308594,8.269531,-0.826172,-0.949219,-0.121094,0.943298,0.245972,0.211487,0.070496,up
142862,-3.84375,5.308594,8.421875,-0.744141,-0.908203,-0.123047,0.945129,0.242859,0.207214,0.06958,up
142867,-3.882813,5.347656,8.460938,-0.744141,-0.908203,-0.123047,0.945129,0.242859,0.207214,0.06958,up
142872,-3.882813,5.347656,8.5,-0.724609,-0.916016,-0.076172,0.945129,0.242859,0.207214,0.06958,up
142877,-3.882813,5.269531,8.464844,-0.724609,-0.916016,-0.076172,0.94696,0.239685,0.202759,0.068726,up
142882,-3.882813,5.15625,8.386719,-0.724609,-0.916016,-0.076172,0.948853,0.236267,0.198059,0.068176,up
142887,-3.882813,5.039062,8.347656,-0.724609,-0.916016,-0.076172,0.948853,0.236267,0.198059,0.068176,up
142892,-3.804688,4.964844,8.347656,-0.914062,-1.009766,0.019531,0.950867,0.232422,0.192932,0.067932,up
142897,-3.765625,4.886719,8.464844,-0.914062,-1.009766,0.019531,0.950867,0.232422,0.192932,0.067932,up
142902,-3.726563,4.773437,8.421875,-0.978516,-1.085938,0.09375,0.951965,0.230286,0.190125,0.067932,up
142908,-3.652344,4.734375,8.421875,-0.976562,-1.111328,0.130859,0.954163,0.226074,0.184021,0.068176,up
142913,-3.574219,4.734375,8.269531,-0.976562,-1.111328,0.130859,0.955139,0.224182,0.181091,0.068359,up
142918,-3.5,4.65625,8.230469,-0.976562,-1.111328,0.130859,0.955994,0.222656,0.178284,0.068604,up
142923,-3.421875,4.65625,8.152344,-0.722656,-1.148438,0.265625,0.955994,0.222656,0.178284,0.068604,up
142928,-3.382813,4.582031,8.078125,-0.722656,-1.148438,0.265625,0.957764,0.219727,0.171997,0.069214,up
142934,-3.152344,4.121094,7.886719,-0.722656,-1.148438,0.265625,0.958496,0.218689,0.169312,0.069519,up
142939,-3.152344,4.121094,7.886719,-0.509766,-1.097656,0.304688,0.959229,0.217651,0.166199,0.069885,up
142945,-3.039063,4.042969,7.695312,-0.509766,-1.097656,0.304688,0.959839,0.216858,0.163452,0.07019,up
142951,-3.039063,4.042969,7.660156,-0.412109,-1.029297,0.300781,0.959839,0.216858,0.163452,0.07019,up
142957,-3.0,4.042969,7.542969,-0.412109,-1.029297,0.300781,0.959839,0.216858,0.163452,0.07019,up
142962,-2.925781,4.042969,7.421875,-0.392578,-0.927734,0.279297,0.959839,0.216858,0.163452,0.07019,up
142967,-2.847656,4.042969,7.382812,-0.412109,-0.867187,0.267578,0.959839,0.216858,0.163452,0.07019,up
142972,-2.734375,4.042969,7.386719,-0.412109,-0.867187,0.267578,0.962585,0.213379,0.150818,0.071838,up
142977,-2.65625,3.96875,7.386719,-0.460937,-0.722656,0.257813,0.962585,0.213379,0.150818,0.071838,up
142982,-2.65625,3.96875,7.386719,-0.490234,-0.654297,0.25,0.963501,0.21167,0.146851,0.072571,up
142987,-2.65625,3.96875,7.386719,-0.515625,-0.59375,0.230469,0.963989,0.210693,0.145142,0.072998,up
142992,-2.464844,3.8125,7.308594,-0.539062,-0.546875,0.216797,0.963989,0.210693,0.145142,0.072998,up
142998,-2.464844,3.738281,7.308594,-0.539062,-0.546875,0.216797,0.964417,0.209595,0.143494,0.073425,up
143003,-2.464844,3.738281,7.308594,-0.603516,-0.443359,0.136719,0.965698,0.205872,0.139343,0.074585,up
143009,-2.234375,3.164063,7.238281,-0.603516,-0.443359,0.136719,0.966187,0.204529,0.138184,0.074829,up
143014,-2.234375,2.972656,7.0,-0.693359,-0.396484,0.050781,0.966614,0.203064,0.137024,0.075012,up
143020,-2.121094,2.78125,6.734375,-0.785156,-0.365234,-0.009766,0.966614,0.203064,0.137024,0.075012,up
143025,-2.003906,2.894531,7.0,-0.785156,-0.365234,-0.009766,0.967651,0.199402,0.134949,0.075073,up
143031,-1.964844,2.894531,7.234375,-0.900391,-0.298828,-0.111328,0.967651,0.199402,0.134949,0.075073,up
143036,-1.929688,2.855469,7.234375,-0.886719,-0.273438,-0.15625,0.967651,0.199402,0.134949,0.075073,up
143041,-1.890625,2.78125,7.195312,-0.863281,-0.253906,-0.197266,0.967651,0.199402,0.134949,0.075073,up
143046,-1.851563,2.78125,7.199219,-0.835937,-0.238281,-0.214844,0.967651,0.199402,0.134949,0.075073,up
143051,-1.890625,2.816406,7.199219,-0.824219,-0.214844,-0.242187,0.967651,0.199402,0.134949,0.075073,up
143056,-1.929688,2.742188,7.195312,-0.810547,-0.1875,-0.244141,0.967651,0.199402,0.134949,0.075073,up
143062,-1.890625,2.625,7.160156,-0.810547,-0.1875,-0.244141,0.971802,0.183044,0.129944,0.072449,up
143067,-1.890625,2.511719,7.117187,-0.810547,-0.1875,-0.244141,0.971802,0.183044,0.129944,0.072449,up
143072,-1.929688,2.398438,7.238281,-0.724609,0.0,-0.285156,0.971802,0.183044,0.129944,0.072449,up
143077,-1.929688,2.359375,7.277344,-0.724609,0.0,-0.285156,0.972595,0.179321,0.129639,0.071472,up
143082,-1.929688,2.167969,7.234375,-0.724609,0.0,-0.285156,0.972595,0.179321,0.129639,0.071472,up
143087,-1.929688,2.128906,7.308594,-0.724609,0.0,-0.285156,0.973328,0.175354,0.129883,0.070374,up
143093,-1.929688,1.976563,7.308594,-0.71875,0.123047,-0.326172,0.973328,0.175354,0.129883,0.070374,up
143098,-1.929688,2.015625,7.304687,-0.71875,0.123047,-0.326172,0.973999,0.171692,0.130493,0.069397,up
143103,-2.003906,2.089844,7.347656,-0.673828,0.205078,-0.365234,0.974548,0.168274,0.131531,0.068176,up
143108,-2.042969,2.015625,7.308594,-0.585937,0.277344,-0.451172,0.974548,0.168274,0.131531,0.068176,up
143113,-2.082031,2.015625,7.273437,-0.539062,0.302734,-0.503906,0.974792,0.166443,0.132324,0.067383,up
143118,-2.121094,1.976563,7.238281,-0.539062,0.302734,-0.503906,0.97522,0.163574,0.133911,0.065613,up
143123,-2.082031,2.089844,7.277344,-0.539062,0.302734,-0.503906,0.97522,0.163574,0.133911,0.065613,up
143128,-2.121094,2.167969,7.277344,-0.457031,0.351563,-0.609375,0.975525,0.160706,0.135986,0.063171,up
143133,-2.121094,2.359375,7.273437,-0.457031,0.351563,-0.609375,0.975708,0.159241,0.137207,0.061584,up
143138,-2.195313,2.472656,7.277344,-0.457031,0.351563,-0.609375,0.975891,0.157959,0.138184,0.060242,up
143143,-2.195313,2.550781,7.273437,-0.457031,0.351563,-0.609375,0.975891,0.157959,0.138184,0.060242,up
143148,-2.195313,2.511719,7.238281,-0.589844,0.369141,-0.804687,0.975891,0.157959,0.138184,0.060242,up
143153,-2.195313,2.433594,7.273437,-0.589844,0.369141,-0.804687,0.976624,0.152039,0.141724,0.055054,up
143158,-2.15625,2.359375,7.277344,-0.589844,0.369141,-0.804687,0.976868,0.149963,0.1427,0.053589,up
143163,-2.121094,2.242188,7.234375,-0.589844,0.369141,-0.804687,0.976868,0.149963,0.1427,0.053589,up
143168,-2.042969,2.015625,7.199219,-0.9375,0.388672,-0.898437,0.976868,0.149963,0.1427,0.053589,up
143173,-1.964844,1.820313,7.277344,-1.037109,0.443359,-0.951172,0.977478,0.144775,0.14502,0.050171,up
143178,-1.890625,1.59375,7.199219,-1.037109,0.443359,-0.951172,0.978149,0.138855,0.147583,0.046509,up
143183,-1.890625,1.363281,7.117187,-1.037109,0.443359,-0.951172,0.978149,0.138855,0.147583,0.046509,up
143188,-1.851563,1.324219,7.078125,-1.039063,0.583984,-1.066406,0.978455,0.135559,0.14917,0.044434,up
143193,-1.964844,1.402344,6.964844,-1.039063,0.583984,-1.066406,0.97876,0.132446,0.150818,0.042419,up
143198,-2.082031,1.402344,7.003906,-1.039063,0.583984,-1.066406,0.978943,0.129517,0.152588,0.040344,up
143203,-2.195313,1.746094,7.195312,-0.935547,0.730469,-1.166016,0.979065,0.12677,0.15448,0.038208,up
143208,-2.195313,1.746094,7.195312,-0.861328,0.804687,-1.232422,0.979187,0.124268,0.156433,0.036011,up
143213,-2.273438,1.976563,7.34375,-0.861328,0.804687,-1.232422,0.979187,0.124268,0.156433,0.036011,up
143218,-2.578125,2.242188,7.421875,-0.792969,0.869141,-1.283203,0.979187,0.119141,0.161377,0.030884,up
143223,-2.578125,2.242188,7.421875,-0.792969,0.869141,-1.283203,0.979126,0.116516,0.164124,0.028137,up
143228,-2.925781,2.433594,7.695312,-0.792969,0.869141,-1.283203,0.978943,0.111084,0.169617,0.022705,up
143233,-3.0,2.472656,7.726562,-0.792969,0.869141,-1.283203,0.978943,0.111084,0.169617,0.022705,up
143238,-3.078125,2.472656,7.84375,-1.121094,1.03125,-1.419922,0.978943,0.111084,0.169617,0.022705,up
143244,-3.152344,2.359375,8.0,-1.201172,1.021484,-1.4375,0.97876,0.104797,0.175293,0.017273,up
143249,-3.191406,2.242188,8.109375,-1.201172,1.021484,-1.4375,0.978577,0.097168,0.181213,0.011414,up
143254,-3.078125,2.128906,8.347656,-1.201172,1.021484,-1.4375,0.978455,0.093201,0.18396,0.008545,up
143259,-3.0,2.089844,8.421875,-1.201172,1.021484,-1.4375,0.978455,0.093201,0.18396,0.008545,up
143265,-3.0,2.089844,8.148438,-1.300781,0.902344,-1.509766,0.978271,0.085999,0.18866,0.003174,up
143270,-3.0,2.128906,8.109375,-1.263672,0.878906,-1.570313,0.978271,0.085999,0.18866,0.003174,up
143275,-3.0,2.167969,8.148438,-1.210938,0.876953,-1.603516,0.978271,0.085999,0.18866,0.003174,up
143280,-2.960938,2.089844,8.109375,-1.210938,0.876953,-1.603516,0.977722,0.074646,0.196045,-0.006165,up
143286,-3.117188,2.089844,8.042969,-1.210938,0.876953,-1.603516,0.977722,0.074646,0.196045,-0.006165,up
143291,-3.230469,2.128906,8.078125,-1.109375,0.984375,-1.669922,0.977722,0.074646,0.196045,-0.006165,up
143297,-3.34375,2.320313,8.148438,-1.109375,0.984375,-1.669922,0.976746,0.064026,0.204102,-0.016235,up
143302,-3.421875,2.472656,8.113281,-1.128906,1.126953,-1.728516,0.976746,0.064026,0.204102,-0.016235,up
143308,-3.535156,2.625,8.152344,-1.169922,1.230469,-1.769531,0.975098,0.052917,0.213745,-0.026794,up
143313,-3.691406,2.933594,8.191406,-1.169922,1.230469,-1.769531,0.975098,0.052917,0.213745,-0.026794,up
143318,-3.804688,2.894531,8.304688,-1.169922,1.230469,-1.769531,0.974365,0.049011,0.217407,-0.030334,up
143323,-3.804688,2.894531,8.304688,-1.421875,1.554688,-1.875,0.973572,0.044861,0.221313,-0.033936,up
143328,-3.882813,2.78125,8.308594,-1.558594,1.664063,-1.925781,0.973572,0.044861,0.221313,-0.033936,up
143333,-3.882813,2.78125,8.308594,-1.697266,1.765625,-1.986328,0.971619,0.0354,0.230164,-0.04126,up
143338,-4.148437,2.242188,8.574219,-1.697266,1.765625,-1.986328,0.971619,0.0354,0.230164,-0.04126,up
143343,-4.148437,2.242188,8.574219,-1.939453,2.089844,-2.316406,0.969238,0.024536,0.240051,-0.049072,up
143348,-4.457031,2.089844,8.992188,-1.939453,2.089844,-2.316406,0.969238,0.024536,0.240051,-0.049072,up
143353,-4.609375,2.242188,9.191406,-1.939453,2.089844,-2.316406,0.966187,0.012939,0.250916,-0.057739,up
143358,-4.839844,2.398438,9.269531,-1.939453,2.089844,-2.316406,0.964355,0.006775,0.256897,-0.062866,up
143364,-5.566406,2.816406,9.300781,-1.832031,2.287109,-2.666016,0.964355,0.006775,0.256897,-0.062866,up
143370,-6.332031,3.355469,9.652344,-1.832031,2.287109,-2.666016,0.958496,-0.010132,0.274048,-0.078369,up
143375,-6.679687,3.585938,9.761719,-1.861328,2.333984,-2.773438,0.958496,-0.010132,0.274048,-0.078369,up
143380,-7.136719,3.585938,9.648438,-1.929688,2.320313,-2.746094,0.958496,-0.010132,0.274048,-0.078369,up
143385,-7.710937,3.699219,9.953125,-1.929688,2.320313,-2.746094,0.951477,-0.028076,0.291504,-0.09436,up
143391,-7.980469,3.660156,10.074219,-2.228516,2.216797,-2.640625,0.951477,-0.028076,0.291504,-0.09436,up
143396,-8.363281,3.546875,10.140625,-2.417969,2.201172,-2.576172,0.951477,-0.028076,0.291504,-0.09436,up
143401,-8.363281,3.546875,10.140625,-2.572266,2.169922,-2.470703,0.943848,-0.048706,0.308228,-0.108276,up
143406,-8.746094,3.277344,10.300781,-2.572266,2.169922,-2.470703,0.943848,-0.048706,0.308228,-0.108276,up
143411,-9.054688,3.007813,10.378906,-2.734375,2.158203,-2.234375,0.941101,-0.056335,0.313904,-0.112366,up
143416,-9.054688,3.007813,10.378906,-2.734375,2.158203,-2.234375,0.941101,-0.056335,0.313904,-0.112366,up
143421,-9.703125,2.742188,10.417969,-2.710938,2.160156,-2.105469,0.932617,-0.078552,0.330322,-0.122192,up
143426,-10.546875,2.359375,11.027344,-2.710938,2.160156,-2.105469,0.92981,-0.085083,0.335571,-0.125,up
143432,-11.046875,2.625,10.757813,-1.931641,2.050781,-1.644531,0.92981,-0.085083,0.335571,-0.125,up
143437,-11.460938,2.550781,10.875,-1.71875,1.978516,-1.451172,0.92981,-0.085083,0.335571,-0.125,up
143443,-12.347656,2.625,10.949219,-1.71875,1.978516,-1.451172,0.919678,-0.102905,0.35437,-0.13446,up
143448,-13.074219,2.742188,11.140625,-1.71875,1.978516,-1.451172,0.919678,-0.102905,0.35437,-0.13446,up
143453,-13.34375,2.855469,11.140625,-0.763672,1.568359,-0.828125,0.915771,-0.106995,0.361877,-0.137756,up
143458,-14.453125,2.320313,10.835938,-0.763672,1.568359,-0.828125,0.915771,-0.106995,0.361877,-0.137756,up
143463,-14.453125,2.320313,10.835938,-0.466797,1.205078,-0.382813,0.914307,-0.108215,0.364868,-0.138733,up
143468,-14.957031,2.128906,11.140625,-0.466797,1.205078,-0.382813,0.913086,-0.109009,0.367432,-0.139282,up
143473,-15.71875,1.976563,11.101563,-0.466797,1.205078,-0.382813,0.912109,-0.109619,0.36969,-0.139221,up
143479,-15.867188,2.015625,11.21875,-0.34375,0.271484,0.617187,0.912109,-0.109619,0.36969,-0.139221,up
143484,-15.832031,1.785156,10.875,-0.34375,0.271484,0.617187,0.911194,-0.110107,0.373291,-0.135254,up
143489,-15.761719,1.554688,10.757813,-0.523437,-0.191406,1.140625,0.911194,-0.110107,0.373291,-0.135254,up
143494,-15.644531,0.828125,10.488281,-0.523437,-0.191406,1.140625,0.911926,-0.110413,0.373474,-0.129272,up
143499,-15.445313,0.597656,10.566406,-0.642578,-0.486328,1.558594,0.911926,-0.110413,0.373474,-0.129272,up
143504,-15.261719,0.480469,10.644531,-0.642578,-0.486328,1.558594,0.912659,-0.110596,0.373047,-0.124878,up
143509,-14.917969,0.058594,10.566406,-0.710937,-0.601562,1.763672,0.912659,-0.110596,0.373047,-0.124878,up
143515,-14.457031,-0.667969,10.796875,-0.710937,-0.601562,1.763672,0.915405,-0.111084,0.370911,-0.110168,up
143520,-14.457031,-0.667969,10.796875,-0.859375,-0.9375,2.287109,0.916565,-0.111206,0.369751,-0.103943,up
143526,-14.335938,-1.203125,10.796875,-0.859375,-0.9375,2.287109,0.917847,-0.111206,0.368286,-0.097534,up
143531,-14.414063,-1.855469,10.453125,-0.859375,-0.9375,2.287109,0.917847,-0.111206,0.368286,-0.097534,up
143538,-14.070313,-1.855469,10.566406,-0.716797,-1.300781,2.724609,0.917847,-0.111206,0.368286,-0.097534,up
143543,-14.074219,-1.703125,10.261719,-0.595703,-1.421875,2.880859,0.917847,-0.111206,0.368286,-0.097534,up
143548,-13.917969,-1.894531,9.992188,-0.529297,-1.539063,3.091797,0.925903,-0.107178,0.357239,-0.06012,up
143553,-13.691406,-2.046875,9.953125,-0.529297,-1.539063,3.091797,0.925903,-0.107178,0.357239,-0.06012,up
143558,-13.914063,-2.238281,9.417969,-0.287109,-1.783203,3.527344,0.925903,-0.107178,0.357239,-0.06012,up
143564,-13.1875,-2.851563,9.53125,-0.259766,-1.951172,3.796875,0.925903,-0.107178,0.357239,-0.06012,up
143569,-13.386719,-3.003906,9.378906,-0.259766,-1.951172,3.796875,0.934021,-0.096802,0.343262,-0.020447,up
143574,-13.113281,-2.851563,9.609375,0.09375,-2.160156,4.730469,0.934021,-0.096802,0.343262,-0.020447,up
143579,-13.1875,-2.964844,9.492188,0.09375,-2.160156,4.730469,0.937866,-0.088562,0.335449,0.002197,up
143584,-13.421875,-3.847656,9.226563,0.09375,-2.160156,4.730469,0.937866,-0.088562,0.335449,0.002197,up
143589,-13.421875,-3.847656,9.226563,0.324219,-2.349609,5.302734,0.939697,-0.083801,0.33136,0.014038,up
143595,-12.921875,-4.308594,9.148438,0.324219,-2.349609,5.302734,0.943054,-0.072083,0.322266,0.0401,up
143600,-12.765625,-4.230469,8.726563,0.324219,-2.349609,5.302734,0.944519,-0.064941,0.317322,0.05426,up
143606,-12.5,-3.503906,8.574219,0.324219,-2.349609,5.302734,0.94574,-0.057312,0.3125,0.068298,up
143612,-12.121094,-3.847656,8.078125,1.294922,-2.585938,6.453125,0.94574,-0.057312,0.3125,0.068298,up
143617,-12.117188,-4.117187,8.269531,1.376953,-2.607422,6.658203,0.94574,-0.057312,0.3125,0.068298,up
143622,-12.082031,-3.234375,7.617187,1.376953,-2.607422,6.658203,0.947693,-0.030823,0.297058,0.112732,up
143627,-11.960938,-2.929688,7.503906,1.666016,-2.658203,7.011719,0.947693,-0.030823,0.297058,0.112732,up
143632,-11.84375,-2.542969,7.308594,1.697266,-2.628906,7.123047,0.947693,-0.030823,0.297058,0.112732,up
143637,-11.921875,-2.160156,7.042969,1.689453,-2.623047,7.238281,0.947693,-0.030823,0.297058,0.112732,up
143642,-11.960938,-2.199219,6.851562,1.689453,-2.623047,7.238281,0.947693,-0.030823,0.297058,0.112732,up
143647,-12.0,-2.277344,6.734375,1.623047,-2.617188,7.324219,0.943481,0.01947,0.269348,0.1922,up
143652,-12.0,-2.277344,6.734375,1.433594,-2.626953,7.498047,0.941406,0.029236,0.26355,0.208313,up
143658,-11.542969,-1.894531,6.660156,1.341797,-2.650391,7.582031,0.941406,0.029236,0.26355,0.208313,up
143663,-11.433594,-1.816406,6.734375,1.341797,-2.650391,7.582031,0.936035,0.048584,0.251038,0.24176,up
143669,-11.277344,-1.742188,6.851562,1.292969,-2.785156,7.726562,0.929016,0.068054,0.237305,0.275635,up
143674,-11.15625,-2.160156,6.699219,1.351563,-2.962891,7.890625,0.929016,0.068054,0.237305,0.275635,up
143679,-11.007813,-2.085938,6.621094,1.351563,-2.962891,7.890625,0.924805,0.078125,0.229919,0.292908,up
143684,-11.007813,-2.085938,6.621094,1.441406,-3.078125,7.984375,0.920288,0.088074,0.222412,0.30957,up
143689,-10.773438,-2.199219,6.582031,1.441406,-3.078125,7.984375,0.915344,0.098267,0.214661,0.326233,up
143694,-9.703125,-2.351563,6.085937,1.664063,-3.253906,8.142578,0.909912,0.108887,0.206604,0.342834,up
143699,-9.359375,-2.316406,6.046875,1.845703,-3.316406,8.216797,0.903687,0.120239,0.19812,0.359985,up
143705,-9.125,-2.238281,6.007812,2.353516,-3.451172,8.353516,0.903687,0.120239,0.19812,0.359985,up
143710,-8.558594,-2.507813,5.855469,2.353516,-3.451172,8.353516,0.881226,0.158264,0.172058,0.410828,up
143715,-8.285156,-2.429688,5.894531,2.353516,-3.451172,8.353516,0.873718,0.170288,0.164673,0.424866,up
143720,-8.214844,-1.933594,5.894531,3.427734,-3.724609,8.728516,0.873718,0.170288,0.164673,0.424866,up
143725,-8.214844,-1.933594,5.894531,3.898438,-3.898438,8.933594,0.854065,0.200562,0.147827,0.456604,up
143731,-7.171875,-2.660156,7.15625,3.898438,-3.898438,8.933594,0.842957,0.217102,0.139404,0.472046,up
143737,-6.910156,-3.082031,6.890625,4.710937,-4.251953,9.46875,0.842957,0.217102,0.139404,0.472046,up
143742,-6.910156,-3.082031,6.890625,5.121094,-4.300781,9.804688,0.816895,0.253662,0.122009,0.503479,up
143747,-6.410156,-3.003906,6.199219,5.548828,-4.427734,10.224609,0.802002,0.272827,0.113525,0.519043,up
143752,-6.410156,-3.003906,6.199219,6.025391,-4.654297,10.779297,0.802002,0.272827,0.113525,0.519043,up
143758,-6.332031,-2.507813,7.0,6.025391,-4.654297,10.779297,0.766541,0.315002,0.095276,0.551453,up
143763,-5.492187,-2.199219,7.121094,6.994141,-5.384766,11.859375,0.766541,0.315002,0.095276,0.551453,up
143769,-9.4375,-1.777344,4.476562,7.410156,-5.841797,12.480469,0.698669,0.385315,0.064087,0.599426,up
143774,-9.089844,-6.492187,3.632813,7.410156,-5.841797,12.480469,0.698669,0.385315,0.064087,0.599426,up
143779,-7.59375,-7.332031,2.714844,7.539062,-5.470703,13.603516,0.698669,0.385315,0.064087,0.599426,up
143784,-6.984375,-6.03125,2.753906,7.539062,-5.470703,13.603516,0.644653,0.430725,0.042053,0.630188,up
143789,-6.984375,-6.03125,2.753906,7.751953,-5.279297,13.841797,0.614075,0.453186,0.030334,0.645508,up
143794,-6.984375,-5.800781,2.753906,7.751953,-5.279297,13.841797,0.614075,0.453186,0.030334,0.645508,up
143799,-6.605469,-6.527344,2.292969,8.009766,-5.050781,13.849609,0.614075,0.453186,0.030334,0.645508,up
143804,-2.042969,-5.074219,-0.273438,7.6875,-4.9375,13.332031,0.614075,0.453186,0.030334,0.645508,up
143810,-1.238281,-3.042969,-0.199219,7.458984,-5.056641,12.970703,0.451782,0.549255,-0.022156,0.702637,up
143815,-0.394531,-1.433594,0.570312,7.628906,-5.691406,11.470703,0.417908,0.567749,-0.032227,0.708496,up
143821,3.359375,1.09375,5.625,7.628906,-5.691406,11.470703,0.389221,0.582764,-0.038574,0.71228,up
143826,3.359375,1.09375,5.625,9.134766,-3.339844,9.324219,0.389221,0.582764,-0.038574,0.71228,up
143831,5.542969,1.820313,6.738281,9.134766,-3.339844,9.324219,0.357544,0.597595,-0.041504,0.716431,up
143837,5.542969,1.820313,6.738281,9.818359,-2.121094,8.242188,0.298462,0.619812,-0.0354,0.724915,up
143843,8.417969,3.164063,6.925781,9.818359,-2.121094,8.242188,0.270142,0.628601,-0.028442,0.72876,up
143848,8.417969,3.164063,6.925781,8.535156,-0.046875,5.208984,0.245667,0.634888,-0.021118,0.732239,up
143853,7.453125,1.402344,4.398437,6.724609,0.371094,4.271484,0.245667,0.634888,-0.021118,0.732239,up
143859,6.304687,-0.476562,3.824219,2.6875,0.4375,2.617188,0.245667,0.634888,-0.021118,0.732239,up
143865,5.921875,-1.164063,3.363281,2.6875,0.4375,2.617188,0.189819,0.642212,-0.007813,0.742615,up
143870,5.84375,-2.125,3.097656,-0.787109,0.455078,1.3125,0.189819,0.642212,-0.007813,0.742615,up
143875,6.160156,-3.925781,3.554688,-0.787109,0.455078,1.3125,0.186829,0.639893,-0.014099,0.7453,up
143880,6.386719,-4.535156,4.515625,-0.787109,0.455078,1.3125,0.189758,0.637512,-0.019653,0.74646,up
143885,6.460937,-5.265625,5.703125,-4.169922,0.734375,0.322266,0.189758,0.637512,-0.019653,0.74646,up
143890,6.539062,-5.457031,7.726562,-4.169922,0.734375,0.322266,0.195435,0.634094,-0.027588,0.74762,up
143896,7.726562,-5.1875,8.847656,-4.169922,0.734375,0.322266,0.209717,0.626404,-0.044739,0.74939,up
143902,7.378906,-4.804687,9.226563,-5.617187,1.304688,-0.160156,0.218567,0.621399,-0.054199,0.750427,up
143909,8.03125,-4.613281,9.148438,-5.363281,1.283203,-0.316406,0.218567,0.621399,-0.054199,0.750427,up
143915,7.957031,-4.421875,8.769531,-3.400391,1.726563,-0.533203,0.218567,0.621399,-0.054199,0.750427,up
143920,7.839844,-4.191406,8.0,-1.744141,1.552734,-0.59375,0.244507,0.604492,-0.077942,0.754089,up
143925,7.839844,-4.191406,8.0,-0.138672,1.123047,-0.644531,0.252319,0.597351,-0.08075,0.756958,up
143930,7.953125,-2.160156,6.046875,-0.138672,1.123047,-0.644531,0.252319,0.597351,-0.08075,0.756958,up
143935,7.953125,-2.160156,6.046875,-0.138672,1.123047,-0.644531,0.252319,0.597351,-0.08075,0.756958,up
143940,8.957031,-0.628906,6.964844,2.753906,0.236328,-0.726562,0.250916,0.597412,-0.072632,0.75824,up
143945,8.875,0.863281,6.734375,2.753906,0.236328,-0.726562,0.247681,0.598999,-0.065247,0.758667,up
143950,9.101563,1.402344,5.929687,4.326172,0.322266,-0.876953,0.238403,0.60321,-0.046082,0.759705,up
143956,9.371094,2.398438,5.242187,3.939453,0.175781,-0.980469,0.233704,0.605469,-0.035828,0.759888,up
143961,9.296875,2.855469,4.742187,3.939453,0.175781,-0.980469,0.230347,0.607361,-0.027893,0.759766,up
143967,8.984375,3.699219,3.480469,3.939453,0.175781,-0.980469,0.227905,0.609192,-0.020935,0.759277,up
143972,9.179688,4.003906,3.058594,1.570313,-0.251953,-0.972656,0.227905,0.609192,-0.020935,0.759277,up
143977,9.484375,4.351562,2.789063,0.628906,-0.392578,-0.939453,0.227905,0.609192,-0.020935,0.759277,up
143982,9.683594,4.160156,2.636719,-0.384766,-0.478516,-0.898437,0.228516,0.612854,-0.011047,0.756348,up
143987,9.601563,3.890625,2.558594,-1.207031,-0.523437,-0.876953,0.228516,0.612854,-0.011047,0.756348,up
143993,9.640625,3.8125,2.523438,-1.742188,-0.560547,-0.867187,0.228516,0.612854,-0.011047,0.756348,up
143998,9.683594,3.738281,2.445313,-2.091797,-0.556641,-0.863281,0.228516,0.612854,-0.011047,0.756348,up
144003,9.792969,3.585938,2.332031,-2.091797,-0.556641,-0.863281,0.244812,0.61322,-0.01886,0.750732,up
144008,9.832031,3.507813,2.292969,-2.412109,-0.5,-0.794922,0.244812,0.61322,-0.01886,0.750732,up
144013,9.910156,3.394531,2.253906,-2.310547,-0.449219,-0.759766,0.244812,0.61322,-0.01886,0.750732,up
144018,9.984375,3.355469,2.101563,-2.310547,-0.449219,-0.759766,0.26001,0.611633,-0.029053,0.746643,up
144024,9.984375,3.394531,1.640625,-0.953125,-0.169922,-0.712891,0.26001,0.611633,-0.029053,0.746643,up
144029,9.988281,3.507813,1.488281,-0.953125,-0.169922,-0.712891,0.267212,0.610718,-0.032654,0.74469,up
144035,9.867188,3.890625,1.488281,-0.410156,-0.091797,-0.71875,0.267212,0.610718,-0.032654,0.74469,up
144040,9.71875,3.96875,1.601563,0.40625,0.048828,-0.714844,0.271301,0.610596,-0.032227,0.743347,up
144045,9.5625,4.121094,1.71875,0.40625,0.048828,-0.714844,0.272949,0.611023,-0.028564,0.742554,up
144050,9.484375,4.234375,1.757813,0.705078,0.099609,-0.691406,0.272949,0.611023,-0.028564,0.742554,up
144055,9.40625,4.273437,1.757813,0.705078,0.099609,-0.691406,0.273499,0.611633,-0.023621,0.742004,up
144060,9.335938,4.351562,1.871094,0.705078,0.099609,-0.691406,0.273499,0.611633,-0.023621,0.742004,up
144065,9.335938,4.351562,1.871094,0.609375,0.056641,-0.638672,0.273743,0.611938,-0.021362,0.74176,up
144070,9.445313,4.390625,2.023438,0.410156,0.03125,-0.613281,0.273743,0.611938,-0.021362,0.74176,up
144075,9.566406,4.273437,2.214844,0.158203,0.021484,-0.568359,0.27478,0.612366,-0.017883,0.741028,up
144080,9.566406,4.273437,2.214844,0.158203,0.021484,-0.568359,0.27478,0.612366,-0.017883,0.741028,up
144085,9.523438,4.160156,2.175781,-0.353516,-0.023437,-0.492187,0.27478,0.612366,-0.017883,0.741028,up
144090,9.605469,3.890625,2.253906,-0.496094,-0.066406,-0.445312,0.280334,0.611755,-0.016968,0.739502,up
144095,9.679688,3.699219,2.292969,-0.496094,-0.066406,-0.445312,0.282166,0.611511,-0.017456,0.739014,up
144100,9.683594,3.585938,2.253906,-0.496094,-0.066406,-0.445312,0.282166,0.611511,-0.017456,0.739014,up
144105,9.640625,3.546875,2.292969,-0.380859,-0.099609,-0.341797,0.282166,0.611511,-0.017456,0.739014,up
144111,9.566406,3.429688,2.332031,-0.380859,-0.099609,-0.341797,0.28595,0.611145,-0.01825,0.737854,up
144116,9.566406,3.355469,2.332031,-0.115234,-0.056641,-0.345703,0.286987,0.611084,-0.018005,0.737427,up
144122,9.488281,3.238281,2.332031,-0.115234,-0.056641,-0.345703,0.287659,0.611145,-0.017639,0.737183,up
144127,9.410156,3.277344,2.445313,-0.115234,-0.056641,-0.345703,0.288147,0.611328,-0.016785,0.736877,up
144133,9.261719,3.394531,2.523438,-0.115234,-0.056641,-0.345703,0.288147,0.611328,-0.016785,0.736877,up
144138,9.179688,3.507813,2.523438,0.433594,-0.003906,-0.388672,0.288147,0.611328,-0.016785,0.736877,up
144144,8.984375,3.660156,2.523438,0.46875,0.011719,-0.392578,0.288147,0.611328,-0.016785,0.736877,up
144149,8.878906,3.777344,2.484375,0.464844,0.003906,-0.402344,0.288147,0.611328,-0.016785,0.736877,up
144155,8.800781,3.777344,2.445313,0.314453,0.011719,-0.400391,0.288147,0.611328,-0.016785,0.736877,up
144161,8.796875,3.738281,2.367188,0.314453,0.011719,-0.400391,0.289368,0.613098,-0.007446,0.735046,up
144167,8.761719,3.851563,2.484375,0.314453,0.011719,-0.400391,0.289856,0.613281,-0.006653,0.734741,up
144172,8.796875,3.851563,2.523438,-0.060547,-0.082031,-0.326172,0.290466,0.613403,-0.006165,0.734375,up
144177,8.835938,3.890625,2.523438,-0.193359,-0.082031,-0.298828,0.29126,0.613403,-0.00592,0.73407,up
144182,8.957031,3.8125,2.484375,-0.193359,-0.082031,-0.298828,0.292175,0.613342,-0.005981,0.733765,up
144189,8.917969,3.8125,2.523438,-0.384766,-0.054687,-0.263672,0.292175,0.613342,-0.005981,0.733765,up
144194,8.917969,3.660156,2.523438,-0.449219,-0.035156,-0.25,0.292175,0.613342,-0.005981,0.733765,up
144200,8.878906,3.507813,2.484375,-0.486328,-0.001953,-0.238281,0.292175,0.613342,-0.005981,0.733765,up
144205,8.796875,3.394531,2.484375,-0.486328,-0.001953,-0.238281,0.296753,0.612244,-0.007568,0.732849,up
144211,8.761719,3.277344,2.484375,-0.501953,0.070312,-0.240234,0.296753,0.612244,-0.007568,0.732849,up
144216,8.761719,3.125,2.523438,-0.501953,0.070312,-0.240234,0.300598,0.610657,-0.009033,0.732544,up
144222,8.761719,3.164063,2.523438,-0.501953,0.070312,-0.240234,0.301697,0.610168,-0.009338,0.732483,up
144227,8.761719,3.164063,2.558594,-0.296875,0.136719,-0.279297,0.302734,0.60968,-0.009399,0.732483,up
144232,8.679688,3.203125,2.558594,-0.205078,0.158203,-0.298828,0.302734,0.60968,-0.009399,0.732483,up
