timestamp,ax,ay,az,gx,gy,gz,qw,qx,qy,qz,label
200979,0.601562,7.839844,6.46875,-0.455078,0.482422,0.246094,0.909119,0.414917,-0.0354,-0.011414,up
200984,0.675781,7.71875,6.507812,-0.455078,0.482422,0.246094,0.909119,0.414917,-0.0354,-0.011414,up
200989,0.714844,7.679687,6.542969,-0.427734,0.501953,0.330078,0.910095,0.412964,-0.033691,-0.008911,up
200994,0.714844,7.640625,6.542969,-0.339844,0.554687,0.363281,0.910095,0.412964,-0.033691,-0.008911,up
200999,0.601562,7.457031,6.507812,-0.339844,0.554687,0.363281,0.910522,0.412109,-0.032837,-0.007568,up
201004,0.5625,7.496094,6.46875,-0.203125,0.59375,0.359375,0.910522,0.412109,-0.032837,-0.007568,up
201010,0.445312,7.417969,6.507812,-0.203125,0.59375,0.359375,0.911377,0.4104,-0.029785,-0.003296,up
201016,0.410156,7.457031,6.507812,-0.203125,0.59375,0.359375,0.91156,0.410156,-0.02887,-0.002014,up
201022,0.410156,7.417969,6.621094,-0.203125,0.59375,0.359375,0.911621,0.410034,-0.027771,-0.00061,up
201028,0.371094,7.457031,6.621094,0.054687,0.576172,0.314453,0.911621,0.410034,-0.027771,-0.00061,up
201034,0.292969,7.378906,6.621094,0.119141,0.558594,0.292969,0.911621,0.410034,-0.027771,-0.00061,up
201039,0.371094,7.339844,6.507812,0.244141,0.503906,0.251953,0.911621,0.410034,-0.027771,-0.00061,up
201044,0.332031,7.261719,6.507812,0.244141,0.503906,0.251953,0.911255,0.411133,-0.023865,0.004395,up
201050,0.332031,7.261719,6.507812,0.359375,0.4375,0.197266,0.910645,0.412476,-0.022156,0.006348,up
201055,0.332031,7.296875,6.542969,0.417969,0.412109,0.179687,0.910217,0.413452,-0.021301,0.007324,up
201061,0.292969,7.457031,6.46875,0.417969,0.412109,0.179687,0.909851,0.414368,-0.02063,0.008118,up
201066,0.292969,7.535156,6.46875,0.417969,0.412109,0.179687,0.909302,0.415527,-0.019836,0.00885,up
201072,0.140625,7.71875,6.46875,0.417969,0.412109,0.179687,0.909302,0.415527,-0.019836,0.00885,up
201078,0.0625,7.839844,6.46875,0.533203,0.308594,0.113281,0.908264,0.417908,-0.018555,0.010132,up
201083,0.101563,7.917969,6.46875,0.533203,0.308594,0.113281,0.907593,0.419312,-0.017883,0.010803,up
201089,0.0625,8.0625,6.46875,0.460937,0.216797,0.136719,0.907593,0.419312,-0.017883,0.010803,up
201094,0.027344,8.140625,6.390625,0.460937,0.216797,0.136719,0.906616,0.421387,-0.017029,0.011841,up
201099,0.0625,8.222656,6.316406,0.404297,0.185547,0.142578,0.906616,0.421387,-0.017029,0.011841,up
201104,0.0625,8.222656,6.316406,0.404297,0.185547,0.142578,0.905457,0.423889,-0.016235,0.013428,up
201109,0.0625,8.105469,6.316406,0.404297,0.185547,0.142578,0.905457,0.423889,-0.016235,0.013428,up
201114,0.101563,8.0625,6.277344,0.126953,0.099609,0.183594,0.905457,0.423889,-0.016235,0.013428,up
201119,0.140625,7.835937,6.238281,0.027344,0.085937,0.193359,0.905457,0.423889,-0.016235,0.013428,up
201124,0.21875,7.722656,6.238281,0.027344,0.085937,0.193359,0.905151,0.4245,-0.016113,0.015015,up
201129,0.253906,7.601562,6.199219,-0.166016,0.068359,0.208984,0.905151,0.4245,-0.016113,0.015015,up
201134,0.292969,7.492187,6.199219,-0.166016,0.068359,0.208984,0.905396,0.42395,-0.016235,0.016052,up
201139,0.410156,7.300781,6.199219,-0.166016,0.068359,0.208984,0.905579,0.423584,-0.016296,0.016602,up
201144,0.410156,7.257812,6.199219,-0.208984,0.101563,0.197266,0.905762,0.423096,-0.016357,0.01709,up
201149,0.410156,7.152344,6.238281,-0.208984,0.101563,0.197266,0.906006,0.422607,-0.016357,0.0177,up
201154,0.410156,7.109375,6.199219,-0.142578,0.150391,0.171875,0.906189,0.42218,-0.016296,0.01825,up
201160,0.371094,7.035156,6.121094,-0.142578,0.150391,0.171875,0.906433,0.42157,-0.01593,0.019226,up
201165,0.371094,6.917969,6.121094,-0.021484,0.175781,0.138672,0.906494,0.421448,-0.015686,0.019775,up
201170,0.332031,6.996094,6.085937,-0.021484,0.175781,0.138672,0.906494,0.421448,-0.015381,0.020264,up
201175,0.332031,6.992187,6.046875,-0.021484,0.175781,0.138672,0.906433,0.421631,-0.015137,0.020691,up
201180,0.332031,7.03125,6.046875,0.154297,0.185547,0.109375,0.90625,0.421936,-0.014832,0.021179,up
201185,0.332031,7.035156,6.085937,0.195312,0.199219,0.103516,0.906067,0.422363,-0.014465,0.021606,up
201190,0.371094,7.109375,6.046875,0.195312,0.199219,0.103516,0.905823,0.422852,-0.014038,0.022095,up
201195,0.332031,7.148437,6.046875,0.195312,0.199219,0.103516,0.905579,0.423401,-0.013672,0.022461,up
201200,0.371094,7.148437,5.929687,0.259766,0.248047,0.068359,0.905579,0.423401,-0.013672,0.022461,up
201205,0.253906,7.109375,5.929687,0.259766,0.248047,0.068359,0.904968,0.424622,-0.012634,0.023315,up
201211,0.179687,7.296875,5.816406,0.259766,0.248047,0.068359,0.904724,0.42511,-0.012146,0.023743,up
201216,0.179687,7.296875,5.929687,0.236328,0.263672,0.074219,0.90448,0.425659,-0.011597,0.02417,up
201221,0.179687,7.417969,5.929687,0.201172,0.259766,0.066406,0.90448,0.425659,-0.011597,0.02417,up
201228,0.179687,7.453125,5.96875,0.173828,0.267578,0.0625,0.90448,0.425659,-0.011597,0.02417,up
201233,0.179687,7.492187,5.96875,0.173828,0.267578,0.0625,0.90387,0.427002,-0.009888,0.025391,up
201239,0.179687,7.535156,5.929687,0.121094,0.291016,0.037109,0.90387,0.427002,-0.009888,0.025391,up
201245,0.179687,7.492187,5.894531,0.099609,0.302734,0.03125,0.90387,0.427002,-0.009888,0.025391,up
201251,0.101563,7.453125,5.855469,0.099609,0.302734,0.03125,0.903381,0.427856,-0.007202,0.026917,up
201256,0.101563,7.453125,5.855469,0.025391,0.333984,-0.015625,0.903381,0.427979,-0.006409,0.027222,up
201262,0.101563,7.453125,5.855469,0.005859,0.330078,-0.017578,0.90332,0.427979,-0.005615,0.027588,up
201267,0.027344,7.53125,5.929687,0.005859,0.330078,-0.017578,0.90332,0.427979,-0.004883,0.027832,up
201273,0.0625,7.535156,6.007812,-0.03125,0.333984,-0.033203,0.90332,0.427979,-0.004883,0.027832,up
201278,-0.011719,7.566406,6.046875,-0.042969,0.332031,-0.046875,0.90332,0.427979,-0.004883,0.027832,up
201284,-0.050781,7.566406,6.121094,-0.058594,0.333984,-0.042969,0.903503,0.427551,-0.001648,0.028809,up
201289,-0.089844,7.5625,6.121094,-0.058594,0.333984,-0.042969,0.903503,0.427551,-0.001648,0.028809,up
201294,-0.050781,7.53125,6.199219,-0.056641,0.304688,-0.027344,0.903503,0.427551,-0.001648,0.028809,up
201299,-0.050781,7.53125,6.199219,-0.048828,0.289063,-0.015625,0.903625,0.427307,-0.000183,0.029358,up
201304,-0.089844,7.535156,6.199219,-0.048828,0.289063,-0.015625,0.903625,0.427307,-0.000183,0.029358,up
201309,-0.089844,7.53125,6.238281,-0.027344,0.261719,0.011719,0.903687,0.427124,0.001099,0.029907,up
201314,-0.089844,7.53125,6.238281,0.001953,0.25,0.013672,0.903687,0.427063,0.001648,0.030151,up
201320,0.101563,7.535156,6.238281,0.029297,0.246094,0.033203,0.903625,0.427185,0.002747,0.030823,up
201325,0.101563,7.496094,6.277344,0.029297,0.246094,0.033203,0.903625,0.427185,0.002747,0.030823,up
201330,0.101563,7.492187,6.199219,0.083984,0.28125,0.015625,0.903625,0.427185,0.002747,0.030823,up
201335,0.140625,7.492187,6.160156,0.083984,0.28125,0.015625,0.903381,0.427673,0.004639,0.031799,up
201341,0.179687,7.453125,6.121094,0.09375,0.328125,0.001953,0.903259,0.427856,0.00531,0.032104,up
201346,0.179687,7.414062,6.121094,0.09375,0.328125,0.001953,0.903137,0.42804,0.006104,0.032471,up
201351,0.179687,7.414062,6.121094,0.085937,0.365234,-0.005859,0.903137,0.42804,0.006104,0.032471,up
201357,0.179687,7.453125,6.121094,0.085937,0.365234,-0.005859,0.902954,0.428406,0.007751,0.033142,up
201363,0.179687,7.453125,6.085937,0.076172,0.400391,-0.011719,0.902954,0.428406,0.007751,0.033142,up
201368,0.140625,7.492187,6.085937,0.080078,0.416016,-0.015625,0.902954,0.428406,0.007751,0.033142,up
201374,0.101563,7.566406,6.121094,0.070312,0.423828,-0.019531,0.902954,0.428406,0.007751,0.033142,up
201379,0.101563,7.605469,6.085937,0.070312,0.423828,-0.019531,0.902527,0.429016,0.011597,0.034729,up
201385,0.0625,7.566406,6.160156,0.042969,0.410156,-0.019531,0.902527,0.429016,0.011597,0.034729,up
201390,0.140625,7.605469,6.199219,0.042969,0.410156,-0.019531,0.902344,0.429321,0.014587,0.035889,up
201395,0.140625,7.601562,6.238281,0.042969,0.410156,-0.019531,0.902283,0.429321,0.015442,0.036194,up
201400,0.179687,7.601562,6.238281,0.042969,0.410156,-0.019531,0.902283,0.429321,0.015442,0.036194,up
201405,0.292969,7.5625,6.316406,0.011719,0.369141,-0.041016,0.902222,0.429382,0.017273,0.036743,up
201410,0.371094,7.496094,6.351562,0.011719,0.369141,-0.041016,0.902222,0.429382,0.018127,0.036987,up
201415,0.445312,7.453125,6.316406,-0.035156,0.394531,-0.080078,0.902222,0.429382,0.018127,0.036987,up
201420,0.410156,7.378906,6.238281,-0.035156,0.394531,-0.080078,0.902222,0.429321,0.019043,0.03717,up
201425,0.410156,7.261719,6.085937,-0.058594,0.439453,-0.095703,0.902222,0.429321,0.019043,0.03717,up
201430,0.410156,7.21875,6.046875,-0.072266,0.560547,-0.103516,0.902283,0.428955,0.021362,0.03772,up
201436,0.371094,7.296875,6.085937,-0.072266,0.560547,-0.103516,0.902344,0.428589,0.023987,0.038391,up
201441,0.332031,7.296875,6.085937,-0.037109,0.664062,-0.111328,0.902405,0.428406,0.025757,0.038879,up
201447,0.253906,7.378906,6.007812,-0.037109,0.664062,-0.111328,0.902344,0.428345,0.027283,0.039307,up
201452,0.179687,7.414062,6.007812,0.070312,0.791016,-0.126953,0.902344,0.428345,0.027283,0.039307,up
201457,0.101563,7.453125,6.046875,0.142578,0.84375,-0.142578,0.902344,0.428345,0.027283,0.039307,up
201462,0.027344,7.496094,5.894531,0.230469,0.904297,-0.148437,0.902344,0.428345,0.027283,0.039307,up
201467,-0.011719,7.53125,5.894531,0.335938,0.96875,-0.142578,0.902344,0.428345,0.027283,0.039307,up
201473,-0.089844,7.644531,5.894531,0.417969,1.017578,-0.125,0.902344,0.428345,0.027283,0.039307,up
201478,-0.164062,7.683594,5.929687,0.515625,1.052734,-0.105469,0.902344,0.428345,0.027283,0.039307,up
201484,-0.320313,7.875,5.894531,0.515625,1.052734,-0.105469,0.899658,0.43219,0.04303,0.043945,up
201489,-0.394531,7.875,5.855469,0.580078,1.082031,-0.017578,0.899658,0.43219,0.04303,0.043945,up
201495,-0.472656,7.957031,5.816406,0.595703,1.091797,0.097656,0.899658,0.43219,0.04303,0.043945,up
201500,-0.550781,8.183594,5.738281,0.595703,1.091797,0.097656,0.896545,0.437134,0.05304,0.048645,up
201505,-0.550781,8.296875,5.816406,0.609375,1.078125,0.214844,0.896545,0.437134,0.05304,0.048645,up
201510,-0.585937,8.40625,5.816406,0.609375,1.078125,0.214844,0.895569,0.438538,0.055542,0.050293,up
201515,-0.585937,8.523438,5.855469,0.548828,1.064453,0.310547,0.895569,0.438538,0.055542,0.050293,up
201520,-0.625,8.644531,5.777344,0.548828,1.064453,0.310547,0.893188,0.441956,0.061768,0.055237,up
201525,-0.585937,8.644531,5.703125,0.548828,1.064453,0.310547,0.893188,0.441956,0.061768,0.055237,up
201530,-0.585937,8.683594,5.703125,0.333984,1.064453,0.384766,0.893188,0.441956,0.061768,0.055237,up
201535,-0.585937,8.683594,5.625,0.333984,1.064453,0.384766,0.891235,0.444275,0.067932,0.061096,up
201540,-0.625,8.644531,5.585937,0.333984,1.064453,0.384766,0.890686,0.444702,0.069885,0.06311,up
201545,-0.550781,8.683594,5.625,0.333984,1.064453,0.384766,0.890686,0.444702,0.069885,0.06311,up
201550,-0.625,8.71875,5.585937,0.060547,1.109375,0.369141,0.890686,0.444702,0.069885,0.06311,up
201555,-0.664062,8.605469,5.511719,0.060547,1.109375,0.369141,0.889893,0.445129,0.073975,0.0672,up
201560,-0.625,8.523438,5.511719,0.060547,1.109375,0.369141,0.889587,0.445129,0.075989,0.069153,up
201565,-0.664062,8.367188,5.511719,-0.087891,1.113281,0.333984,0.88916,0.444519,0.080383,0.073303,up
201570,-0.816406,8.21875,5.472656,-0.087891,1.113281,0.333984,0.88916,0.444519,0.080383,0.073303,up
201575,-0.855469,8.179688,5.394531,-0.160156,1.046875,0.291016,0.889038,0.444092,0.082397,0.075256,up
201580,-0.894531,8.144531,5.433594,-0.160156,1.046875,0.291016,0.888916,0.443542,0.084473,0.077148,up
201585,-0.894531,8.144531,5.433594,-0.140625,0.986328,0.273438,0.888672,0.442749,0.088013,0.080383,up
201590,-0.855469,8.066406,5.585937,-0.140625,0.986328,0.273438,0.888672,0.442749,0.088013,0.080383,up
201595,-0.816406,7.988281,5.703125,-0.140625,0.986328,0.273438,0.888672,0.442749,0.088013,0.080383,up
201600,-0.816406,7.988281,5.703125,-0.021484,0.802734,0.253906,0.888306,0.442261,0.091309,0.083496,up
201605,-0.777344,7.988281,5.816406,-0.021484,0.802734,0.253906,0.887817,0.4422,0.093994,0.086182,up
201610,-0.703125,7.988281,5.855469,-0.021484,0.802734,0.253906,0.887817,0.4422,0.093994,0.086182,up
201615,-0.703125,8.023438,5.816406,-0.021484,0.802734,0.253906,0.887512,0.442261,0.095337,0.087646,up
201620,-0.703125,7.984375,5.777344,0.064453,0.535156,0.257813,0.887268,0.442383,0.096252,0.088684,up
201625,-0.777344,7.875,5.816406,0.064453,0.535156,0.257813,0.886963,0.442505,0.09729,0.089905,up
201630,-0.742187,7.878906,5.664062,0.039063,0.458984,0.277344,0.886658,0.442566,0.098145,0.090942,up
201635,-0.816406,7.796875,5.546875,0.039063,0.458984,0.277344,0.886414,0.442688,0.098938,0.092163,up
201641,-0.777344,7.796875,5.585937,0.017578,0.433594,0.28125,0.886414,0.442688,0.098938,0.092163,up
201647,-0.777344,7.761719,5.585937,0.017578,0.433594,0.28125,0.885864,0.442749,0.100708,0.095215,up
201652,-0.742187,7.757812,5.546875,0.035156,0.335938,0.277344,0.885864,0.442749,0.100708,0.095215,up
201657,-0.777344,7.800781,5.546875,0.066406,0.294922,0.267578,0.885864,0.442749,0.100708,0.095215,up
201663,-0.703125,7.722656,5.625,0.105469,0.251953,0.244141,0.885864,0.442749,0.100708,0.095215,up
201668,-0.664062,7.640625,5.625,0.148437,0.210937,0.228516,0.885864,0.442749,0.100708,0.095215,up
201673,-0.625,7.601562,5.511719,0.179687,0.189453,0.207031,0.885864,0.442749,0.100708,0.095215,up
201678,-0.585937,7.644531,5.546875,0.212891,0.15625,0.189453,0.885864,0.442749,0.100708,0.095215,up
201683,-0.625,7.566406,5.625,0.212891,0.15625,0.189453,0.885864,0.442749,0.100708,0.095215,up
201689,-0.585937,7.453125,5.511719,0.273438,0.087891,0.150391,0.885864,0.442749,0.100708,0.095215,up
201694,-0.625,7.378906,5.625,0.300781,0.035156,0.123047,0.885864,0.442749,0.100708,0.095215,up
201700,-0.664062,7.457031,5.703125,0.306641,-0.033203,0.117188,0.882507,0.447571,0.102844,0.101257,up
201705,-0.742187,7.457031,5.738281,0.306641,-0.033203,0.117188,0.882507,0.447571,0.102844,0.101257,up
201710,-0.816406,7.375,5.664062,0.337891,-0.222656,0.111328,0.882507,0.447571,0.102844,0.101257,up
201715,-0.816406,7.335937,5.625,0.337891,-0.222656,0.111328,0.881836,0.449158,0.102051,0.101196,up
201720,-0.855469,7.378906,5.511719,0.375,-0.265625,0.125,0.881042,0.451111,0.100769,0.100891,up
201725,-0.777344,7.21875,5.511719,0.375,-0.265625,0.125,0.881042,0.451111,0.100769,0.100891,up
201730,-0.664062,7.109375,5.546875,0.554687,-0.462891,0.144531,0.881042,0.451111,0.100769,0.100891,up
201735,-0.585937,7.113281,5.585937,0.554687,-0.462891,0.144531,0.880066,0.453491,0.098999,0.100342,up
201741,-0.472656,7.21875,5.703125,0.554687,-0.462891,0.144531,0.878662,0.456848,0.096497,0.099426,up
201746,-0.433594,7.179687,5.703125,0.761719,-0.603516,0.175781,0.87793,0.458679,0.095154,0.098938,up
201751,-0.433594,7.179687,5.585937,0.761719,-0.603516,0.175781,0.87793,0.458679,0.095154,0.098938,up
201756,-0.433594,7.179687,5.625,0.761719,-0.603516,0.175781,0.876282,0.462585,0.09259,0.0979,up
201761,-0.433594,7.152344,5.664062,1.042969,-0.732422,0.142578,0.876282,0.462585,0.09259,0.0979,up
201766,-0.472656,7.148437,5.777344,1.042969,-0.732422,0.142578,0.873962,0.467896,0.089417,0.096191,up
201771,-0.394531,7.222656,5.894531,1.042969,-0.732422,0.142578,0.872864,0.470459,0.087952,0.095276,up
201776,-0.433594,7.417969,5.96875,1.296875,-0.830078,0.064453,0.871399,0.473633,0.086243,0.094116,up
201782,-0.472656,7.835937,5.96875,1.296875,-0.830078,0.064453,0.870056,0.476624,0.084778,0.092957,up
201787,-0.433594,7.953125,6.046875,1.433594,-0.865234,-0.009766,0.870056,0.476624,0.084778,0.092957,up
201793,-0.359375,8.105469,6.046875,1.433594,-0.865234,-0.009766,0.867004,0.483154,0.081726,0.090271,up
201798,-0.320313,8.335938,6.046875,1.501953,-0.841797,-0.097656,0.865356,0.486633,0.080261,0.088684,up
201805,-0.359375,8.832031,6.085937,1.496094,-0.804687,-0.125,0.865356,0.486633,0.080261,0.088684,up
201811,-0.28125,8.949219,6.046875,1.503906,-0.761719,-0.15625,0.860229,0.49707,0.07666,0.083862,up
201816,-0.242187,9.105469,6.046875,1.503906,-0.761719,-0.15625,0.860229,0.49707,0.07666,0.083862,up
201821,-0.128906,9.25,6.085937,1.433594,-0.521484,-0.248047,0.860229,0.49707,0.07666,0.083862,up
201826,-0.089844,9.59375,6.121094,1.433594,-0.521484,-0.248047,0.855286,0.506592,0.074829,0.079407,up
201831,-0.089844,9.792969,6.199219,1.433594,-0.521484,-0.248047,0.853699,0.509399,0.074585,0.078125,up
201836,-0.128906,9.976563,6.238281,1.298828,-0.236328,-0.267578,0.853699,0.509399,0.074585,0.078125,up
201841,-0.011719,10.175781,6.46875,1.298828,-0.236328,-0.267578,0.852051,0.512329,0.074585,0.076904,up
201847,-0.011719,10.175781,6.46875,1.140625,-0.035156,-0.242187,0.84906,0.517517,0.075134,0.074951,up
201852,-0.050781,10.480469,6.621094,1.039063,0.078125,-0.214844,0.847534,0.52002,0.075745,0.074219,up
201857,-0.089844,10.597656,6.734375,1.039063,0.078125,-0.214844,0.846375,0.521851,0.076355,0.073792,up
201862,-0.203125,10.710938,6.925781,1.039063,0.078125,-0.214844,0.846375,0.521851,0.076355,0.073792,up
201868,-0.203125,10.710938,6.925781,0.824219,0.275391,-0.175781,0.844177,0.525208,0.078308,0.073425,up
201873,-0.242187,10.671875,7.082031,0.824219,0.275391,-0.175781,0.844177,0.525208,0.078308,0.073425,up
201878,-0.28125,10.78125,7.386719,0.478516,0.40625,-0.117188,0.842529,0.527527,0.080444,0.073547,up
201884,-0.28125,10.59375,7.617187,0.478516,0.40625,-0.117188,0.842529,0.527527,0.080444,0.073547,up
201890,-0.320313,10.558594,7.695312,0.367188,0.417969,-0.064453,0.842529,0.527527,0.080444,0.073547,up
201895,-0.28125,10.554688,7.695312,0.384766,0.40625,-0.025391,0.842529,0.527527,0.080444,0.073547,up
201900,-0.242187,10.710938,7.65625,0.443359,0.375,0.0,0.839294,0.531616,0.085327,0.075256,up
201905,-0.242187,10.746094,7.617187,0.443359,0.375,0.0,0.839294,0.531616,0.085327,0.075256,up
201911,-0.242187,10.824219,7.464844,0.707031,0.320313,0.123047,0.839294,0.531616,0.085327,0.075256,up
201916,-0.28125,10.976563,7.425781,0.707031,0.320313,0.123047,0.837463,0.534119,0.086731,0.076172,up
201921,-0.203125,11.363281,7.117187,0.78125,0.310547,0.167969,0.835083,0.537476,0.087952,0.077393,up
201926,-0.242187,11.515625,7.042969,0.78125,0.310547,0.167969,0.835083,0.537476,0.087952,0.077393,up
201931,-0.242187,11.664063,6.964844,0.859375,0.310547,0.238281,0.832642,0.540955,0.088928,0.078796,up
201936,-0.242187,11.863281,6.773437,0.859375,0.310547,0.238281,0.83136,0.542664,0.089355,0.07959,up
201941,-0.28125,11.929688,6.699219,0.859375,0.310547,0.238281,0.83136,0.542664,0.089355,0.07959,up
201946,-0.359375,12.050781,6.582031,0.679687,0.394531,0.34375,0.829224,0.545532,0.090332,0.081787,up
201951,-0.472656,12.242188,6.390625,0.363281,0.470703,0.423828,0.829224,0.545532,0.090332,0.081787,up
201956,-0.550781,12.246094,6.316406,0.363281,0.470703,0.423828,0.82782,0.546997,0.091248,0.084595,up
201961,-0.511719,12.246094,6.351562,0.363281,0.470703,0.423828,0.82782,0.546997,0.091248,0.084595,up
201966,-0.550781,12.164063,6.277344,-0.044922,0.521484,0.472656,0.827454,0.546875,0.092102,0.087952,up
201971,-0.585937,12.007813,6.160156,-0.044922,0.521484,0.472656,0.827454,0.546875,0.092102,0.087952,up
201976,-0.664062,11.863281,5.929687,-0.044922,0.521484,0.472656,0.827698,0.546204,0.092529,0.089783,up
201981,-0.742187,11.664063,5.777344,-0.726562,0.65625,0.523437,0.827698,0.546204,0.092529,0.089783,up
201986,-0.742187,11.28125,5.625,-0.726562,0.65625,0.523437,0.828796,0.54364,0.093506,0.094116,up
201991,-0.816406,11.136719,5.546875,-0.726562,0.65625,0.523437,0.830505,0.540039,0.094421,0.09845,up
201996,-0.816406,11.019531,5.394531,-0.726562,0.65625,0.523437,0.830505,0.540039,0.094421,0.09845,up
202001,-0.855469,10.898438,5.320312,-1.119141,0.667969,0.505859,0.832886,0.5354,0.095276,0.102844,up
202006,-0.742187,10.519531,5.128906,-1.119141,0.667969,0.505859,0.832886,0.5354,0.095276,0.102844,up
202011,-0.777344,10.332031,5.050781,-1.417969,0.642578,0.451172,0.83429,0.532776,0.095642,0.104919,up
202016,-0.742187,10.136719,4.898437,-1.417969,0.642578,0.451172,0.835937,0.529663,0.096069,0.107178,up
202022,-0.703125,9.828125,4.667969,-1.455078,0.623047,0.431641,0.835937,0.529663,0.096069,0.107178,up
202028,-0.703125,9.636719,4.359375,-1.455078,0.623047,0.431641,0.840637,0.520691,0.096985,0.113037,up
202034,-0.664062,9.523438,4.207031,-1.455078,0.570312,0.367188,0.840637,0.520691,0.096985,0.113037,up
202040,-0.585937,9.367188,4.132812,-1.458984,0.544922,0.345703,0.843933,0.514404,0.097595,0.11676,up
202045,-0.550781,9.105469,3.902344,-1.458984,0.544922,0.345703,0.843933,0.514404,0.097595,0.11676,up
202051,-0.585937,8.984375,3.746094,-1.498047,0.519531,0.291016,0.843933,0.514404,0.097595,0.11676,up
202056,-0.511719,8.871094,3.710938,-1.566406,0.478516,0.240234,0.843933,0.514404,0.097595,0.11676,up
202061,-0.433594,8.683594,3.441406,-1.566406,0.478516,0.240234,0.850769,0.501221,0.098633,0.123291,up
202066,-0.472656,8.601563,3.363281,-1.566406,0.478516,0.240234,0.852661,0.497681,0.098877,0.124817,up
202071,-0.394531,8.523438,3.25,-1.746094,0.494141,0.138672,0.852661,0.497681,0.098877,0.124817,up
202076,-0.433594,8.371094,3.136719,-1.746094,0.494141,0.138672,0.856506,0.490112,0.099426,0.127625,up
202082,-0.394531,8.140625,2.828125,-1.746094,0.494141,0.138672,0.860474,0.482361,0.100159,0.130127,up
202087,-0.472656,8.023438,2.714844,-1.966797,0.566406,0.033203,0.862854,0.477539,0.100708,0.13147,up
202092,-0.550781,7.917969,2.636719,-2.03125,0.599609,-0.027344,0.865112,0.472961,0.101318,0.13269,up
202097,-0.625,7.757812,2.484375,-2.03125,0.599609,-0.027344,0.865112,0.472961,0.101318,0.13269,up
202103,-0.625,7.757812,2.484375,-2.103516,0.650391,-0.103516,0.867126,0.468811,0.101929,0.133667,up
202108,-0.703125,7.605469,2.332031,-2.103516,0.650391,-0.103516,0.869507,0.463989,0.102844,0.134644,up
202114,-0.777344,7.457031,2.214844,-2.181641,0.707031,-0.261719,0.871948,0.458862,0.103882,0.135559,up
202119,-0.96875,7.457031,2.214844,-2.197266,0.744141,-0.431641,0.876831,0.448486,0.106323,0.136841,up
202124,-1.085938,7.339844,2.253906,-2.197266,0.744141,-0.431641,0.879211,0.443359,0.107788,0.137207,up
202131,-1.390625,7.988281,2.253906,-2.197266,0.744141,-0.431641,0.879211,0.443359,0.107788,0.137207,up
202136,-1.507813,8.300781,2.214844,-2.214844,0.878906,-0.652344,0.879211,0.443359,0.107788,0.137207,up
202142,-1.699219,8.449219,2.332031,-2.453125,0.841797,-0.810547,0.879211,0.443359,0.107788,0.137207,up
202147,-1.773438,8.410156,2.484375,-2.453125,0.841797,-0.810547,0.891968,0.414551,0.117004,0.137207,up
202153,-1.773438,7.414062,2.292969,-2.453125,0.841797,-0.810547,0.894714,0.408264,0.118591,0.13678,up
202158,-1.773438,7.414062,2.292969,-3.339844,0.78125,-1.058594,0.898254,0.400085,0.120422,0.13623,up
202164,-1.851563,7.109375,2.484375,-3.339844,0.78125,-1.058594,0.901672,0.392029,0.121948,0.135559,up
202170,-1.738281,6.835937,2.523438,-3.914063,0.691406,-1.207031,0.901672,0.392029,0.121948,0.135559,up
202175,-1.660156,6.378906,2.714844,-3.914063,0.691406,-1.207031,0.901672,0.392029,0.121948,0.135559,up
202180,-1.660156,6.378906,2.714844,-4.294922,0.583984,-1.380859,0.913696,0.362915,0.125977,0.132568,up
202185,-1.582031,6.148437,2.789063,-4.451172,0.517578,-1.445313,0.917847,0.352356,0.127014,0.131226,up
202190,-1.582031,6.148437,2.789063,-4.568359,0.455078,-1.519531,0.922058,0.341492,0.12793,0.1297,up
202195,-1.507813,4.964844,3.363281,-4.568359,0.455078,-1.519531,0.922058,0.341492,0.12793,0.1297,up
202200,-1.507813,4.964844,3.363281,-4.599609,0.347656,-1.666016,0.930481,0.318726,0.129456,0.125916,up
202205,-1.621094,4.542969,3.710938,-4.599609,0.347656,-1.666016,0.930481,0.318726,0.129456,0.125916,up
202210,-1.582031,4.65625,4.015625,-4.285156,0.208984,-1.916016,0.930481,0.318726,0.129456,0.125916,up
202216,-1.507813,4.660156,4.4375,-4.097656,0.101563,-2.052734,0.930481,0.318726,0.129456,0.125916,up
202222,-1.390625,4.425781,4.519531,-3.957031,-0.009766,-2.193359,0.930481,0.318726,0.129456,0.125916,up
202228,-1.46875,4.160156,4.4375,-3.957031,-0.009766,-2.193359,0.951843,0.255798,0.132324,0.105286,up
202233,-1.46875,4.234375,4.441406,-3.636719,-0.296875,-2.560547,0.951843,0.255798,0.132324,0.105286,up
202238,-1.46875,4.234375,4.441406,-3.580078,-0.359375,-2.671875,0.957703,0.237122,0.132263,0.095154,up
202243,-1.429688,4.390625,4.519531,-3.580078,-0.359375,-2.671875,0.957703,0.237122,0.132263,0.095154,up
202248,-1.429688,4.390625,4.519531,-3.556641,-0.441406,-2.773438,0.960632,0.227478,0.13208,0.089417,up
202253,-1.277344,4.351562,4.929687,-3.556641,-0.441406,-2.773438,0.963379,0.218201,0.131653,0.083618,up
202258,-1.277344,4.351562,4.929687,-3.714844,-0.634766,-2.947266,0.968689,0.198792,0.130432,0.071228,up
202263,-1.316406,3.738281,5.007812,-3.714844,-0.634766,-2.947266,0.971191,0.189026,0.129639,0.065002,up
202269,-1.316406,3.46875,5.203125,-3.714844,-0.634766,-2.947266,0.973633,0.178955,0.128723,0.058472,up
202275,-1.316406,3.429688,5.429687,-3.591797,-0.761719,-2.957031,0.973633,0.178955,0.128723,0.058472,up
202280,-1.238281,3.394531,5.589844,-3.591797,-0.761719,-2.957031,0.977905,0.160034,0.126587,0.045776,up
202285,-1.277344,3.238281,5.667969,-3.232422,-0.818359,-2.882813,0.977905,0.160034,0.126587,0.045776,up
202290,-1.351563,3.085938,5.816406,-3.001953,-0.853516,-2.837891,0.977905,0.160034,0.126587,0.045776,up
202296,-1.390625,2.933594,6.007812,-3.001953,-0.853516,-2.837891,0.983032,0.13385,0.122559,0.026001,up
202301,-1.429688,3.085938,5.933594,-3.001953,-0.853516,-2.837891,0.983032,0.13385,0.122559,0.026001,up
202306,-1.46875,3.203125,5.972656,-2.492188,-0.878906,-2.736328,0.983032,0.13385,0.122559,0.026001,up
202311,-1.46875,3.203125,5.972656,-2.003906,-0.912109,-2.695313,0.986328,0.114563,0.118286,0.007568,up
202316,-1.429688,3.125,6.433594,-2.003906,-0.912109,-2.695313,0.987122,0.109192,0.11676,0.001282,up
202321,-1.507813,3.085938,7.039062,-1.582031,-0.939453,-2.662109,0.987854,0.104309,0.115234,-0.005005,up
202327,-1.46875,3.007813,7.15625,-1.417969,-0.945312,-2.662109,0.988953,0.09552,0.111877,-0.018188,up
202332,-1.390625,3.394531,7.464844,-1.417969,-0.945312,-2.662109,0.98938,0.091736,0.110229,-0.024597,up
202337,-1.390625,3.429688,7.5,-1.417969,-0.945312,-2.662109,0.98938,0.091736,0.110229,-0.024597,up
202342,-1.277344,3.394531,7.65625,-1.029297,-0.833984,-2.527344,0.98938,0.091736,0.110229,-0.024597,up
202348,-1.238281,3.699219,7.886719,-1.029297,-0.833984,-2.527344,0.990112,0.081543,0.105774,-0.043457,up
202354,-1.085938,3.851563,8.003906,-1.029297,-0.833984,-2.527344,0.990173,0.078674,0.104675,-0.048889,up
202360,-1.160156,3.621094,8.042969,-1.021484,-0.580078,-2.25,0.990234,0.075317,0.103638,-0.05481,up
202365,-1.085938,3.699219,8.0,-1.046875,-0.460937,-2.113281,0.990234,0.075317,0.103638,-0.05481,up
202371,-1.046875,3.738281,8.152344,-1.046875,-0.460937,-2.113281,0.990173,0.066223,0.102173,-0.069092,up
202376,-1.046875,3.546875,8.347656,-1.046875,-0.460937,-2.113281,0.990173,0.066223,0.102173,-0.069092,up
202381,-1.046875,3.546875,8.347656,-0.865234,-0.082031,-1.583984,0.990051,0.063599,0.102234,-0.072998,up
202386,-1.390625,4.042969,8.882813,-0.693359,0.066406,-1.390625,0.989868,0.061218,0.102661,-0.076599,up
202391,-1.390625,4.042969,8.882813,-0.496094,0.210937,-1.1875,0.989868,0.061218,0.102661,-0.076599,up
202397,-1.390625,4.042969,8.882813,-0.496094,0.210937,-1.1875,0.989441,0.058289,0.104248,-0.082153,up
202402,-1.390625,4.042969,8.882813,-0.132812,0.509766,-0.792969,0.989197,0.057617,0.105469,-0.08429,up
202407,-2.386719,4.542969,9.335938,0.044922,0.65625,-0.599609,0.988525,0.0578,0.108887,-0.087097,up
202412,-3.0,4.542969,9.722656,0.044922,0.65625,-0.599609,0.988525,0.0578,0.108887,-0.087097,up
202417,-3.269531,4.582031,10.070313,0.404297,0.966797,-0.263672,0.988525,0.0578,0.108887,-0.087097,up
202422,-3.84375,4.886719,10.523438,0.574219,1.125,-0.121094,0.988525,0.0578,0.108887,-0.087097,up
202427,-4.035156,5.039062,10.71875,0.574219,1.125,-0.121094,0.986755,0.064331,0.119873,-0.088379,up
202432,-4.226562,5.230469,10.949219,0.574219,1.125,-0.121094,0.986755,0.064331,0.119873,-0.088379,up
202437,-4.417969,5.421875,11.179688,0.859375,1.648438,0.445312,0.986755,0.064331,0.119873,-0.088379,up
202443,-4.722656,5.5,11.714844,0.859375,1.648438,0.445312,0.985107,0.071838,0.130676,-0.085693,up
202448,-4.914062,5.421875,11.832031,0.826172,1.8125,0.791016,0.984436,0.074829,0.135132,-0.083801,up
202453,-5.144531,5.386719,11.988281,0.808594,1.859375,0.984375,0.983826,0.077637,0.139404,-0.081482,up
202459,-5.261719,5.191406,12.210938,0.808594,1.859375,0.984375,0.983276,0.080078,0.143127,-0.079102,up
202464,-5.644531,5.191406,12.097656,0.808594,1.859375,0.984375,0.982666,0.082947,0.147278,-0.075928,up
202469,-5.910156,5.308594,12.449219,0.857422,1.853516,1.572266,0.982056,0.08606,0.15155,-0.072205,up
202475,-5.492187,5.078125,13.25,0.929687,1.705078,1.751953,0.982056,0.08606,0.15155,-0.072205,up
202480,-5.796875,5.15625,13.359375,0.929687,1.705078,1.751953,0.980896,0.09259,0.158875,-0.063599,up
202486,-5.910156,4.925781,13.519531,1.222656,1.544922,2.220703,0.980896,0.09259,0.158875,-0.063599,up
202492,-5.949219,4.65625,13.480469,1.613281,1.330078,2.714844,0.980896,0.09259,0.158875,-0.063599,up
202497,-6.066406,4.542969,13.476563,1.613281,1.330078,2.714844,0.979004,0.105957,0.167542,-0.046936,up
202502,-6.066406,4.542969,13.476563,1.839844,1.207031,2.964844,0.978333,0.111694,0.169739,-0.040222,up
202507,-6.027344,4.542969,13.480469,2.0625,1.117188,3.210938,0.977539,0.117859,0.171509,-0.033264,up
202512,-6.027344,4.542969,13.480469,2.291016,1.042969,3.458984,0.976624,0.124939,0.173035,-0.025574,up
202517,-6.027344,4.847656,13.136719,2.291016,1.042969,3.458984,0.976624,0.124939,0.173035,-0.025574,up
202522,-6.027344,4.847656,13.136719,2.763672,0.935547,3.919922,0.974426,0.140442,0.175171,-0.009277,up
202527,-5.835937,5.308594,12.367188,2.763672,0.935547,3.919922,0.971375,0.158691,0.176575,0.009155,up
202532,-5.566406,5.421875,12.328125,2.763672,0.935547,3.919922,0.971375,0.158691,0.176575,0.009155,up
202537,-5.492187,5.421875,12.410156,2.763672,0.935547,3.919922,0.969482,0.168396,0.177124,0.018921,up
202542,-5.566406,5.652344,12.410156,3.791016,1.039063,5.271484,0.969482,0.168396,0.177124,0.018921,up
202547,-5.71875,5.921875,12.136719,3.791016,1.039063,5.271484,0.964539,0.190369,0.178162,0.041138,up
202552,-5.71875,5.921875,12.136719,3.791016,1.039063,5.271484,0.958069,0.214478,0.178528,0.065002,up
202557,-5.605469,6.304687,12.367188,3.791016,1.039063,5.271484,0.958069,0.214478,0.178528,0.065002,up
202562,-5.605469,6.304687,12.367188,5.0625,1.001953,6.580078,0.95343,0.229858,0.178345,0.079651,up
202567,-5.875,5.460937,14.785156,5.769531,0.884766,7.177734,0.94873,0.244324,0.177734,0.092957,up
202572,-5.875,5.460937,14.785156,6.691406,0.714844,7.873047,0.942383,0.262634,0.176392,0.108826,up
202578,-6.027344,4.886719,14.96875,6.691406,0.714844,7.873047,0.934814,0.282837,0.174316,0.125305,up
202583,-6.027344,4.886719,14.96875,8.625,0.300781,9.46875,0.914429,0.330933,0.167358,0.162354,up
202588,-6.140625,4.65625,11.101563,10.375,-0.146484,10.832031,0.914429,0.330933,0.167358,0.162354,up
202593,-7.097656,6.035156,7.347656,10.375,-0.146484,10.832031,0.884155,0.389771,0.15625,0.204773,up
202599,-6.296875,5.691406,6.277344,10.375,-0.146484,10.832031,0.868835,0.415527,0.151123,0.222717,up
202604,-4.113281,7.457031,4.476562,10.375,-0.146484,10.832031,0.868835,0.415527,0.151123,0.222717,up
202609,-4.113281,7.457031,4.476562,12.275391,-0.117188,11.458984,0.827515,0.476196,0.140137,0.26239,up
202614,-2.960938,10.015625,2.140625,12.275391,-0.117188,11.458984,0.827515,0.476196,0.140137,0.26239,up
202619,-2.464844,10.902344,1.066406,12.882813,0.779297,10.529297,0.779907,0.534119,0.132507,0.298279,up
202625,-1.046875,11.546875,1.027344,12.882813,0.779297,10.529297,0.753601,0.561951,0.1297,0.31543,up
202631,-0.359375,11.480469,1.488281,12.265625,1.050781,9.519531,0.753601,0.561951,0.1297,0.31543,up
202637,0.410156,11.363281,2.023438,11.591797,1.435547,8.90625,0.753601,0.561951,0.1297,0.31543,up
202642,0.410156,11.363281,2.023438,10.587891,1.855469,8.320313,0.675903,0.631104,0.125183,0.359436,up
202647,1.40625,10.671875,2.484375,10.587891,1.855469,8.320313,0.675903,0.631104,0.125183,0.359436,up
202652,1.480469,9.484375,2.523438,9.154297,2.378906,7.025391,0.675903,0.631104,0.125183,0.359436,up
202657,1.480469,9.484375,2.523438,8.648438,2.591797,6.367187,0.606018,0.677551,0.126831,0.397034,up
202662,1.40625,8.296875,1.757813,8.648438,2.591797,6.367187,0.584656,0.689514,0.129028,0.407654,up
202668,1.519531,7.757812,1.601563,8.226563,2.392578,4.394531,0.584656,0.689514,0.129028,0.407654,up
202673,1.632813,7.757812,1.71875,7.837891,2.154297,3.929688,0.542664,0.711365,0.13623,0.425354,up
202678,1.902344,8.144531,2.484375,7.837891,2.154297,3.929688,0.520996,0.722046,0.140747,0.432861,up
202684,1.902344,8.144531,2.484375,7.103516,1.941406,3.625,0.504089,0.730042,0.144348,0.438232,up
202689,2.246094,8.410156,2.867188,7.103516,1.941406,3.625,0.48761,0.737366,0.1474,0.443665,up
202694,1.980469,9.023438,2.828125,4.896484,1.898438,3.414063,0.472534,0.743225,0.149475,0.449341,up
202699,1.980469,9.023438,2.828125,2.822266,1.542969,3.451172,0.472534,0.743225,0.149475,0.449341,up
202704,1.980469,9.023438,2.828125,2.822266,1.542969,3.451172,0.440063,0.753052,0.147034,0.466492,up
202710,2.402344,8.066406,2.0625,2.822266,1.542969,3.451172,0.432678,0.754761,0.143494,0.471741,up
202715,2.898438,7.222656,1.871094,2.822266,1.542969,3.451172,0.426575,0.755981,0.138855,0.476624,up
202721,3.359375,6.613281,1.910156,0.154297,0.400391,3.392578,0.426575,0.755981,0.138855,0.476624,up
202726,3.855469,6.074219,1.871094,-0.119141,0.167969,3.251953,0.426575,0.755981,0.138855,0.476624,up
202731,4.46875,5.082031,2.140625,-0.185547,0.037109,3.007813,0.426575,0.755981,0.138855,0.476624,up
202736,4.621094,4.699219,2.253906,-0.025391,0.007813,2.707031,0.426575,0.755981,0.138855,0.476624,up
202741,4.621094,4.699219,2.253906,0.322266,0.087891,2.345703,0.406799,0.760193,0.111145,0.494263,up
202746,4.621094,4.699219,2.253906,0.724609,0.25,1.992188,0.402893,0.761169,0.107727,0.496704,up
202751,5.160156,4.195312,1.949219,0.724609,0.25,1.992188,0.402893,0.761169,0.107727,0.496704,up
202756,5.039062,4.464844,1.757813,1.109375,0.439453,1.6875,0.402893,0.761169,0.107727,0.496704,up
202761,5.039062,4.464844,1.757813,1.701172,0.580078,1.332031,0.389099,0.764526,0.104675,0.503113,up
202767,4.738281,5.347656,0.605469,1.701172,0.580078,1.332031,0.389099,0.764526,0.104675,0.503113,up
202772,4.621094,5.808594,0.414062,1.701172,0.580078,1.332031,0.379089,0.767151,0.105469,0.506592,up
202778,4.507812,6.070312,0.414062,1.701172,0.460937,1.048828,0.379089,0.767151,0.105469,0.506592,up
202783,4.507812,6.191406,0.339844,1.535156,0.404297,1.003906,0.365356,0.770935,0.106873,0.510681,up
202788,4.699219,6.148437,0.109375,1.535156,0.404297,1.003906,0.361328,0.771851,0.106934,0.512085,up
202793,4.8125,6.070312,0.03125,1.535156,0.404297,1.003906,0.361328,0.771851,0.106934,0.512085,up
202798,4.929687,5.886719,-0.082031,0.511719,0.386719,0.814453,0.361328,0.771851,0.106934,0.512085,up
202803,5.234375,5.648437,-0.042969,0.511719,0.386719,0.814453,0.354004,0.772888,0.105652,0.515869,up
202808,5.425781,5.542969,-0.007813,0.511719,0.386719,0.814453,0.352722,0.772766,0.104675,0.517151,up
202813,5.539062,5.421875,-0.042969,0.511719,0.386719,0.814453,0.352722,0.772766,0.104675,0.517151,up
202818,5.660156,5.308594,-0.160156,-0.3125,0.347656,0.443359,0.352722,0.772766,0.104675,0.517151,up
202823,5.734375,5.117187,-0.199219,-0.3125,0.347656,0.443359,0.351746,0.771362,0.101807,0.520508,up
202828,5.777344,5.0,-0.121094,-0.3125,0.347656,0.443359,0.351746,0.771362,0.101807,0.520508,up
202833,5.847656,5.0,-0.042969,-0.433594,0.205078,0.205078,0.351746,0.771362,0.101807,0.520508,up
202838,5.886719,5.117187,-0.121094,-0.433594,0.205078,0.205078,0.352966,0.769592,0.099304,0.522705,up
202843,5.886719,5.191406,-0.273438,-0.433594,0.205078,0.205078,0.353394,0.769165,0.098816,0.523254,up
202848,5.734375,5.386719,-0.503906,-0.433594,0.205078,0.205078,0.353394,0.769165,0.098816,0.523254,up
202853,5.699219,5.5,-0.65625,-0.101563,0.005859,0.025391,0.353394,0.769165,0.098816,0.523254,up
202858,5.617187,5.765625,-0.582031,-0.101563,0.005859,0.025391,0.353943,0.768616,0.098206,0.523743,up
202863,5.617187,5.765625,-0.582031,-0.101563,0.005859,0.025391,0.354004,0.76886,0.0979,0.523376,up
202868,5.734375,5.964844,-0.542969,-0.101563,0.005859,0.025391,0.354004,0.76886,0.0979,0.523376,up
202873,5.847656,6.070312,-0.847656,0.072266,-0.144531,-0.017578,0.354004,0.76886,0.0979,0.523376,up
202879,5.964844,6.113281,-1.003906,0.072266,-0.144531,-0.017578,0.353882,0.769653,0.097778,0.5224,up
202884,6.15625,5.960937,-1.039063,-0.1875,-0.197266,-0.044922,0.354248,0.769775,0.097473,0.521973,up
202890,6.5,5.613281,-0.925781,-0.1875,-0.197266,-0.044922,0.354736,0.769836,0.097107,0.521606,up
202895,6.726562,5.269531,-0.925781,-0.1875,-0.197266,-0.044922,0.355713,0.769714,0.096619,0.52124,up
202900,6.726562,5.308594,-1.039063,-0.634766,-0.123047,-0.160156,0.357056,0.769348,0.095947,0.520935,up
202905,6.808594,5.117187,-1.15625,-0.712891,-0.074219,-0.212891,0.357056,0.769348,0.095947,0.520935,up
202910,6.921875,5.0,-1.230469,-0.779297,-0.027344,-0.267578,0.357056,0.769348,0.095947,0.520935,up
202916,6.960937,5.308594,-1.308594,-0.779297,-0.027344,-0.267578,0.362183,0.767517,0.09436,0.520447,up
202922,6.925781,5.460937,-1.308594,-0.71875,0.011719,-0.345703,0.362183,0.767517,0.09436,0.520447,up
202927,6.886719,5.578125,-1.386719,-0.583984,0.023437,-0.373047,0.362183,0.767517,0.09436,0.520447,up
202932,6.613281,6.152344,-1.578125,-0.583984,0.023437,-0.373047,0.362183,0.767517,0.09436,0.520447,up
202938,6.503906,6.378906,-1.691406,-0.148437,-0.021484,-0.410156,0.362183,0.767517,0.09436,0.520447,up
202943,6.503906,6.496094,-1.730469,0.291016,-0.195312,-0.373047,0.362183,0.767517,0.09436,0.520447,up
202949,6.460937,6.914062,-1.921875,0.291016,-0.195312,-0.373047,0.368713,0.766052,0.096863,0.517517,up
202954,6.574219,7.074219,-1.960938,0.46875,-0.318359,-0.287109,0.368286,0.766846,0.097839,0.516479,up
202960,6.730469,7.21875,-2.035156,0.46875,-0.318359,-0.287109,0.367859,0.767639,0.098572,0.515503,up
202966,6.921875,7.296875,-2.191406,0.349609,-0.375,-0.195312,0.367859,0.767639,0.098572,0.515503,up
202972,6.996094,7.300781,-2.265625,0.220703,-0.363281,-0.175781,0.367859,0.767639,0.098572,0.515503,up
202978,7.148437,7.070312,-2.304688,-0.175781,-0.332031,-0.158203,0.367859,0.767639,0.098572,0.515503,up
202983,7.378906,6.535156,-2.152344,-0.388672,-0.298828,-0.167969,0.367615,0.77002,0.09967,0.511841,up
202988,7.457031,6.34375,-2.0,-0.388672,-0.298828,-0.167969,0.368469,0.770142,0.099304,0.511108,up
202993,7.492187,6.265625,-2.0,-0.388672,-0.298828,-0.167969,0.369751,0.77002,0.098755,0.510498,up
202999,7.492187,6.265625,-2.113281,-0.693359,-0.082031,-0.197266,0.369751,0.77002,0.098755,0.510498,up
203004,7.496094,6.417969,-2.226563,-0.693359,-0.082031,-0.197266,0.374146,0.768677,0.097107,0.509644,up
203009,7.457031,6.496094,-2.226563,-0.529297,-0.037109,-0.205078,0.375732,0.768066,0.09668,0.50946,up
203014,7.375,6.609375,-2.152344,-0.529297,-0.037109,-0.205078,0.376709,0.7677,0.096497,0.509338,up
203019,7.308594,6.765625,-2.074219,-0.097656,-0.021484,-0.224609,0.377441,0.767456,0.096619,0.509094,up
203025,6.882812,7.261719,-2.152344,-0.097656,-0.021484,-0.224609,0.377625,0.767517,0.097107,0.508789,up
203030,6.804687,7.378906,-2.265625,0.451172,-0.052734,-0.234375,0.377319,0.767822,0.097961,0.508423,up
203035,6.730469,7.53125,-2.34375,0.654297,-0.109375,-0.212891,0.376587,0.768372,0.098999,0.507935,up
203041,6.769531,7.796875,-2.417969,0.654297,-0.109375,-0.212891,0.375427,0.769226,0.100159,0.507202,up
203046,6.882812,7.796875,-2.417969,0.773437,-0.287109,-0.121094,0.375427,0.769226,0.100159,0.507202,up
203051,6.921875,7.757812,-2.382813,0.703125,-0.339844,-0.082031,0.375427,0.769226,0.100159,0.507202,up
203056,7.035156,7.761719,-2.382813,0.583984,-0.351563,-0.046875,0.375427,0.769226,0.100159,0.507202,up
203062,7.152344,7.679687,-2.457031,0.583984,-0.351563,-0.046875,0.371094,0.773254,0.103027,0.503784,up
203068,7.1875,7.5625,-2.574219,0.181641,-0.289063,-0.007813,0.371094,0.773254,0.103027,0.503784,up
203073,7.265625,7.296875,-2.609375,-0.0625,-0.25,-0.007813,0.371094,0.773254,0.103027,0.503784,up
203078,7.304687,7.070312,-2.574219,-0.0625,-0.25,-0.007813,0.370911,0.774475,0.102661,0.502075,up
203083,7.269531,6.878906,-2.496094,-0.546875,-0.162109,0.007813,0.370911,0.774475,0.102661,0.502075,up
203088,7.308594,6.726562,-2.417969,-0.703125,-0.111328,0.003906,0.374512,0.773376,0.099976,0.501648,up
203093,7.226562,6.457031,-2.226563,-0.703125,-0.111328,0.003906,0.374512,0.773376,0.099976,0.501648,up
203098,7.191406,6.34375,-2.265625,-0.703125,-0.111328,0.003906,0.376038,0.772644,0.09906,0.50177,up
203104,7.113281,6.34375,-2.226563,-0.566406,0.058594,-0.042969,0.376038,0.772644,0.09906,0.50177,up
203109,6.964844,6.265625,-2.113281,-0.566406,0.058594,-0.042969,0.379822,0.770691,0.097046,0.502319,up
203114,6.84375,6.34375,-2.035156,-0.566406,0.058594,-0.042969,0.38031,0.770386,0.096863,0.502441,up
203119,6.769531,6.417969,-1.960938,0.115234,0.033203,-0.070312,0.380432,0.770325,0.097046,0.502441,up
203125,6.648437,6.574219,-1.960938,0.115234,0.033203,-0.070312,0.380127,0.770508,0.097473,0.502319,up
203130,6.652344,6.648437,-2.074219,0.115234,0.033203,-0.070312,0.379395,0.770874,0.098145,0.502197,up
203136,6.652344,6.765625,-2.074219,0.115234,0.033203,-0.070312,0.378479,0.771362,0.098877,0.501953,up
203141,6.652344,6.800781,-2.074219,0.560547,-0.105469,-0.013672,0.377502,0.771973,0.099548,0.501648,up
203146,6.691406,6.769531,-2.074219,0.560547,-0.105469,-0.013672,0.376404,0.772705,0.100159,0.501221,up
203151,6.808594,6.765625,-2.074219,0.560547,-0.105469,-0.013672,0.376404,0.772705,0.100159,0.501221,up
203156,6.847656,6.800781,-2.113281,0.349609,-0.154297,0.013672,0.376404,0.772705,0.100159,0.501221,up
203161,6.886719,6.800781,-2.113281,0.230469,-0.144531,0.009766,0.376404,0.772705,0.100159,0.501221,up
203166,6.886719,6.6875,-2.074219,0.230469,-0.144531,0.009766,0.376404,0.772705,0.100159,0.501221,up
203171,6.921875,6.574219,-2.0,-0.03125,-0.070312,-0.005859,0.376404,0.772705,0.100159,0.501221,up
203176,6.882812,6.457031,-2.0,-0.128906,-0.023437,-0.023437,0.376404,0.772705,0.100159,0.501221,up
203182,6.84375,6.378906,-2.035156,-0.175781,0.007813,-0.033203,0.376404,0.772705,0.100159,0.501221,up
203188,6.765625,6.417969,-2.074219,-0.175781,0.007813,-0.033203,0.376404,0.772705,0.100159,0.501221,up
203193,6.730469,6.417969,-2.074219,-0.046875,0.050781,-0.082031,0.376404,0.772705,0.100159,0.501221,up
203198,6.648437,6.574219,-2.035156,-0.046875,0.050781,-0.082031,0.375854,0.774109,0.101196,0.499268,up
203203,6.652344,6.609375,-1.921875,-0.046875,0.050781,-0.082031,0.375916,0.774048,0.10144,0.499207,up
203208,6.652344,6.6875,-1.960938,-0.046875,0.050781,-0.082031,0.375793,0.77417,0.101868,0.499084,up
203214,6.613281,6.726562,-2.0,0.3125,0.017578,-0.089844,0.374878,0.774658,0.103027,0.498779,up
203219,6.613281,6.730469,-2.074219,0.455078,-0.019531,-0.09375,0.374878,0.774658,0.103027,0.498779,up
203224,6.652344,6.878906,-2.113281,0.455078,-0.019531,-0.09375,0.374207,0.775024,0.10376,0.498535,up
203229,6.652344,6.957031,-2.152344,0.423828,-0.064453,-0.072266,0.374207,0.775024,0.10376,0.498535,up
