timestamp,ax,ay,az,gx,gy,gz,qw,qx,qy,qz,label
522441,0.1875,7.589844,7.460937,0.101563,0.267578,-0.0625,0.923828,0.363586,0.042542,0.111938,up
522446,0.148437,7.585937,7.460937,0.091797,0.208984,-0.101563,0.923828,0.363586,0.042542,0.111938,up
522451,0.070312,7.554687,7.421875,0.091797,0.208984,-0.101563,0.923645,0.363892,0.043762,0.111877,up
522456,0.035156,7.476562,7.460937,0.091797,0.208984,-0.101563,0.923584,0.364075,0.044189,0.111755,up
522461,0.070312,7.363281,7.382812,0.091797,0.208984,-0.101563,0.923523,0.364258,0.044495,0.111572,up
522466,0.109375,7.324219,7.382812,0.123047,0.009766,-0.119141,0.923462,0.364502,0.044739,0.111328,up
522471,0.261719,7.363281,7.460937,0.123047,0.009766,-0.119141,0.92334,0.364807,0.044922,0.111084,up
522476,0.261719,7.285156,7.460937,0.123047,0.009766,-0.119141,0.923279,0.365051,0.045044,0.11084,up
522481,0.300781,7.324219,7.34375,0.201172,-0.033203,-0.103516,0.923279,0.365051,0.045044,0.11084,up
522486,0.226562,7.363281,7.308594,0.201172,-0.033203,-0.103516,0.922974,0.365967,0.045227,0.110291,up
522491,0.070312,7.320312,7.308594,0.201172,-0.033203,-0.103516,0.922791,0.366516,0.045288,0.110046,up
522496,0.109375,7.285156,7.304687,0.273438,-0.072266,-0.091797,0.922791,0.366516,0.045288,0.110046,up
522501,0.109375,7.285156,7.304687,0.273438,-0.072266,-0.091797,0.922302,0.367798,0.045349,0.109497,up
522506,0.148437,7.324219,7.308594,0.273438,-0.072266,-0.091797,0.922058,0.36853,0.045349,0.109192,up
522511,0.1875,7.363281,7.269531,0.273438,-0.072266,-0.091797,0.921814,0.369202,0.045349,0.108948,up
522516,0.261719,7.359375,7.230469,0.273438,-0.072266,-0.091797,0.921509,0.370056,0.045349,0.108704,up
522521,0.226562,7.441406,7.230469,0.421875,-0.058594,-0.099609,0.921143,0.371094,0.04541,0.108337,up
522526,0.109375,7.515625,7.078125,0.421875,-0.058594,-0.099609,0.921143,0.371094,0.04541,0.108337,up
522531,0.109375,7.515625,7.078125,0.433594,-0.050781,-0.089844,0.92041,0.373047,0.045654,0.107849,up
522536,-0.003906,7.703125,7.078125,0.40625,-0.060547,-0.082031,0.92041,0.373047,0.045654,0.107849,up
522541,0.035156,7.746094,7.078125,0.40625,-0.060547,-0.082031,0.919678,0.374878,0.045776,0.107361,up
522546,-0.003906,7.742187,7.078125,0.40625,-0.060547,-0.082031,0.919373,0.375732,0.045776,0.107117,up
522551,-0.003906,7.78125,7.078125,0.289063,-0.066406,-0.041016,0.919373,0.375732,0.045776,0.107117,up
522556,-0.042969,7.742187,7.078125,0.267578,-0.060547,-0.021484,0.919067,0.376526,0.045776,0.106934,up
522561,-0.042969,7.703125,6.960937,0.267578,-0.060547,-0.021484,0.918579,0.377747,0.045715,0.10675,up
522566,-0.082031,7.703125,7.0,0.267578,-0.060547,-0.021484,0.918396,0.378235,0.045715,0.106689,up
522571,-0.15625,7.707031,7.0,0.267578,-0.060547,-0.021484,0.918213,0.378723,0.045715,0.106689,up
522576,-0.195312,7.664062,7.0,0.267578,-0.060547,-0.021484,0.91803,0.379211,0.045715,0.10675,up
522581,-0.347656,7.558594,6.921875,0.169922,-0.025391,0.009766,0.91803,0.379211,0.045715,0.10675,up
522587,-0.386719,7.476562,6.921875,0.169922,-0.025391,0.009766,0.917664,0.380005,0.045715,0.10675,up
522592,-0.386719,7.441406,6.960937,0.214844,-0.060547,0.009766,0.91748,0.380493,0.045654,0.10675,up
522598,-0.347656,7.441406,6.960937,0.259766,-0.0625,0.005859,0.91748,0.380493,0.045654,0.10675,up
522603,-0.234375,7.402344,6.960937,0.259766,-0.0625,0.005859,0.916992,0.381714,0.045532,0.106689,up
522609,-0.234375,7.476562,6.960937,0.353516,-0.078125,-0.005859,0.916992,0.381714,0.045532,0.106689,up
522614,-0.273438,7.4375,6.960937,0.396484,-0.078125,-0.017578,0.916992,0.381714,0.045532,0.106689,up
522619,-0.3125,7.402344,6.886719,0.433594,-0.076172,-0.027344,0.916992,0.381714,0.045532,0.106689,up
522624,-0.3125,7.363281,6.847656,0.476562,-0.083984,-0.037109,0.916992,0.381714,0.045532,0.106689,up
522629,-0.3125,7.324219,6.769531,0.511719,-0.097656,-0.042969,0.916992,0.381714,0.045532,0.106689,up
522634,-0.386719,7.320312,6.730469,0.527344,-0.09375,-0.048828,0.916992,0.381714,0.045532,0.106689,up
522639,-0.539062,7.402344,6.578125,0.527344,-0.09375,-0.048828,0.916992,0.381714,0.045532,0.106689,up
522645,-0.539062,7.4375,6.617187,0.527344,-0.09375,-0.048828,0.913574,0.390259,0.045349,0.105286,up
522651,-0.503906,7.515625,6.617187,0.589844,-0.179687,-0.082031,0.913574,0.390259,0.045349,0.105286,up
522656,-0.464844,7.554687,6.578125,0.589844,-0.179687,-0.082031,0.912476,0.392944,0.045105,0.104614,up
522661,-0.464844,7.554687,6.578125,0.597656,-0.203125,-0.109375,0.911926,0.394348,0.044922,0.104126,up
522666,-0.386719,7.585937,6.578125,0.597656,-0.203125,-0.109375,0.911377,0.395813,0.044739,0.103577,up
522671,-0.386719,7.585937,6.578125,0.613281,-0.222656,-0.144531,0.910278,0.398682,0.044312,0.102417,up
522676,-0.273438,7.589844,6.539062,0.613281,-0.222656,-0.144531,0.910278,0.398682,0.044312,0.102417,up
522681,-0.273438,7.589844,6.539062,0.640625,-0.212891,-0.183594,0.909668,0.400208,0.044189,0.101807,up
522686,-0.273438,7.664062,6.503906,0.640625,-0.212891,-0.183594,0.908508,0.403198,0.044006,0.100464,up
522691,-0.347656,7.746094,6.464844,0.640625,-0.212891,-0.183594,0.908508,0.403198,0.044006,0.100464,up
522696,-0.386719,7.707031,6.464844,0.640625,-0.212891,-0.183594,0.907471,0.405884,0.043884,0.099365,up
522701,-0.386719,7.707031,6.464844,0.640625,-0.212891,-0.183594,0.907471,0.405884,0.043884,0.099365,up
522706,-0.347656,7.746094,6.503906,0.503906,-0.175781,-0.125,0.906494,0.408325,0.043579,0.098328,up
522712,-0.273438,7.703125,6.503906,0.503906,-0.175781,-0.125,0.906006,0.409546,0.043396,0.097839,up
522717,-0.195312,7.707031,6.464844,0.453125,-0.185547,-0.09375,0.90564,0.410461,0.043213,0.097473,up
522722,-0.195312,7.664062,6.425781,0.464844,-0.179687,-0.097656,0.905151,0.411682,0.04303,0.096985,up
522728,-0.082031,7.589844,6.386719,0.464844,-0.179687,-0.097656,0.904724,0.412598,0.042908,0.09668,up
522734,-0.082031,7.558594,6.3125,0.476562,-0.154297,-0.091797,0.904724,0.412598,0.042908,0.09668,up
522739,-0.15625,7.519531,6.273437,0.474609,-0.130859,-0.089844,0.904724,0.412598,0.042908,0.09668,up
522744,-0.121094,7.398437,6.273437,0.474609,-0.121094,-0.099609,0.904724,0.412598,0.042908,0.09668,up
522749,-0.121094,7.363281,6.195312,0.474609,-0.119141,-0.095703,0.904724,0.412598,0.042908,0.09668,up
522754,-0.082031,7.402344,6.195312,0.472656,-0.107422,-0.099609,0.904724,0.412598,0.042908,0.09668,up
522760,-0.042969,7.320312,6.195312,0.484375,-0.097656,-0.105469,0.904724,0.412598,0.042908,0.09668,up
522765,0.109375,7.359375,6.15625,0.484375,-0.097656,-0.105469,0.904724,0.412598,0.042908,0.09668,up
522770,0.148437,7.324219,6.15625,0.484375,-0.097656,-0.105469,0.900879,0.421631,0.042786,0.093689,up
522775,0.148437,7.363281,6.195312,0.552734,-0.023437,-0.158203,0.900879,0.421631,0.042786,0.093689,up
522780,0.109375,7.359375,6.234375,0.585937,0.0,-0.179687,0.900879,0.421631,0.042786,0.093689,up
522785,-0.042969,7.441406,6.15625,0.585937,0.0,-0.179687,0.900879,0.421631,0.042786,0.093689,up
522790,-0.121094,7.480469,6.234375,0.585937,0.0,-0.179687,0.89856,0.426819,0.044189,0.09198,up
522795,-0.15625,7.515625,6.3125,0.65625,0.03125,-0.228516,0.89856,0.426819,0.044189,0.09198,up
522801,-0.15625,7.558594,6.273437,0.638672,0.011719,-0.253906,0.89856,0.426819,0.044189,0.09198,up
522806,-0.121094,7.515625,6.273437,0.638672,0.011719,-0.253906,0.896667,0.430908,0.045593,0.090393,up
522811,-0.082031,7.558594,6.347656,0.548828,-0.076172,-0.267578,0.896667,0.430908,0.045593,0.090393,up
522816,-0.042969,7.558594,6.347656,0.548828,-0.076172,-0.267578,0.895508,0.433594,0.046265,0.088989,up
522822,0.035156,7.519531,6.234375,0.548828,-0.076172,-0.267578,0.894531,0.435913,0.046753,0.087524,up
522827,0.070312,7.515625,6.195312,0.556641,-0.128906,-0.291016,0.893921,0.437317,0.046997,0.086609,up
522832,0.109375,7.480469,6.15625,0.556641,-0.128906,-0.291016,0.893433,0.438416,0.047119,0.085876,up
522837,0.1875,7.441406,6.121094,0.548828,-0.128906,-0.300781,0.892883,0.439697,0.047302,0.085022,up
522843,0.417969,7.441406,6.003906,0.548828,-0.128906,-0.300781,0.892334,0.440857,0.047546,0.084229,up
522848,0.457031,7.398437,6.003906,0.568359,-0.064453,-0.304688,0.891785,0.442078,0.047791,0.083435,up
522853,0.457031,7.441406,5.964844,0.568359,-0.064453,-0.304688,0.891174,0.443481,0.048279,0.082581,up
522859,0.53125,7.480469,5.890625,0.568359,-0.064453,-0.304688,0.890564,0.444702,0.048767,0.081909,up
522864,0.53125,7.519531,5.851562,0.662109,0.068359,-0.330078,0.890564,0.444702,0.048767,0.081909,up
522869,0.53125,7.515625,5.925781,0.677734,0.109375,-0.328125,0.890564,0.444702,0.048767,0.081909,up
522874,0.570312,7.628906,5.890625,0.677734,0.109375,-0.328125,0.890564,0.444702,0.048767,0.081909,up
522879,0.53125,7.667969,5.8125,0.6875,0.195312,-0.333984,0.890564,0.444702,0.048767,0.081909,up
522885,0.53125,7.703125,5.890625,0.677734,0.236328,-0.320313,0.890564,0.444702,0.048767,0.081909,up
522890,0.492187,7.664062,5.890625,0.666016,0.271484,-0.314453,0.890564,0.444702,0.048767,0.081909,up
522895,0.300781,7.863281,6.003906,0.666016,0.271484,-0.314453,0.890564,0.444702,0.048767,0.081909,up
522900,0.148437,7.9375,5.964844,0.666016,0.271484,-0.314453,0.884827,0.455933,0.056274,0.077515,up
522905,-0.003906,8.011719,5.890625,0.609375,0.332031,-0.265625,0.884827,0.455933,0.056274,0.077515,up
522911,-0.15625,8.046875,5.8125,0.580078,0.326172,-0.277344,0.884827,0.455933,0.056274,0.077515,up
522916,-0.15625,8.085938,5.925781,0.462891,0.228516,-0.302734,0.882812,0.459534,0.059753,0.07666,up
522921,-0.121094,8.046875,5.925781,0.462891,0.228516,-0.302734,0.882263,0.460571,0.060852,0.076233,up
522927,-0.003906,7.863281,5.851562,0.345703,0.121094,-0.314453,0.881775,0.461426,0.061707,0.075806,up
522932,0.109375,7.78125,5.890625,0.345703,0.121094,-0.314453,0.880981,0.462952,0.063232,0.074585,up
522937,0.148437,7.746094,5.851562,0.371094,0.095703,-0.337891,0.880676,0.463562,0.063843,0.073975,up
522942,0.300781,7.707031,5.851562,0.371094,0.095703,-0.337891,0.880676,0.463562,0.063843,0.073975,up
522947,0.300781,7.707031,5.851562,0.398438,0.132812,-0.335938,0.879822,0.465149,0.065308,0.072693,up
522952,0.300781,7.667969,5.8125,0.402344,0.160156,-0.324219,0.879822,0.465149,0.065308,0.072693,up
522957,0.226562,7.746094,5.773437,0.402344,0.160156,-0.324219,0.878906,0.466797,0.066956,0.071594,up
522962,0.261719,7.707031,5.734375,0.402344,0.160156,-0.324219,0.878418,0.467651,0.067932,0.071045,up
522967,0.1875,7.785156,5.734375,0.402344,0.160156,-0.324219,0.877991,0.468384,0.068787,0.070679,up
522972,0.226562,7.863281,5.699219,0.427734,0.265625,-0.277344,0.877991,0.468384,0.068787,0.070679,up
522977,0.261719,7.902344,5.734375,0.427734,0.265625,-0.277344,0.877014,0.470093,0.070801,0.070007,up
522982,0.261719,7.9375,5.734375,0.427734,0.265625,-0.277344,0.877014,0.470093,0.070801,0.070007,up
522987,0.261719,7.9375,5.734375,0.451172,0.347656,-0.283203,0.876465,0.470947,0.07196,0.069702,up
522992,0.226562,7.9375,5.699219,0.451172,0.347656,-0.283203,0.875916,0.471863,0.073181,0.069458,up
522997,0.226562,7.9375,5.699219,0.498047,0.505859,-0.298828,0.874695,0.473694,0.075989,0.069031,up
523003,0.148437,8.007813,5.582031,0.498047,0.505859,-0.298828,0.874023,0.47467,0.077698,0.06897,up
523008,0.148437,7.972656,5.507812,0.460937,0.644531,-0.277344,0.873413,0.475525,0.079468,0.069031,up
523013,0.035156,7.972656,5.429687,0.433594,0.728516,-0.265625,0.873413,0.475525,0.079468,0.069031,up
523019,-0.082031,7.898437,5.390625,0.433594,0.728516,-0.265625,0.872131,0.477051,0.083435,0.069519,up
523026,-0.082031,7.898437,5.390625,0.40625,0.830078,-0.234375,0.872131,0.477051,0.083435,0.069519,up
523032,-0.042969,7.898437,5.429687,0.404297,0.957031,-0.224609,0.872131,0.477051,0.083435,0.069519,up
523037,-0.042969,7.96875,5.429687,0.404297,0.957031,-0.224609,0.869507,0.479797,0.092834,0.071533,up
523043,-0.121094,8.085938,5.46875,0.404297,0.957031,-0.224609,0.868835,0.480469,0.095398,0.072205,up
523048,-0.15625,8.128906,5.507812,0.455078,1.123047,-0.248047,0.868835,0.480469,0.095398,0.072205,up
523053,-0.195312,8.207031,5.390625,0.455078,1.123047,-0.248047,0.867187,0.481995,0.101257,0.07373,up
523058,-0.3125,8.246094,5.316406,0.455078,1.123047,-0.248047,0.866333,0.482788,0.104248,0.074463,up
523064,-0.539062,8.363281,5.238281,0.455078,1.123047,-0.248047,0.865356,0.483704,0.107483,0.075195,up
523070,-0.578125,8.429688,5.160156,0.642578,1.328125,-0.365234,0.865356,0.483704,0.107483,0.075195,up
523076,-0.65625,8.589844,5.238281,0.642578,1.328125,-0.365234,0.865356,0.483704,0.107483,0.075195,up
523081,-0.617187,8.628906,5.277344,0.716797,1.349609,-0.394531,0.865356,0.483704,0.107483,0.075195,up
523086,-0.578125,8.742188,5.199219,0.755859,1.439453,-0.435547,0.865356,0.483704,0.107483,0.075195,up
523092,-0.617187,8.972656,5.238281,0.751953,1.486328,-0.447266,0.859436,0.489319,0.125305,0.07843,up
523097,-0.617187,9.046875,5.160156,0.751953,1.486328,-0.447266,0.856812,0.491699,0.13324,0.079712,up
523102,-0.65625,9.199219,5.085937,0.751953,1.486328,-0.447266,0.856812,0.491699,0.13324,0.079712,up
523107,-0.539062,9.234375,5.160156,0.740234,1.560547,-0.453125,0.856812,0.491699,0.13324,0.079712,up
523112,-0.386719,9.234375,5.199219,0.669922,1.601563,-0.447266,0.854065,0.493958,0.141479,0.081177,up
523117,-0.3125,9.199219,5.199219,0.669922,1.601563,-0.447266,0.851379,0.49585,0.149658,0.082764,up
523122,-0.234375,9.089844,5.277344,0.724609,1.708984,-0.46875,0.851379,0.49585,0.149658,0.082764,up
523127,-0.15625,8.890625,5.351562,0.724609,1.708984,-0.46875,0.84845,0.497864,0.158508,0.084534,up
523132,-0.121094,8.816406,5.390625,0.875,1.886719,-0.496094,0.84845,0.497864,0.158508,0.084534,up
523137,-0.121094,8.773438,5.390625,0.982422,1.972656,-0.498047,0.846619,0.499146,0.163696,0.085571,up
523142,-0.121094,8.773438,5.390625,0.982422,1.972656,-0.498047,0.84491,0.500366,0.168213,0.086548,up
523147,-0.464844,8.933594,4.933594,1.085938,2.042969,-0.480469,0.842896,0.501892,0.173218,0.087585,up
523152,-0.464844,8.933594,4.933594,1.167969,2.080078,-0.458984,0.840698,0.50354,0.178406,0.088684,up
523157,-0.695312,9.277344,4.703125,1.167969,2.080078,-0.458984,0.838318,0.505432,0.183533,0.089844,up
523162,-0.695312,9.277344,4.703125,1.302734,2.091797,-0.404297,0.835754,0.507446,0.188904,0.091064,up
523168,-0.503906,9.734375,4.355469,1.302734,2.091797,-0.404297,0.833191,0.509521,0.194031,0.092285,up
523174,-0.503906,10.160156,4.164062,1.302734,2.091797,-0.404297,0.827576,0.513977,0.204651,0.09491,up
523179,-0.695312,10.273438,4.128906,1.488281,2.224609,-0.308594,0.827576,0.513977,0.204651,0.09491,up
523184,-0.847656,10.539063,3.707031,1.550781,2.285156,-0.279297,0.827576,0.513977,0.204651,0.09491,up
523189,-1.230469,10.769531,3.207031,1.601563,2.394531,-0.208984,0.827576,0.513977,0.204651,0.09491,up
523195,-1.535156,10.960938,2.824219,1.652344,2.410156,-0.109375,0.827576,0.513977,0.204651,0.09491,up
523200,-1.917969,11.386719,2.75,1.640625,2.300781,0.013672,0.811279,0.526611,0.231873,0.103638,up
523205,-1.917969,11.804688,2.863281,1.640625,2.300781,0.013672,0.811279,0.526611,0.231873,0.103638,up
523210,-1.765625,11.730469,3.015625,1.527344,1.943359,0.216797,0.811279,0.526611,0.231873,0.103638,up
523215,-1.726563,11.804688,3.09375,1.425781,1.832031,0.322266,0.811279,0.526611,0.231873,0.103638,up
523220,-1.726563,11.730469,2.902344,1.425781,1.832031,0.322266,0.798218,0.53717,0.248352,0.112427,up
523226,-1.535156,11.730469,2.976563,1.283203,1.595703,0.5,0.798218,0.53717,0.248352,0.112427,up
523231,-1.34375,11.609375,3.167969,1.291016,1.458984,0.566406,0.798218,0.53717,0.248352,0.112427,up
523236,-1.078125,11.304688,2.976563,1.367188,1.375,0.607422,0.798218,0.53717,0.248352,0.112427,up
523241,-1.078125,11.304688,2.976563,1.466797,1.359375,0.619141,0.786438,0.547424,0.258972,0.121643,up
523246,-1.078125,11.304688,2.976563,1.523438,1.375,0.619141,0.783325,0.550293,0.26123,0.123779,up
523251,-1.078125,11.191406,2.710938,1.539063,1.380859,0.607422,0.780151,0.553223,0.26355,0.125854,up
523256,-0.769531,11.382813,2.097656,1.539063,1.380859,0.607422,0.780151,0.553223,0.26355,0.125854,up
523261,-0.769531,11.382813,2.097656,1.367188,1.490234,0.529297,0.773743,0.558838,0.268494,0.130188,up
523267,-0.695312,11.808594,1.789063,1.367188,1.490234,0.529297,0.767883,0.563049,0.274109,0.134827,up
523272,-0.695312,11.925781,1.675781,1.367188,1.490234,0.529297,0.765381,0.564392,0.2771,0.137329,up
523277,-0.886719,11.765625,1.5625,1.367188,1.490234,0.529297,0.765381,0.564392,0.2771,0.137329,up
523282,-1.0,11.726563,1.5625,0.443359,1.861328,0.232422,0.765381,0.564392,0.2771,0.137329,up
523287,-1.382813,11.804688,1.675781,0.443359,1.861328,0.232422,0.760925,0.565735,0.283752,0.142761,up
523293,-1.574219,11.921875,1.597656,0.347656,1.896484,0.220703,0.75708,0.56604,0.290527,0.14856,up
523298,-1.726563,11.957031,1.5625,0.146484,1.859375,0.265625,0.755188,0.565857,0.294067,0.151733,up
523303,-1.726563,11.957031,1.5625,0.027344,1.779297,0.310547,0.753723,0.565552,0.296875,0.154602,up
523309,-1.765625,11.882813,1.867188,-0.052734,1.689453,0.347656,0.752197,0.565063,0.299988,0.15802,up
523314,-1.691406,11.652344,2.328125,-0.052734,1.689453,0.347656,0.750977,0.564575,0.302368,0.160828,up
523319,-1.691406,11.613281,2.363281,-0.119141,1.519531,0.462891,0.749756,0.564026,0.304688,0.164062,up
523325,-1.574219,11.265625,2.441406,-0.136719,1.423828,0.523437,0.749756,0.564026,0.304688,0.164062,up
523331,-1.5,10.964844,2.363281,-0.158203,1.34375,0.585937,0.749756,0.564026,0.304688,0.164062,up
523337,-1.460938,10.699219,2.136719,-0.195312,1.275391,0.667969,0.749756,0.564026,0.304688,0.164062,up
523342,-1.382813,10.042969,1.675781,-0.25,1.244141,0.728516,0.749756,0.564026,0.304688,0.164062,up
523347,-1.230469,9.699219,1.40625,-0.25,1.244141,0.728516,0.74353,0.561157,0.313599,0.184082,up
523352,-1.191406,9.316406,1.140625,-0.25,1.244141,0.728516,0.74353,0.561157,0.313599,0.184082,up
523357,-1.117188,9.128906,1.101563,-0.404297,1.435547,0.882812,0.74353,0.561157,0.313599,0.184082,up
523362,-0.925781,9.273438,1.101563,-0.404297,1.435547,0.882812,0.741699,0.559814,0.315857,0.191589,up
523367,-0.925781,9.273438,1.101563,-0.375,1.529297,0.875,0.740662,0.559082,0.3172,0.195557,up
523372,-0.886719,9.433594,1.101563,-0.375,1.529297,0.875,0.740662,0.559082,0.3172,0.195557,up
523377,-0.847656,9.511719,0.984375,-0.302734,1.632813,0.833984,0.740662,0.559082,0.3172,0.195557,up
523382,-0.847656,9.511719,0.984375,-0.123047,1.839844,0.708984,0.73645,0.557007,0.322876,0.207764,up
523388,-1.34375,10.695313,0.179687,-0.123047,1.839844,0.708984,0.7323,0.555969,0.328613,0.216003,up
523393,-1.5,11.039063,0.144531,-0.123047,1.839844,0.708984,0.730469,0.555664,0.331177,0.218933,up
523398,-1.691406,11.265625,0.027344,0.318359,1.972656,0.322266,0.728088,0.555359,0.334595,0.222351,up
523404,-2.113281,11.5,-0.085937,0.318359,1.972656,0.322266,0.725952,0.555115,0.337891,0.225281,up
523409,-2.1875,11.5,-0.203125,0.263672,1.988281,0.175781,0.725952,0.555115,0.337891,0.225281,up
523414,-2.304688,11.386719,-0.125,0.134766,1.96875,0.154297,0.725952,0.555115,0.337891,0.225281,up
523419,-2.378906,11.308594,-0.203125,0.134766,1.96875,0.154297,0.719727,0.553101,0.348267,0.23407,up
523424,-2.722656,10.808594,-0.238281,0.134766,1.96875,0.154297,0.718018,0.55188,0.351563,0.237244,up
523429,-2.800781,10.621094,-0.277344,-0.402344,1.896484,0.21875,0.718018,0.55188,0.351563,0.237244,up
523435,-2.878906,10.386719,-0.429687,-0.402344,1.896484,0.21875,0.715454,0.548523,0.3573,0.24408,up
523440,-2.800781,9.65625,-0.699219,-0.402344,1.896484,0.21875,0.715454,0.548523,0.3573,0.24408,up
523445,-2.6875,9.429688,-0.8125,-0.941406,1.841797,0.355469,0.715454,0.548523,0.3573,0.24408,up
523450,-2.6875,9.390625,-0.96875,-1.080078,1.890625,0.388672,0.715454,0.548523,0.3573,0.24408,up
523455,-2.800781,9.511719,-0.929687,-1.080078,1.890625,0.388672,0.715454,0.548523,0.3573,0.24408,up
523460,-2.800781,9.511719,-0.929687,-1.1875,1.929688,0.412109,0.71228,0.535461,0.36853,0.264709,up
523465,-2.800781,9.511719,-0.929687,-1.140625,1.923828,0.412109,0.711792,0.532532,0.370667,0.269043,up
523470,-2.800781,9.65625,-0.890625,-1.140625,1.923828,0.412109,0.711792,0.532532,0.370667,0.269043,up
523475,-2.839844,10.425781,-1.082031,-1.029297,1.933594,0.376953,0.711792,0.532532,0.370667,0.269043,up
523480,-2.839844,10.425781,-1.082031,-0.679687,1.982422,0.21875,0.70929,0.524414,0.377869,0.28125,up
523486,-2.914063,10.578125,-1.390625,-0.679687,1.982422,0.21875,0.70929,0.524414,0.377869,0.28125,up
523492,-3.03125,10.238281,-1.160156,-0.679687,1.982422,0.21875,0.70929,0.524414,0.377869,0.28125,up
523497,-3.105469,10.117188,-1.007813,-0.513672,2.041016,0.003906,0.70929,0.524414,0.377869,0.28125,up
523502,-3.183594,10.042969,-0.851562,-0.701172,2.101563,-0.070312,0.70929,0.524414,0.377869,0.28125,up
523507,-3.414063,9.660156,-0.507812,-0.701172,2.101563,-0.070312,0.702881,0.512146,0.393616,0.297852,up
523512,-3.492188,9.433594,-0.394531,-0.701172,2.101563,-0.070312,0.701782,0.509094,0.396973,0.30127,up
523517,-3.605469,9.199219,-0.277344,-0.914062,2.175781,-0.091797,0.701782,0.509094,0.396973,0.30127,up
523523,-3.683594,8.625,-0.238281,-1.072266,2.189453,-0.076172,0.701782,0.509094,0.396973,0.30127,up
523528,-3.683594,8.324219,-0.277344,-1.072266,2.189453,-0.076172,0.698486,0.494019,0.409607,0.316711,up
523533,-3.71875,8.089844,-0.316406,-1.566406,2.142578,0.029297,0.698486,0.494019,0.409607,0.316711,up
523538,-3.71875,8.050781,-0.238281,-1.566406,2.142578,0.029297,0.697815,0.485352,0.41449,0.325134,up
523543,-3.71875,8.085938,-0.125,-1.566406,2.142578,0.029297,0.697571,0.481323,0.416504,0.329102,up
523548,-3.757813,8.246094,0.066406,-1.566406,2.142578,0.029297,0.697144,0.476746,0.418762,0.333679,up
523553,-3.683594,8.320313,0.105469,-1.285156,1.914063,0.130859,0.697144,0.476746,0.418762,0.333679,up
523558,-3.605469,8.394531,0.066406,-1.285156,1.914063,0.130859,0.695923,0.469543,0.422913,0.341187,up
523563,-3.566406,8.628906,-0.164062,-1.285156,1.914063,0.130859,0.695923,0.469543,0.422913,0.341187,up
523568,-3.566406,8.628906,-0.164062,-0.765625,1.873047,0.128906,0.694824,0.466492,0.425293,0.344543,up
523573,-3.566406,8.746094,-0.164062,-0.765625,1.873047,0.128906,0.693481,0.463867,0.427795,0.347595,up
523578,-3.605469,9.316406,0.410156,-0.417969,1.896484,0.113281,0.691895,0.461487,0.430603,0.350586,up
523583,-3.605469,9.316406,0.410156,-0.291016,1.931641,0.097656,0.691895,0.461487,0.430603,0.350586,up
523589,-3.835938,9.390625,0.984375,-0.291016,1.931641,0.097656,0.686157,0.455139,0.439697,0.358704,up
523595,-4.066406,9.316406,1.214844,-0.291016,1.931641,0.097656,0.684082,0.453064,0.442993,0.361389,up
523600,-4.371094,9.089844,1.40625,-0.291016,1.931641,0.097656,0.681824,0.450745,0.446411,0.364197,up
523606,-4.449219,9.011719,1.597656,-0.365234,2.126953,0.042969,0.681824,0.450745,0.446411,0.364197,up
523611,-4.410156,8.773438,1.789063,-0.53125,2.082031,0.066406,0.681824,0.450745,0.446411,0.364197,up
523616,-4.488281,8.28125,1.753906,-0.695312,2.03125,0.066406,0.681824,0.450745,0.446411,0.364197,up
523621,-4.371094,8.085938,1.753906,-0.824219,1.990234,0.083984,0.6745,0.439697,0.458313,0.376343,up
523626,-4.371094,7.972656,1.753906,-0.892578,1.927734,0.099609,0.6745,0.439697,0.458313,0.376343,up
523632,-4.257812,7.941406,1.828125,-0.892578,1.927734,0.099609,0.671753,0.433105,0.463013,0.383118,up
523637,-4.257812,8.125,1.753906,-0.939453,1.732422,0.113281,0.671753,0.433105,0.463013,0.383118,up
523642,-4.292969,8.507813,1.636719,-0.912109,1.611328,0.126953,0.671753,0.433105,0.463013,0.383118,up
523647,-4.410156,8.703125,1.5625,-0.876953,1.480469,0.128906,0.671753,0.433105,0.463013,0.383118,up
523652,-4.5625,9.15625,1.40625,-0.876953,1.480469,0.128906,0.667542,0.421326,0.469727,0.395203,up
523658,-4.832031,9.507813,1.292969,-0.804687,1.179688,0.125,0.667542,0.421326,0.469727,0.395203,up
523663,-5.023437,9.851563,1.40625,-0.826172,0.976562,0.136719,0.667542,0.421326,0.469727,0.395203,up
523668,-5.40625,10.316406,1.753906,-0.826172,0.976562,0.136719,0.665649,0.414246,0.472595,0.402466,up
523673,-5.519531,10.386719,1.828125,-0.982422,0.90625,0.183594,0.665222,0.412048,0.473206,0.404724,up
523678,-5.636719,10.382813,1.90625,-0.982422,0.90625,0.183594,0.664917,0.409668,0.473572,0.407166,up
523683,-5.636719,10.382813,1.90625,-1.048828,0.894531,0.214844,0.664673,0.407532,0.473816,0.409424,up
523688,-5.597656,9.773438,2.632813,-1.111328,0.876953,0.261719,0.664429,0.40509,0.473938,0.411987,up
523693,-5.597656,9.773438,2.632813,-1.173828,0.857422,0.320313,0.664246,0.402649,0.473938,0.414734,up
523699,-5.445312,9.46875,2.824219,-1.173828,0.857422,0.320313,0.664062,0.400146,0.473755,0.417664,up
523704,-5.445312,9.46875,2.824219,-1.253906,0.822266,0.476562,0.663635,0.395508,0.4729,0.423767,up
523710,-5.253906,8.242188,3.015625,-1.253906,0.822266,0.476562,0.66333,0.393311,0.472107,0.427124,up
523715,-5.175781,8.011719,3.054688,-1.121094,0.603516,0.779297,0.66333,0.393311,0.472107,0.427124,up
523721,-5.136719,7.859375,2.902344,-0.90625,0.519531,0.839844,0.66333,0.393311,0.472107,0.427124,up
523726,-4.945312,7.824219,2.785156,-0.90625,0.519531,0.839844,0.66156,0.389343,0.469421,0.43634,up
523731,-4.753906,7.941406,2.710938,-0.291016,0.34375,0.925781,0.66156,0.389343,0.469421,0.43634,up
523736,-4.640625,8.128906,2.554688,0.060547,0.253906,0.929687,0.66156,0.389343,0.469421,0.43634,up
523742,-4.488281,8.320313,2.363281,0.396484,0.167969,0.919922,0.66156,0.389343,0.469421,0.43634,up
523747,-4.292969,8.816406,1.90625,0.396484,0.167969,0.919922,0.66156,0.389343,0.469421,0.43634,up
523752,-4.21875,8.933594,1.714844,0.396484,0.167969,0.919922,0.654114,0.395081,0.467896,0.44397,up
523758,-4.140625,9.046875,1.597656,1.005859,0.017578,0.855469,0.654114,0.395081,0.467896,0.44397,up
523763,-3.988281,9.550781,1.332031,1.048828,0.001953,0.84375,0.648132,0.402832,0.468811,0.444824,up
523768,-3.910156,9.621094,1.332031,1.048828,0.001953,0.84375,0.648132,0.402832,0.468811,0.444824,up
523773,-3.796875,9.550781,1.367188,0.554687,0.117188,0.78125,0.648132,0.402832,0.468811,0.444824,up
523778,-3.71875,9.273438,1.523438,0.554687,0.117188,0.78125,0.644531,0.407104,0.469299,0.445618,up
523784,-3.683594,9.351563,1.214844,0.222656,0.212891,0.787109,0.641724,0.409302,0.468872,0.448181,up
523789,-3.566406,8.972656,1.332031,-0.400391,0.203125,0.736328,0.640869,0.409546,0.46814,0.44989,up
523794,-3.453125,8.394531,1.597656,-0.400391,0.203125,0.736328,0.64032,0.409302,0.467224,0.451843,up
523800,-3.492188,7.863281,1.753906,-0.400391,0.203125,0.736328,0.639893,0.408691,0.466003,0.454224,up
523805,-3.335938,7.4375,2.441406,-0.400391,0.203125,0.736328,0.639648,0.407776,0.464478,0.45697,up
523811,-3.300781,7.242187,2.75,-1.314453,0.205078,0.841797,0.639648,0.406372,0.462341,0.460327,up
523816,-3.261719,7.207031,2.902344,-1.314453,0.205078,0.841797,0.639771,0.405212,0.460632,0.462952,up
523822,-3.105469,7.246094,3.132813,-0.912109,0.076172,0.736328,0.639771,0.405212,0.460632,0.462952,up
523828,-2.914063,7.363281,3.324219,-0.505859,0.0,0.669922,0.639771,0.405212,0.460632,0.462952,up
523833,-2.914063,7.898437,3.132813,-0.023437,-0.037109,0.617187,0.639771,0.405212,0.460632,0.462952,up
523838,-2.953125,8.085938,2.941406,-0.023437,-0.037109,0.617187,0.638306,0.40509,0.45575,0.469788,up
523844,-2.914063,8.324219,2.824219,0.626953,-0.25,0.539062,0.638306,0.40509,0.45575,0.469788,up
523849,-2.722656,8.933594,2.785156,0.626953,-0.25,0.539062,0.635193,0.4104,0.455078,0.470032,up
523854,-2.648438,9.199219,2.632813,0.626953,-0.25,0.539062,0.63446,0.41217,0.454773,0.46991,up
523859,-2.6875,9.351563,2.519531,0.404297,-0.390625,0.519531,0.63446,0.41217,0.454773,0.46991,up
523864,-2.6875,9.472656,2.554688,0.404297,-0.390625,0.519531,0.633179,0.415527,0.45343,0.46991,up
523869,-2.722656,9.734375,2.554688,0.404297,-0.390625,0.519531,0.632874,0.416748,0.452393,0.470276,up
523874,-2.722656,9.660156,2.59375,-0.251953,-0.349609,0.572266,0.632874,0.416748,0.452393,0.470276,up
523879,-2.6875,9.578125,2.554688,-0.251953,-0.349609,0.572266,0.632751,0.418091,0.449585,0.471924,up
523884,-2.570313,9.507813,2.632813,-0.677734,-0.320313,0.611328,0.633057,0.418213,0.447571,0.473328,up
523889,-2.457031,9.394531,2.75,-0.677734,-0.320313,0.611328,0.633301,0.418152,0.445801,0.474731,up
523894,-2.304688,9.046875,2.785156,-0.707031,-0.238281,0.640625,0.633606,0.417969,0.443726,0.476379,up
523900,-2.074219,8.625,2.824219,-0.707031,-0.238281,0.640625,0.633728,0.417908,0.442078,0.477844,up
523905,-1.917969,8.511719,2.824219,-0.552734,-0.189453,0.677734,0.633789,0.417908,0.440308,0.479431,up
523910,-1.652344,8.390625,2.824219,-0.552734,-0.189453,0.677734,0.633606,0.418091,0.438721,0.480835,up
523915,-1.421875,8.285156,2.902344,-0.195312,-0.173828,0.693359,0.633606,0.418091,0.438721,0.480835,up
523920,-1.269531,8.28125,2.863281,0.046875,-0.177734,0.695312,0.633606,0.418091,0.438721,0.480835,up
523926,-1.117188,8.472656,2.824219,0.046875,-0.177734,0.695312,0.631836,0.420593,0.435547,0.483948,up
523932,-1.0,8.625,2.785156,0.525391,-0.160156,0.679687,0.631836,0.420593,0.435547,0.483948,up
523937,-0.886719,8.816406,2.75,0.675781,-0.162109,0.667969,0.631836,0.420593,0.435547,0.483948,up
523942,-0.886719,8.816406,2.75,0.771484,-0.171875,0.669922,0.627991,0.426025,0.434753,0.484863,up
523947,-0.960937,9.507813,2.75,0.771484,-0.171875,0.669922,0.627991,0.426025,0.434753,0.484863,up
523952,-0.960937,9.8125,2.785156,0.798828,-0.273438,0.705078,0.625,0.430542,0.43457,0.484863,up
523957,-0.960937,9.8125,2.785156,0.798828,-0.273438,0.705078,0.625,0.430542,0.43457,0.484863,up
523963,-0.808594,10.117188,2.554688,0.708984,-0.320313,0.724609,0.622437,0.435059,0.433655,0.485046,up
523968,-0.730469,9.816406,2.59375,-0.083984,-0.501953,0.767578,0.622437,0.435059,0.433655,0.485046,up
523973,-0.578125,9.660156,2.710938,-0.083984,-0.501953,0.767578,0.621033,0.438354,0.431274,0.486023,up
523979,-0.503906,9.128906,2.785156,-0.320313,-0.556641,0.779297,0.621033,0.438354,0.431274,0.486023,up
523984,-0.503906,8.816406,2.75,-0.513672,-0.595703,0.787109,0.621216,0.441101,0.424561,0.489197,up
523989,-0.464844,8.667969,2.59375,-0.720703,-0.669922,0.818359,0.621216,0.441101,0.424561,0.489197,up
523994,-0.3125,8.285156,2.363281,-0.720703,-0.669922,0.818359,0.621704,0.441711,0.421631,0.49054,up
523999,-0.273438,8.203125,2.363281,-0.720703,-0.669922,0.818359,0.62262,0.44281,0.416077,0.493103,up
524004,-0.234375,8.324219,2.363281,-0.720703,-0.669922,0.818359,0.62262,0.44281,0.416077,0.493103,up
524009,-0.195312,8.472656,2.289063,-0.587891,-0.703125,0.800781,0.623291,0.444397,0.410645,0.495361,up
524014,-0.121094,8.894531,2.136719,-0.587891,-0.703125,0.800781,0.62323,0.445618,0.408508,0.496094,up
524019,0.035156,9.234375,2.171875,-0.587891,-0.703125,0.800781,0.622742,0.447083,0.406982,0.496643,up
524024,0.070312,9.546875,2.136719,-0.587891,-0.703125,0.800781,0.622742,0.447083,0.406982,0.496643,up
524029,0.070312,9.773438,1.980469,0.544922,-0.363281,0.736328,0.620422,0.451111,0.405457,0.497131,up
524034,0.261719,10.121094,1.90625,0.544922,-0.363281,0.736328,0.618774,0.453308,0.405518,0.497192,up
524039,0.300781,10.195313,1.945313,0.988281,0.019531,0.642578,0.618774,0.453308,0.405518,0.497192,up
524044,0.378906,10.15625,2.097656,0.988281,0.019531,0.642578,0.616821,0.455505,0.405884,0.497253,up
524049,0.417969,10.042969,2.210938,0.996094,0.128906,0.607422,0.616821,0.455505,0.405884,0.497253,up
524054,0.300781,9.929688,2.210938,0.822266,0.234375,0.541016,0.612732,0.459534,0.407349,0.497437,up
524059,0.261719,9.855469,2.171875,0.822266,0.234375,0.541016,0.610596,0.461304,0.408264,0.497681,up
524064,0.148437,9.734375,2.25,0.630859,0.236328,0.505859,0.610596,0.461304,0.408264,0.497681,up
524069,0.148437,9.734375,2.25,0.630859,0.236328,0.505859,0.606384,0.464294,0.409363,0.499146,up
524074,-0.121094,9.738281,2.554688,-0.044922,-0.007813,0.5,0.606384,0.464294,0.409363,0.499146,up
524079,-0.347656,9.851563,2.554688,-0.173828,-0.136719,0.515625,0.605591,0.464844,0.408936,0.5,up
524085,-0.464844,9.933594,2.554688,-0.173828,-0.136719,0.515625,0.604919,0.465698,0.406921,0.501648,up
524091,-0.3125,9.855469,2.710938,-0.173828,-0.136719,0.515625,0.604858,0.466248,0.405579,0.502319,up
524097,-0.121094,9.617188,2.75,-0.273438,-0.503906,0.570312,0.604858,0.466248,0.405579,0.502319,up
524103,0.261719,9.050781,2.710938,-0.267578,-0.570312,0.589844,0.604858,0.466248,0.405579,0.502319,up
524108,0.53125,8.664063,2.671875,-0.142578,-0.599609,0.623047,0.604858,0.466248,0.405579,0.502319,up
524113,0.722656,8.28125,2.632813,-0.142578,-0.599609,0.623047,0.605042,0.469849,0.398376,0.504456,up
524119,0.953125,7.9375,2.554688,0.083984,-0.513672,0.664062,0.605042,0.469849,0.398376,0.504456,up
524124,1.335938,7.398437,2.363281,0.083984,-0.513672,0.664062,0.604004,0.473877,0.393799,0.505554,up
524129,1.566406,7.167969,2.328125,0.083984,-0.513672,0.664062,0.604004,0.473877,0.393799,0.505554,up
524134,1.679688,7.132812,2.289063,0.525391,-0.220703,0.623047,0.604004,0.473877,0.393799,0.505554,up
524139,1.757813,7.242187,2.289063,0.525391,-0.220703,0.623047,0.600647,0.478821,0.39209,0.506165,up
524144,1.71875,7.359375,2.25,0.525391,-0.220703,0.623047,0.598999,0.480652,0.392517,0.506042,up
524149,1.605469,7.941406,2.136719,0.525391,-0.220703,0.623047,0.598999,0.480652,0.392517,0.506042,up
524154,1.414063,8.246094,2.058594,1.330078,0.201172,0.316406,0.598999,0.480652,0.392517,0.506042,up
524159,1.066406,8.773438,1.945313,1.330078,0.201172,0.316406,0.595032,0.484497,0.394775,0.50531,up
524164,0.875,9.046875,1.867188,1.494141,0.271484,0.21875,0.59021,0.488647,0.398926,0.503723,up
524169,0.648437,9.394531,1.714844,1.494141,0.271484,0.21875,0.59021,0.488647,0.398926,0.503723,up
524174,0.492187,9.582031,1.636719,1.595703,0.392578,0.019531,0.585449,0.492371,0.403992,0.501587,up
524179,0.457031,9.894531,1.675781,1.595703,0.392578,0.019531,0.585449,0.492371,0.403992,0.501587,up
524184,0.570312,9.816406,1.597656,1.134766,0.394531,-0.248047,0.585449,0.492371,0.403992,0.501587,up
524189,0.53125,9.738281,1.597656,1.134766,0.394531,-0.248047,0.581482,0.495056,0.409302,0.499329,up
524195,0.492187,9.65625,1.789063,0.435547,0.279297,-0.347656,0.580139,0.495728,0.411438,0.498413,up
524200,0.53125,9.578125,1.828125,0.435547,0.279297,-0.347656,0.579468,0.49585,0.413025,0.497742,up
524205,0.53125,9.578125,1.828125,0.046875,0.212891,-0.402344,0.579895,0.49469,0.414734,0.49707,up
524210,0.53125,9.507813,1.945313,0.046875,0.212891,-0.402344,0.579895,0.49469,0.414734,0.49707,up
524215,0.570312,9.195313,2.328125,-0.582031,0.080078,-0.515625,0.580872,0.493347,0.414978,0.496948,up
524220,0.570312,9.195313,2.328125,-0.755859,0.048828,-0.580078,0.580872,0.493347,0.414978,0.496948,up
524225,0.609375,8.972656,2.519531,-0.755859,0.048828,-0.580078,0.585754,0.487915,0.414612,0.496887,up
524230,0.761719,8.929688,2.480469,-0.755859,0.048828,-0.580078,0.587524,0.48584,0.414734,0.496704,up
524235,1.144531,8.816406,2.519531,-0.755859,0.048828,-0.580078,0.589294,0.483704,0.415161,0.49646,up
524240,1.296875,8.742188,2.59375,-0.455078,0.265625,-0.845703,0.590576,0.481934,0.415771,0.496094,up
524245,1.296875,8.707031,2.554688,-0.259766,0.351563,-0.886719,0.591797,0.47998,0.416931,0.495544,up
524251,0.839844,8.773438,2.480469,-0.259766,0.351563,-0.886719,0.59259,0.478455,0.418274,0.494934,up
524256,0.609375,8.96875,2.480469,0.130859,0.472656,-0.957031,0.593262,0.476868,0.420166,0.494019,up
524261,0.300781,9.160156,2.480469,0.287109,0.501953,-1.0,0.593689,0.475586,0.422302,0.492981,up
524267,-0.273438,9.695313,2.710938,0.398438,0.519531,-1.046875,0.593689,0.475586,0.422302,0.492981,up
524274,-0.464844,10.0,2.785156,0.484375,0.519531,-1.087891,0.593689,0.475586,0.422302,0.492981,up
524279,-0.578125,10.234375,2.824219,0.550781,0.507812,-1.115234,0.593689,0.475586,0.422302,0.492981,up
524284,-0.769531,10.738281,2.863281,0.615234,0.488281,-1.140625,0.593689,0.475586,0.422302,0.492981,up
524289,-0.808594,10.886719,2.863281,0.615234,0.488281,-1.140625,0.594604,0.470276,0.435852,0.485168,up
524295,-0.808594,10.960938,2.824219,0.574219,0.333984,-1.158203,0.594604,0.470276,0.435852,0.485168,up
524300,-0.847656,11.0,2.785156,0.574219,0.333984,-1.158203,0.595459,0.467651,0.443848,0.479309,up
524305,-0.808594,10.886719,2.75,0.574219,0.333984,-1.158203,0.595459,0.467651,0.443848,0.479309,up
524310,-0.695312,10.699219,2.75,0.130859,0.09375,-1.105469,0.596069,0.466797,0.44574,0.4776,up
524315,-0.503906,10.539063,2.75,0.130859,0.09375,-1.105469,0.598267,0.464294,0.44928,0.473999,up
524320,-0.386719,10.234375,2.75,0.130859,0.09375,-1.105469,0.599365,0.463196,0.450256,0.472656,up
524325,-0.195312,9.738281,2.671875,0.130859,0.09375,-1.105469,0.601013,0.461731,0.451416,0.470947,up
524330,-0.082031,9.472656,2.632813,-0.152344,-0.109375,-1.048828,0.601013,0.461731,0.451416,0.470947,up
524335,-0.003906,9.316406,2.59375,-0.152344,-0.109375,-1.048828,0.604004,0.459167,0.453186,0.467957,up
524340,-0.15625,9.046875,2.441406,-0.152344,-0.109375,-1.048828,0.604004,0.459167,0.453186,0.467957,up
524345,-0.273438,9.085938,2.363281,0.021484,-0.128906,-1.083984,0.605347,0.458069,0.454041,0.466431,up
524350,-0.425781,9.160156,2.25,0.021484,-0.128906,-1.083984,0.608215,0.455872,0.456299,0.462708,up
524355,-0.578125,9.429688,2.136719,0.021484,-0.128906,-1.083984,0.608215,0.455872,0.456299,0.462708,up
524360,-0.578125,9.429688,2.136719,0.431641,-0.087891,-1.205078,0.610352,0.454285,0.459229,0.458435,up
524365,-0.808594,9.816406,1.945313,0.431641,-0.087891,-1.205078,0.611328,0.453674,0.461304,0.455688,up
524370,-0.847656,9.960938,1.867188,0.431641,-0.087891,-1.205078,0.612061,0.453125,0.463135,0.453369,up
524375,-0.808594,10.199219,1.714844,0.431641,-0.087891,-1.205078,0.612915,0.452515,0.465576,0.450378,up
524380,-0.769531,10.316406,1.636719,0.431641,-0.087891,-1.205078,0.613586,0.451782,0.467712,0.447876,up
524385,-0.769531,10.316406,1.636719,0.431641,-0.087891,-1.205078,0.613586,0.451782,0.467712,0.447876,up
524390,-0.730469,10.3125,1.5625,0.509766,0.123047,-1.464844,0.613586,0.451782,0.467712,0.447876,up
524395,-0.769531,10.3125,1.367188,0.365234,0.162109,-1.501953,0.615417,0.449585,0.472595,0.442505,up
524400,-0.769531,10.3125,1.367188,0.365234,0.162109,-1.501953,0.615417,0.449585,0.472595,0.442505,up
524405,-0.808594,10.234375,1.332031,-0.068359,0.1875,-1.548828,0.61969,0.443665,0.47876,0.435852,up
524410,-0.886719,9.894531,1.332031,-0.068359,0.1875,-1.548828,0.61969,0.443665,0.47876,0.435852,up
524415,-0.886719,9.894531,1.332031,-0.669922,0.183594,-1.597656,0.623718,0.437927,0.481812,0.432495,up
524420,-1.152344,9.773438,1.332031,-0.783203,0.199219,-1.619141,0.623718,0.437927,0.481812,0.432495,up
524425,-1.269531,9.621094,1.40625,-0.783203,0.199219,-1.619141,0.62616,0.434387,0.483154,0.43103,up
524430,-1.5,9.546875,1.445313,-0.851562,0.201172,-1.621094,0.62616,0.434387,0.483154,0.43103,up
524435,-1.652344,9.546875,1.445313,-0.806641,0.226562,-1.638672,0.630859,0.42749,0.485535,0.428467,up
524440,-1.765625,9.507813,1.445313,-0.806641,0.226562,-1.638672,0.633423,0.423584,0.486877,0.427063,up
524445,-1.996094,9.507813,1.484375,-0.720703,0.238281,-1.650391,0.633423,0.423584,0.486877,0.427063,up
524450,-1.996094,9.507813,1.484375,-0.720703,0.238281,-1.650391,0.639465,0.414062,0.490967,0.422607,up
524455,-2.1875,9.507813,1.484375,-0.302734,0.294922,-1.662109,0.641418,0.410706,0.49292,0.420532,up
524460,-2.339844,9.617188,1.445313,-0.302734,0.294922,-1.662109,0.642883,0.408203,0.494751,0.418701,up
524465,-2.457031,9.699219,1.292969,-0.042969,0.341797,-1.662109,0.642883,0.408203,0.494751,0.418701,up
524471,-2.53125,9.816406,1.175781,-0.042969,0.341797,-1.662109,0.645569,0.403137,0.499146,0.414185,up
524476,-2.496094,9.894531,1.175781,0.060547,0.408203,-1.646484,0.646729,0.400696,0.501465,0.411926,up
524481,-2.496094,9.964844,1.140625,0.044922,0.457031,-1.623047,0.647827,0.398254,0.503967,0.409607,up
524486,-2.53125,9.964844,1.101563,0.044922,0.457031,-1.623047,0.648865,0.39563,0.506409,0.40741,up
524492,-2.53125,10.078125,1.140625,0.044922,0.457031,-1.623047,0.64978,0.393188,0.508667,0.405518,up
524497,-2.53125,10.199219,1.175781,-0.179687,0.550781,-1.574219,0.64978,0.393188,0.508667,0.405518,up
524502,-2.53125,10.199219,1.175781,-0.259766,0.558594,-1.5625,0.651917,0.38739,0.513245,0.401917,up
524507,-2.570313,10.316406,1.253906,-0.259766,0.558594,-1.5625,0.651917,0.38739,0.513245,0.401917,up
524512,-2.609375,10.3125,1.292969,-0.433594,0.609375,-1.550781,0.651917,0.38739,0.513245,0.401917,up
524517,-2.609375,10.3125,1.292969,-0.433594,0.609375,-1.550781,0.651917,0.38739,0.513245,0.401917,up
524522,-2.761719,10.121094,1.484375,-0.597656,0.638672,-1.548828,0.655334,0.377686,0.51947,0.397522,up
524528,-2.992188,10.117188,1.789063,-0.597656,0.638672,-1.548828,0.657837,0.3703,0.523315,0.395203,up
524533,-2.992188,10.0,2.019531,-0.753906,0.632812,-1.519531,0.657837,0.3703,0.523315,0.395203,up
524538,-3.03125,10.0,2.019531,-0.832031,0.646484,-1.490234,0.657837,0.3703,0.523315,0.395203,up
524543,-3.183594,9.738281,2.136719,-0.832031,0.646484,-1.490234,0.657837,0.3703,0.523315,0.395203,up
524549,-3.300781,9.511719,2.058594,-0.832031,0.646484,-1.490234,0.663269,0.35437,0.529785,0.392273,up
524555,-3.527344,9.085938,2.171875,-1.074219,0.654297,-1.378906,0.663269,0.35437,0.529785,0.392273,up
524560,-3.566406,8.972656,2.171875,-1.074219,0.654297,-1.378906,0.666077,0.345703,0.532288,0.391724,up
524565,-3.757813,8.773438,2.289063,-1.255859,0.611328,-1.269531,0.669006,0.337036,0.534058,0.391907,up
524570,-3.757813,8.667969,2.25,-1.320313,0.595703,-1.166016,0.669006,0.337036,0.534058,0.391907,up
524575,-4.027344,8.433594,2.171875,-1.341797,0.572266,-1.119141,0.670532,0.332336,0.534851,0.392212,up
524580,-4.179687,8.320313,2.136719,-1.341797,0.572266,-1.119141,0.673279,0.324097,0.536011,0.392883,up
524585,-4.179687,8.203125,2.25,-1.152344,0.419922,-1.070313,0.673279,0.324097,0.536011,0.392883,up
524590,-4.101562,8.125,2.441406,-1.152344,0.419922,-1.070313,0.674805,0.319824,0.536499,0.393066,up
524595,-4.179687,8.167969,2.554688,-1.041016,0.404297,-1.046875,0.674805,0.319824,0.536499,0.393066,up
524600,-4.257812,8.203125,2.554688,-0.662109,0.423828,-1.017578,0.677246,0.312927,0.537537,0.393005,up
524605,-4.292969,8.320313,2.632813,-0.662109,0.423828,-1.017578,0.678345,0.309692,0.538391,0.392578,up
524611,-4.257812,8.359375,2.824219,-0.287109,0.412109,-0.980469,0.679138,0.307068,0.539246,0.392029,up
524617,-4.179687,8.550781,2.976563,-0.287109,0.412109,-0.980469,0.680359,0.302551,0.541565,0.390259,up
524623,-4.179687,8.550781,2.976563,-0.035156,0.431641,-0.935547,0.680725,0.300659,0.542969,0.389038,up
524628,-4.179687,8.550781,2.976563,0.001953,0.46875,-0.900391,0.68103,0.29895,0.544373,0.387878,up
524633,-4.371094,8.550781,2.824219,0.001953,0.46875,-0.900391,0.68103,0.29895,0.544373,0.387878,up
524638,-4.449219,8.511719,2.824219,-0.021484,0.482422,-0.861328,0.68103,0.29895,0.544373,0.387878,up
524644,-4.449219,8.511719,2.824219,-0.154297,0.46875,-0.779297,0.681641,0.293762,0.548523,0.384949,up
524650,-4.714844,8.050781,2.824219,-0.330078,0.425781,-0.677734,0.681641,0.293762,0.548523,0.384949,up
524655,-5.023437,7.554687,2.824219,-0.330078,0.425781,-0.677734,0.682129,0.290039,0.55072,0.383789,up
524660,-5.214844,7.28125,2.785156,-0.408203,0.349609,-0.570312,0.682129,0.290039,0.55072,0.383789,up
524665,-5.445312,6.898437,2.75,-0.404297,0.298828,-0.507812,0.682739,0.286194,0.552246,0.383362,up
524670,-5.558594,6.710937,2.710938,-0.404297,0.298828,-0.507812,0.683105,0.284363,0.552856,0.38324,up
524675,-5.558594,6.710937,2.710938,-0.404297,0.298828,-0.507812,0.683472,0.282654,0.553345,0.383179,up
524680,-5.75,6.554687,2.554688,-0.144531,0.09375,-0.375,0.683472,0.282654,0.553345,0.383179,up
524686,-5.902344,6.59375,2.519531,-0.144531,0.09375,-0.375,0.684448,0.279663,0.55426,0.382324,up
524691,-5.902344,6.632812,2.519531,0.265625,-0.099609,-0.304688,0.684692,0.27948,0.554565,0.38147,up
524696,-5.941406,6.785156,2.480469,0.53125,-0.205078,-0.292969,0.684937,0.279907,0.554871,0.380371,up
524702,-5.867187,6.976562,2.363281,0.53125,-0.205078,-0.292969,0.685059,0.280823,0.555237,0.378906,up
524707,-5.75,7.242187,2.171875,0.53125,-0.205078,-0.292969,0.685181,0.282166,0.555664,0.377075,up
524712,-5.710937,7.285156,2.019531,1.074219,-0.451172,-0.267578,0.685181,0.282166,0.555664,0.377075,up
524717,-5.75,7.363281,1.789063,1.115234,-0.492187,-0.277344,0.685181,0.282166,0.555664,0.377075,up
524722,-5.675781,7.480469,1.636719,1.111328,-0.53125,-0.283203,0.685181,0.282166,0.555664,0.377075,up
524727,-5.597656,7.628906,1.5625,1.111328,-0.53125,-0.283203,0.685181,0.282166,0.555664,0.377075,up
524732,-5.519531,7.785156,1.484375,0.970703,-0.546875,-0.287109,0.685181,0.282166,0.555664,0.377075,up
524738,-5.40625,7.972656,1.40625,0.849609,-0.525391,-0.294922,0.685181,0.282166,0.555664,0.377075,up
524744,-5.367187,7.96875,1.445313,0.849609,-0.525391,-0.294922,0.686707,0.294617,0.557617,0.361511,up
524749,-5.289062,8.050781,1.40625,0.570312,-0.429687,-0.302734,0.686707,0.294617,0.557617,0.361511,up
524754,-5.289062,8.089844,1.445313,0.490234,-0.373047,-0.296875,0.686707,0.294617,0.557617,0.361511,up
524760,-5.40625,8.164063,1.367188,0.435547,-0.271484,-0.279297,0.686707,0.294617,0.557617,0.361511,up
524765,-5.40625,8.125,1.367188,0.435547,-0.271484,-0.279297,0.688232,0.297791,0.557861,0.355652,up
524771,-5.40625,8.089844,1.332031,0.4375,-0.261719,-0.259766,0.688721,0.299011,0.558105,0.353149,up
524776,-5.558594,8.050781,1.40625,0.4375,-0.261719,-0.259766,0.688904,0.299683,0.55835,0.35199,up
524781,-5.597656,8.050781,1.292969,0.591797,-0.203125,-0.201172,0.688904,0.300415,0.558594,0.35083,up
524786,-5.710937,8.046875,1.253906,0.685547,-0.21875,-0.1875,0.688904,0.300415,0.558594,0.35083,up
524791,-5.828125,8.128906,1.292969,0.759766,-0.244141,-0.173828,0.688904,0.301575,0.559021,0.349304,up
524797,-5.980469,8.363281,1.40625,0.759766,-0.244141,-0.173828,0.688721,0.303894,0.559692,0.346497,up
524802,-5.980469,8.363281,1.40625,0.792969,-0.251953,-0.150391,0.688538,0.305237,0.56012,0.34491,up
524808,-6.09375,8.507813,1.484375,0.792969,-0.251953,-0.150391,0.688538,0.305237,0.56012,0.34491,up
524814,-6.210937,8.472656,1.597656,0.792969,-0.251953,-0.150391,0.688354,0.307739,0.56073,0.342041,up
524820,-6.132812,8.429688,1.5625,0.615234,-0.273438,-0.144531,0.688354,0.307739,0.56073,0.342041,up
524825,-6.132812,8.246094,1.597656,0.457031,-0.298828,-0.130859,0.688354,0.307739,0.56073,0.342041,up
524830,-6.132812,7.941406,1.636719,0.457031,-0.298828,-0.130859,0.688538,0.310791,0.561157,0.338318,up
524835,-6.171875,7.972656,1.5625,0.457031,-0.298828,-0.130859,0.688721,0.311584,0.561096,0.33728,up
524840,-6.132812,7.902344,1.523438,0.283203,-0.388672,-0.123047,0.688721,0.311584,0.561096,0.33728,up
524845,-6.132812,7.703125,1.636719,0.283203,-0.388672,-0.123047,0.68927,0.312927,0.56073,0.33551,up
524851,-6.132812,7.589844,1.828125,0.283203,-0.388672,-0.123047,0.690186,0.314392,0.559937,0.333618,up
524856,-6.09375,7.558594,1.867188,0.498047,-0.482422,-0.105469,0.690186,0.314392,0.559937,0.333618,up
524861,-6.058594,7.558594,1.789063,0.498047,-0.482422,-0.105469,0.690857,0.316528,0.559326,0.331238,up
524866,-6.058594,7.625,1.714844,0.498047,-0.482422,-0.105469,0.691101,0.317871,0.559082,0.329834,up
524871,-6.058594,7.628906,1.675781,0.498047,-0.482422,-0.105469,0.691284,0.319702,0.558838,0.328064,up
524876,-6.019531,7.742187,1.636719,1.070313,-0.582031,-0.078125,0.691284,0.319702,0.558838,0.328064,up
524881,-6.019531,7.9375,1.523438,1.070313,-0.582031,-0.078125,0.691284,0.323853,0.558716,0.324097,up
524886,-5.941406,8.203125,1.445313,1.070313,-0.582031,-0.078125,0.691162,0.326477,0.558716,0.321777,up
524891,-5.828125,8.550781,1.40625,1.070313,-0.582031,-0.078125,0.691162,0.326477,0.558716,0.321777,up
524896,-5.75,8.777344,1.367188,1.474609,-0.683594,-0.027344,0.691162,0.326477,0.558716,0.321777,up
524901,-5.636719,8.855469,1.367188,1.474609,-0.683594,-0.027344,0.69043,0.335449,0.558777,0.313904,up
524906,-5.519531,9.050781,1.367188,1.474609,-0.683594,-0.027344,0.690186,0.338257,0.558777,0.311462,up
524911,-5.367187,9.15625,1.332031,1.474609,-0.683594,-0.027344,0.690186,0.338257,0.558777,0.311462,up
524916,-5.328125,9.234375,1.332031,1.226563,-0.679687,-0.044922,0.690186,0.338257,0.558777,0.311462,up
524921,-5.253906,9.316406,1.367188,1.226563,-0.679687,-0.044922,0.689758,0.346252,0.55835,0.304199,up
524926,-5.253906,9.277344,1.332031,1.226563,-0.679687,-0.044922,0.68988,0.348328,0.558105,0.302124,up
524931,-5.136719,9.15625,1.40625,1.226563,-0.679687,-0.044922,0.68988,0.348328,0.558105,0.302124,up
524936,-5.214844,8.890625,1.367188,0.738281,-0.615234,-0.126953,0.68988,0.348328,0.558105,0.302124,up
524941,-5.253906,8.773438,1.367188,0.738281,-0.615234,-0.126953,0.69043,0.351501,0.557312,0.298584,up
524947,-5.253906,8.773438,1.367188,0.474609,-0.585937,-0.167969,0.690857,0.352539,0.556885,0.29718,up
524952,-5.214844,8.667969,1.40625,0.392578,-0.5625,-0.1875,0.690857,0.352539,0.556885,0.29718,up
524957,-5.289062,8.46875,1.40625,0.341797,-0.537109,-0.199219,0.690857,0.352539,0.556885,0.29718,up
524962,-5.289062,8.46875,1.40625,0.322266,-0.517578,-0.220703,0.692566,0.354858,0.55542,0.293152,up
524968,-5.289062,8.46875,1.40625,0.355469,-0.501953,-0.236328,0.693665,0.356079,0.554565,0.290649,up
524973,-5.328125,8.246094,1.292969,0.355469,-0.501953,-0.236328,0.693665,0.356079,0.554565,0.290649,up
524978,-5.367187,8.363281,1.214844,0.460937,-0.503906,-0.234375,0.693665,0.356079,0.554565,0.290649,up
524984,-5.367187,8.394531,1.175781,0.537109,-0.505859,-0.224609,0.693665,0.356079,0.554565,0.290649,up
524989,-5.445312,8.429688,1.175781,0.580078,-0.492187,-0.220703,0.693665,0.356079,0.554565,0.290649,up
524994,-5.480469,8.550781,1.0625,0.580078,-0.492187,-0.220703,0.695618,0.360352,0.553162,0.283325,up
525000,-5.519531,8.589844,1.101563,0.605469,-0.449219,-0.201172,0.695618,0.360352,0.553162,0.283325,up
525005,-5.597656,8.628906,1.023438,0.585937,-0.425781,-0.195312,0.695618,0.360352,0.553162,0.283325,up
525010,-5.710937,8.664063,1.023438,0.558594,-0.408203,-0.195312,0.695618,0.360352,0.553162,0.283325,up
525016,-5.789062,8.667969,1.0625,0.464844,-0.380859,-0.224609,0.695618,0.360352,0.553162,0.283325,up
525021,-5.789062,8.703125,1.023438,0.464844,-0.380859,-0.224609,0.696594,0.365112,0.55249,0.276001,up
525026,-5.828125,8.816406,1.101563,0.40625,-0.367188,-0.236328,0.696594,0.365112,0.55249,0.276001,up
525031,-5.828125,8.816406,1.101563,0.40625,-0.367188,-0.236328,0.69751,0.36676,0.552124,0.272339,up
525036,-5.867187,8.777344,1.175781,0.40625,-0.367188,-0.236328,0.69751,0.36676,0.552124,0.272339,up
525041,-5.867187,8.8125,1.140625,0.291016,-0.355469,-0.306641,0.69751,0.36676,0.552124,0.272339,up
525046,-5.867187,8.773438,1.0625,0.273438,-0.351563,-0.316406,0.69751,0.36676,0.552124,0.272339,up
525051,-5.828125,8.742188,1.140625,0.273438,-0.351563,-0.316406,0.69873,0.367554,0.551758,0.268677,up
525056,-5.828125,8.707031,1.101563,0.158203,-0.363281,-0.341797,0.69873,0.367554,0.551758,0.268677,up
525061,-5.828125,8.707031,1.214844,0.158203,-0.363281,-0.341797,0.699829,0.367676,0.551453,0.266357,up
525067,-5.828125,8.625,1.175781,0.158203,-0.363281,-0.341797,0.700928,0.367615,0.551086,0.264343,up
525072,-5.828125,8.585938,1.140625,0.082031,-0.333984,-0.359375,0.700928,0.367615,0.551086,0.264343,up
525077,-5.902344,8.429688,1.101563,0.082031,-0.333984,-0.359375,0.702209,0.36731,0.550659,0.262268,up
525082,-5.980469,8.394531,1.101563,0.033203,-0.335938,-0.353516,0.70282,0.367065,0.550476,0.261292,up
525088,-6.09375,8.363281,1.214844,0.033203,-0.335938,-0.353516,0.70343,0.366821,0.550232,0.260498,up
525094,-6.09375,8.363281,1.253906,0.037109,-0.324219,-0.339844,0.70343,0.366821,0.550232,0.260498,up
525099,-6.09375,8.363281,1.332031,0.046875,-0.326172,-0.328125,0.704651,0.366333,0.549866,0.258728,up
525104,-6.132812,8.359375,1.367188,0.046875,-0.326172,-0.328125,0.7052,0.366211,0.549622,0.257813,up
525110,-6.132812,8.394531,1.40625,0.046875,-0.326172,-0.328125,0.70575,0.366089,0.549438,0.256897,up
525115,-6.09375,8.359375,1.40625,0.152344,-0.330078,-0.298828,0.70575,0.366089,0.549438,0.256897,up
525121,-6.171875,8.242188,1.445313,0.193359,-0.318359,-0.291016,0.70575,0.366089,0.549438,0.256897,up
525126,-6.210937,8.203125,1.40625,0.285156,-0.324219,-0.279297,0.70575,0.366089,0.549438,0.256897,up
525131,-6.132812,8.207031,1.445313,0.285156,-0.324219,-0.279297,0.707458,0.366577,0.548828,0.252869,up
525136,-5.980469,8.246094,1.484375,0.283203,-0.337891,-0.265625,0.707458,0.366577,0.548828,0.252869,up
525141,-5.902344,8.28125,1.40625,0.283203,-0.337891,-0.265625,0.708191,0.367188,0.548523,0.25061,up
525146,-5.867187,8.207031,1.292969,0.271484,-0.333984,-0.242187,0.708496,0.367432,0.548401,0.249634,up
525151,-5.867187,8.207031,1.253906,0.271484,-0.333984,-0.242187,0.708923,0.367737,0.548157,0.248474,up
525157,-5.789062,8.324219,1.40625,0.271484,-0.333984,-0.242187,0.709473,0.368347,0.547913,0.24646,up
525162,-5.789062,8.394531,1.367188,0.296875,-0.294922,-0.263672,0.709778,0.368713,0.547791,0.2453,up
525167,-5.789062,8.472656,1.292969,0.296875,-0.294922,-0.263672,0.710022,0.368958,0.547791,0.244324,up
525172,-5.789062,8.511719,1.292969,0.296875,-0.294922,-0.263672,0.710327,0.369141,0.547729,0.243225,up
525178,-5.828125,8.707031,1.253906,0.296875,-0.294922,-0.263672,0.710571,0.369141,0.547729,0.242371,up
525183,-5.828125,8.707031,1.253906,0.101563,-0.214844,-0.337891,0.710937,0.36908,0.547791,0.241455,up
525188,-5.867187,8.664063,1.40625,0.101563,-0.214844,-0.337891,0.711365,0.368774,0.547791,0.240601,up
525193,-5.941406,8.628906,1.523438,0.101563,-0.214844,-0.337891,0.711792,0.368347,0.547852,0.239868,up
525199,-6.019531,8.589844,1.5625,0.101563,-0.214844,-0.337891,0.711792,0.368347,0.547852,0.239868,up
525204,-6.019531,8.546875,1.5625,-0.169922,-0.146484,-0.423828,0.712891,0.367004,0.547974,0.238525,up
525210,-6.019531,8.359375,1.675781,-0.236328,-0.150391,-0.417969,0.712891,0.367004,0.547974,0.238525,up
525216,-6.019531,8.28125,1.828125,-0.339844,-0.166016,-0.410156,0.712891,0.367004,0.547974,0.238525,up
525222,-6.019531,8.28125,1.90625,-0.363281,-0.171875,-0.400391,0.714905,0.363953,0.547913,0.237183,up
525227,-6.019531,8.125,1.867188,-0.363281,-0.171875,-0.400391,0.715698,0.362793,0.547791,0.236816,up
525233,-6.058594,8.242188,2.019531,-0.363281,-0.171875,-0.400391,0.717163,0.360657,0.547546,0.236206,up
525238,-6.09375,8.324219,2.058594,-0.277344,-0.171875,-0.386719,0.717896,0.359619,0.547485,0.235779,up
525245,-6.171875,8.433594,1.980469,-0.21875,-0.169922,-0.373047,0.717896,0.359619,0.547485,0.235779,up
525250,-6.210937,8.46875,2.058594,-0.185547,-0.158203,-0.369141,0.717896,0.359619,0.547485,0.235779,up
525255,-6.285156,8.429688,2.171875,-0.152344,-0.177734,-0.363281,0.717896,0.359619,0.547485,0.235779,up
525260,-6.25,8.324219,2.25,-0.130859,-0.189453,-0.349609,0.717896,0.359619,0.547485,0.235779,up
525266,-6.285156,8.125,2.363281,-0.119141,-0.201172,-0.333984,0.721375,0.355286,0.546997,0.232788,up
525271,-6.285156,8.007813,2.363281,-0.119141,-0.201172,-0.333984,0.721375,0.355286,0.546997,0.232788,up
525276,-6.285156,7.820312,2.363281,-0.119141,-0.230469,-0.255859,0.721375,0.355286,0.546997,0.232788,up
525281,-6.363281,7.746094,2.402344,-0.103516,-0.253906,-0.222656,0.722473,0.354248,0.546631,0.231812,up
525286,-6.324219,7.585937,2.328125,-0.103516,-0.253906,-0.222656,0.723022,0.353821,0.546387,0.231384,up
525291,-6.441406,7.515625,2.289063,-0.103516,-0.253906,-0.222656,0.723572,0.353516,0.546082,0.230957,up
525297,-6.402344,7.519531,2.289063,0.035156,-0.333984,-0.138672,0.723572,0.353516,0.546082,0.230957,up
525302,-6.285156,7.554687,2.136719,0.035156,-0.333984,-0.138672,0.725037,0.353333,0.5448,0.229492,up
525307,-6.25,7.585937,2.136719,0.220703,-0.378906,-0.115234,0.725037,0.353333,0.5448,0.229492,up
525312,-6.132812,7.664062,2.136719,0.220703,-0.378906,-0.115234,0.725464,0.353699,0.544373,0.228699,up
525317,-5.980469,7.9375,1.945313,0.322266,-0.382813,-0.101563,0.725464,0.353699,0.544373,0.228699,up
525323,-5.980469,7.9375,1.945313,0.322266,-0.382813,-0.101563,0.726135,0.355591,0.543335,0.226013,up
525328,-5.980469,7.9375,1.945313,0.480469,-0.333984,-0.121094,0.726135,0.355591,0.543335,0.226013,up
525333,-5.980469,7.96875,1.90625,0.480469,-0.333984,-0.121094,0.726196,0.356445,0.543152,0.224915,up
525338,-5.941406,8.007813,1.714844,0.478516,-0.304688,-0.121094,0.726257,0.3573,0.542969,0.223816,up
525343,-5.941406,8.007813,1.714844,0.478516,-0.304688,-0.121094,0.726257,0.3573,0.542969,0.223816,up
525348,-6.019531,8.050781,1.789063,0.349609,-0.255859,-0.126953,0.726379,0.358765,0.542664,0.221802,up
525353,-6.019531,8.050781,1.789063,0.167969,-0.216797,-0.136719,0.726379,0.358765,0.542664,0.221802,up
525358,-6.132812,8.164063,1.828125,0.167969,-0.216797,-0.136719,0.726379,0.358765,0.542664,0.221802,up
525363,-6.132812,8.164063,1.828125,0.023437,-0.207031,-0.126953,0.727234,0.35968,0.541992,0.219238,up
525368,-6.171875,8.167969,1.867188,-0.013672,-0.210937,-0.125,0.727539,0.359558,0.541687,0.218872,up
525374,-6.285156,8.125,2.058594,-0.013672,-0.210937,-0.125,0.727905,0.359436,0.541504,0.218628,up
525379,-6.324219,8.085938,2.097656,-0.03125,-0.224609,-0.115234,0.727905,0.359436,0.541504,0.218628,up
525385,-6.324219,8.007813,2.097656,-0.013672,-0.224609,-0.107422,0.727905,0.359436,0.541504,0.218628,up
525390,-6.285156,7.78125,1.980469,-0.019531,-0.216797,-0.101563,0.727905,0.359436,0.541504,0.218628,up
525396,-6.285156,7.628906,2.019531,-0.017578,-0.228516,-0.09375,0.727905,0.359436,0.541504,0.218628,up
525401,-6.285156,7.554687,1.980469,-0.021484,-0.230469,-0.082031,0.727905,0.359436,0.541504,0.218628,up
525407,-6.285156,7.476562,1.90625,0.017578,-0.242187,-0.042969,0.727905,0.359436,0.541504,0.218628,up
525412,-6.25,7.476562,1.828125,0.017578,-0.242187,-0.042969,0.730713,0.35907,0.538818,0.216309,up
525417,-6.285156,7.480469,1.714844,0.017578,-0.242187,-0.042969,0.730713,0.35907,0.538818,0.216309,up
525422,-6.285156,7.519531,1.675781,0.091797,-0.263672,0.001953,0.730713,0.35907,0.538818,0.216309,up
525427,-6.285156,7.707031,1.675781,0.091797,-0.263672,0.001953,0.731445,0.359802,0.537659,0.215515,up
525432,-6.285156,7.746094,1.675781,0.193359,-0.273438,0.033203,0.731445,0.359802,0.537659,0.215515,up
525437,-6.324219,7.863281,1.636719,0.193359,-0.273438,0.033203,0.731689,0.360291,0.537231,0.215088,up
525442,-6.324219,7.9375,1.597656,0.294922,-0.267578,0.074219,0.731689,0.360291,0.537231,0.215088,up
525447,-6.441406,8.007813,1.5625,0.294922,-0.267578,0.074219,0.731873,0.362244,0.536133,0.213928,up
525452,-6.515625,8.046875,1.523438,0.310547,-0.232422,0.126953,0.731873,0.362244,0.536133,0.213928,up
525457,-6.632812,7.96875,1.445313,0.310547,-0.232422,0.126953,0.731812,0.363159,0.535706,0.213501,up
525462,-6.707031,7.902344,1.484375,0.306641,-0.191406,0.208984,0.731812,0.363159,0.535706,0.213501,up
525467,-6.9375,7.667969,1.367188,0.306641,-0.191406,0.208984,0.731445,0.365723,0.534668,0.212952,up
525472,-7.054687,7.554687,1.367188,0.306641,-0.191406,0.208984,0.731445,0.365723,0.534668,0.212952,up
525477,-7.128906,7.398437,1.332031,0.269531,-0.166016,0.365234,0.731445,0.365723,0.534668,0.212952,up
525482,-7.167969,7.242187,1.332031,0.269531,-0.166016,0.365234,0.730713,0.368835,0.533325,0.21344,up
525487,-7.324219,7.132812,1.253906,0.269531,-0.166016,0.365234,0.730469,0.369995,0.532776,0.213745,up
525492,-7.398437,6.902344,1.101563,0.269531,-0.166016,0.365234,0.730469,0.369995,0.532776,0.213745,up
525497,-7.324219,6.785156,1.101563,0.357422,-0.21875,0.505859,0.729797,0.372803,0.531433,0.214355,up
525502,-7.125,6.480469,0.984375,0.357422,-0.21875,0.505859,0.72937,0.374512,0.530762,0.214478,up
525507,-7.015625,6.441406,0.984375,0.357422,-0.21875,0.505859,0.72937,0.374512,0.530762,0.214478,up
525512,-6.941406,6.402344,0.910156,0.701172,-0.265625,0.583984,0.728088,0.378906,0.52948,0.214355,up
525517,-6.78125,6.75,0.871094,0.701172,-0.265625,0.583984,0.727173,0.38147,0.528992,0.21405,up
525522,-6.671875,6.820312,0.792969,1.09375,-0.224609,0.597656,0.727173,0.38147,0.528992,0.21405,up
525527,-6.515625,6.902344,0.792969,1.09375,-0.224609,0.597656,0.726196,0.384216,0.528564,0.213623,up
525532,-6.402344,6.980469,0.757812,1.197266,-0.160156,0.589844,0.726196,0.384216,0.528564,0.213623,up
525538,-6.285156,7.09375,0.640625,1.197266,-0.160156,0.589844,0.722473,0.393066,0.527832,0.211914,up
525543,-6.285156,7.132812,0.640625,1.201172,-0.072266,0.574219,0.722473,0.393066,0.527832,0.211914,up
525548,-6.25,7.203125,0.601562,1.201172,-0.072266,0.574219,0.719421,0.399353,0.52771,0.210693,up
525554,-6.441406,7.628906,0.757812,1.201172,-0.072266,0.574219,0.71814,0.401794,0.527771,0.210327,up
525560,-6.476562,7.664062,0.757812,1.035156,0.082031,0.570312,0.71814,0.401794,0.527771,0.210327,up
525565,-6.59375,7.859375,0.757812,0.943359,0.136719,0.566406,0.715271,0.406799,0.528076,0.209961,up
525570,-6.671875,7.78125,0.949219,0.847656,0.15625,0.558594,0.715271,0.406799,0.528076,0.209961,up
525575,-6.746094,7.902344,1.023438,0.763672,0.185547,0.558594,0.715271,0.406799,0.528076,0.209961,up
525580,-6.863281,7.972656,0.984375,0.734375,0.208984,0.556641,0.715271,0.406799,0.528076,0.209961,up
525586,-6.898437,7.96875,0.949219,0.675781,0.212891,0.542969,0.715271,0.406799,0.528076,0.209961,up
525592,-6.9375,7.941406,1.0625,0.652344,0.197266,0.535156,0.707275,0.418396,0.529175,0.211365,up
525597,-6.9375,8.046875,1.101563,0.652344,0.197266,0.535156,0.707275,0.418396,0.529175,0.211365,up
525602,-7.054687,7.9375,1.101563,0.669922,0.167969,0.537109,0.707275,0.418396,0.529175,0.211365,up
525607,-7.054687,7.664062,0.984375,0.671875,0.154297,0.5625,0.707275,0.418396,0.529175,0.211365,up
525612,-7.054687,7.480469,0.949219,0.671875,0.154297,0.5625,0.703613,0.423828,0.529358,0.212341,up
525618,-7.015625,7.320312,0.832031,0.777344,0.054687,0.710937,0.703613,0.423828,0.529358,0.212341,up
525623,-7.015625,7.207031,0.832031,0.777344,0.054687,0.710937,0.699585,0.430542,0.52887,0.213318,up
525628,-6.671875,7.246094,0.757812,0.777344,0.054687,0.710937,0.699585,0.430542,0.52887,0.213318,up
525633,-6.671875,7.246094,0.757812,1.025391,-0.054687,0.849609,0.698303,0.433044,0.528503,0.21344,up
525638,-6.25,7.28125,0.792969,1.025391,-0.054687,0.849609,0.696655,0.436157,0.528015,0.213562,up
525643,-6.25,7.28125,0.792969,1.279297,-0.128906,0.935547,0.693237,0.443054,0.526917,0.213196,up
525648,-4.257812,7.628906,2.097656,1.279297,-0.128906,0.935547,0.693237,0.443054,0.526917,0.213196,up
525653,-5.636719,8.894531,1.597656,1.572266,-0.003906,0.882812,0.688721,0.450867,0.526672,0.212036,up
525658,-5.597656,9.695313,0.257813,1.949219,0.101563,0.707031,0.685669,0.455444,0.527161,0.210937,up
525664,-5.980469,9.851563,-0.394531,1.912109,-0.111328,0.638672,0.68335,0.45929,0.527405,0.209717,up
525669,-5.867187,9.734375,0.144531,1.912109,-0.111328,0.638672,0.68103,0.463318,0.527466,0.20813,up
525674,-6.058594,9.578125,-0.164062,1.830078,-0.09375,0.552734,0.68103,0.463318,0.527466,0.20813,up
525680,-6.09375,9.617188,-0.660156,1.646484,0.021484,0.544922,0.68103,0.463318,0.527466,0.20813,up
525685,-5.675781,9.3125,-0.929687,1.646484,0.021484,0.544922,0.674377,0.474182,0.527893,0.204224,up
525692,-5.367187,9.085938,-0.699219,0.972656,-0.019531,0.693359,0.674377,0.474182,0.527893,0.204224,up
525697,-5.175781,8.472656,-0.585937,0.599609,-0.005859,0.798828,0.674377,0.474182,0.527893,0.204224,up
525702,-5.175781,8.089844,-0.585937,0.599609,-0.005859,0.798828,0.670227,0.48114,0.52655,0.204895,up
525708,-5.175781,7.824219,-0.660156,0.09375,0.164062,0.978516,0.670227,0.48114,0.52655,0.204895,up
525713,-5.175781,7.585937,-0.738281,0.09375,0.164062,0.978516,0.667542,0.485596,0.523987,0.209839,up
525718,-5.214844,7.4375,-0.8125,0.09375,0.164062,0.978516,0.666504,0.487122,0.523315,0.211304,up
525723,-5.097656,7.242187,-0.929687,0.625,0.179687,1.013672,0.665039,0.489258,0.522644,0.212646,up
525729,-5.023437,7.242187,-0.851562,0.625,0.179687,1.013672,0.663391,0.491638,0.522156,0.213562,up
525734,-4.984375,7.28125,-0.8125,1.283203,0.177734,1.003906,0.663391,0.491638,0.522156,0.213562,up
525740,-4.984375,7.589844,-0.699219,1.283203,0.177734,1.003906,0.658691,0.498108,0.521667,0.21405,up
525745,-4.984375,7.664062,-0.585937,1.853516,0.208984,0.9375,0.655701,0.502197,0.52179,0.213623,up
525750,-5.023437,7.742187,-0.46875,2.042969,0.230469,0.894531,0.655701,0.502197,0.52179,0.213623,up
525755,-5.0625,7.96875,-0.316406,2.042969,0.230469,0.894531,0.649048,0.510681,0.522461,0.211975,up
525760,-5.136719,8.011719,-0.355469,2.207031,0.306641,0.773437,0.649048,0.510681,0.522461,0.211975,up
525765,-5.136719,8.011719,-0.355469,2.208984,0.347656,0.707031,0.641724,0.519531,0.523804,0.209595,up
529895,-2.609375,9.890625,2.402344,0.060547,0.046875,-0.228516,0.759583,0.52771,0.307251,0.223999,up
529900,-2.609375,9.890625,2.402344,0.027344,0.042969,-0.228516,0.759583,0.52771,0.307251,0.223999,up
529905,-2.609375,10.042969,2.441406,0.027344,0.042969,-0.228516,0.759583,0.52771,0.307251,0.223999,up
529910,-2.609375,10.078125,2.402344,0.027344,0.042969,-0.228516,0.759827,0.526978,0.309998,0.221008,up
529915,-2.648438,10.082031,2.441406,-0.115234,0.064453,-0.244141,0.759827,0.526978,0.309998,0.221008,up
529920,-2.609375,10.082031,2.441406,-0.132812,0.060547,-0.253906,0.759827,0.526978,0.309998,0.221008,up
529925,-2.648438,10.15625,2.59375,-0.132812,0.060547,-0.253906,0.759827,0.526978,0.309998,0.221008,up
529930,-2.609375,10.117188,2.632813,-0.132812,0.060547,-0.253906,0.760925,0.525208,0.31134,0.219666,up
529935,-2.609375,10.15625,2.710938,-0.193359,0.078125,-0.251953,0.760925,0.525208,0.31134,0.219666,up
529940,-2.648438,10.15625,2.75,-0.222656,0.085937,-0.248047,0.760925,0.525208,0.31134,0.219666,up
529946,-2.53125,10.078125,2.785156,-0.222656,0.085937,-0.248047,0.760925,0.525208,0.31134,0.219666,up
529951,-2.570313,10.0,2.824219,-0.222656,0.085937,-0.248047,0.762512,0.522522,0.312683,0.218689,up
529956,-2.53125,9.964844,2.824219,-0.222656,0.085937,-0.248047,0.762878,0.521851,0.312927,0.218506,up
529961,-2.570313,9.890625,3.015625,-0.222656,0.085937,-0.248047,0.762878,0.521851,0.312927,0.218506,up
529966,-2.570313,9.894531,3.09375,-0.222656,0.085937,-0.248047,0.763794,0.520264,0.313538,0.218262,up
529972,-2.570313,9.894531,3.167969,-0.3125,0.128906,-0.222656,0.763794,0.520264,0.313538,0.218262,up
529977,-2.53125,9.8125,3.324219,-0.3125,0.128906,-0.222656,0.765076,0.517883,0.314453,0.218079,up
529982,-2.609375,9.8125,3.359375,-0.333984,0.162109,-0.210937,0.765076,0.517883,0.314453,0.218079,up
529987,-2.609375,9.851563,3.515625,-0.333984,0.162109,-0.210937,0.765564,0.516968,0.314819,0.218079,up
529992,-2.609375,9.894531,3.515625,-0.353516,0.208984,-0.210937,0.765564,0.516968,0.314819,0.218079,up
529998,-2.6875,9.933594,3.707031,-0.353516,0.208984,-0.210937,0.766785,0.514221,0.316101,0.218323,up
530003,-2.6875,10.003906,3.707031,-0.398438,0.271484,-0.220703,0.767273,0.513123,0.316711,0.218506,up
530008,-2.761719,10.042969,3.820313,-0.425781,0.298828,-0.230469,0.7677,0.511963,0.317322,0.218689,up
530014,-2.839844,10.117188,3.898438,-0.458984,0.341797,-0.248047,0.768127,0.510864,0.317871,0.218933,up
530019,-2.914063,10.195313,4.164062,-0.458984,0.341797,-0.248047,0.768616,0.509583,0.318604,0.219238,up
530024,-3.03125,10.277344,4.164062,-0.5625,0.390625,-0.292969,0.768616,0.509583,0.318604,0.219238,up
530029,-3.03125,10.277344,4.203125,-0.5625,0.390625,-0.292969,0.769836,0.50647,0.32019,0.21991,up
530034,-3.105469,10.316406,4.203125,-0.5625,0.390625,-0.292969,0.770447,0.504822,0.320984,0.220276,up
530040,-3.144531,10.347656,4.28125,-0.5625,0.390625,-0.292969,0.770447,0.504822,0.320984,0.220276,up
530045,-3.183594,10.316406,4.320312,-0.837891,0.455078,-0.355469,0.770447,0.504822,0.320984,0.220276,up
530051,-3.183594,10.316406,4.355469,-0.837891,0.455078,-0.355469,0.77301,0.498596,0.323486,0.221741,up
530056,-3.222656,10.273438,4.394531,-0.980469,0.46875,-0.363281,0.774048,0.496277,0.32428,0.222351,up
530062,-3.300781,10.238281,4.433594,-1.134766,0.449219,-0.363281,0.774048,0.496277,0.32428,0.222351,up
530068,-3.300781,10.199219,4.472656,-1.134766,0.449219,-0.363281,0.777649,0.488159,0.326416,0.224487,up
530073,-3.335938,10.199219,4.472656,-1.134766,0.449219,-0.363281,0.778992,0.485291,0.326965,0.22522,up
530079,-3.414063,10.195313,4.433594,-1.322266,0.439453,-0.375,0.780396,0.482239,0.327515,0.226074,up
530085,-3.414063,10.234375,4.546875,-1.322266,0.439453,-0.375,0.781982,0.479004,0.328064,0.226929,up
530091,-3.414063,10.234375,4.472656,-1.429688,0.423828,-0.402344,0.781982,0.479004,0.328064,0.226929,up
530096,-3.453125,10.238281,4.394531,-1.488281,0.431641,-0.410156,0.781982,0.479004,0.328064,0.226929,up
530102,-3.492188,10.195313,4.394531,-1.546875,0.435547,-0.429687,0.781982,0.479004,0.328064,0.226929,up
530107,-3.492188,10.121094,4.394531,-1.677734,0.462891,-0.480469,0.788574,0.465027,0.329895,0.230469,up
530112,-3.527344,10.003906,4.394531,-1.677734,0.462891,-0.480469,0.790527,0.460754,0.330444,0.231445,up
530117,-3.527344,10.003906,4.394531,-1.748047,0.486328,-0.501953,0.792236,0.457031,0.330872,0.232361,up
530122,-3.492188,9.546875,4.472656,-1.816406,0.53125,-0.53125,0.794128,0.45282,0.331421,0.233337,up
530127,-3.492188,9.546875,4.472656,-1.875,0.558594,-0.5625,0.796082,0.448425,0.332031,0.234314,up
530133,-3.414063,9.429688,4.546875,-1.917969,0.595703,-0.597656,0.796082,0.448425,0.332031,0.234314,up
530138,-3.414063,9.429688,4.546875,-1.980469,0.632812,-0.613281,0.80011,0.439026,0.333435,0.23645,up
530143,-3.453125,9.125,4.738281,-1.980469,0.632812,-0.613281,0.802185,0.434021,0.334229,0.23761,up
530148,-3.375,8.972656,4.855469,-1.980469,0.632812,-0.613281,0.806519,0.423157,0.33606,0.239929,up
530153,-3.453125,8.8125,4.894531,-1.980469,0.632812,-0.613281,0.808289,0.418518,0.336853,0.240906,up
530159,-3.644531,9.050781,4.777344,-1.980469,0.632812,-0.613281,0.810242,0.41333,0.337891,0.241882,up
530164,-3.71875,9.046875,4.816406,-2.080078,0.771484,-0.773437,0.812195,0.408081,0.338928,0.242859,up
530169,-3.71875,9.011719,4.855469,-2.085938,0.753906,-0.810547,0.814209,0.402588,0.340027,0.243774,up
530175,-3.835938,9.007813,4.96875,-2.097656,0.730469,-0.857422,0.814209,0.402588,0.340027,0.243774,up
530181,-3.910156,8.933594,4.96875,-2.146484,0.710937,-0.892578,0.814209,0.402588,0.340027,0.243774,up
530187,-3.988281,8.851563,4.933594,-2.207031,0.693359,-0.929687,0.814209,0.402588,0.340027,0.243774,up
530192,-4.066406,8.746094,5.160156,-2.304688,0.644531,-0.955078,0.814209,0.402588,0.340027,0.243774,up
530197,-4.101562,8.550781,5.238281,-2.394531,0.589844,-0.982422,0.814209,0.402588,0.340027,0.243774,up
530203,-4.101562,8.359375,5.277344,-2.582031,0.501953,-1.037109,0.814209,0.402588,0.340027,0.243774,up
530208,-4.066406,8.207031,5.238281,-2.582031,0.501953,-1.037109,0.832458,0.354187,0.346008,0.248779,up
530213,-4.101562,8.050781,5.277344,-2.582031,0.501953,-1.037109,0.8349,0.347961,0.346191,0.249084,up
530218,-4.101562,8.050781,5.277344,-2.582031,0.501953,-1.037109,0.8349,0.347961,0.346191,0.249084,up
530223,-4.101562,7.972656,5.277344,-2.794922,0.337891,-1.160156,0.8349,0.347961,0.346191,0.249084,up
530228,-4.027344,7.589844,5.507812,-2.839844,0.283203,-1.205078,0.840576,0.33374,0.346069,0.249573,up
530233,-4.027344,7.589844,5.507812,-2.839844,0.283203,-1.205078,0.840576,0.33374,0.346069,0.249573,up
530238,-4.066406,7.28125,5.542969,-2.863281,0.234375,-1.255859,0.846436,0.319153,0.34552,0.249634,up
530243,-4.066406,7.054687,5.582031,-2.863281,0.234375,-1.255859,0.852478,0.303955,0.344727,0.249084,up
530248,-4.140625,6.671875,5.582031,-2.863281,0.234375,-1.255859,0.855286,0.296936,0.344299,0.248657,up
530253,-4.179687,6.597656,5.582031,-2.863281,0.234375,-1.255859,0.855286,0.296936,0.344299,0.248657,up
530258,-4.21875,6.558594,5.621094,-2.804688,0.134766,-1.498047,0.855286,0.296936,0.344299,0.248657,up
530264,-4.292969,6.632812,5.851562,-2.804688,0.134766,-1.498047,0.863892,0.274292,0.343018,0.246521,up
530269,-4.410156,6.289062,5.8125,-2.804688,0.134766,-1.498047,0.866455,0.267578,0.342529,0.245667,up
530274,-4.410156,6.289062,5.8125,-2.767578,0.054687,-1.560547,0.869141,0.260315,0.342041,0.244629,up
530279,-4.449219,6.054687,5.851562,-2.814453,0.027344,-1.576172,0.872131,0.252136,0.341309,0.24353,up
530285,-4.640625,5.675781,5.890625,-2.814453,0.027344,-1.576172,0.874634,0.245239,0.340637,0.242554,up
530291,-4.679687,5.484375,6.0,-2.867188,-0.050781,-1.574219,0.874634,0.245239,0.340637,0.242554,up
530296,-4.679687,5.484375,6.0,-2.837891,-0.103516,-1.576172,0.880066,0.230042,0.338806,0.240356,up
530301,-4.5625,5.332031,6.234375,-2.814453,-0.166016,-1.582031,0.88269,0.222656,0.337708,0.239136,up
530307,-4.5625,5.332031,6.234375,-2.761719,-0.238281,-1.574219,0.885437,0.215088,0.336426,0.237854,up
530312,-4.5625,5.101562,6.34375,-2.761719,-0.238281,-1.574219,0.888,0.207947,0.335022,0.236511,up
530317,-4.5625,5.101562,6.34375,-2.654297,-0.417969,-1.5625,0.890625,0.200928,0.333435,0.235046,up
530323,-4.523437,4.679687,6.460937,-2.451172,-0.597656,-1.533203,0.890625,0.200928,0.333435,0.235046,up
530328,-4.449219,4.449219,6.539062,-2.451172,-0.597656,-1.533203,0.89856,0.180603,0.327332,0.229797,up
530333,-4.449219,4.296875,6.539062,-2.451172,-0.597656,-1.533203,0.900818,0.175232,0.325256,0.228088,up
530338,-4.449219,4.027344,6.542969,-2.451172,-0.597656,-1.533203,0.90332,0.169495,0.322754,0.226074,up
530343,-4.488281,4.066406,6.464844,-2.451172,-0.597656,-1.533203,0.90332,0.169495,0.322754,0.226074,up
530348,-4.371094,4.144531,6.425781,-1.865234,-1.001953,-1.501953,0.90332,0.169495,0.322754,0.226074,up
530353,-4.332031,4.105469,6.503906,-1.865234,-1.001953,-1.501953,0.910522,0.154297,0.314758,0.219177,up
530358,-4.371094,4.257812,6.425781,-1.865234,-1.001953,-1.501953,0.912842,0.14978,0.311951,0.216797,up
530363,-4.257812,4.257812,6.425781,-1.865234,-1.001953,-1.501953,0.912842,0.14978,0.311951,0.216797,up
530368,-4.21875,4.183594,6.5,-1.917969,-1.273438,-1.572266,0.912842,0.14978,0.311951,0.216797,up
530373,-4.21875,4.105469,6.421875,-1.917969,-1.273438,-1.572266,0.920288,0.135071,0.302002,0.208862,up
530378,-4.179687,3.761719,6.316406,-1.917969,-1.273438,-1.572266,0.920288,0.135071,0.302002,0.208862,up
530383,-4.179687,3.761719,6.316406,-2.052734,-1.285156,-1.519531,0.922668,0.130005,0.298523,0.206421,up
530388,-4.179687,3.605469,6.273437,-2.052734,-1.285156,-1.519531,0.925049,0.124756,0.295044,0.204102,up
530393,-4.179687,2.957031,6.316406,-2.132813,-1.248047,-1.416016,0.927429,0.119324,0.291382,0.201843,up
530398,-4.179687,2.957031,6.316406,-2.103516,-1.216797,-1.371094,0.929626,0.114075,0.287903,0.199768,up
530403,-4.179687,2.957031,6.316406,-2.103516,-1.216797,-1.371094,0.933777,0.104004,0.281067,0.195679,up
530408,-3.988281,2.417969,6.542969,-2.103516,-1.216797,-1.371094,0.933777,0.104004,0.281067,0.195679,up
530413,-3.910156,2.496094,6.660156,-2.103516,-1.216797,-1.371094,0.935852,0.09906,0.277466,0.193359,up
530418,-3.875,2.417969,6.695312,-1.378906,-1.171875,-1.318359,0.935852,0.09906,0.277466,0.193359,up
530423,-3.757813,2.304688,6.726562,-1.378906,-1.171875,-1.318359,0.939392,0.091309,0.271179,0.188782,up
530428,-3.683594,2.304688,6.808594,-1.123047,-1.189453,-1.337891,0.941101,0.087891,0.268127,0.186279,up
530433,-3.683594,2.34375,6.765625,-1.123047,-1.189453,-1.337891,0.942749,0.084778,0.265137,0.183655,up
530438,-3.683594,2.535156,6.695312,-1.123047,-1.189453,-1.337891,0.944275,0.082092,0.262268,0.18103,up
530443,-3.644531,2.574219,6.726562,-0.900391,-1.208984,-1.320313,0.944275,0.082092,0.262268,0.18103,up
530449,-3.644531,2.574219,6.726562,-0.912109,-1.205078,-1.298828,0.948975,0.074463,0.253296,0.172607,up
530455,-3.605469,2.726563,6.726562,-0.912109,-1.205078,-1.298828,0.950439,0.071899,0.250183,0.169861,up
530460,-3.644531,2.765625,6.769531,-0.998047,-1.203125,-1.193359,0.951904,0.069336,0.247131,0.167358,up
530465,-3.644531,2.6875,6.921875,-0.998047,-1.203125,-1.193359,0.95343,0.066528,0.243713,0.164734,up
530471,-3.71875,2.265625,7.0,-0.998047,-1.203125,-1.193359,0.95343,0.066528,0.243713,0.164734,up
530476,-3.71875,2.265625,7.0,-1.009766,-1.197266,-1.005859,0.955933,0.061584,0.237793,0.160706,up
530482,-3.71875,2.265625,7.0,-0.949219,-1.208984,-0.958984,0.957214,0.059082,0.234558,0.158691,up
530487,-3.566406,2.152344,7.308594,-0.949219,-1.208984,-0.958984,0.957214,0.059082,0.234558,0.158691,up
530492,-3.566406,2.152344,7.308594,-0.910156,-1.222656,-0.923828,0.959595,0.054687,0.228333,0.154907,up
530498,-3.566406,2.152344,7.308594,-0.671875,-1.310547,-0.900391,0.960815,0.052734,0.225037,0.152954,up
530504,-3.527344,1.617188,7.386719,-0.671875,-1.310547,-0.900391,0.963257,0.049316,0.218079,0.148743,up
530509,-3.492188,1.808594,7.347656,-0.476562,-1.361328,-0.927734,0.963257,0.049316,0.218079,0.148743,up
530514,-3.527344,2.0,7.304687,-0.476562,-1.361328,-0.927734,0.965515,0.046997,0.211487,0.14447,up
530520,-3.492188,1.921875,7.226562,-0.476562,-1.361328,-0.927734,0.966492,0.046082,0.208496,0.142456,up
530525,-3.527344,2.0,7.148437,-0.457031,-1.386719,-0.994141,0.967712,0.044861,0.204773,0.139893,up
530531,-3.453125,2.113281,7.230469,-0.490234,-1.367188,-1.017578,0.967712,0.044861,0.204773,0.139893,up
530536,-3.453125,2.113281,7.230469,-0.533203,-1.353516,-1.011719,0.969849,0.042419,0.198242,0.135254,up
530541,-3.375,2.035156,7.386719,-0.533203,-1.353516,-1.011719,0.970886,0.041138,0.194946,0.132935,up
530547,-3.300781,2.074219,7.425781,-0.53125,-1.310547,-0.974609,0.970886,0.041138,0.194946,0.132935,up
530553,-3.335938,2.035156,7.503906,-0.544922,-1.248047,-0.888672,0.970886,0.041138,0.194946,0.132935,up
530559,-3.261719,1.882813,7.726562,-0.544922,-1.248047,-0.888672,0.974792,0.035706,0.181885,0.124146,up
530564,-3.261719,1.84375,7.84375,-0.507812,-1.201172,-0.779297,0.975647,0.034363,0.178711,0.122192,up
530570,-3.261719,1.769531,7.957031,-0.445312,-1.195313,-0.742187,0.976501,0.033203,0.175659,0.120422,up
530575,-3.261719,1.539063,8.191406,-0.445312,-1.195313,-0.742187,0.977173,0.03241,0.173157,0.118958,up
530580,-3.183594,1.539063,8.378906,-0.345703,-1.21875,-0.732422,0.977173,0.03241,0.173157,0.118958,up
530586,-3.144531,1.652344,8.457031,-0.300781,-1.244141,-0.748047,0.977173,0.03241,0.173157,0.118958,up
530592,-3.144531,1.769531,8.457031,-0.300781,-1.244141,-0.748047,0.979553,0.03009,0.163574,0.11322,up
530597,-3.105469,1.882813,8.53125,-0.300781,-1.244141,-0.748047,0.979553,0.03009,0.163574,0.11322,up
530602,-3.105469,1.882813,8.53125,-0.234375,-1.304688,-0.84375,0.981018,0.028992,0.157532,0.109375,up
530608,-3.105469,1.882813,8.53125,-0.285156,-1.347656,-0.896484,0.981812,0.028381,0.154175,0.107117,up
530613,-3.03125,2.074219,8.53125,-0.285156,-1.347656,-0.896484,0.981812,0.028381,0.154175,0.107117,up
530618,-2.878906,1.921875,8.496094,-0.326172,-1.345703,-0.912109,0.983337,0.026794,0.147583,0.102722,up
530623,-2.6875,1.769531,8.574219,-0.326172,-1.345703,-0.912109,0.98407,0.025757,0.144287,0.100525,up
530628,-2.609375,1.730469,8.609375,-0.458984,-1.226563,-0.875,0.984863,0.024536,0.140686,0.098083,up
530633,-2.53125,1.539063,8.722656,-0.458984,-1.226563,-0.875,0.985474,0.023437,0.137939,0.096252,up
530638,-2.496094,1.347656,8.6875,-0.605469,-1.060547,-0.724609,0.985474,0.023437,0.137939,0.096252,up
530643,-2.457031,1.195313,8.839844,-0.605469,-1.060547,-0.724609,0.986633,0.020752,0.132446,0.092712,up
530648,-2.339844,1.078125,8.953125,-0.605469,-1.060547,-0.724609,0.987183,0.019104,0.129578,0.091003,up
530653,-2.265625,1.039063,9.035156,-0.605469,-1.060547,-0.724609,0.987671,0.017822,0.127258,0.0896,up
530658,-2.265625,1.039063,9.035156,-0.458984,-0.904297,-0.615234,0.988159,0.016479,0.124756,0.088074,up
530664,-2.226563,1.039063,9.101563,-0.335938,-0.835937,-0.583984,0.988159,0.016479,0.124756,0.088074,up
530669,-2.148438,1.003906,9.183594,-0.335938,-0.835937,-0.583984,0.98938,0.013855,0.118164,0.083801,up
530674,-1.996094,1.039063,9.21875,-0.335938,-0.835937,-0.583984,0.989685,0.013428,0.116211,0.082581,up
530679,-1.957031,0.925781,9.183594,-0.058594,-0.800781,-0.568359,0.989685,0.013428,0.116211,0.082581,up
530684,-1.996094,1.039063,9.101563,-0.058594,-0.800781,-0.568359,0.990417,0.013123,0.112244,0.079712,up
530689,-1.957031,1.078125,9.101563,-0.058594,-0.800781,-0.568359,0.990417,0.013123,0.112244,0.079712,up
530694,-1.996094,1.15625,9.144531,0.033203,-0.734375,-0.574219,0.990417,0.013123,0.112244,0.079712,up
530699,-1.996094,1.347656,8.917969,0.033203,-0.734375,-0.574219,0.991028,0.013306,0.108582,0.076721,up
530705,-1.726563,1.691406,9.035156,0.033203,-0.734375,-0.574219,0.991638,0.013,0.105103,0.073792,up
530710,-1.691406,1.769531,9.222656,-0.271484,-0.675781,-0.603516,0.991638,0.013,0.105103,0.073792,up
530715,-1.613281,1.652344,9.335938,-0.369141,-0.681641,-0.597656,0.991638,0.013,0.105103,0.073792,up
530721,-1.726563,1.195313,9.484375,-0.369141,-0.681641,-0.597656,0.991638,0.013,0.105103,0.073792,up
530726,-1.726563,1.078125,9.5625,-0.652344,-0.628906,-0.482422,0.991638,0.013,0.105103,0.073792,up
530731,-1.691406,0.964844,9.683594,-0.746094,-0.597656,-0.394531,0.991638,0.013,0.105103,0.073792,up
530737,-1.652344,0.695312,9.761719,-0.789062,-0.572266,-0.310547,0.991638,0.013,0.105103,0.073792,up
530742,-1.535156,0.351563,9.949219,-0.789062,-0.572266,-0.310547,0.991638,0.013,0.105103,0.073792,up
530748,-1.535156,0.199219,9.988281,-0.789062,-0.572266,-0.310547,0.993591,0.001709,0.092163,0.065674,up
530753,-1.535156,0.082031,10.105469,-0.585937,-0.462891,-0.132812,0.993591,0.001709,0.092163,0.065674,up
530758,-1.535156,0.082031,10.105469,-0.585937,-0.462891,-0.132812,0.993591,0.001709,0.092163,0.065674,up
530763,-1.535156,0.082031,10.105469,-0.466797,-0.439453,-0.099609,0.993958,-0.001953,0.088501,0.065063,up
530768,-1.535156,0.082031,10.105469,-0.148437,-0.416016,-0.091797,0.99408,-0.002502,0.087402,0.06488,up
530773,-1.535156,0.3125,10.023438,0.033203,-0.416016,-0.121094,0.99408,-0.002502,0.087402,0.06488,up
530778,-1.460938,0.886719,9.949219,0.033203,-0.416016,-0.121094,0.994263,-0.002319,0.085327,0.06427,up
530783,-1.460938,1.039063,9.988281,0.201172,-0.445312,-0.189453,0.994263,-0.002319,0.085327,0.06427,up
530788,-1.421875,1.078125,9.839844,0.201172,-0.445312,-0.189453,0.994568,-0.001282,0.083008,0.06311,up
530793,-1.382813,1.078125,9.875,0.132812,-0.476562,-0.257813,0.994568,-0.001282,0.083008,0.06311,up
530798,-1.382813,1.117188,9.835938,0.132812,-0.476562,-0.257813,0.994812,-0.00061,0.080688,0.061707,up
530804,-1.421875,1.15625,9.878906,-0.257813,-0.498047,-0.296875,0.994812,-0.00061,0.080688,0.061707,up
530809,-1.421875,1.117188,10.140625,-0.257813,-0.498047,-0.296875,0.995239,-0.002014,0.077026,0.05957,up
530814,-1.34375,1.039063,10.144531,-0.257813,-0.498047,-0.296875,0.995361,-0.003052,0.075684,0.05896,up
530819,-1.382813,1.003906,10.222656,-0.257813,-0.498047,-0.296875,0.995361,-0.003052,0.075684,0.05896,up
530824,-1.421875,0.847656,10.332031,-0.632812,-0.527344,-0.171875,0.995361,-0.003052,0.075684,0.05896,up
530829,-1.421875,0.542969,10.644531,-0.632812,-0.527344,-0.171875,0.995728,-0.007446,0.071533,0.057739,up
530834,-1.460938,0.273438,10.753906,-0.632812,-0.527344,-0.171875,0.99585,-0.008789,0.07019,0.057495,up
530839,-1.421875,0.121094,10.871094,-0.632812,-0.527344,-0.171875,0.99585,-0.008789,0.07019,0.057495,up
530844,-1.421875,0.234375,10.949219,-0.451172,-0.494141,-0.101563,0.99585,-0.008789,0.07019,0.057495,up
530850,-1.382813,0.390625,11.027344,-0.132812,-0.455078,-0.125,0.996033,-0.010925,0.067505,0.057068,up
530855,-1.382813,0.542969,11.132813,-0.132812,-0.455078,-0.125,0.996216,-0.011536,0.065247,0.056458,up
530861,-1.230469,0.886719,11.0625,-0.132812,-0.455078,-0.125,0.996338,-0.011353,0.064026,0.055969,up
530866,-1.152344,1.078125,11.027344,-0.132812,-0.455078,-0.125,0.996399,-0.010986,0.063171,0.055481,up
530871,-1.039063,1.195313,11.023438,0.21875,-0.349609,-0.191406,0.996399,-0.010986,0.063171,0.055481,up
530877,-1.0,1.269531,11.0625,0.228516,-0.302734,-0.177734,0.996399,-0.010986,0.063171,0.055481,up
530882,-0.960937,1.347656,10.828125,0.203125,-0.236328,-0.167969,0.996399,-0.010986,0.063171,0.055481,up
530888,-0.960937,1.269531,10.832031,0.183594,-0.146484,-0.144531,0.996399,-0.010986,0.063171,0.055481,up
530893,-0.925781,1.230469,10.90625,0.146484,-0.072266,-0.117188,0.996399,-0.010986,0.063171,0.055481,up
530899,-0.925781,1.195313,10.949219,0.095703,-0.019531,-0.09375,0.996399,-0.010986,0.063171,0.055481,up
530904,-1.0,1.15625,10.988281,0.095703,-0.019531,-0.09375,0.996765,-0.007751,0.060242,0.052307,up
530909,-1.078125,1.078125,11.097656,0.095703,-0.019531,-0.09375,0.996765,-0.007751,0.060242,0.052307,up
530914,-1.039063,1.078125,11.136719,0.046875,0.089844,0.025391,0.996765,-0.007751,0.060242,0.052307,up
530920,-1.039063,1.039063,11.171875,0.046875,0.089844,0.025391,0.996765,-0.007324,0.060913,0.052185,up
530925,-1.117188,1.003906,11.25,0.111328,0.111328,0.095703,0.996704,-0.00708,0.061218,0.052307,up
530930,-1.117188,1.003906,11.289063,0.175781,0.105469,0.126953,0.996704,-0.006714,0.061523,0.05249,up
530936,-1.152344,1.003906,11.40625,0.175781,0.105469,0.126953,0.996704,-0.006165,0.061829,0.052734,up
530941,-1.039063,1.039063,11.410156,0.175781,0.105469,0.126953,0.996643,-0.005432,0.062134,0.053101,up
530946,-1.078125,1.003906,11.40625,0.314453,0.154297,0.193359,0.996643,-0.005432,0.062134,0.053101,up
530952,-1.078125,1.078125,11.332031,0.345703,0.1875,0.201172,0.996643,-0.005432,0.062134,0.053101,up
530957,-1.117188,1.195313,11.25,0.373047,0.21875,0.189453,0.996643,-0.005432,0.062134,0.053101,up
530962,-1.152344,1.308594,11.214844,0.380859,0.255859,0.166016,0.996643,-0.005432,0.062134,0.053101,up
530968,-1.191406,1.386719,11.136719,0.384766,0.291016,0.142578,0.996643,-0.005432,0.062134,0.053101,up
530973,-1.230469,1.5,11.132813,0.384766,0.291016,0.142578,0.996277,0.000244,0.065857,0.05542,up
530979,-1.382813,1.539063,11.136719,0.384766,0.291016,0.142578,0.996155,0.001709,0.067627,0.055725,up
530984,-1.421875,1.5,11.023438,0.384766,0.291016,0.142578,0.996155,0.001709,0.067627,0.055725,up
530989,-1.535156,1.5,11.097656,0.177734,0.400391,0.125,0.996155,0.001709,0.067627,0.055725,up
530994,-1.574219,1.460938,11.09375,0.115234,0.421875,0.175781,0.995972,0.002625,0.069641,0.056213,up
530999,-1.613281,1.386719,11.09375,0.115234,0.421875,0.175781,0.995911,0.002991,0.070801,0.05658,up
531004,-1.652344,1.308594,11.136719,0.167969,0.398438,0.273438,0.995789,0.003235,0.071777,0.056946,up
531010,-1.652344,1.117188,11.171875,0.167969,0.398438,0.273438,0.995544,0.004089,0.073792,0.058105,up
531015,-1.652344,1.078125,11.171875,0.326172,0.351563,0.357422,0.995422,0.004883,0.074829,0.058899,up
531021,-1.652344,1.078125,11.171875,0.326172,0.351563,0.357422,0.995361,0.005798,0.075623,0.059631,up
531027,-1.613281,1.117188,11.332031,0.580078,0.228516,0.404297,0.995361,0.005798,0.075623,0.059631,up
531033,-1.613281,1.078125,11.0625,0.740234,0.132812,0.396484,0.995361,0.005798,0.075623,0.059631,up
531038,-1.574219,1.195313,10.871094,0.904297,0.089844,0.369141,0.995361,0.005798,0.075623,0.059631,up
531043,-1.535156,1.308594,10.832031,1.091797,0.056641,0.320313,0.995361,0.005798,0.075623,0.059631,up
531048,-1.613281,1.691406,10.789063,1.091797,0.056641,0.320313,0.995361,0.005798,0.075623,0.059631,up
531054,-1.613281,2.113281,10.5625,1.449219,0.044922,0.238281,0.995361,0.005798,0.075623,0.059631,up
531060,-1.613281,2.417969,10.488281,1.591797,0.095703,0.166016,0.995361,0.005798,0.075623,0.059631,up
531065,-1.726563,2.765625,10.328125,1.591797,0.095703,0.166016,0.994263,0.031677,0.079529,0.063782,up
531070,-1.84375,2.804688,10.222656,1.443359,0.207031,0.164062,0.99408,0.035828,0.080322,0.063843,up
531076,-1.996094,2.996094,10.292969,1.443359,0.207031,0.164062,0.993896,0.03894,0.080994,0.063965,up
531081,-2.035156,2.957031,10.488281,1.185547,0.3125,0.228516,0.993652,0.042053,0.081909,0.064209,up
531086,-2.1875,2.917969,10.792969,1.185547,0.3125,0.228516,0.993469,0.044922,0.082947,0.064575,up
531091,-2.265625,2.6875,10.828125,0.859375,0.423828,0.347656,0.993469,0.044922,0.082947,0.064575,up
531096,-2.265625,2.6875,10.828125,0.726562,0.439453,0.417969,0.992981,0.049255,0.085144,0.065918,up
531101,-2.339844,2.304688,11.210938,0.726562,0.439453,0.417969,0.992737,0.051025,0.086304,0.066895,up
531106,-2.378906,2.265625,11.25,0.621094,0.398438,0.517578,0.992737,0.051025,0.086304,0.066895,up
531111,-2.378906,2.226563,11.292969,0.628906,0.365234,0.5625,0.992737,0.051025,0.086304,0.066895,up
531116,-2.378906,2.226563,11.292969,0.667969,0.337891,0.587891,0.992737,0.051025,0.086304,0.066895,up
531122,-2.226563,1.84375,11.480469,0.667969,0.337891,0.587891,0.991638,0.0578,0.090088,0.071716,up
531128,-2.113281,1.84375,11.480469,0.861328,0.289063,0.599609,0.991638,0.0578,0.090088,0.071716,up
531133,-2.074219,1.921875,11.332031,0.958984,0.285156,0.599609,0.991638,0.0578,0.090088,0.071716,up
531138,-2.035156,2.074219,11.210938,0.958984,0.285156,0.599609,0.991638,0.0578,0.090088,0.071716,up
531144,-2.074219,2.304688,11.136719,1.105469,0.302734,0.597656,0.991638,0.0578,0.090088,0.071716,up
531149,-2.074219,2.417969,11.132813,1.089844,0.316406,0.574219,0.991638,0.0578,0.090088,0.071716,up
531154,-2.148438,2.574219,11.0625,1.089844,0.316406,0.574219,0.989563,0.073486,0.095154,0.079163,up
531160,-2.265625,2.6875,10.984375,1.089844,0.316406,0.574219,0.98877,0.078979,0.096863,0.081665,up
531165,-2.265625,2.613281,10.984375,0.853516,0.261719,0.570312,0.98877,0.078979,0.096863,0.081665,up
531170,-2.304688,2.34375,11.25,0.853516,0.261719,0.570312,0.988464,0.081299,0.097595,0.082825,up
531175,-2.1875,2.304688,12.132813,0.853516,0.261719,0.570312,0.987793,0.085205,0.098694,0.085205,up
531180,-2.1875,2.304688,12.132813,0.853516,0.261719,0.570312,0.987793,0.085205,0.098694,0.085205,up
531185,-1.996094,2.34375,10.101563,0.666016,0.160156,0.605469,0.987793,0.085205,0.098694,0.085205,up
531190,-1.882813,2.265625,10.449219,0.681641,0.101563,0.667969,0.987183,0.088806,0.099426,0.087891,up
531195,-1.882813,2.265625,10.449219,0.681641,0.101563,0.667969,0.987183,0.088806,0.099426,0.087891,up
531200,-1.726563,2.113281,11.097656,0.732422,0.193359,0.767578,0.98645,0.092529,0.100159,0.091064,up
531205,-1.917969,2.113281,11.027344,0.732422,0.193359,0.767578,0.985535,0.097107,0.101501,0.094971,up
531210,-1.996094,2.074219,11.023438,0.732422,0.193359,0.767578,0.985046,0.099426,0.102295,0.096741,up
531215,-2.074219,2.035156,10.984375,0.732422,0.193359,0.767578,0.985046,0.099426,0.102295,0.096741,up
531220,-2.113281,2.035156,10.945313,1.164063,0.449219,0.910156,0.985046,0.099426,0.102295,0.096741,up
531226,-2.148438,2.152344,10.867188,1.164063,0.449219,0.910156,0.983093,0.108398,0.105652,0.102844,up
531231,-2.226563,2.535156,10.832031,1.164063,0.449219,0.910156,0.982422,0.111511,0.106873,0.104675,up
531236,-2.226563,2.535156,10.832031,1.345703,0.5,0.878906,0.981689,0.114868,0.108154,0.106506,up
531241,-2.265625,2.839844,10.679688,1.345703,0.5,0.878906,0.980835,0.118774,0.109619,0.108643,up
531248,-2.417969,3.222656,10.644531,1.345703,0.5,0.878906,0.980164,0.121765,0.110779,0.110291,up
531253,-2.496094,3.378906,10.527344,1.234375,0.460937,0.892578,0.980164,0.121765,0.110779,0.110291,up
531259,-2.570313,3.722656,10.527344,1.132813,0.414062,0.90625,0.980164,0.121765,0.110779,0.110291,up
531264,-2.6875,3.835938,10.484375,1.009766,0.359375,0.912109,0.980164,0.121765,0.110779,0.110291,up
531269,-2.722656,3.835938,10.566406,1.009766,0.359375,0.912109,0.977234,0.133606,0.114868,0.118347,up
531275,-2.648438,3.644531,10.714844,0.509766,0.115234,0.943359,0.977234,0.133606,0.114868,0.118347,up
531280,-2.648438,3.378906,10.566406,0.509766,0.115234,0.943359,0.975647,0.138611,0.115601,0.124512,up
531285,-2.496094,3.222656,10.683594,0.509766,0.115234,0.943359,0.97522,0.139771,0.115356,0.126953,up
531290,-2.417969,3.03125,10.679688,0.509766,0.115234,0.943359,0.97522,0.139771,0.115356,0.126953,up
531295,-2.378906,2.878906,10.714844,0.212891,-0.072266,1.017578,0.97522,0.139771,0.115356,0.126953,up
531300,-2.113281,2.382813,10.753906,0.214844,-0.115234,1.041016,0.974121,0.142456,0.113892,0.133728,up
531305,-2.035156,2.226563,10.644531,0.214844,-0.115234,1.041016,0.974121,0.142456,0.113892,0.133728,up
531310,-1.84375,2.152344,10.683594,0.466797,-0.078125,1.068359,0.974121,0.142456,0.113892,0.133728,up
531315,-1.652344,2.113281,10.527344,0.466797,-0.078125,1.068359,0.972595,0.146545,0.112488,0.14093,up
531320,-1.535156,1.882813,10.332031,0.466797,-0.078125,1.068359,0.971985,0.14856,0.112549,0.14325,up
531325,-1.152344,1.730469,10.140625,0.466797,-0.078125,1.068359,0.971985,0.14856,0.112549,0.14325,up
531330,-1.039063,1.769531,9.988281,1.255859,0.457031,1.011719,0.971985,0.14856,0.112549,0.14325,up
531335,-1.117188,1.921875,9.878906,1.255859,0.457031,1.011719,0.969238,0.15741,0.115234,0.149902,up
531340,-1.382813,2.804688,9.679688,1.255859,0.457031,1.011719,0.969238,0.15741,0.115234,0.149902,up
531345,-1.726563,3.378906,9.5625,1.578125,0.716797,0.974609,0.966797,0.165283,0.119141,0.154358,up
531350,-2.1875,4.21875,9.417969,1.578125,0.716797,0.974609,0.966797,0.165283,0.119141,0.154358,up
531355,-2.417969,4.488281,9.339844,1.578125,0.716797,0.974609,0.965576,0.169006,0.121094,0.156372,up
531360,-2.417969,4.488281,9.339844,1.291016,0.708984,0.9375,0.964417,0.172241,0.122864,0.158386,up
531365,-2.570313,4.757812,9.417969,1.291016,0.708984,0.9375,0.963379,0.175049,0.124573,0.160522,up
531370,-2.992188,4.449219,9.722656,0.822266,0.541016,0.949219,0.962402,0.177368,0.125916,0.162659,up
531375,-2.992188,4.449219,9.722656,0.822266,0.541016,0.949219,0.962402,0.177368,0.125916,0.162659,up
531380,-2.992188,4.449219,9.722656,0.580078,0.4375,0.972656,0.960815,0.180542,0.127625,0.167358,up
531385,-2.992188,3.914063,10.027344,0.580078,0.4375,0.972656,0.959595,0.182129,0.127686,0.172424,up
531390,-2.914063,3.683594,10.0625,0.580078,0.4375,0.972656,0.959106,0.182617,0.127197,0.174927,up
531395,-2.496094,3.414063,10.066406,0.009766,-0.113281,1.132813,0.959106,0.182617,0.127197,0.174927,up
531400,-2.304688,3.109375,10.027344,0.009766,-0.113281,1.132813,0.958618,0.183105,0.126526,0.17749,up
531405,-1.804688,2.765625,9.683594,0.0625,-0.144531,1.115234,0.958618,0.183105,0.126526,0.17749,up
531410,-1.535156,2.6875,9.601563,0.0625,-0.144531,1.115234,0.957642,0.184387,0.124878,0.182678,up
531415,-1.421875,2.726563,9.457031,0.0625,-0.144531,1.115234,0.95697,0.185547,0.124268,0.185242,up
531421,-1.230469,2.765625,9.375,0.833984,0.203125,0.951172,0.95697,0.185547,0.124268,0.185242,up
531426,-1.0,2.839844,9.144531,0.833984,0.203125,0.951172,0.954529,0.191467,0.124939,0.191406,up
531432,-1.0,3.109375,8.957031,0.833984,0.203125,0.951172,0.95343,0.194153,0.126038,0.193359,up
531437,-1.0,3.109375,8.957031,1.380859,0.693359,0.955078,0.952148,0.197388,0.127686,0.195496,up
531442,-1.308594,3.953125,8.839844,1.484375,0.824219,0.958984,0.950745,0.200562,0.129578,0.19751,up
531448,-1.804688,4.488281,8.757813,1.484375,0.824219,0.958984,0.949219,0.204102,0.131958,0.199768,up
531453,-2.1875,5.023437,8.757813,1.460938,0.960937,0.945312,0.949219,0.204102,0.131958,0.199768,up
531458,-2.457031,5.445312,8.761719,1.359375,0.925781,0.916016,0.949219,0.204102,0.131958,0.199768,up
531463,-2.839844,5.828125,8.800781,1.359375,0.925781,0.916016,0.944702,0.213623,0.13916,0.206177,up
531468,-3.070313,5.945312,8.917969,0.941406,0.759766,0.841797,0.944702,0.213623,0.13916,0.206177,up
531473,-3.070313,5.945312,8.996094,0.71875,0.640625,0.800781,0.944702,0.213623,0.13916,0.206177,up
531478,-3.070313,5.90625,9.074219,0.482422,0.5,0.771484,0.944702,0.213623,0.13916,0.206177,up
531483,-2.914063,5.636719,9.257813,0.482422,0.5,0.771484,0.944702,0.213623,0.13916,0.206177,up
531488,-2.761719,5.445312,9.296875,0.099609,0.21875,0.732422,0.944702,0.213623,0.13916,0.206177,up
531493,-2.6875,5.292969,9.339844,-0.029297,0.070312,0.714844,0.944702,0.213623,0.13916,0.206177,up
531498,-2.496094,5.179687,9.257813,-0.103516,-0.046875,0.691406,0.944702,0.213623,0.13916,0.206177,up
531504,-2.148438,4.910156,9.335938,-0.103516,-0.046875,0.691406,0.944702,0.213623,0.13916,0.206177,up
531509,-2.035156,4.640625,9.300781,-0.103516,-0.046875,0.691406,0.93866,0.221558,0.143127,0.222046,up
531514,-1.84375,4.527344,9.339844,0.042969,-0.201172,0.667969,0.93866,0.221558,0.143127,0.222046,up
531520,-1.574219,4.449219,8.996094,0.042969,-0.201172,0.667969,0.937439,0.223877,0.141174,0.226135,up
531525,-1.5,4.527344,8.917969,0.042969,-0.201172,0.667969,0.937439,0.223877,0.141174,0.226135,up
531530,-1.5,4.566406,8.835938,0.728516,0.101563,0.642578,0.935852,0.2276,0.141724,0.228638,up
531535,-1.421875,4.527344,8.574219,0.728516,0.101563,0.642578,0.935852,0.2276,0.141724,0.228638,up
531540,-1.421875,4.527344,8.574219,1.080078,0.5,0.658203,0.935852,0.2276,0.141724,0.228638,up
531546,-1.5,4.71875,8.496094,1.080078,0.5,0.658203,0.934753,0.230042,0.142822,0.22998,up
531551,-1.726563,4.910156,8.378906,1.429688,0.873047,0.707031,0.930359,0.238892,0.149414,0.23468,up
531556,-1.726563,4.910156,8.378906,1.429688,0.873047,0.707031,0.930359,0.238892,0.149414,0.23468,up
531561,-2.074219,5.40625,8.152344,1.767578,1.326172,0.748047,0.928528,0.242249,0.152527,0.236389,up
531566,-2.074219,5.40625,8.152344,1.822266,1.433594,0.761719,0.924438,0.249512,0.159851,0.240051,up
531572,-2.6875,6.289062,7.957031,1.822266,1.433594,0.761719,0.922241,0.253174,0.163818,0.241943,up
531577,-2.800781,6.441406,7.957031,1.818359,1.533203,0.808594,0.919922,0.256958,0.167969,0.243958,up
531582,-2.914063,6.632812,8.035156,1.767578,1.523438,0.853516,0.917603,0.260437,0.171997,0.246033,up
531588,-3.261719,7.132812,7.917969,1.701172,1.476563,0.896484,0.917603,0.260437,0.171997,0.246033,up
531593,-3.300781,7.285156,7.953125,1.587891,1.398438,0.927734,0.917603,0.260437,0.171997,0.246033,up
531598,-3.414063,7.363281,7.914062,1.421875,1.285156,0.964844,0.910828,0.270264,0.182922,0.252808,up
531604,-3.453125,7.363281,7.914062,1.212891,1.160156,0.996094,0.910828,0.270264,0.182922,0.252808,up
531609,-3.492188,7.285156,7.804687,1.212891,1.160156,0.996094,0.910828,0.270264,0.182922,0.252808,up
531615,-3.453125,7.246094,7.804687,1.212891,1.160156,0.996094,0.904968,0.277283,0.190552,0.260376,up
531621,-3.414063,7.207031,7.804687,0.294922,0.613281,0.988281,0.904968,0.277283,0.190552,0.260376,up
531626,-3.375,7.015625,7.84375,0.294922,0.613281,0.988281,0.901245,0.280212,0.193787,0.2677,up
531631,-3.222656,6.941406,7.886719,-0.046875,0.337891,0.941406,0.901245,0.280212,0.193787,0.2677,up
531636,-3.222656,6.941406,7.847656,-0.173828,0.214844,0.929687,0.90033,0.280518,0.194092,0.270264,up
531641,-3.03125,6.863281,7.765625,-0.173828,0.214844,0.929687,0.899719,0.280579,0.19397,0.272278,up
531647,-2.914063,6.710937,7.765625,-0.173828,0.214844,0.929687,0.898682,0.280273,0.19281,0.276917,up
531652,-2.761719,6.558594,7.84375,-0.345703,-0.025391,0.996094,0.898682,0.280273,0.19281,0.276917,up
531658,-2.6875,6.402344,7.917969,-0.365234,-0.054687,1.029297,0.898682,0.280273,0.19281,0.276917,up
531663,-2.496094,6.058594,7.957031,-0.365234,-0.054687,1.029297,0.897339,0.279541,0.189636,0.283997,up
531668,-2.378906,5.867187,8.03125,-0.314453,-0.074219,1.082031,0.897339,0.279541,0.189636,0.283997,up
531673,-2.1875,5.753906,8.113281,-0.269531,-0.046875,1.095703,0.897339,0.279541,0.189636,0.283997,up
531678,-2.1875,5.753906,8.113281,-0.201172,0.005859,1.085938,0.895691,0.279358,0.18634,0.291504,up
531683,-1.957031,5.789062,8.109375,-0.201172,0.005859,1.085938,0.895691,0.279358,0.18634,0.291504,up
531688,-1.917969,5.828125,8.148438,-0.130859,0.078125,1.083984,0.895691,0.279358,0.18634,0.291504,up
531693,-1.84375,5.828125,8.03125,0.011719,0.246094,1.074219,0.893372,0.279968,0.184692,0.299011,up
531698,-1.84375,5.828125,8.03125,0.011719,0.246094,1.074219,0.893372,0.279968,0.184692,0.299011,up
531704,-1.84375,6.175781,7.917969,0.054687,0.357422,1.064453,0.891357,0.280762,0.184814,0.304199,up
531709,-1.882813,6.175781,7.882812,0.193359,0.53125,1.078125,0.891357,0.280762,0.184814,0.304199,up
531714,-1.957031,6.402344,7.808594,0.251953,0.59375,1.117188,0.891357,0.280762,0.184814,0.304199,up
531721,-2.113281,6.519531,7.726562,0.251953,0.59375,1.117188,0.886047,0.283386,0.1875,0.315308,up
531726,-2.1875,6.632812,7.652344,0.251953,0.59375,1.117188,0.886047,0.283386,0.1875,0.315308,up
531731,-2.265625,6.671875,7.652344,0.357422,0.6875,1.25,0.882935,0.285095,0.189331,0.321411,up
531736,-2.378906,6.785156,7.570312,0.357422,0.6875,1.25,0.881287,0.286011,0.190125,0.324585,up
531741,-2.417969,6.863281,7.425781,0.357422,0.6875,1.25,0.881287,0.286011,0.190125,0.324585,up
531746,-2.570313,6.785156,7.425781,0.318359,0.654297,1.427734,0.881287,0.286011,0.190125,0.324585,up
531752,-2.53125,6.75,7.464844,0.318359,0.654297,1.427734,0.876099,0.288696,0.192261,0.334839,up
531757,-2.53125,6.824219,7.460937,0.318359,0.654297,1.427734,0.876099,0.288696,0.192261,0.334839,up
531762,-2.53125,6.863281,7.421875,0.265625,0.542969,1.429688,0.87262,0.290405,0.193237,0.341919,up
531768,-2.457031,6.902344,7.570312,0.265625,0.542969,1.429688,0.871155,0.291199,0.193481,0.344849,up
531773,-2.265625,6.941406,7.613281,0.265625,0.542969,1.429688,0.869446,0.292175,0.193604,0.348267,up
531779,-2.1875,6.941406,7.53125,0.296875,0.326172,1.449219,0.869446,0.292175,0.193604,0.348267,up
531784,-2.148438,7.015625,7.5,0.308594,0.267578,1.451172,0.869446,0.292175,0.193604,0.348267,up
531789,-1.882813,7.167969,7.535156,0.335938,0.210937,1.464844,0.869446,0.292175,0.193604,0.348267,up
531794,-1.804688,7.285156,7.464844,0.375,0.15625,1.466797,0.869446,0.292175,0.193604,0.348267,up
531799,-1.652344,7.480469,7.230469,0.402344,0.132812,1.447266,0.869446,0.292175,0.193604,0.348267,up
531804,-1.574219,7.585937,6.960937,0.396484,0.142578,1.419922,0.869446,0.292175,0.193604,0.348267,up
531809,-1.382813,7.398437,6.921875,0.396484,0.142578,1.419922,0.869446,0.292175,0.193604,0.348267,up
531815,-1.421875,7.167969,6.921875,0.396484,0.142578,1.419922,0.856201,0.302246,0.191284,0.372803,up
531820,-1.421875,7.167969,6.921875,0.296875,0.380859,1.400391,0.854431,0.303345,0.191223,0.375977,up
531825,-1.421875,6.863281,7.109375,0.308594,0.480469,1.400391,0.852722,0.30426,0.191345,0.379089,up
531830,-1.421875,6.863281,7.109375,0.339844,0.587891,1.398438,0.852722,0.30426,0.191345,0.379089,up
531836,-1.421875,6.863281,7.109375,0.339844,0.587891,1.398438,0.848938,0.305969,0.192322,0.38562,up
531841,-1.421875,6.863281,7.109375,0.339844,0.796875,1.416016,0.846924,0.306641,0.193176,0.389038,up
531846,-1.460938,6.902344,7.425781,0.308594,0.935547,1.417969,0.846924,0.306641,0.193176,0.389038,up
531851,-1.5,6.902344,7.5,0.308594,0.935547,1.417969,0.842773,0.307739,0.195251,0.396057,up
531856,-1.574219,6.976562,7.53125,0.355469,0.998047,1.402344,0.842773,0.307739,0.195251,0.396057,up
531862,-1.726563,7.09375,7.570312,0.355469,0.998047,1.402344,0.836304,0.309082,0.199158,0.406616,up
531867,-1.804688,7.167969,7.691406,0.394531,0.955078,1.419922,0.833862,0.309692,0.200623,0.410461,up
531872,-1.84375,7.167969,7.652344,0.402344,0.888672,1.435547,0.831665,0.310303,0.201843,0.413879,up
531878,-1.917969,7.246094,7.613281,0.402344,0.888672,1.435547,0.829651,0.310913,0.202759,0.417053,up
531883,-2.113281,7.324219,7.847656,0.332031,0.720703,1.464844,0.827393,0.311646,0.203613,0.420532,up
531889,-2.148438,7.285156,7.730469,0.273438,0.617187,1.472656,0.827393,0.311646,0.203613,0.420532,up
531895,-1.996094,7.363281,7.726562,0.1875,0.517578,1.474609,0.827393,0.311646,0.203613,0.420532,up
531901,-1.765625,7.398437,7.613281,0.1875,0.517578,1.474609,0.827393,0.311646,0.203613,0.420532,up
531906,-1.691406,7.398437,7.460937,-0.15625,0.28125,1.455078,0.827393,0.311646,0.203613,0.420532,up
531911,-1.5,7.246094,7.460937,-0.15625,0.28125,1.455078,0.81781,0.314148,0.20343,0.437134,up
531916,-1.421875,7.132812,7.386719,-0.15625,0.28125,1.455078,0.816223,0.314209,0.202515,0.440552,up
531921,-1.382813,7.09375,7.308594,-0.494141,0.103516,1.423828,0.81488,0.314026,0.201477,0.443542,up
531926,-1.308594,6.863281,7.226562,-0.494141,0.103516,1.423828,0.813477,0.313721,0.200012,0.447083,up
531931,-1.152344,6.863281,7.1875,-0.494141,0.103516,1.423828,0.812256,0.313293,0.198486,0.450195,up
531936,-1.078125,6.824219,7.148437,-0.658203,-0.003906,1.371094,0.812256,0.313293,0.198486,0.450195,up
531941,-1.078125,6.824219,6.964844,-0.757812,-0.095703,1.318359,0.812256,0.313293,0.198486,0.450195,up
531946,-1.0,6.824219,6.847656,-0.757812,-0.095703,1.318359,0.809265,0.311279,0.19281,0.45929,up
531952,-0.847656,6.632812,6.765625,-0.757812,-0.095703,1.318359,0.807678,0.309692,0.188538,0.464966,up
531957,-0.65625,6.519531,6.769531,-0.757812,-0.095703,1.318359,0.807678,0.309692,0.188538,0.464966,up
531962,-0.65625,6.519531,6.769531,-0.849609,-0.169922,1.279297,0.806946,0.308777,0.186218,0.467773,up
531967,-0.65625,6.480469,6.804687,-0.839844,-0.173828,1.257813,0.806946,0.308777,0.186218,0.467773,up
531972,-0.578125,6.441406,7.003906,-0.84375,-0.185547,1.259766,0.806946,0.308777,0.186218,0.467773,up
531977,-0.578125,6.441406,7.003906,-0.841797,-0.207031,1.246094,0.804687,0.306091,0.179199,0.476074,up
531983,-0.425781,6.480469,7.148437,-0.841797,-0.207031,1.246094,0.803162,0.304382,0.174438,0.481506,up
531989,-0.425781,6.441406,7.230469,-0.841797,-0.207031,1.246094,0.802429,0.303528,0.172058,0.484131,up
531994,-0.386719,6.441406,7.152344,-0.806641,-0.232422,1.248047,0.802429,0.303528,0.172058,0.484131,up
532000,-0.347656,6.59375,7.109375,-0.789062,-0.253906,1.257813,0.802429,0.303528,0.172058,0.484131,up
532005,-0.347656,6.59375,7.003906,-0.789062,-0.253906,1.257813,0.799866,0.301147,0.164429,0.492493,up
532010,-0.425781,6.441406,6.921875,-0.789062,-0.253906,1.257813,0.799866,0.301147,0.164429,0.492493,up
532015,-0.425781,6.25,6.960937,-0.789062,-0.253906,1.257813,0.798218,0.2995,0.159729,0.49762,up
532021,-0.347656,6.058594,6.964844,-0.898437,-0.222656,1.298828,0.796448,0.297607,0.154724,0.503113,up
532026,-0.195312,5.789062,6.964844,-0.898437,-0.222656,1.298828,0.796448,0.297607,0.154724,0.503113,up
532032,-0.082031,5.753906,7.0,-0.789062,-0.101563,1.328125,0.796448,0.297607,0.154724,0.503113,up
532037,0.070312,5.753906,6.921875,-0.789062,-0.101563,1.328125,0.793335,0.294678,0.147827,0.51178,up
532043,0.261719,5.828125,6.882812,-0.789062,-0.101563,1.328125,0.792175,0.293884,0.146057,0.514526,up
532048,0.226562,5.789062,6.84375,-0.789062,-0.101563,1.328125,0.790955,0.29303,0.144409,0.517334,up
532053,0.261719,5.789062,6.882812,-0.529297,0.152344,1.335938,0.790955,0.29303,0.144409,0.517334,up
532058,0.1875,5.789062,6.960937,-0.458984,0.214844,1.333984,0.790955,0.29303,0.144409,0.517334,up
532064,0.148437,5.597656,7.0,-0.458984,0.214844,1.333984,0.786682,0.290833,0.140564,0.526123,up
532069,0.109375,5.597656,7.078125,-0.361328,0.296875,1.328125,0.786682,0.290833,0.140564,0.526123,up
532075,-0.003906,5.484375,7.109375,-0.316406,0.320313,1.306641,0.786682,0.290833,0.140564,0.526123,up
532080,-0.003906,5.523437,7.265625,-0.316406,0.320313,1.306641,0.78186,0.289063,0.138123,0.534851,up
532085,-0.121094,5.675781,7.191406,-0.214844,0.328125,1.275391,0.78186,0.289063,0.138123,0.534851,up
532090,-0.042969,5.789062,7.464844,-0.162109,0.310547,1.285156,0.78186,0.289063,0.138123,0.534851,up
532095,-0.042969,5.828125,7.347656,-0.162109,0.310547,1.285156,0.77655,0.288025,0.136353,0.543518,up
532100,-0.121094,5.945312,7.152344,-0.162109,0.310547,1.285156,0.77655,0.288025,0.136353,0.543518,up
532105,0.148437,6.136719,7.460937,-0.089844,0.234375,1.3125,0.773132,0.287964,0.135132,0.548767,up
532110,0.148437,6.136719,7.460937,-0.111328,0.154297,1.359375,0.771301,0.288025,0.134399,0.551453,up
532116,0.261719,6.367187,7.0,-0.169922,0.138672,1.380859,0.771301,0.288025,0.134399,0.551453,up
532121,0.261719,6.367187,7.0,-0.205078,0.146484,1.390625,0.767578,0.287903,0.132507,0.557129,up
532127,0.570312,5.945312,6.695312,-0.205078,0.146484,1.390625,0.763916,0.287109,0.130371,0.563049,up
532133,0.609375,5.484375,6.804687,-0.205078,0.146484,1.390625,0.762085,0.286377,0.129395,0.566101,up
532138,0.722656,5.332031,7.191406,-0.205078,0.146484,1.390625,0.760437,0.285583,0.12854,0.568909,up
532143,0.683594,5.214844,7.308594,-0.361328,0.458984,1.351563,0.760437,0.285583,0.12854,0.568909,up
532148,0.683594,5.179687,7.464844,-0.294922,0.498047,1.341797,0.756836,0.283813,0.12738,0.574829,up
532155,0.800781,5.140625,7.503906,-0.294922,0.498047,1.341797,0.754883,0.283081,0.127014,0.577881,up
532160,0.839844,5.140625,7.535156,-0.099609,0.552734,1.369141,0.754883,0.283081,0.127014,0.577881,up
532165,0.839844,5.253906,7.609375,-0.005859,0.580078,1.375,0.754883,0.283081,0.127014,0.577881,up
532171,1.03125,5.484375,7.503906,-0.005859,0.580078,1.375,0.754883,0.283081,0.127014,0.577881,up
532176,1.03125,5.5625,7.535156,0.158203,0.539062,1.404297,0.754883,0.283081,0.127014,0.577881,up
532181,1.222656,5.597656,7.609375,0.177734,0.507812,1.396484,0.754883,0.283081,0.127014,0.577881,up
532187,1.414063,5.867187,7.609375,0.179687,0.462891,1.388672,0.754883,0.283081,0.127014,0.577881,up
532192,1.527344,5.945312,7.769531,0.179687,0.462891,1.388672,0.739136,0.281677,0.127808,0.598328,up
532197,1.679688,6.097656,7.804687,0.035156,0.378906,1.365234,0.739136,0.281677,0.127808,0.598328,up
532202,1.757813,5.945312,7.84375,0.035156,0.378906,1.365234,0.734619,0.281738,0.127686,0.603821,up
532208,1.757813,5.945312,7.84375,-0.152344,0.419922,1.34375,0.730347,0.28125,0.127075,0.609375,up
532213,1.871094,5.484375,7.914062,-0.212891,0.480469,1.34375,0.728088,0.280579,0.126648,0.612488,up
532219,1.988281,5.292969,8.300781,-0.212891,0.480469,1.34375,0.726196,0.279907,0.126282,0.615112,up
532224,1.949219,5.179687,8.492188,-0.212891,0.480469,1.34375,0.72406,0.279053,0.126038,0.618042,up
532230,1.910156,4.910156,8.648438,-0.212891,0.480469,1.34375,0.72406,0.279053,0.126038,0.618042,up
532235,1.910156,4.949219,8.6875,-0.121094,0.683594,1.302734,0.72406,0.279053,0.126038,0.618042,up
532240,1.910156,4.949219,8.6875,-0.037109,0.730469,1.283203,0.717712,0.276489,0.126221,0.626526,up
532245,1.796875,5.214844,8.6875,-0.037109,0.730469,1.283203,0.717712,0.276489,0.126221,0.626526,up
532250,1.757813,5.253906,8.609375,0.140625,0.775391,1.302734,0.713074,0.275146,0.127319,0.632141,up
532255,1.757813,5.253906,8.609375,0.140625,0.775391,1.302734,0.713074,0.275146,0.127319,0.632141,up
532260,1.335938,5.40625,8.652344,0.257813,0.777344,1.314453,0.708069,0.274231,0.128967,0.637756,up
532266,1.222656,5.5625,8.570313,0.275391,0.755859,1.314453,0.708069,0.274231,0.128967,0.637756,up
532271,1.03125,5.5625,8.53125,0.271484,0.724609,1.316406,0.708069,0.274231,0.128967,0.637756,up
532276,0.992187,5.5625,8.414063,0.236328,0.669922,1.300781,0.708069,0.274231,0.128967,0.637756,up
532282,0.722656,5.636719,8.417969,0.193359,0.617187,1.298828,0.695618,0.27301,0.132446,0.651184,up
532287,0.648437,5.484375,8.878906,0.193359,0.617187,1.298828,0.695618,0.27301,0.132446,0.651184,up
532292,0.800781,5.40625,8.957031,0.130859,0.398438,1.341797,0.695618,0.27301,0.132446,0.651184,up
532297,0.53125,5.5625,8.414063,0.130859,0.398438,1.341797,0.690796,0.272766,0.132812,0.656311,up
532302,0.648437,5.5625,8.453125,0.130859,0.398438,1.341797,0.688354,0.272827,0.13269,0.658936,up
532307,0.683594,5.597656,8.53125,0.035156,0.214844,1.425781,0.688354,0.272827,0.13269,0.658936,up
532312,0.683594,5.5625,8.230469,0.035156,0.214844,1.425781,0.683289,0.273071,0.131897,0.664185,up
532317,0.648437,5.253906,8.109375,-0.013672,0.162109,1.5,0.680847,0.273315,0.131348,0.666748,up
532322,0.683594,4.988281,8.109375,-0.013672,0.162109,1.5,0.678223,0.273499,0.130615,0.669434,up
532328,0.839844,4.679687,8.109375,-0.037109,0.150391,1.492188,0.678223,0.273499,0.130615,0.669434,up
532333,0.839844,4.679687,8.109375,-0.021484,0.140625,1.466797,0.670776,0.274048,0.128235,0.677124,up
532339,0.992187,4.679687,7.847656,-0.021484,0.140625,1.466797,0.668335,0.274231,0.127441,0.679565,up
532344,1.066406,4.566406,7.917969,-0.033203,0.123047,1.392578,0.665955,0.274475,0.126648,0.682007,up
532349,1.144531,4.566406,7.914062,-0.015625,0.123047,1.367188,0.665955,0.274475,0.126648,0.682007,up
532354,1.144531,4.488281,7.808594,-0.015625,0.123047,1.367188,0.665955,0.274475,0.126648,0.682007,up
532359,1.105469,4.410156,7.914062,0.115234,0.099609,1.373047,0.665955,0.274475,0.126648,0.682007,up
532365,1.144531,4.449219,7.886719,0.191406,0.072266,1.392578,0.665955,0.274475,0.126648,0.682007,up
532370,0.992187,4.679687,7.648437,0.191406,0.072266,1.392578,0.665955,0.274475,0.126648,0.682007,up
532375,0.953125,4.792969,7.570312,0.310547,0.0,1.474609,0.665955,0.274475,0.126648,0.682007,up
532381,1.066406,4.910156,7.503906,0.337891,-0.029297,1.533203,0.665955,0.274475,0.126648,0.682007,up
532386,1.183594,5.023437,7.464844,0.337891,-0.029297,1.533203,0.644897,0.279724,0.121948,0.700745,up
532392,1.414063,5.023437,7.386719,0.337891,-0.029297,1.533203,0.63855,0.282227,0.121033,0.705627,up
532397,1.566406,4.988281,7.230469,0.337891,-0.029297,1.533203,0.63855,0.282227,0.121033,0.705627,up
532402,1.566406,4.988281,7.230469,0.498047,0.066406,1.851563,0.634888,0.283569,0.120667,0.708435,up
532407,1.527344,4.792969,7.269531,0.509766,0.121094,1.941406,0.631226,0.28479,0.120422,0.711304,up
532412,1.527344,4.792969,7.269531,0.533203,0.189453,2.044922,0.627319,0.285889,0.120178,0.714355,up
532417,1.414063,4.640625,7.386719,0.533203,0.189453,2.044922,0.622986,0.287048,0.119934,0.717712,up
532422,1.414063,4.640625,7.386719,0.541016,0.28125,2.236328,0.618652,0.288025,0.119751,0.721069,up
532427,1.257813,4.066406,7.574219,0.541016,0.28125,2.236328,0.614136,0.289063,0.119568,0.724548,up
532433,1.183594,3.914063,7.6875,0.632812,0.316406,2.361328,0.614136,0.289063,0.119568,0.724548,up
532438,1.183594,3.800781,7.808594,0.632812,0.316406,2.361328,0.599731,0.292297,0.119263,0.735291,up
532444,1.257813,3.953125,8.03125,0.632812,0.316406,2.361328,0.594666,0.293762,0.119385,0.738831,up
532449,1.296875,4.027344,7.953125,0.978516,0.109375,2.267578,0.589783,0.295532,0.119568,0.742004,up
532454,1.335938,4.027344,7.957031,1.091797,0.007813,2.224609,0.589783,0.295532,0.119568,0.742004,up
532459,1.414063,4.066406,7.914062,1.091797,0.007813,2.224609,0.579773,0.300049,0.120361,0.747864,up
532465,1.605469,4.027344,8.070313,1.091797,0.007813,2.224609,0.57489,0.302795,0.120667,0.750488,up
532472,1.757813,4.027344,8.148438,1.292969,-0.371094,2.199219,0.57489,0.302795,0.120667,0.750488,up
532477,1.835938,4.183594,8.03125,1.355469,-0.505859,2.259766,0.57489,0.302795,0.120667,0.750488,up
532483,2.101563,4.488281,7.6875,1.353516,-0.537109,2.304688,0.559692,0.312683,0.121338,0.757812,up
532488,2.179688,4.527344,7.503906,1.353516,-0.537109,2.304688,0.548645,0.32019,0.121277,0.762756,up
532493,2.523438,4.527344,7.304687,1.353516,-0.537109,2.304688,0.548645,0.32019,0.121277,0.762756,up
532498,2.675781,4.488281,7.148437,1.353516,-0.537109,2.304688,0.54303,0.323853,0.121033,0.765259,up
532503,2.675781,4.488281,7.148437,1.193359,-0.503906,2.560547,0.537903,0.326965,0.120667,0.767578,up
532508,2.832031,4.527344,7.0,1.107422,-0.429687,2.666016,0.537903,0.326965,0.120667,0.767578,up
532513,3.136719,4.449219,6.964844,1.013672,-0.335938,2.792969,0.526184,0.33313,0.119385,0.773254,up
532518,3.136719,4.449219,6.964844,1.013672,-0.335938,2.792969,0.526184,0.33313,0.119385,0.773254,up
532523,3.136719,4.449219,6.964844,0.892578,-0.244141,3.167969,0.513306,0.338562,0.117432,0.779785,up
532529,3.632813,3.953125,6.886719,0.892578,-0.244141,3.167969,0.498657,0.343994,0.114746,0.787292,up
532535,3.632813,3.761719,6.769531,0.892578,-0.244141,3.167969,0.492249,0.346191,0.113525,0.790527,up
532540,3.632813,3.761719,6.769531,0.896484,-0.230469,3.482422,0.484009,0.348938,0.111938,0.794617,up
532546,3.441406,3.644531,6.84375,0.951172,-0.294922,3.552734,0.484009,0.348938,0.111938,0.794617,up
532551,3.25,3.492188,7.148437,0.951172,-0.294922,3.552734,0.469055,0.354187,0.109009,0.801636,up
532556,3.214844,3.644531,7.34375,1.234375,-0.480469,3.667969,0.469055,0.354187,0.109009,0.801636,up
532561,3.175781,3.953125,7.386719,1.433594,-0.570312,3.675781,0.469055,0.354187,0.109009,0.801636,up
532566,3.214844,4.257812,7.269531,1.673828,-0.632812,3.630859,0.469055,0.354187,0.109009,0.801636,up
532571,3.328125,4.183594,7.042969,1.673828,-0.632812,3.630859,0.469055,0.354187,0.109009,0.801636,up
532576,3.632813,4.105469,7.152344,1.673828,-0.632812,3.630859,0.426086,0.37384,0.104797,0.817139,up
532581,3.632813,4.105469,7.152344,1.943359,-0.986328,3.373047,0.417725,0.37854,0.104553,0.819336,up
532586,3.632813,4.105469,7.152344,1.933594,-1.044922,3.251953,0.409119,0.383606,0.104309,0.821289,up
532591,4.554687,4.375,7.570312,1.933594,-1.044922,3.251953,0.409119,0.383606,0.104309,0.821289,up
532596,4.554687,4.375,7.570312,1.886719,-1.058594,3.109375,0.393188,0.393372,0.103821,0.824524,up
532601,4.554687,4.375,7.570312,1.744141,-1.072266,2.824219,0.385803,0.397949,0.103516,0.825867,up
532606,5.472656,3.722656,7.039062,1.744141,-1.072266,2.824219,0.378784,0.402588,0.103333,0.826904,up
532611,5.855469,3.339844,7.152344,1.744141,-1.072266,2.824219,0.371765,0.40741,0.102966,0.827759,up
532616,6.046875,3.148438,6.964844,1.476563,-1.248047,2.537109,0.371765,0.40741,0.102966,0.827759,up
532621,6.277344,3.109375,6.617187,1.339844,-1.232422,2.490234,0.371765,0.40741,0.102966,0.827759,up
532627,6.511719,3.070313,6.234375,1.339844,-1.232422,2.490234,0.371765,0.40741,0.102966,0.827759,up
532633,6.511719,3.109375,6.3125,1.03125,-1.193359,2.482422,0.371765,0.40741,0.102966,0.827759,up
532638,6.550781,3.300781,6.425781,1.03125,-1.193359,2.482422,0.334534,0.433105,0.096191,0.831421,up
532643,6.507812,3.492188,6.617187,1.03125,-1.193359,2.482422,0.334534,0.433105,0.096191,0.831421,up
532648,6.507812,3.492188,6.617187,1.183594,-1.177734,2.550781,0.328369,0.437012,0.094788,0.83197,up
532653,6.621094,3.53125,6.65625,1.183594,-1.177734,2.550781,0.32196,0.44104,0.09375,0.832458,up
532658,6.890625,3.53125,6.195312,1.601563,-1.021484,2.599609,0.315247,0.445007,0.09314,0.833008,up
532663,6.890625,3.53125,6.195312,1.808594,-0.908203,2.617188,0.307983,0.449097,0.093079,0.833557,up
532668,6.890625,3.53125,6.195312,2.125,-0.765625,2.683594,0.300659,0.452942,0.093384,0.834106,up
532673,7.355469,4.105469,5.890625,2.125,-0.765625,2.683594,0.300659,0.452942,0.093384,0.834106,up
532678,7.351562,4.296875,5.8125,2.125,-0.765625,2.683594,0.284363,0.460754,0.094971,0.835388,up
532683,7.316406,4.144531,5.582031,2.109375,-0.582031,2.666016,0.269104,0.467224,0.096802,0.836609,up
532688,7.394531,3.992188,5.316406,1.966797,-0.414062,2.455078,0.269104,0.467224,0.096802,0.836609,up
532693,7.421875,3.835938,5.199219,1.966797,-0.414062,2.455078,0.261108,0.470276,0.0979,0.83728,up
532698,7.464844,3.914063,5.316406,1.564453,-0.558594,2.234375,0.254089,0.472961,0.098694,0.83783,up
532703,7.5,3.722656,5.429687,1.564453,-0.558594,2.234375,0.247803,0.475525,0.099182,0.838257,up
532708,7.578125,3.453125,5.582031,1.126953,-0.621094,1.941406,0.241028,0.478455,0.099304,0.838501,up
532714,7.621094,3.070313,5.582031,1.126953,-0.621094,1.941406,0.230896,0.483154,0.098755,0.838745,up
532719,7.503906,2.917969,5.542969,0.8125,-0.658203,1.695313,0.22583,0.485657,0.098083,0.838745,up
532724,7.503906,2.917969,5.542969,0.712891,-0.738281,1.615234,0.221985,0.487793,0.097351,0.838623,up
532729,7.355469,2.804688,5.542969,0.646484,-0.835937,1.572266,0.218018,0.490173,0.096436,0.838379,up
532734,7.617187,2.457031,5.773437,0.646484,-0.835937,1.572266,0.214172,0.492676,0.095398,0.838013,up
532739,7.738281,2.417969,5.851562,0.646484,-0.835937,1.572266,0.210266,0.495422,0.094177,0.837524,up
532744,8.003906,2.382813,5.773437,0.564453,-0.921875,1.605469,0.206177,0.49823,0.092896,0.837036,up
532750,8.1875,2.417969,5.46875,0.564453,-0.921875,1.605469,0.202576,0.500488,0.091797,0.83667,up
532755,8.117188,2.417969,5.351562,0.650391,-0.757812,1.619141,0.198486,0.50293,0.090637,0.836365,up
532760,8.003906,2.496094,5.316406,0.783203,-0.738281,1.613281,0.194397,0.505188,0.089783,0.83606,up
532765,8.082031,2.574219,5.277344,0.783203,-0.738281,1.613281,0.189453,0.507812,0.089172,0.835632,up
532771,8.078125,2.6875,5.007812,0.783203,-0.738281,1.613281,0.185547,0.509827,0.089172,0.835266,up
532776,8.082031,2.917969,4.816406,1.402344,-0.628906,1.423828,0.185547,0.509827,0.089172,0.835266,up
532783,8.1875,3.222656,4.394531,1.542969,-0.597656,1.326172,0.185547,0.509827,0.089172,0.835266,up
