timestamp,ax,ay,az,gx,gy,gz,qw,qx,qy,qz,label
146580,-3.460938,2.320313,8.574219,0.748047,0.183594,0.378906,0.971619,0.144897,0.166382,-0.085327,up
146585,-3.5,2.472656,8.609375,0.748047,0.183594,0.378906,0.971008,0.149292,0.166687,-0.084351,up
146591,-3.613281,2.625,8.570313,0.748047,0.183594,0.378906,0.970703,0.151245,0.166809,-0.083862,up
146596,-3.613281,2.625,8.570313,0.705078,0.164062,0.392578,0.970398,0.153137,0.166931,-0.083374,up
146601,-3.613281,2.589844,8.609375,0.705078,0.164062,0.392578,0.970154,0.15509,0.166992,-0.082764,up
146606,-3.613281,2.625,8.6875,0.636719,0.126953,0.390625,0.96991,0.15686,0.167053,-0.082031,up
146611,-3.613281,2.625,8.6875,0.585937,0.117188,0.404297,0.969666,0.158569,0.167053,-0.081482,up
146616,-3.613281,2.625,8.6875,0.585937,0.117188,0.404297,0.969299,0.161621,0.167053,-0.080078,up
146621,-3.652344,2.742188,8.6875,0.585937,0.117188,0.404297,0.969299,0.161621,0.167053,-0.080078,up
146626,-3.652344,2.742188,8.6875,0.445312,0.080078,0.359375,0.968994,0.164307,0.166992,-0.078857,up
146631,-3.726563,2.816406,8.648438,0.425781,0.083984,0.332031,0.968811,0.165649,0.166931,-0.078308,up
146636,-3.652344,2.855469,8.648438,0.380859,0.087891,0.330078,0.968628,0.166809,0.166931,-0.077759,up
146641,-3.574219,2.894531,8.648438,0.380859,0.087891,0.330078,0.968628,0.166809,0.166931,-0.077759,up
146646,-3.5,2.816406,8.609375,0.380859,0.087891,0.330078,0.968384,0.168701,0.166931,-0.076782,up
146651,-3.460938,2.816406,8.574219,0.251953,0.111328,0.34375,0.968262,0.169617,0.166931,-0.076111,up
146656,-3.5,2.742188,8.535156,0.267578,0.140625,0.330078,0.968262,0.169617,0.166931,-0.076111,up
146661,-3.460938,2.703125,8.5,0.267578,0.140625,0.330078,0.968018,0.171265,0.167175,-0.075012,up
146667,-3.421875,2.550781,8.609375,0.267578,0.140625,0.330078,0.967896,0.17218,0.167358,-0.074463,up
146672,-3.460938,2.511719,8.648438,0.3125,0.197266,0.322266,0.967712,0.173157,0.167603,-0.073914,up
146677,-3.5,2.589844,8.730469,0.306641,0.207031,0.328125,0.967712,0.173157,0.167603,-0.073914,up
146683,-3.535156,2.664063,8.652344,0.306641,0.207031,0.328125,0.967346,0.17511,0.168213,-0.072754,up
146688,-3.574219,2.703125,8.648438,0.316406,0.234375,0.3125,0.967163,0.176086,0.168579,-0.072205,up
146694,-3.613281,2.703125,8.652344,0.349609,0.226562,0.304688,0.967163,0.176086,0.168579,-0.072205,up
146700,-3.652344,2.816406,8.730469,0.349609,0.226562,0.304688,0.967163,0.176086,0.168579,-0.072205,up
146705,-3.652344,2.894531,8.726563,0.453125,0.230469,0.273438,0.967163,0.176086,0.168579,-0.072205,up
146710,-3.652344,2.894531,8.6875,0.515625,0.207031,0.265625,0.967163,0.176086,0.168579,-0.072205,up
146715,-3.726563,3.085938,8.6875,0.515625,0.207031,0.265625,0.965881,0.182251,0.170227,-0.070007,up
146720,-3.765625,3.125,8.691406,0.515625,0.207031,0.265625,0.965576,0.183655,0.170471,-0.069702,up
146725,-3.804688,3.164063,8.648438,0.490234,0.177734,0.259766,0.965576,0.183655,0.170471,-0.069702,up
146731,-3.765625,3.164063,8.609375,0.416016,0.154297,0.257813,0.965576,0.183655,0.170471,-0.069702,up
146736,-3.804688,3.238281,8.574219,0.416016,0.154297,0.257813,0.964539,0.188843,0.171265,-0.068237,up
146741,-3.804688,3.238281,8.574219,0.416016,0.154297,0.257813,0.964539,0.188843,0.171265,-0.068237,up
146746,-3.765625,3.238281,8.503906,0.296875,0.128906,0.251953,0.964539,0.188843,0.171265,-0.068237,up
146751,-3.765625,3.238281,8.574219,0.251953,0.126953,0.255859,0.964172,0.190796,0.171509,-0.067505,up
146756,-3.726563,3.203125,8.535156,0.251953,0.126953,0.255859,0.963867,0.192444,0.171753,-0.06665,up
146761,-3.726563,3.203125,8.570313,0.251953,0.126953,0.255859,0.963745,0.192993,0.171875,-0.066345,up
146766,-3.726563,3.164063,8.5,0.251953,0.126953,0.255859,0.963745,0.192993,0.171875,-0.066345,up
146771,-3.726563,3.164063,8.425781,0.183594,0.132812,0.261719,0.963501,0.194275,0.172119,-0.06543,up
146776,-3.691406,3.164063,8.503906,0.183594,0.132812,0.261719,0.963501,0.194275,0.172119,-0.06543,up
146781,-3.691406,3.164063,8.503906,0.269531,0.109375,0.263672,0.963501,0.194275,0.172119,-0.06543,up
146786,-3.613281,3.164063,8.535156,0.269531,0.109375,0.263672,0.963074,0.196594,0.172424,-0.064148,up
146791,-3.726563,3.203125,8.460938,0.269531,0.109375,0.263672,0.962891,0.197632,0.172546,-0.063782,up
146796,-3.726563,3.085938,8.425781,0.269531,0.109375,0.263672,0.962891,0.197632,0.172546,-0.063782,up
146801,-3.804688,3.085938,8.464844,0.449219,0.115234,0.228516,0.962891,0.197632,0.172546,-0.063782,up
146806,-3.765625,3.125,8.464844,0.449219,0.115234,0.228516,0.962158,0.201172,0.172852,-0.062927,up
146811,-3.804688,3.238281,8.464844,0.449219,0.115234,0.228516,0.961853,0.202454,0.172974,-0.062744,up
146816,-3.84375,3.429688,8.347656,0.449219,0.115234,0.228516,0.961853,0.202454,0.172974,-0.062744,up
146821,-3.882813,3.507813,8.382813,0.541016,0.064453,0.121094,0.961853,0.202454,0.172974,-0.062744,up
146826,-3.84375,3.621094,8.34375,0.541016,0.064453,0.121094,0.960937,0.206665,0.173035,-0.062805,up
146831,-3.84375,3.660156,8.308594,0.541016,0.064453,0.121094,0.960937,0.206665,0.173035,-0.062805,up
146836,-3.804688,3.699219,8.308594,0.511719,0.033203,0.076172,0.960327,0.209351,0.172974,-0.06311,up
146841,-3.765625,3.738281,8.265625,0.511719,0.033203,0.076172,0.960083,0.21051,0.172913,-0.063293,up
146846,-3.765625,3.777344,8.304688,0.412109,0.013672,0.064453,0.960083,0.21051,0.172913,-0.063293,up
146851,-3.765625,3.738281,8.304688,0.412109,0.013672,0.064453,0.959839,0.21167,0.172852,-0.063477,up
146856,-3.765625,3.660156,8.347656,0.339844,0.007813,0.078125,0.959839,0.21167,0.172852,-0.063477,up
146862,-3.765625,3.660156,8.347656,0.337891,-0.003906,0.095703,0.959229,0.214478,0.172546,-0.063782,up
146868,-3.726563,3.621094,8.308594,0.337891,-0.003906,0.095703,0.959045,0.215393,0.172424,-0.063843,up
146874,-3.726563,3.621094,8.269531,0.357422,-0.009766,0.119141,0.959045,0.215393,0.172424,-0.063843,up
146879,-3.726563,3.621094,8.269531,0.357422,-0.009766,0.119141,0.958679,0.217285,0.172119,-0.063843,up
146884,-3.691406,3.621094,8.304688,0.447266,-0.013672,0.136719,0.958679,0.217285,0.172119,-0.063843,up
146889,-3.652344,3.660156,8.226563,0.521484,-0.003906,0.138672,0.958679,0.217285,0.172119,-0.063843,up
146894,-3.652344,3.699219,8.191406,0.597656,-0.001953,0.148437,0.958679,0.217285,0.172119,-0.063843,up
146899,-3.613281,3.890625,8.082031,0.597656,-0.001953,0.148437,0.958679,0.217285,0.172119,-0.063843,up
146905,-3.691406,3.96875,8.003906,0.597656,-0.001953,0.148437,0.957214,0.224365,0.171265,-0.064026,up
146911,-3.613281,4.042969,8.0,0.712891,0.039063,0.134766,0.957214,0.224365,0.171265,-0.064026,up
146916,-3.613281,4.121094,8.0,0.712891,0.039063,0.134766,0.955933,0.229736,0.170959,-0.064331,up
146921,-3.574219,4.195312,7.960937,0.712891,0.039063,0.134766,0.955933,0.229736,0.170959,-0.064331,up
146926,-3.574219,4.234375,7.847656,0.640625,0.082031,0.123047,0.955933,0.229736,0.170959,-0.064331,up
146931,-3.691406,4.160156,7.84375,0.640625,0.082031,0.123047,0.955139,0.233215,0.170898,-0.064453,up
146936,-3.691406,4.160156,7.84375,0.525391,0.068359,0.091797,0.954712,0.234863,0.170898,-0.064514,up
146941,-3.691406,4.273437,7.886719,0.525391,0.068359,0.091797,0.954346,0.236206,0.170898,-0.064575,up
146946,-3.726563,4.390625,7.882812,0.429687,0.037109,0.039063,0.954346,0.236206,0.170898,-0.064575,up
146951,-3.726563,4.390625,7.882812,0.429687,0.037109,0.039063,0.953735,0.238647,0.170898,-0.06488,up
146956,-3.691406,4.351562,7.960937,0.429687,0.037109,0.039063,0.953735,0.238647,0.170898,-0.06488,up
146962,-3.691406,4.425781,7.964844,0.416016,0.019531,0.015625,0.953735,0.238647,0.170898,-0.06488,up
146967,-3.691406,4.425781,7.964844,0.384766,-0.023437,-0.017578,0.952759,0.242493,0.170654,-0.065857,up
146972,-3.613281,4.425781,8.042969,0.384766,-0.023437,-0.017578,0.952515,0.243347,0.170471,-0.066223,up
146977,-3.574219,4.425781,8.078125,0.332031,-0.050781,-0.039063,0.952332,0.244263,0.170288,-0.06665,up
146982,-3.574219,4.390625,8.039063,0.332031,-0.050781,-0.039063,0.952087,0.245117,0.170105,-0.067078,up
146987,-3.5,4.390625,8.042969,0.332031,-0.050781,-0.039063,0.951904,0.245789,0.169922,-0.067383,up
146992,-3.5,4.425781,7.960937,0.302734,-0.0625,-0.015625,0.951721,0.246643,0.169678,-0.067749,up
146997,-3.460938,4.351562,8.0,0.294922,-0.054687,-0.003906,0.951538,0.247437,0.169495,-0.068115,up
147002,-3.421875,4.390625,8.0,0.294922,-0.054687,-0.003906,0.951355,0.248047,0.169312,-0.068359,up
147008,-3.34375,4.351562,7.964844,0.294922,-0.054687,-0.003906,0.951172,0.24884,0.169128,-0.068604,up
147013,-3.34375,4.3125,7.921875,0.335938,-0.019531,0.027344,0.951172,0.24884,0.169128,-0.068604,up
147018,-3.308594,4.3125,7.964844,0.361328,0.0,0.037109,0.951172,0.24884,0.169128,-0.068604,up
147024,-3.34375,4.351562,7.847656,0.361328,0.0,0.037109,0.951172,0.24884,0.169128,-0.068604,up
147029,-3.34375,4.425781,7.882812,0.460937,0.035156,0.056641,0.951172,0.24884,0.169128,-0.068604,up
147034,-3.34375,4.464844,7.886719,0.515625,0.039063,0.064453,0.951172,0.24884,0.169128,-0.068604,up
147040,-3.34375,4.617187,7.882812,0.568359,0.054687,0.076172,0.951172,0.24884,0.169128,-0.068604,up
147045,-3.421875,4.65625,7.847656,0.611328,0.070312,0.083984,0.949097,0.256653,0.16864,-0.069885,up
147050,-3.421875,4.695312,7.808594,0.652344,0.083984,0.091797,0.949097,0.256653,0.16864,-0.069885,up
147056,-3.460938,4.808594,7.808594,0.707031,0.09375,0.097656,0.949097,0.256653,0.16864,-0.069885,up
147061,-3.535156,4.964844,7.804687,0.703125,0.087891,0.095703,0.947693,0.261719,0.168701,-0.070312,up
147067,-3.535156,5.078125,7.726562,0.685547,0.085937,0.101563,0.947144,0.26355,0.168701,-0.070435,up
147072,-3.574219,5.191406,7.699219,0.685547,0.085937,0.101563,0.946167,0.26709,0.168701,-0.070618,up
147078,-3.691406,5.269531,7.660156,0.685547,0.085937,0.101563,0.94574,0.268494,0.168701,-0.07074,up
147083,-3.691406,5.230469,7.726562,0.527344,0.046875,0.095703,0.94574,0.268494,0.168701,-0.07074,up
147089,-3.691406,5.269531,7.730469,0.429687,0.037109,0.082031,0.945007,0.271179,0.16864,-0.070923,up
147095,-3.726563,5.308594,7.726562,0.351563,0.025391,0.068359,0.945007,0.271179,0.16864,-0.070923,up
147100,-3.726563,5.230469,7.621094,0.351563,0.025391,0.068359,0.945007,0.271179,0.16864,-0.070923,up
147106,-3.691406,5.230469,7.617187,0.205078,-0.001953,0.044922,0.945007,0.271179,0.16864,-0.070923,up
147111,-3.613281,5.15625,7.65625,0.171875,-0.039063,0.039063,0.945007,0.271179,0.16864,-0.070923,up
147116,-3.574219,5.117187,7.660156,0.171875,-0.039063,0.039063,0.944092,0.274475,0.168152,-0.071411,up
147122,-3.574219,5.117187,7.695312,0.125,-0.087891,0.013672,0.944092,0.274475,0.168152,-0.071411,up
147127,-3.535156,5.078125,7.65625,0.144531,-0.101563,-0.001953,0.944092,0.274475,0.168152,-0.071411,up
147132,-3.421875,5.039062,7.660156,0.144531,-0.101563,-0.001953,0.943787,0.27594,0.167053,-0.072266,up
147137,-3.382813,5.0,7.617187,0.177734,-0.115234,-0.007813,0.943787,0.27594,0.167053,-0.072266,up
147142,-3.308594,5.0,7.617187,0.177734,-0.115234,-0.007813,0.943604,0.276794,0.166443,-0.072815,up
147147,-3.308594,4.964844,7.582031,0.220703,-0.099609,0.007813,0.943604,0.276794,0.166443,-0.072815,up
147152,-3.269531,4.964844,7.503906,0.220703,-0.099609,0.007813,0.943359,0.277893,0.165894,-0.073303,up
147157,-3.269531,5.0,7.5,0.255859,-0.074219,0.017578,0.943359,0.277893,0.165894,-0.073303,up
147162,-3.308594,5.0,7.5,0.255859,-0.074219,0.017578,0.942993,0.279175,0.165344,-0.07373,up
147167,-3.308594,5.039062,7.5,0.285156,-0.039063,0.033203,0.942993,0.279175,0.165344,-0.07373,up
147172,-3.269531,5.039062,7.425781,0.285156,-0.039063,0.033203,0.942627,0.280518,0.165039,-0.074036,up
147177,-3.269531,5.039062,7.425781,0.300781,-0.001953,0.041016,0.942627,0.280518,0.165039,-0.074036,up
147182,-3.269531,5.039062,7.382812,0.300781,-0.001953,0.041016,0.9422,0.282104,0.164795,-0.074341,up
147187,-3.269531,5.078125,7.34375,0.300781,-0.001953,0.041016,0.9422,0.282104,0.164795,-0.074341,up
147192,-3.308594,5.117187,7.308594,0.324219,0.03125,0.042969,0.941711,0.283691,0.164734,-0.074524,up
147197,-3.269531,5.117187,7.34375,0.34375,0.056641,0.050781,0.941711,0.283691,0.164734,-0.074524,up
147202,-3.308594,5.191406,7.347656,0.361328,0.058594,0.050781,0.941406,0.284607,0.164795,-0.074585,up
147207,-3.308594,5.230469,7.304687,0.367188,0.068359,0.052734,0.941162,0.285522,0.164795,-0.074646,up
147212,-3.34375,5.230469,7.347656,0.367188,0.068359,0.052734,0.940552,0.287415,0.164917,-0.074829,up
147217,-3.34375,5.269531,7.273437,0.367188,0.068359,0.052734,0.940552,0.287415,0.164917,-0.074829,up
147222,-3.34375,5.308594,7.273437,0.367188,0.068359,0.052734,0.939941,0.289246,0.165039,-0.07489,up
147227,-3.34375,5.308594,7.234375,0.367188,0.068359,0.052734,0.939636,0.2901,0.1651,-0.07489,up
147232,-3.382813,5.269531,7.234375,0.367188,0.068359,0.052734,0.939636,0.2901,0.1651,-0.07489,up
147237,-3.382813,5.269531,7.273437,0.34375,0.105469,0.060547,0.939636,0.2901,0.1651,-0.07489,up
147242,-3.460938,5.347656,7.238281,0.337891,0.097656,0.054687,0.939026,0.291992,0.165283,-0.074951,up
147247,-3.460938,5.386719,7.238281,0.337891,0.097656,0.054687,0.938477,0.29364,0.165527,-0.074951,up
147252,-3.5,5.421875,7.195312,0.308594,0.09375,0.041016,0.938477,0.29364,0.165527,-0.074951,up
147257,-3.5,5.460937,7.273437,0.279297,0.099609,0.03125,0.938171,0.294556,0.16571,-0.075012,up
147262,-3.535156,5.5,7.15625,0.279297,0.099609,0.03125,0.937927,0.295288,0.165833,-0.075073,up
147267,-3.535156,5.539062,7.234375,0.279297,0.099609,0.03125,0.937622,0.296021,0.165955,-0.075073,up
147272,-3.535156,5.578125,7.234375,0.244141,0.091797,0.017578,0.937622,0.296021,0.165955,-0.075073,up
147277,-3.535156,5.578125,7.234375,0.244141,0.091797,0.017578,0.937012,0.297729,0.166443,-0.075256,up
147282,-3.574219,5.5,7.238281,0.15625,0.089844,0.007813,0.937012,0.297729,0.166443,-0.075256,up
147287,-3.535156,5.539062,7.199219,0.15625,0.089844,0.007813,0.936707,0.298584,0.166748,-0.075378,up
147292,-3.535156,5.5,7.234375,0.082031,0.083984,0.013672,0.936707,0.298584,0.166748,-0.075378,up
147298,-3.535156,5.460937,7.273437,0.082031,0.083984,0.013672,0.936462,0.299072,0.167053,-0.075439,up
147303,-3.535156,5.421875,7.238281,0.041016,0.074219,0.011719,0.936401,0.299255,0.167236,-0.075439,up
147308,-3.535156,5.421875,7.238281,0.033203,0.078125,0.013672,0.936279,0.299377,0.167419,-0.075439,up
147313,-3.460938,5.386719,7.195312,0.033203,0.078125,0.013672,0.936218,0.2995,0.167542,-0.075439,up
147319,-3.421875,5.386719,7.199219,0.033203,0.078125,0.013672,0.936157,0.299683,0.167725,-0.075439,up
147325,-3.421875,5.386719,7.15625,0.066406,0.107422,0.019531,0.936157,0.299683,0.167725,-0.075439,up
147330,-3.382813,5.347656,7.160156,0.083984,0.113281,0.027344,0.936157,0.299683,0.167725,-0.075439,up
147335,-3.34375,5.386719,7.160156,0.083984,0.113281,0.027344,0.936157,0.299683,0.167725,-0.075439,up
147341,-3.382813,5.347656,7.160156,0.083984,0.113281,0.027344,0.935669,0.30072,0.16864,-0.075317,up
147347,-3.34375,5.347656,7.121094,0.123047,0.158203,0.041016,0.935669,0.30072,0.16864,-0.075317,up
147352,-3.308594,5.347656,7.121094,0.142578,0.173828,0.037109,0.93512,0.30188,0.169617,-0.075073,up
147357,-3.308594,5.347656,7.121094,0.142578,0.173828,0.037109,0.93512,0.30188,0.169617,-0.075073,up
147362,-3.269531,5.347656,7.082031,0.191406,0.228516,0.052734,0.93512,0.30188,0.169617,-0.075073,up
147367,-3.269531,5.421875,7.042969,0.191406,0.228516,0.052734,0.934631,0.302917,0.170471,-0.074829,up
147373,-3.269531,5.421875,7.003906,0.199219,0.246094,0.058594,0.934143,0.304016,0.171448,-0.074524,up
147378,-3.269531,5.460937,7.078125,0.207031,0.265625,0.074219,0.933838,0.304688,0.172058,-0.07428,up
147383,-3.308594,5.539062,7.039062,0.207031,0.265625,0.074219,0.933533,0.305359,0.172546,-0.074036,up
147388,-3.308594,5.539062,7.0,0.207031,0.265625,0.074219,0.933289,0.305847,0.173035,-0.073853,up
147393,-3.308594,5.578125,7.0,0.197266,0.316406,0.091797,0.932983,0.306519,0.173706,-0.073547,up
147398,-3.382813,5.578125,6.960937,0.185547,0.316406,0.109375,0.932678,0.307129,0.174316,-0.073181,up
147404,-3.5,5.652344,6.960937,0.185547,0.316406,0.109375,0.932434,0.307617,0.174866,-0.072876,up
147409,-3.5,5.652344,6.890625,0.152344,0.333984,0.097656,0.93219,0.308167,0.175537,-0.072571,up
147416,-3.5,5.691406,7.003906,0.132812,0.333984,0.099609,0.93219,0.308167,0.175537,-0.072571,up
147422,-3.574219,5.769531,7.082031,0.132812,0.333984,0.099609,0.931641,0.309082,0.177002,-0.071777,up
147427,-3.613281,5.769531,7.078125,0.132812,0.333984,0.099609,0.931458,0.309387,0.177612,-0.071472,up
147432,-3.574219,5.769531,7.082031,0.042969,0.388672,0.0625,0.931458,0.309387,0.177612,-0.071472,up
147437,-3.613281,5.804687,7.121094,0.042969,0.388672,0.0625,0.93103,0.309937,0.179199,-0.07074,up
147442,-3.613281,5.804687,7.121094,-0.015625,0.400391,0.039063,0.930786,0.310181,0.180176,-0.070312,up
147447,-3.613281,5.804687,7.042969,-0.015625,0.400391,0.039063,0.930664,0.310303,0.180969,-0.070007,up
147453,-3.613281,5.804687,7.121094,-0.0625,0.423828,0.029297,0.930664,0.310303,0.180969,-0.070007,up
147458,-3.613281,5.804687,7.121094,-0.076172,0.423828,0.027344,0.930176,0.310303,0.183777,-0.06897,up
147463,-3.574219,5.804687,7.234375,-0.076172,0.423828,0.027344,0.929993,0.310181,0.184753,-0.068604,up
147468,-3.613281,5.804687,7.304687,-0.076172,0.423828,0.027344,0.929871,0.31012,0.18573,-0.068237,up
147473,-3.652344,5.804687,7.347656,-0.117188,0.419922,0.027344,0.929871,0.31012,0.18573,-0.068237,up
147479,-3.613281,5.769531,7.425781,-0.117188,0.419922,0.027344,0.929626,0.309814,0.187683,-0.067444,up
147484,-3.691406,5.769531,7.464844,-0.115234,0.390625,0.048828,0.929565,0.309631,0.188538,-0.067078,up
147489,-3.726563,5.804687,7.464844,-0.105469,0.386719,0.058594,0.929443,0.309509,0.189392,-0.06665,up
147494,-3.765625,5.804687,7.5,-0.105469,0.386719,0.058594,0.929321,0.309387,0.190308,-0.066162,up
147501,-3.84375,5.84375,7.617187,-0.105469,0.386719,0.058594,0.929321,0.309387,0.190308,-0.066162,up
147506,-3.84375,5.84375,7.699219,-0.070312,0.347656,0.095703,0.929321,0.309387,0.190308,-0.066162,up
147511,-3.882813,5.921875,7.765625,-0.058594,0.345703,0.085937,0.929321,0.309387,0.190308,-0.066162,up
147516,-3.921875,5.921875,7.808594,-0.060547,0.355469,0.091797,0.929321,0.309387,0.190308,-0.066162,up
147521,-3.921875,5.921875,7.84375,-0.058594,0.359375,0.095703,0.929321,0.309387,0.190308,-0.066162,up
147526,-3.957031,5.960937,7.882812,-0.046875,0.351563,0.085937,0.929321,0.309387,0.190308,-0.066162,up
147532,-4.035156,5.996094,7.925781,-0.046875,0.351563,0.083984,0.929321,0.309387,0.190308,-0.066162,up
147537,-4.035156,5.996094,7.925781,-0.046875,0.349609,0.085937,0.928345,0.309326,0.196411,-0.062561,up
147542,-4.113281,6.113281,8.003906,-0.048828,0.351563,0.076172,0.928223,0.309326,0.197144,-0.062134,up
147547,-4.1875,6.304687,8.113281,-0.048828,0.351563,0.076172,0.928101,0.309265,0.197937,-0.061646,up
147552,-4.1875,6.304687,8.113281,-0.095703,0.345703,0.068359,0.927979,0.309204,0.198669,-0.061279,up
147557,-4.226562,6.417969,8.148438,-0.095703,0.345703,0.068359,0.927979,0.309204,0.198669,-0.061279,up
147562,-4.339844,6.457031,8.191406,-0.095703,0.345703,0.068359,0.927856,0.308777,0.200317,-0.060303,up
147567,-4.339844,6.457031,8.191406,-0.271484,0.302734,0.080078,0.927856,0.308411,0.200989,-0.059875,up
147572,-4.304687,6.378906,8.1875,-0.271484,0.302734,0.080078,0.927856,0.307983,0.20166,-0.059448,up
147578,-4.304687,6.34375,8.1875,-0.373047,0.251953,0.103516,0.927856,0.307983,0.20166,-0.059448,up
147583,-4.339844,6.265625,8.152344,-0.373047,0.251953,0.103516,0.928284,0.305908,0.203491,-0.057739,up
147588,-4.304687,6.226562,8.113281,-0.373047,0.251953,0.103516,0.928467,0.305115,0.203918,-0.057129,up
147593,-4.304687,6.152344,8.152344,-0.470703,0.167969,0.150391,0.928467,0.305115,0.203918,-0.057129,up
147598,-4.265625,6.074219,8.109375,-0.470703,0.167969,0.150391,0.928772,0.304077,0.204285,-0.056396,up
147604,-4.265625,5.960937,8.1875,-0.46875,0.132812,0.167969,0.929321,0.302246,0.204773,-0.055115,up
147609,-4.1875,5.769531,8.082031,-0.46875,0.132812,0.167969,0.929626,0.301392,0.204895,-0.054504,up
147615,-4.148437,5.730469,8.082031,-0.380859,0.044922,0.177734,0.929932,0.300598,0.204956,-0.053894,up
147621,-4.113281,5.730469,8.0,-0.380859,0.044922,0.177734,0.930237,0.299805,0.204956,-0.053223,up
147627,-4.035156,5.730469,7.964844,-0.263672,-0.021484,0.173828,0.930237,0.299805,0.204956,-0.053223,up
147633,-3.996094,5.769531,7.882812,-0.126953,-0.074219,0.179687,0.930237,0.299805,0.204956,-0.053223,up
147638,-3.921875,5.769531,7.765625,-0.126953,-0.074219,0.179687,0.930908,0.298462,0.204041,-0.051514,up
147643,-3.882813,5.769531,7.726562,-0.066406,-0.109375,0.181641,0.930908,0.298462,0.204041,-0.051514,up
147648,-3.84375,5.769531,7.699219,-0.056641,-0.119141,0.183594,0.93103,0.298401,0.203674,-0.051147,up
147654,-3.804688,5.804687,7.578125,-0.056641,-0.119141,0.183594,0.931274,0.29834,0.20282,-0.050476,up
147660,-3.726563,5.804687,7.542969,-0.056641,-0.119141,0.183594,0.931396,0.298279,0.202454,-0.050171,up
147665,-3.726563,5.769531,7.460937,-0.140625,-0.138672,0.216797,0.931396,0.298279,0.202454,-0.050171,up
147671,-3.691406,5.691406,7.382812,-0.197266,-0.144531,0.230469,0.931396,0.298279,0.202454,-0.050171,up
147677,-3.691406,5.578125,7.304687,-0.197266,-0.144531,0.230469,0.932068,0.297424,0.20105,-0.048767,up
147683,-3.652344,5.5,7.34375,-0.3125,-0.126953,0.261719,0.932068,0.297424,0.20105,-0.048767,up
147688,-3.652344,5.421875,7.347656,-0.369141,-0.113281,0.298828,0.932068,0.297424,0.20105,-0.048767,up
147693,-3.613281,5.269531,7.382812,-0.369141,-0.113281,0.298828,0.933411,0.294922,0.199219,-0.045959,up
147698,-3.574219,5.191406,7.460937,-0.369141,-0.087891,0.320313,0.933411,0.294922,0.199219,-0.045959,up
147703,-3.535156,5.15625,7.460937,-0.369141,-0.087891,0.320313,0.933777,0.294128,0.198792,-0.045105,up
147708,-3.574219,5.117187,7.464844,-0.328125,-0.050781,0.347656,0.933777,0.294128,0.198792,-0.045105,up
147713,-3.613281,5.15625,7.5,-0.328125,-0.050781,0.347656,0.934692,0.292358,0.197754,-0.042542,up
147718,-3.574219,5.15625,7.542969,-0.275391,-0.007813,0.357422,0.934692,0.292358,0.197754,-0.042542,up
147723,-3.574219,5.15625,7.503906,-0.275391,-0.007813,0.357422,0.934937,0.29187,0.197449,-0.041504,up
147728,-3.574219,5.15625,7.503906,-0.248047,0.021484,0.369141,0.934937,0.29187,0.197449,-0.041504,up
147733,-3.574219,5.230469,7.5,-0.248047,0.021484,0.369141,0.935547,0.29071,0.196838,-0.038696,up
147738,-3.535156,5.230469,7.542969,-0.253906,0.027344,0.412109,0.935547,0.29071,0.196838,-0.038696,up
147743,-3.535156,5.191406,7.582031,-0.253906,0.027344,0.412109,0.93573,0.290344,0.196594,-0.037537,up
147748,-3.535156,5.269531,7.578125,-0.259766,0.039063,0.439453,0.93573,0.290344,0.196594,-0.037537,up
147753,-3.5,5.308594,7.539062,-0.273438,0.046875,0.462891,0.93634,0.289246,0.195984,-0.034119,up
147758,-3.5,5.308594,7.578125,-0.339844,0.052734,0.501953,0.93634,0.289246,0.195984,-0.034119,up
147763,-3.535156,5.347656,7.660156,-0.339844,0.052734,0.501953,0.936646,0.288696,0.19574,-0.032654,up
147768,-3.5,5.347656,7.730469,-0.339844,0.052734,0.501953,0.937134,0.287659,0.195312,-0.030029,up
147773,-3.535156,5.347656,7.804687,-0.339844,0.052734,0.501953,0.937378,0.287048,0.195129,-0.028503,up
147778,-3.5,5.269531,7.808594,-0.339844,0.052734,0.501953,0.937378,0.287048,0.195129,-0.028503,up
147783,-3.535156,5.15625,7.84375,-0.439453,0.109375,0.560547,0.937378,0.287048,0.195129,-0.028503,up
147788,-3.5,5.117187,7.925781,-0.515625,0.140625,0.572266,0.937988,0.285645,0.194824,-0.025391,up
147794,-3.535156,5.039062,8.003906,-0.515625,0.140625,0.572266,0.93866,0.283875,0.194702,-0.022034,up
147799,-3.5,4.964844,8.226563,-0.585937,0.154297,0.572266,0.93866,0.283875,0.194702,-0.022034,up
147805,-3.574219,4.582031,8.347656,-0.585937,0.154297,0.572266,0.939331,0.281738,0.194702,-0.018677,up
147810,-3.726563,4.464844,8.308594,-0.708984,0.222656,0.541016,0.939758,0.280457,0.194824,-0.016907,up
147815,-3.804688,4.582031,8.230469,-0.767578,0.222656,0.525391,0.939758,0.280457,0.194824,-0.016907,up
147821,-3.957031,4.734375,8.464844,-0.767578,0.222656,0.525391,0.939758,0.280457,0.194824,-0.016907,up
147827,-3.921875,4.808594,8.535156,-0.767578,0.222656,0.525391,0.941101,0.275879,0.195251,-0.011719,up
147833,-3.882813,5.0,8.609375,-0.757812,0.140625,0.484375,0.941101,0.275879,0.195251,-0.011719,up
147839,-3.882813,5.269531,8.730469,-0.757812,0.140625,0.484375,0.942444,0.271179,0.195374,-0.006958,up
147844,-3.882813,5.347656,8.6875,-0.771484,0.09375,0.511719,0.942932,0.269592,0.195251,-0.005249,up
147850,-3.882813,5.804687,8.6875,-0.771484,0.09375,0.511719,0.94342,0.268066,0.195068,-0.003723,up
147856,-3.882813,5.804687,8.6875,-0.771484,0.09375,0.511719,0.94397,0.266418,0.194702,-0.001953,up
147861,-3.957031,5.769531,8.691406,-0.902344,-0.082031,0.597656,0.94397,0.266418,0.194702,-0.001953,up
147866,-3.921875,5.613281,8.570313,-0.976562,-0.136719,0.621094,0.94397,0.266418,0.194702,-0.001953,up
147871,-3.921875,5.578125,8.570313,-1.068359,-0.191406,0.628906,0.94397,0.266418,0.194702,-0.001953,up
147877,-3.957031,4.964844,8.425781,-1.068359,-0.191406,0.628906,0.94397,0.266418,0.194702,-0.001953,up
147882,-3.882813,4.617187,8.230469,-1.068359,-0.191406,0.628906,0.947632,0.25592,0.190796,0.007019,up
147888,-3.574219,4.542969,8.082031,-1.333984,-0.275391,0.482422,0.947632,0.25592,0.190796,0.007019,up
147893,-3.308594,4.464844,8.425781,-1.333984,-0.275391,0.482422,0.949524,0.250305,0.188782,0.010376,up
147898,-3.308594,4.464844,8.425781,-1.302734,-0.265625,0.435547,0.950439,0.247437,0.187805,0.011841,up
147903,-3.34375,4.234375,8.304688,-1.302734,-0.265625,0.435547,0.951355,0.244568,0.186951,0.013245,up
147908,-3.191406,3.890625,8.078125,-1.160156,-0.162109,0.308594,0.952148,0.241943,0.186279,0.014526,up
147913,-3.191406,3.890625,8.078125,-1.060547,-0.146484,0.248047,0.952881,0.239502,0.185669,0.015564,up
147918,-3.0,4.082031,7.886719,-0.980469,-0.109375,0.205078,0.952881,0.239502,0.185669,0.015564,up
147923,-3.0,4.003906,7.660156,-0.980469,-0.109375,0.205078,0.954102,0.234985,0.184814,0.017273,up
147928,-2.886719,4.160156,7.699219,-0.980469,-0.109375,0.205078,0.954651,0.232788,0.18457,0.018005,up
147933,-2.886719,4.390625,7.582031,-0.980469,-0.109375,0.205078,0.955139,0.231018,0.184448,0.018555,up
147939,-2.925781,4.542969,7.582031,-0.791016,-0.027344,0.064453,0.956116,0.227112,0.184143,0.019531,up
147944,-2.847656,4.808594,7.695312,-0.791016,-0.027344,0.064453,0.956665,0.224976,0.183899,0.019836,up
147950,-2.808594,4.734375,7.726562,-0.791016,-0.027344,0.064453,0.957214,0.222778,0.183655,0.02002,up
147955,-2.808594,4.617187,7.699219,-1.265625,-0.179687,-0.121094,0.957214,0.222778,0.183655,0.02002,up
147962,-2.734375,4.503906,7.695312,-1.464844,-0.238281,-0.167969,0.957214,0.222778,0.183655,0.02002,up
147967,-2.65625,4.195312,7.695312,-1.464844,-0.238281,-0.167969,0.959717,0.212891,0.18219,0.020386,up
147973,-2.65625,4.042969,7.695312,-1.773438,-0.373047,-0.259766,0.959717,0.212891,0.18219,0.020386,up
147978,-2.734375,4.042969,7.621094,-1.898438,-0.443359,-0.322266,0.963135,0.199524,0.179382,0.02002,up
147983,-2.65625,3.851563,7.765625,-1.898438,-0.443359,-0.322266,0.963135,0.199524,0.179382,0.02002,up
147988,-2.617188,3.699219,7.769531,-1.898438,-0.443359,-0.322266,0.964417,0.194336,0.178162,0.019653,up
147993,-2.65625,3.585938,7.730469,-2.037109,-0.675781,-0.511719,0.964417,0.194336,0.178162,0.019653,up
147998,-2.617188,3.738281,7.730469,-2.037109,-0.675781,-0.511719,0.967041,0.183838,0.175293,0.018555,up
148004,-2.578125,3.777344,7.621094,-1.929688,-0.767578,-0.595703,0.967041,0.183838,0.175293,0.018555,up
148009,-2.617188,3.8125,7.582031,-1.898438,-0.818359,-0.650391,0.969482,0.173767,0.172058,0.016846,up
148015,-2.769531,4.003906,7.464844,-1.898438,-0.818359,-0.650391,0.971802,0.164368,0.168579,0.014587,up
148020,-2.734375,4.042969,7.421875,-1.898438,-0.818359,-0.650391,0.9729,0.159485,0.166748,0.013184,up
148026,-2.734375,4.3125,7.421875,-1.898438,-0.818359,-0.650391,0.97406,0.15448,0.164795,0.011658,up
148031,-2.734375,4.3125,7.421875,-2.082031,-0.992187,-0.935547,0.975281,0.149109,0.162659,0.009827,up
148036,-2.734375,4.3125,7.421875,-2.222656,-1.039063,-1.011719,0.976501,0.143555,0.160522,0.007935,up
148041,-2.65625,4.464844,7.503906,-2.408203,-1.097656,-1.082031,0.976501,0.143555,0.160522,0.007935,up
148046,-2.65625,4.390625,7.539062,-2.408203,-1.097656,-1.082031,0.977722,0.137573,0.158264,0.00592,up
148051,-2.65625,4.390625,7.539062,-2.816406,-1.201172,-1.193359,0.980408,0.123901,0.153259,0.001526,up
148056,-2.503906,3.355469,7.660156,-2.816406,-1.201172,-1.193359,0.98175,0.11615,0.150574,-0.000854,up
148061,-2.464844,3.203125,7.699219,-3.142578,-1.316406,-1.345703,0.98175,0.11615,0.150574,-0.000854,up
148066,-2.386719,3.203125,7.726562,-3.285156,-1.367188,-1.439453,0.98175,0.11615,0.150574,-0.000854,up
148072,-2.386719,3.125,7.699219,-3.400391,-1.40625,-1.564453,0.98175,0.11615,0.150574,-0.000854,up
148077,-2.386719,2.894531,7.769531,-3.400391,-1.40625,-1.564453,0.98175,0.11615,0.150574,-0.000854,up
148083,-2.347656,2.78125,7.699219,-3.400391,-1.40625,-1.564453,0.987976,0.072693,0.135681,-0.015381,up
148088,-2.273438,2.78125,7.582031,-3.707031,-1.498047,-2.09375,0.987976,0.072693,0.135681,-0.015381,up
148093,-2.234375,2.742188,7.503906,-3.707031,-1.498047,-2.09375,0.989929,0.053223,0.129211,-0.023193,up
148098,-2.003906,2.398438,7.273437,-3.806641,-1.470703,-2.193359,0.990723,0.042908,0.125916,-0.027649,up
148103,-2.003906,2.398438,7.273437,-3.943359,-1.410156,-2.269531,0.991333,0.032654,0.122925,-0.032104,up
148108,-1.890625,2.242188,7.121094,-4.083984,-1.296875,-2.328125,0.991333,0.032654,0.122925,-0.032104,up
148113,-1.390625,1.210938,6.855469,-4.222656,-1.142578,-2.335938,0.992126,0.01062,0.117493,-0.041382,up
148119,-1.277344,0.863281,6.738281,-4.384766,-0.728516,-2.269531,0.992126,0.01062,0.117493,-0.041382,up
148124,-1.085938,0.328125,6.695312,-4.373047,-0.476562,-2.203125,0.992126,-0.012451,0.11377,-0.050537,up
148129,-1.007813,0.289063,6.660156,-4.275391,-0.208984,-2.119141,0.99176,-0.024902,0.112671,-0.055176,up
148135,-0.855469,0.289063,7.078125,-4.275391,-0.208984,-2.119141,0.990601,-0.046143,0.112488,-0.062866,up
148140,-0.96875,-0.324219,7.382812,-3.951172,0.193359,-1.855469,0.989685,-0.056885,0.11322,-0.06665,up
148146,-1.199219,-0.898437,7.503906,-3.951172,0.193359,-1.855469,0.988708,-0.067017,0.114319,-0.070129,up
148151,-1.351563,-1.320313,7.503906,-3.951172,0.193359,-1.855469,0.988708,-0.067017,0.114319,-0.070129,up
148157,-1.351563,-1.320313,7.503906,-3.228516,0.554687,-1.580078,0.986633,-0.083313,0.117554,-0.076355,up
148162,-1.351563,-1.320313,7.503906,-2.236328,0.691406,-1.349609,0.985657,-0.089661,0.119324,-0.079163,up
148167,-2.082031,-0.859375,8.886719,-2.236328,0.691406,-1.349609,0.985657,-0.089661,0.119324,-0.079163,up
148172,-2.273438,-0.476562,8.953125,-1.267578,0.810547,-1.1875,0.985657,-0.089661,0.119324,-0.079163,up
148177,-2.503906,0.25,9.296875,-1.267578,0.810547,-1.1875,0.985657,-0.089661,0.119324,-0.079163,up
148183,-2.847656,0.519531,9.417969,-0.662109,0.837891,-1.072266,0.985657,-0.089661,0.119324,-0.079163,up
148188,-2.769531,0.863281,9.414063,-0.662109,0.837891,-1.072266,0.981689,-0.105164,0.129089,-0.092896,up
148193,-2.886719,0.902344,9.457031,-0.541016,0.945312,-0.925781,0.980957,-0.106567,0.131226,-0.095398,up
148198,-3.078125,1.019531,9.265625,-0.541016,0.945312,-0.925781,0.980286,-0.108032,0.133545,-0.097656,up
148203,-3.191406,0.980469,9.300781,-0.875,1.164063,-0.8125,0.980286,-0.108032,0.133545,-0.097656,up
148209,-3.269531,0.980469,9.417969,-1.115234,1.257813,-0.75,0.980286,-0.108032,0.133545,-0.097656,up
148214,-3.421875,0.863281,9.496094,-1.353516,1.337891,-0.679687,0.97644,-0.118774,0.146362,-0.105103,up
148219,-3.574219,0.519531,9.570313,-1.353516,1.337891,-0.679687,0.975403,-0.122192,0.149841,-0.10614,up
148224,-3.84375,0.058594,9.835938,-1.353516,1.337891,-0.679687,0.975403,-0.122192,0.149841,-0.10614,up
148229,-3.957031,0.023437,10.03125,-1.802734,1.507813,-0.345703,0.975403,-0.122192,0.149841,-0.10614,up
148234,-4.265625,-0.246094,10.378906,-1.832031,1.541016,-0.224609,0.975403,-0.122192,0.149841,-0.10614,up
148239,-4.457031,-0.515625,10.484375,-1.654297,1.580078,0.003906,0.971619,-0.134399,0.162231,-0.107788,up
148244,-4.609375,-0.707031,10.523438,-1.654297,1.580078,0.003906,0.970215,-0.138489,0.166992,-0.107727,up
148249,-4.648437,-0.9375,10.605469,-1.220703,1.560547,0.140625,0.968994,-0.141846,0.171326,-0.107544,up
148254,-5.070312,-1.203125,10.722656,-1.220703,1.560547,0.140625,0.967957,-0.144348,0.175171,-0.107361,up
148259,-5.183594,-1.203125,10.800781,-0.949219,1.521484,0.179687,0.96698,-0.146362,0.179077,-0.107117,up
148264,-5.183594,-1.203125,10.800781,-0.707031,1.492188,0.185547,0.96698,-0.146362,0.179077,-0.107117,up
148270,-5.527344,-1.050781,10.757813,-0.707031,1.492188,0.185547,0.966064,-0.147827,0.182922,-0.106873,up
148275,-5.527344,-1.050781,10.757813,-0.392578,1.439453,0.179687,0.964355,-0.149414,0.190552,-0.106628,up
148280,-5.796875,-0.746094,10.800781,-0.34375,1.419922,0.169922,0.962769,-0.150208,0.197754,-0.106567,up
148286,-5.988281,-0.972656,10.796875,-0.34375,1.419922,0.169922,0.961975,-0.150757,0.201233,-0.106445,up
148291,-5.910156,-1.355469,11.367188,-0.34375,1.419922,0.169922,0.961182,-0.15155,0.204712,-0.106262,up
148296,-5.910156,-1.28125,11.21875,-0.705078,1.359375,0.222656,0.961182,-0.15155,0.204712,-0.106262,up
148301,-6.179687,-0.972656,10.835938,-0.835937,1.345703,0.267578,0.961182,-0.15155,0.204712,-0.106262,up
148307,-6.105469,-1.96875,11.328125,-0.992187,1.230469,0.328125,0.961182,-0.15155,0.204712,-0.106262,up
148312,-6.027344,-2.199219,11.289063,-1.09375,1.154297,0.40625,0.957397,-0.157532,0.218628,-0.104004,up
148317,-6.179687,-2.46875,11.222656,-1.179688,1.117188,0.519531,0.957397,-0.157532,0.218628,-0.104004,up
148323,-6.179687,-2.890625,11.0625,-1.214844,1.111328,0.636719,0.957397,-0.157532,0.218628,-0.104004,up
148329,-6.296875,-3.578125,11.0625,-0.966797,1.025391,0.902344,0.957397,-0.157532,0.218628,-0.104004,up
148334,-6.21875,-3.578125,11.140625,-0.966797,1.025391,0.902344,0.953735,-0.16571,0.231323,-0.097229,up
148339,-6.371094,-3.617188,11.105469,-0.416016,0.896484,1.140625,0.952942,-0.166992,0.234619,-0.094727,up
148344,-6.410156,-3.730469,10.988281,-0.416016,0.896484,1.140625,0.952393,-0.167419,0.237488,-0.092163,up
148349,-6.410156,-3.808594,10.90625,-0.416016,0.896484,1.140625,0.952087,-0.167175,0.23999,-0.089722,up
148355,-6.371094,-3.730469,10.835938,0.345703,0.626953,1.390625,0.952087,-0.167175,0.23999,-0.089722,up
148360,-6.332031,-3.539063,10.761719,0.345703,0.626953,1.390625,0.951965,-0.162537,0.24646,-0.081299,up
148365,-6.257812,-3.425781,10.640625,0.345703,0.626953,1.390625,0.952209,-0.160034,0.247925,-0.078613,up
148370,-6.179687,-3.617188,10.488281,0.912109,0.345703,1.601563,0.952637,-0.156738,0.24939,-0.075378,up
148375,-6.179687,-3.617188,10.453125,0.912109,0.345703,1.601563,0.953125,-0.153503,0.250549,-0.072449,up
148380,-6.105469,-3.3125,10.296875,0.912109,0.345703,1.601563,0.953674,-0.149658,0.251648,-0.069031,up
148385,-6.105469,-3.273438,10.183594,1.085938,0.154297,1.714844,0.954285,-0.145691,0.252563,-0.065552,up
148390,-6.105469,-3.121094,9.957031,1.085938,0.154297,1.714844,0.954285,-0.145691,0.252563,-0.065552,up
148395,-6.105469,-3.121094,9.957031,1.048828,0.132812,1.759766,0.954773,-0.142456,0.253296,-0.062622,up
148400,-6.179687,-2.964844,9.796875,1.009766,0.132812,1.796875,0.954773,-0.142456,0.253296,-0.062622,up
148405,-6.105469,-3.003906,9.613281,0.988281,0.140625,1.835938,0.955872,-0.135132,0.254883,-0.05542,up
148410,-6.105469,-3.003906,9.613281,0.955078,0.158203,1.863281,0.95636,-0.131592,0.255737,-0.051758,up
148415,-6.105469,-3.003906,9.339844,0.955078,0.158203,1.863281,0.956787,-0.128113,0.256592,-0.047974,up
148420,-6.066406,-3.3125,9.417969,0.955078,0.158203,1.863281,0.957581,-0.120911,0.258484,-0.040222,up
148426,-6.066406,-3.464844,9.296875,1.013672,0.205078,1.923828,0.957947,-0.11676,0.259583,-0.035828,up
148431,-6.105469,-3.464844,9.296875,1.013672,0.205078,1.923828,0.958252,-0.113281,0.260376,-0.032471,up
148436,-6.179687,-3.195313,9.339844,1.013672,0.205078,1.923828,0.958618,-0.109131,0.261292,-0.028931,up
148441,-6.105469,-2.964844,9.269531,1.429688,0.166016,1.841797,0.959045,-0.104431,0.262146,-0.025391,up
148446,-6.105469,-2.738281,9.339844,1.552734,0.134766,1.818359,0.959045,-0.104431,0.262146,-0.025391,up
148451,-6.027344,-2.429688,9.378906,1.642578,0.060547,1.798828,0.959045,-0.104431,0.262146,-0.025391,up
148457,-6.140625,-2.007813,9.226563,1.642578,0.060547,1.798828,0.960266,-0.089294,0.263977,-0.015686,up
148462,-6.257812,-1.742188,9.191406,1.654297,-0.023437,1.734375,0.960266,-0.089294,0.263977,-0.015686,up
148468,-6.21875,-1.433594,9.148438,1.599609,-0.0625,1.712891,0.960266,-0.089294,0.263977,-0.015686,up
148474,-6.179687,-1.011719,9.300781,1.599609,-0.0625,1.712891,0.960266,-0.089294,0.263977,-0.015686,up
148480,-6.140625,-0.820312,9.265625,1.310547,-0.123047,1.712891,0.960266,-0.089294,0.263977,-0.015686,up
148485,-6.21875,-0.746094,9.339844,1.310547,-0.123047,1.712891,0.962463,-0.060181,0.264587,0.003296,up
148490,-6.179687,-0.707031,9.414063,1.310547,-0.123047,1.712891,0.962708,-0.05658,0.264465,0.00647,up
148495,-6.179687,-0.707031,9.414063,1.310547,-0.123047,1.712891,0.962708,-0.05658,0.264465,0.00647,up
148500,-6.179687,-0.898437,9.226563,1.005859,-0.162109,1.822266,0.962708,-0.05658,0.264465,0.00647,up
148505,-6.179687,-0.898437,9.226563,1.039063,-0.140625,1.882813,0.963257,-0.04541,0.26416,0.0177,up
148510,-6.179687,-1.433594,9.226563,1.039063,-0.140625,1.882813,0.963257,-0.04541,0.26416,0.0177,up
148515,-6.179687,-1.433594,9.226563,1.236328,-0.123047,1.886719,0.963379,-0.041443,0.264099,0.021423,up
148536,-6.90625,0.175781,9.191406,1.322266,-0.185547,2.162109,0.963623,-0.018982,0.263367,0.041382,up
148541,-6.984375,0.367188,8.992188,1.314453,-0.205078,2.236328,0.963623,-0.018982,0.263367,0.041382,up
148546,-6.945312,0.558594,9.070313,1.314453,-0.205078,2.236328,0.963623,-0.018982,0.263367,0.041382,up
148551,-6.984375,0.558594,9.074219,1.208984,-0.189453,2.373047,0.963623,-0.018982,0.263367,0.041382,up
148557,-7.023437,0.480469,9.035156,1.173828,-0.175781,2.429688,0.963135,-0.000488,0.262329,0.060059,up
148562,-7.136719,0.441406,9.03125,1.173828,-0.175781,2.429688,0.96283,0.00415,0.262024,0.065308,up
148568,-7.253906,0.558594,9.035156,1.142578,-0.169922,2.574219,0.96283,0.00415,0.262024,0.065308,up
148573,-7.253906,0.558594,9.035156,1.166016,-0.177734,2.654297,0.962097,0.013306,0.261475,0.076172,up
148578,-7.253906,0.558594,9.035156,1.214844,-0.1875,2.736328,0.96167,0.018005,0.261169,0.081787,up
148583,-7.484375,0.828125,8.953125,1.214844,-0.1875,2.736328,0.96167,0.018005,0.261169,0.081787,up
148588,-7.558594,0.863281,8.914063,1.234375,-0.205078,2.835938,0.96167,0.018005,0.261169,0.081787,up
148594,-7.558594,0.863281,8.914063,1.261719,-0.228516,2.919922,0.9599,0.032898,0.259888,0.099915,up
148599,-7.328125,1.019531,8.648438,1.279297,-0.28125,3.03125,0.9599,0.032898,0.259888,0.099915,up
148604,-7.328125,1.324219,8.308594,1.279297,-0.28125,3.03125,0.958374,0.043274,0.258667,0.112793,up
148609,-7.40625,1.554688,8.152344,1.222656,-0.349609,3.109375,0.958374,0.043274,0.258667,0.112793,up
148614,-7.367187,1.667969,8.109375,1.222656,-0.349609,3.109375,0.956665,0.053711,0.257019,0.125916,up
148620,-7.253906,1.667969,7.804687,1.222656,-0.349609,3.109375,0.954773,0.063354,0.255066,0.139221,up
148625,-7.136719,1.785156,7.886719,1.222656,-0.349609,3.109375,0.954773,0.063354,0.255066,0.139221,up
148630,-7.097656,1.707031,7.886719,0.707031,-0.417969,3.033203,0.954773,0.063354,0.255066,0.139221,up
148635,-6.945312,1.746094,7.886719,0.707031,-0.417969,3.033203,0.952759,0.071655,0.252808,0.152466,up
148640,-6.792969,1.628906,7.886719,0.589844,-0.443359,3.015625,0.951721,0.075317,0.251465,0.159058,up
148645,-6.792969,1.628906,7.886719,0.476562,-0.488281,3.007813,0.950684,0.078674,0.25,0.16571,up
148650,-6.332031,1.324219,8.003906,0.476562,-0.488281,3.007813,0.949646,0.081909,0.248352,0.172668,up
148655,-6.332031,1.324219,8.003906,0.349609,-0.570312,3.011719,0.948608,0.0849,0.246582,0.179321,up
148661,-6.066406,1.246094,8.003906,0.349609,-0.570312,3.011719,0.94635,0.090942,0.242676,0.192993,up
148667,-5.683594,1.402344,7.964844,0.349609,-0.570312,3.011719,0.94519,0.094055,0.240723,0.199646,up
148672,-5.605469,1.59375,7.882812,0.349609,-0.570312,3.011719,0.943848,0.097412,0.238586,0.206604,up
148677,-5.453125,1.859375,7.84375,0.349609,-0.570312,3.011719,0.942566,0.100769,0.236572,0.213318,up
148682,-5.300781,2.015625,7.882812,0.503906,-0.650391,3.148438,0.942566,0.100769,0.236572,0.213318,up
148688,-5.222656,2.167969,7.769531,0.511719,-0.654297,3.195313,0.942566,0.100769,0.236572,0.213318,up
148694,-5.070312,2.398438,7.621094,0.505859,-0.652344,3.244141,0.942566,0.100769,0.236572,0.213318,up
148699,-5.03125,2.550781,7.539062,0.453125,-0.630859,3.285156,0.942566,0.100769,0.236572,0.213318,up
148705,-4.722656,2.972656,7.5,0.382813,-0.607422,3.308594,0.942566,0.100769,0.236572,0.213318,up
148710,-4.609375,3.046875,7.464844,0.382813,-0.607422,3.308594,0.932617,0.121094,0.223755,0.25592,up
148715,-4.609375,3.046875,7.464844,0.208984,-0.535156,3.289063,0.930664,0.124023,0.221558,0.263489,up
148720,-4.570312,3.007813,7.503906,0.208984,-0.535156,3.289063,0.928711,0.126587,0.219482,0.270691,up
148725,-4.570312,2.855469,7.539062,0.078125,-0.4375,3.25,0.928711,0.126587,0.219482,0.270691,up
148730,-4.570312,2.855469,7.539062,0.046875,-0.388672,3.242188,0.924561,0.131226,0.215454,0.285461,up
148735,-4.457031,3.203125,7.886719,0.046875,-0.388672,3.242188,0.922485,0.13324,0.213562,0.292725,up
148740,-4.609375,3.355469,8.078125,0.046875,-0.388672,3.242188,0.920288,0.135315,0.211731,0.299988,up
148745,-4.800781,3.238281,8.042969,0.013672,-0.34375,3.251953,0.917725,0.137512,0.209595,0.308105,up
148750,-4.800781,3.164063,8.082031,0.013672,-0.34375,3.251953,0.915344,0.139587,0.207642,0.315552,up
148756,-4.800781,3.277344,8.109375,0.160156,-0.402344,3.298828,0.915344,0.139587,0.207642,0.315552,up
148761,-4.800781,3.277344,8.109375,0.240234,-0.453125,3.339844,0.90802,0.146423,0.201965,0.336548,up
148767,-4.761719,3.546875,8.148438,0.240234,-0.453125,3.339844,0.905334,0.14917,0.199829,0.343811,up
148772,-4.6875,3.621094,8.152344,0.320313,-0.560547,3.458984,0.902405,0.152161,0.197571,0.351318,up
148777,-4.570312,3.621094,8.078125,0.320313,-0.560547,3.458984,0.899109,0.15564,0.194885,0.359802,up
148783,-4.339844,3.699219,8.003906,0.320313,-0.560547,3.458984,0.896545,0.158325,0.192749,0.366089,up
148788,-4.304687,3.699219,7.886719,0.431641,-0.714844,3.630859,0.896545,0.158325,0.192749,0.366089,up
148793,-4.304687,3.699219,7.886719,0.462891,-0.757812,3.671875,0.890015,0.165222,0.187378,0.381409,up
148798,-4.074219,3.738281,7.578125,0.462891,-0.757812,3.671875,0.890015,0.165222,0.187378,0.381409,up
148803,-3.921875,3.851563,7.382812,0.480469,-0.804687,3.742188,0.886658,0.168762,0.18457,0.388916,up
148808,-3.921875,3.851563,7.382812,0.480469,-0.804687,3.742188,0.886658,0.168762,0.18457,0.388916,up
148813,-3.726563,4.3125,6.964844,0.376953,-0.802734,3.771484,0.875732,0.179504,0.175598,0.412292,up
148818,-3.460938,4.273437,6.472656,0.376953,-0.802734,3.771484,0.87207,0.182678,0.172546,0.419922,up
148823,-3.308594,4.160156,6.582031,0.148437,-0.726562,3.753906,0.87207,0.182678,0.172546,0.419922,up
148828,-3.191406,4.082031,6.617187,0.042969,-0.701172,3.742188,0.87207,0.182678,0.172546,0.419922,up
148833,-2.769531,3.890625,6.734375,-0.046875,-0.666016,3.71875,0.87207,0.182678,0.172546,0.419922,up
148839,-2.578125,3.8125,6.894531,-0.046875,-0.666016,3.71875,0.856812,0.192749,0.159607,0.450806,up
148844,-2.386719,3.738281,7.117187,-0.185547,-0.605469,3.675781,0.856812,0.192749,0.159607,0.450806,up
148849,-2.195313,3.699219,7.464844,-0.185547,-0.605469,3.675781,0.848572,0.196533,0.152649,0.466858,up
148854,-2.121094,3.585938,7.578125,-0.185547,-0.605469,3.675781,0.848572,0.196533,0.152649,0.466858,up
148859,-2.15625,3.394531,7.660156,-0.195312,-0.554687,3.652344,0.840881,0.199646,0.146545,0.481201,up
148864,-2.15625,3.394531,7.660156,-0.138672,-0.496094,3.683594,0.836792,0.201355,0.143433,0.488586,up
148869,-2.121094,3.164063,7.578125,-0.048828,-0.515625,3.708984,0.836792,0.201355,0.143433,0.488586,up
148874,-1.851563,3.238281,7.808594,0.029297,-0.505859,3.75,0.827881,0.205078,0.13739,0.503601,up
148879,-1.8125,3.238281,7.808594,0.09375,-0.488281,3.794922,0.827881,0.205078,0.13739,0.503601,up
148885,-1.738281,3.429688,7.804687,0.09375,-0.488281,3.794922,0.818176,0.209534,0.131531,0.518982,up
148891,-1.738281,3.46875,7.84375,0.410156,-0.496094,3.908203,0.818176,0.209534,0.131531,0.518982,up
148896,-1.660156,3.46875,7.960937,0.544922,-0.517578,3.939453,0.807617,0.214844,0.126099,0.534485,up
148901,-1.46875,3.585938,8.003906,0.544922,-0.517578,3.939453,0.79657,0.221069,0.121155,0.549438,up
148906,-1.390625,3.660156,8.113281,0.544922,-0.517578,3.939453,0.791504,0.224121,0.119141,0.555969,up
148911,-1.390625,3.660156,8.078125,0.896484,-0.578125,4.058594,0.784973,0.22821,0.116699,0.564026,up
148916,-1.429688,3.738281,8.039063,0.896484,-0.578125,4.058594,0.779358,0.231812,0.114685,0.57074,up
148921,-1.429688,3.507813,8.078125,0.990234,-0.664062,4.138672,0.779358,0.231812,0.114685,0.57074,up
148927,-1.351563,3.125,8.109375,0.990234,-0.664062,4.138672,0.766724,0.239807,0.110168,0.585205,up
148932,-1.351563,3.125,8.109375,0.990234,-0.664062,4.138672,0.766724,0.239807,0.110168,0.585205,up
148937,-1.160156,3.125,8.082031,0.982422,-0.701172,4.201172,0.753357,0.248047,0.105225,0.599854,up
148942,-0.855469,3.007813,8.152344,0.982422,-0.701172,4.201172,0.753357,0.248047,0.105225,0.599854,up
148947,-0.855469,3.007813,8.152344,1.0,-0.732422,4.283203,0.746582,0.252136,0.102722,0.606995,up
148953,-0.203125,2.742188,8.53125,1.03125,-0.730469,4.322266,0.732239,0.260437,0.097595,0.621643,up
148958,0.140625,2.78125,8.382813,1.119141,-0.697266,4.400391,0.732239,0.260437,0.097595,0.621643,up
148963,0.253906,3.007813,8.464844,1.144531,-0.617187,4.462891,0.732239,0.260437,0.097595,0.621643,up
148968,0.21875,3.046875,8.570313,1.21875,-0.603516,4.525391,0.732239,0.260437,0.097595,0.621643,up
148973,0.21875,3.046875,8.570313,1.328125,-0.664062,4.597656,0.701172,0.277466,0.088318,0.650818,up
148978,0.371094,2.972656,8.726563,1.382813,-0.644531,4.646484,0.692932,0.281921,0.086121,0.65802,up
148983,0.371094,2.972656,8.726563,1.382813,-0.644531,4.646484,0.692932,0.281921,0.086121,0.65802,up
148988,0.675781,2.589844,8.503906,1.423828,-0.601562,4.679687,0.692932,0.281921,0.086121,0.65802,up
148993,0.675781,2.589844,8.503906,1.544922,-0.542969,4.736328,0.66626,0.295532,0.0802,0.679932,up
148998,1.25,2.78125,8.5,1.544922,-0.542969,4.736328,0.657104,0.30011,0.078491,0.686951,up
149003,1.519531,3.660156,8.425781,1.544922,-0.542969,4.736328,0.647705,0.305054,0.076965,0.693909,up
149008,1.480469,4.195312,8.082031,2.136719,-0.671875,4.886719,0.647705,0.305054,0.076965,0.693909,up
149013,1.136719,4.582031,7.34375,2.265625,-0.630859,4.923828,0.647705,0.305054,0.076965,0.693909,up
149018,1.214844,4.390625,7.121094,2.277344,-0.621094,4.939453,0.647705,0.305054,0.076965,0.693909,up
149024,1.40625,4.195312,7.082031,2.1875,-0.640625,4.962891,0.647705,0.305054,0.076965,0.693909,up
149030,1.789063,4.195312,7.277344,2.134766,-0.691406,5.001953,0.647705,0.305054,0.076965,0.693909,up
149035,1.789063,4.195312,7.277344,2.03125,-0.722656,4.992187,0.647705,0.305054,0.076965,0.693909,up
149041,1.789063,4.195312,7.277344,2.03125,-0.722656,4.992187,0.574036,0.343201,0.068665,0.740295,up
149046,2.09375,3.507813,7.464844,1.902344,-0.599609,4.902344,0.563354,0.347961,0.0672,0.746338,up
149051,2.09375,3.507813,7.464844,1.902344,-0.599609,4.902344,0.55249,0.352478,0.06543,0.752441,up
149056,2.515625,3.316406,7.386719,1.902344,-0.599609,4.902344,0.542114,0.356506,0.063599,0.758301,up
149061,2.515625,3.125,7.539062,1.902344,-0.599609,4.902344,0.520142,0.36499,0.059265,0.769897,up
149066,2.859375,3.085938,7.5,1.902344,-0.599609,4.902344,0.520142,0.36499,0.059265,0.769897,up
149071,2.976563,3.164063,7.503906,1.902344,-0.599609,4.902344,0.509155,0.369263,0.057007,0.77533,up
149076,2.976563,3.164063,7.503906,1.701172,-0.761719,4.861328,0.499268,0.373169,0.055054,0.780029,up
149081,3.011719,3.125,7.503906,1.716797,-0.787109,4.917969,0.499268,0.373169,0.055054,0.780029,up
149086,2.859375,3.316406,7.421875,1.78125,-0.791016,5.001953,0.477173,0.381714,0.050659,0.789917,up
149091,2.859375,3.316406,7.421875,1.78125,-0.791016,5.001953,0.477173,0.381714,0.050659,0.789917,up
149096,2.976563,3.277344,7.421875,1.865234,-0.880859,5.097656,0.477173,0.381714,0.050659,0.789917,up
149102,3.359375,2.894531,7.234375,2.011719,-0.810547,5.302734,0.477173,0.381714,0.050659,0.789917,up
149108,3.78125,1.898438,6.960937,2.011719,-0.810547,5.302734,0.415894,0.404358,0.039551,0.813599,up
149113,3.78125,1.898438,6.960937,1.984375,-0.884766,5.396484,0.402161,0.408997,0.037109,0.818298,up
149118,3.78125,1.898438,6.960937,1.998047,-0.845703,5.382812,0.389771,0.413086,0.034912,0.822327,up
149123,4.546875,1.402344,6.511719,1.998047,-0.845703,5.382812,0.389771,0.413086,0.034912,0.822327,up
149128,4.777344,1.746094,6.394531,1.955078,-0.806641,5.328125,0.363647,0.421143,0.030334,0.830383,up
149133,4.777344,1.746094,6.394531,1.955078,-0.806641,5.328125,0.363647,0.421143,0.030334,0.830383,up
149138,5.082031,1.515625,6.578125,1.902344,-0.8125,5.208984,0.338257,0.428406,0.025879,0.837463,up
149143,5.617187,1.054688,6.777344,1.902344,-0.8125,5.208984,0.325256,0.431824,0.023804,0.840942,up
149149,5.808594,1.132813,6.539062,1.994141,-0.384766,4.861328,0.325256,0.431824,0.023804,0.840942,up
149155,5.695312,1.707031,6.433594,2.123047,-0.228516,4.710937,0.325256,0.431824,0.023804,0.840942,up
149160,5.195312,2.511719,6.695312,2.554688,-0.228516,4.578125,0.325256,0.431824,0.023804,0.840942,up
149165,5.351562,2.28125,6.617187,2.554688,-0.228516,4.578125,0.275696,0.442078,0.020569,0.853333,up
149171,5.464844,2.128906,6.433594,2.824219,0.035156,4.318359,0.275696,0.442078,0.020569,0.853333,up
149176,5.464844,2.128906,6.433594,2.824219,0.035156,4.318359,0.250671,0.446594,0.022034,0.858582,up
149181,5.503906,1.820313,5.8125,2.824219,0.035156,4.318359,0.250671,0.446594,0.022034,0.858582,up
149186,5.617187,1.667969,5.855469,2.902344,0.007813,4.078125,0.225952,0.450439,0.025085,0.863403,up
149191,5.617187,1.667969,5.855469,2.902344,0.007813,4.078125,0.225952,0.450439,0.025085,0.863403,up
149196,6.191406,1.019531,6.121094,2.615234,-0.085937,3.716797,0.225952,0.450439,0.025085,0.863403,up
149201,6.121094,0.902344,6.085937,2.291016,-0.080078,3.261719,0.191956,0.455872,0.029663,0.868591,up
149206,6.082031,0.789062,5.96875,2.291016,-0.080078,3.261719,0.180847,0.457642,0.031067,0.869995,up
149211,6.082031,0.671875,5.855469,1.900391,-0.076172,2.777344,0.17157,0.459045,0.032227,0.871094,up
149217,5.925781,0.597656,5.738281,1.900391,-0.076172,2.777344,0.155762,0.461365,0.033997,0.872803,up
149222,5.847656,0.789062,5.851562,1.556641,-0.097656,2.345703,0.147766,0.462524,0.03479,0.873535,up
149227,5.886719,0.597656,5.890625,1.357422,-0.09375,2.15625,0.140991,0.463501,0.0354,0.874084,up
149232,5.960937,0.328125,5.855469,1.357422,-0.09375,2.15625,0.140991,0.463501,0.0354,0.874084,up
149237,5.960937,0.328125,5.855469,1.201172,-0.095703,2.021484,0.13562,0.464233,0.035706,0.874512,up
149242,5.925781,0.480469,5.894531,1.201172,-0.095703,2.021484,0.129883,0.465088,0.035828,0.874939,up
149247,6.15625,0.441406,6.3125,0.6875,-0.34375,1.744141,0.124695,0.466003,0.035645,0.875244,up
149252,6.15625,0.441406,6.3125,0.6875,-0.34375,1.744141,0.124695,0.466003,0.035645,0.875244,up
149257,6.613281,-0.207031,6.65625,0.445312,-0.402344,1.535156,0.115417,0.468201,0.034485,0.875366,up
149263,6.921875,-0.4375,6.542969,0.445312,-0.402344,1.535156,0.107605,0.47052,0.032654,0.875183,up
149268,7.035156,-0.628906,6.390625,0.445312,-0.402344,1.535156,0.107605,0.47052,0.032654,0.875183,up
149273,7.070312,-0.589844,6.390625,0.195312,-0.34375,1.15625,0.107605,0.47052,0.032654,0.875183,up
149278,7.070312,-0.589844,6.429687,0.144531,-0.320313,1.019531,0.107605,0.47052,0.032654,0.875183,up
149284,7.109375,-0.554687,6.390625,0.076172,-0.283203,0.884766,0.107605,0.47052,0.032654,0.875183,up
149289,6.882812,-0.476562,6.429687,0.076172,-0.283203,0.884766,0.107605,0.47052,0.032654,0.875183,up
149295,6.808594,-0.515625,6.46875,-0.050781,-0.251953,0.705078,0.092834,0.475403,0.026978,0.874451,up
149301,6.847656,-0.589844,6.542969,-0.169922,-0.251953,0.583984,0.092834,0.475403,0.026978,0.874451,up
149306,7.1875,-0.859375,6.542969,-0.210937,-0.255859,0.523437,0.090149,0.476562,0.024902,0.874146,up
149311,7.304687,-0.9375,6.621094,-0.210937,-0.255859,0.523437,0.08905,0.477173,0.023804,0.873962,up
149316,7.378906,-0.78125,6.621094,-0.259766,-0.234375,0.400391,0.088257,0.477661,0.022766,0.873779,up
149321,7.574219,-0.707031,6.542969,-0.259766,-0.234375,0.400391,0.087463,0.47821,0.021606,0.873596,up
149327,7.648437,-0.589844,6.46875,-0.259766,-0.234375,0.400391,0.086914,0.478638,0.020691,0.873413,up
149332,7.613281,-0.476562,6.429687,-0.207031,-0.240234,0.208984,0.086914,0.478638,0.020691,0.873413,up
149337,7.613281,-0.476562,6.429687,-0.201172,-0.255859,0.152344,0.085937,0.480103,0.018494,0.872803,up
149343,7.53125,-0.015625,6.316406,-0.201172,-0.255859,0.152344,0.085754,0.480652,0.017883,0.872498,up
149348,7.609375,0.023437,6.277344,-0.205078,-0.339844,0.072266,0.085693,0.481323,0.017334,0.872192,up
149353,7.691406,0.097656,6.199219,-0.203125,-0.378906,0.017578,0.085754,0.482056,0.016846,0.871765,up
149359,7.878906,0.058594,5.929687,-0.203125,-0.378906,0.017578,0.085937,0.482849,0.016418,0.871338,up
149364,7.917969,-0.015625,5.894531,-0.222656,-0.435547,-0.078125,0.085937,0.482849,0.016418,0.871338,up
149370,8.035156,0.023437,5.777344,-0.226562,-0.451172,-0.123047,0.085937,0.482849,0.016418,0.871338,up
149376,8.261719,0.058594,5.625,-0.210937,-0.441406,-0.169922,0.085937,0.482849,0.016418,0.871338,up
149381,8.300781,0.175781,5.546875,-0.193359,-0.410156,-0.205078,0.085937,0.482849,0.016418,0.871338,up
149386,8.378906,0.328125,5.433594,-0.117188,-0.304688,-0.318359,0.085937,0.482849,0.016418,0.871338,up
149391,8.335938,0.480469,5.28125,-0.117188,-0.304688,-0.318359,0.088867,0.488037,0.015076,0.868164,up
149397,8.378906,0.632812,5.203125,-0.117188,-0.304688,-0.318359,0.090271,0.489014,0.015747,0.867432,up
149402,8.417969,0.710937,5.164062,0.027344,-0.167969,-0.458984,0.090271,0.489014,0.015747,0.867432,up
149407,8.496094,0.828125,5.203125,0.027344,-0.167969,-0.458984,0.09198,0.489746,0.01709,0.866821,up
149412,8.453125,0.902344,5.089844,0.027344,-0.167969,-0.458984,0.092773,0.489929,0.018005,0.866638,up
149417,8.457031,1.054688,5.089844,0.027344,-0.167969,-0.458984,0.09375,0.490051,0.019104,0.866455,up
149422,8.300781,1.285156,5.089844,0.21875,0.009766,-0.623047,0.09375,0.490051,0.019104,0.866455,up
149427,8.113281,1.554688,5.089844,0.238281,0.037109,-0.646484,0.094788,0.490051,0.020447,0.866272,up
149432,8.03125,1.859375,5.050781,0.238281,0.037109,-0.646484,0.096619,0.48999,0.023132,0.866089,up
149437,7.875,1.976563,4.933594,0.238281,0.037109,-0.646484,0.097595,0.489868,0.024536,0.865967,up
149442,7.839844,2.089844,4.972656,0.142578,0.001953,-0.605469,0.097595,0.489868,0.024536,0.865967,up
149447,7.957031,2.207031,5.089844,0.074219,-0.070312,-0.558594,0.098633,0.489807,0.025879,0.865845,up
149452,7.957031,2.207031,5.089844,-0.007813,-0.142578,-0.5,0.100403,0.48999,0.027649,0.865479,up
149457,8.152344,2.28125,5.128906,-0.007813,-0.142578,-0.5,0.100403,0.48999,0.027649,0.865479,up
149462,8.257813,2.320313,5.128906,-0.095703,-0.189453,-0.445312,0.102356,0.490723,0.028564,0.864807,up
149468,8.53125,2.050781,5.203125,-0.095703,-0.189453,-0.445312,0.10321,0.49115,0.028625,0.864441,up
149473,8.53125,2.050781,5.203125,-0.304688,-0.279297,-0.353516,0.104248,0.491638,0.028503,0.864075,up
149478,8.683594,1.859375,5.203125,-0.304688,-0.279297,-0.353516,0.105164,0.492126,0.028259,0.863708,up
149484,8.796875,1.785156,5.242187,-0.328125,-0.251953,-0.347656,0.105164,0.492126,0.028259,0.863708,up
149489,8.839844,1.785156,5.203125,-0.296875,-0.216797,-0.365234,0.105164,0.492126,0.028259,0.863708,up
149495,8.796875,1.746094,5.242187,-0.236328,-0.171875,-0.378906,0.105164,0.492126,0.028259,0.863708,up
149500,8.800781,1.859375,5.28125,-0.169922,-0.119141,-0.414062,0.105164,0.492126,0.028259,0.863708,up
149506,8.722656,2.015625,5.355469,-0.169922,-0.119141,-0.414062,0.110779,0.493652,0.028931,0.862061,up
149511,8.644531,2.128906,5.355469,-0.169922,-0.119141,-0.414062,0.110779,0.493652,0.028931,0.862061,up
149517,8.566406,2.207031,5.242187,0.169922,0.0625,-0.498047,0.110779,0.493652,0.028931,0.862061,up
149522,8.496094,2.398438,5.320312,0.169922,0.0625,-0.498047,0.112915,0.493347,0.031921,0.861877,up
