timestamp,ax,ay,az,gx,gy,gz,qw,qx,qy,qz,label
578673,-1.652344,6.402344,7.269531,0.609375,0.224609,-0.126953,0.931458,0.335083,0.127686,0.06189,up
578678,-1.613281,6.402344,7.226562,0.609375,0.224609,-0.126953,0.931458,0.335083,0.127686,0.06189,up
578683,-1.613281,6.367187,7.226562,0.605469,0.285156,-0.152344,0.931458,0.335083,0.127686,0.06189,up
578688,-1.691406,6.402344,7.191406,0.59375,0.332031,-0.169922,0.931458,0.335083,0.127686,0.06189,up
578693,-1.765625,6.480469,7.113281,0.601562,0.369141,-0.181641,0.931458,0.335083,0.127686,0.06189,up
578698,-1.996094,6.558594,7.0,0.601562,0.369141,-0.181641,0.931458,0.335083,0.127686,0.06189,up
578704,-1.996094,6.59375,7.0,0.601562,0.369141,-0.181641,0.926636,0.345764,0.13501,0.059631,up
578709,-2.035156,6.671875,7.148437,0.591797,0.388672,-0.205078,0.926636,0.345764,0.13501,0.059631,up
578715,-2.074219,6.785156,7.082031,0.558594,0.373047,-0.216797,0.926636,0.345764,0.13501,0.059631,up
578720,-2.074219,6.863281,7.082031,0.462891,0.349609,-0.222656,0.924805,0.349426,0.13855,0.058655,up
578725,-2.113281,6.902344,7.078125,0.462891,0.349609,-0.222656,0.923828,0.351318,0.140686,0.057922,up
578730,-2.074219,6.902344,7.109375,0.462891,0.349609,-0.222656,0.923828,0.351318,0.140686,0.057922,up
578735,-2.035156,6.902344,7.152344,0.337891,0.306641,-0.234375,0.92334,0.352173,0.141785,0.057556,up
578740,-2.035156,6.902344,7.113281,0.292969,0.291016,-0.220703,0.922913,0.352905,0.142761,0.057129,up
578745,-2.074219,6.941406,7.113281,0.292969,0.291016,-0.220703,0.922607,0.353455,0.143677,0.056824,up
578750,-1.996094,6.941406,7.082031,0.150391,0.277344,-0.197266,0.922241,0.354004,0.144653,0.056458,up
578755,-1.957031,6.902344,7.039062,0.150391,0.277344,-0.197266,0.921997,0.35437,0.145447,0.056213,up
578760,-1.917969,6.902344,7.078125,0.150391,0.277344,-0.197266,0.921814,0.354553,0.146362,0.055969,up
578765,-1.84375,6.863281,7.152344,0.039063,0.3125,-0.150391,0.921814,0.354553,0.146362,0.055969,up
578770,-1.84375,6.863281,7.152344,0.039063,0.3125,-0.150391,0.921448,0.354492,0.148926,0.055908,up
578775,-1.957031,6.75,7.1875,0.039063,0.3125,-0.150391,0.921448,0.354492,0.148926,0.055908,up
578780,-1.917969,6.75,7.226562,0.013672,0.382813,-0.091797,0.921448,0.354492,0.148926,0.055908,up
578785,-1.917969,6.75,7.226562,0.033203,0.400391,-0.070312,0.921082,0.354431,0.15094,0.056152,up
578790,-2.035156,6.710937,7.226562,0.033203,0.400391,-0.070312,0.921082,0.354431,0.15094,0.056152,up
578795,-1.996094,6.671875,7.347656,0.064453,0.414062,-0.044922,0.920715,0.354492,0.152893,0.05658,up
578800,-1.996094,6.671875,7.347656,0.09375,0.414062,-0.035156,0.920715,0.354492,0.152893,0.05658,up
578805,-2.074219,6.671875,7.382812,0.09375,0.414062,-0.035156,0.920227,0.354797,0.154968,0.057129,up
578810,-2.148438,6.671875,7.308594,0.09375,0.414062,-0.035156,0.919922,0.355103,0.156006,0.057373,up
578815,-2.1875,6.632812,7.269531,0.263672,0.419922,-0.011719,0.919922,0.355103,0.156006,0.057373,up
578820,-2.226563,6.632812,7.308594,0.263672,0.419922,-0.011719,0.919128,0.356079,0.158142,0.057983,up
578825,-2.1875,6.632812,7.34375,0.263672,0.419922,-0.011719,0.918701,0.356689,0.15918,0.058228,up
578831,-2.226563,6.671875,7.347656,0.308594,0.361328,-0.017578,0.918274,0.357361,0.160217,0.058472,up
578836,-2.226563,6.710937,7.382812,0.308594,0.361328,-0.017578,0.917419,0.358643,0.161987,0.058838,up
578841,-2.1875,6.75,7.308594,0.308594,0.361328,-0.017578,0.917053,0.359253,0.162781,0.05896,up
578846,-2.148438,6.824219,7.269531,0.308594,0.361328,-0.017578,0.916626,0.359924,0.163635,0.059082,up
578851,-2.1875,6.863281,7.308594,0.302734,0.326172,-0.0625,0.916138,0.360657,0.164612,0.059143,up
578856,-2.148438,6.902344,7.230469,0.302734,0.326172,-0.0625,0.915771,0.361267,0.165466,0.059204,up
578861,-2.148438,6.941406,7.1875,0.302734,0.326172,-0.0625,0.915405,0.361694,0.16626,0.059204,up
578866,-2.113281,6.976562,7.152344,0.166016,0.337891,-0.097656,0.9151,0.362122,0.167236,0.059265,up
578872,-2.148438,7.054687,7.152344,0.097656,0.359375,-0.099609,0.914795,0.362366,0.168213,0.059326,up
578877,-2.113281,7.054687,7.082031,0.097656,0.359375,-0.099609,0.914612,0.362427,0.169067,0.059387,up
578882,-2.113281,7.054687,7.082031,-0.054687,0.427734,-0.115234,0.91449,0.362244,0.170227,0.05957,up
578888,-2.113281,7.058594,6.960937,-0.054687,0.427734,-0.115234,0.914368,0.362,0.171265,0.059753,up
578893,-2.074219,7.015625,7.0,-0.197266,0.519531,-0.109375,0.914368,0.362,0.171265,0.059753,up
578898,-2.148438,6.976562,7.003906,-0.253906,0.589844,-0.117188,0.914368,0.362,0.171265,0.059753,up
578904,-2.148438,6.9375,6.921875,-0.294922,0.660156,-0.125,0.914368,0.362,0.171265,0.059753,up
578909,-2.226563,6.898437,6.847656,-0.322266,0.734375,-0.134766,0.914368,0.362,0.171265,0.059753,up
578915,-2.53125,6.863281,6.695312,-0.322266,0.734375,-0.134766,0.914124,0.357422,0.180847,0.0625,up
578920,-2.6875,6.863281,6.617187,-0.322266,0.734375,-0.134766,0.914124,0.357422,0.180847,0.0625,up
578925,-2.914063,6.859375,6.617187,-0.347656,0.898437,-0.132812,0.914124,0.357422,0.180847,0.0625,up
578930,-3.144531,6.710937,6.730469,-0.363281,0.898437,-0.126953,0.914124,0.357422,0.180847,0.0625,up
578935,-3.222656,6.710937,6.84375,-0.363281,0.898437,-0.126953,0.913879,0.354431,0.187134,0.064514,up
578940,-3.300781,6.671875,7.039062,-0.328125,0.824219,-0.119141,0.913879,0.354431,0.187134,0.064514,up
578946,-3.335938,6.710937,7.304687,-0.294922,0.753906,-0.105469,0.913879,0.354431,0.187134,0.064514,up
578952,-3.261719,6.632812,7.269531,-0.294922,0.753906,-0.105469,0.913513,0.351135,0.194336,0.066833,up
578957,-3.183594,6.710937,7.347656,-0.132812,0.564453,-0.095703,0.913513,0.351135,0.194336,0.066833,up
578962,-3.183594,6.785156,7.421875,-0.0625,0.513672,-0.089844,0.913208,0.35022,0.197083,0.067505,up
578967,-3.144531,6.785156,7.347656,-0.0625,0.513672,-0.089844,0.912964,0.350037,0.198425,0.06781,up
578972,-3.03125,6.902344,7.304687,-0.0625,0.513672,-0.089844,0.912964,0.350037,0.198425,0.06781,up
578977,-3.03125,6.941406,7.226562,0.070312,0.433594,-0.082031,0.912964,0.350037,0.198425,0.06781,up
578982,-3.03125,6.976562,7.230469,0.074219,0.431641,-0.087891,0.912964,0.350037,0.198425,0.06781,up
578987,-2.953125,7.015625,7.152344,0.074219,0.431641,-0.087891,0.912964,0.350037,0.198425,0.06781,up
578993,-2.914063,7.015625,7.039062,0.074219,0.431641,-0.087891,0.911621,0.350159,0.204041,0.068787,up
578998,-2.914063,7.054687,7.0,0.019531,0.542969,-0.101563,0.911621,0.350159,0.204041,0.068787,up
579003,-2.953125,6.941406,7.039062,-0.019531,0.599609,-0.113281,0.911621,0.350159,0.204041,0.068787,up
579008,-2.992188,6.941406,7.0,-0.058594,0.652344,-0.125,0.911621,0.350159,0.204041,0.068787,up
579015,-3.03125,6.941406,6.769531,-0.111328,0.730469,-0.138672,0.911621,0.350159,0.204041,0.068787,up
579020,-3.335938,6.785156,6.464844,-0.148437,0.794922,-0.136719,0.911621,0.350159,0.204041,0.068787,up
579025,-3.492188,6.75,6.464844,-0.208984,0.818359,-0.15625,0.911621,0.350159,0.204041,0.068787,up
579031,-3.566406,6.714844,6.503906,-0.277344,0.808594,-0.15625,0.911621,0.350159,0.204041,0.068787,up
579037,-3.757813,6.632812,6.464844,-0.277344,0.808594,-0.15625,0.909363,0.345703,0.219727,0.072632,up
579043,-3.796875,6.59375,6.699219,-0.277344,0.808594,-0.15625,0.909241,0.344849,0.221375,0.073059,up
579049,-3.757813,6.632812,6.847656,-0.318359,0.6875,-0.177734,0.909241,0.344849,0.221375,0.073059,up
579054,-3.757813,6.671875,6.960937,-0.285156,0.626953,-0.189453,0.909241,0.344849,0.221375,0.073059,up
579060,-3.71875,6.558594,7.042969,-0.285156,0.626953,-0.189453,0.908936,0.342224,0.226257,0.074097,up
579066,-3.644531,6.632812,7.003906,-0.171875,0.519531,-0.230469,0.908936,0.342224,0.226257,0.074097,up
579071,-3.683594,6.632812,7.082031,-0.171875,0.519531,-0.230469,0.908752,0.34082,0.229187,0.074402,up
579076,-3.644531,6.671875,7.078125,-0.169922,0.470703,-0.232422,0.908752,0.34082,0.229187,0.074402,up
579081,-3.644531,6.671875,7.039062,-0.205078,0.429687,-0.228516,0.908508,0.339661,0.231628,0.074463,up
579086,-3.683594,6.632812,7.003906,-0.205078,0.429687,-0.228516,0.908447,0.338318,0.233948,0.074463,up
579091,-3.644531,6.671875,6.960937,-0.205078,0.429687,-0.228516,0.908447,0.338318,0.233948,0.074463,up
579096,-3.605469,6.671875,6.921875,-0.205078,0.429687,-0.228516,0.908447,0.336609,0.236267,0.074585,up
579101,-3.605469,6.59375,6.925781,-0.205078,0.429687,-0.228516,0.908447,0.336609,0.236267,0.074585,up
579106,-3.644531,6.519531,6.886719,-0.333984,0.470703,-0.212891,0.908447,0.336609,0.236267,0.074585,up
579112,-3.757813,6.402344,6.730469,-0.333984,0.470703,-0.212891,0.908569,0.333862,0.239746,0.075012,up
579117,-3.835938,6.328125,6.695312,-0.291016,0.466797,-0.210937,0.908569,0.332825,0.241089,0.075195,up
579122,-3.949219,6.25,6.726562,-0.255859,0.423828,-0.220703,0.908569,0.332825,0.241089,0.075195,up
579127,-3.949219,6.25,6.726562,-0.255859,0.423828,-0.220703,0.908508,0.332153,0.242065,0.075256,up
579132,-3.988281,6.136719,6.808594,-0.224609,0.369141,-0.230469,0.908508,0.332153,0.242065,0.075256,up
579137,-3.988281,6.136719,6.808594,-0.175781,0.341797,-0.244141,0.908508,0.330688,0.244141,0.075195,up
579142,-3.988281,6.097656,6.726562,-0.175781,0.341797,-0.244141,0.908447,0.330139,0.245056,0.075012,up
579147,-3.949219,6.058594,6.769531,-0.056641,0.248047,-0.263672,0.908447,0.329773,0.24585,0.074707,up
579152,-3.988281,6.136719,6.769531,0.0,0.207031,-0.259766,0.908264,0.329346,0.247253,0.073975,up
579158,-3.949219,6.25,6.808594,0.0,0.207031,-0.259766,0.908142,0.329407,0.247803,0.073486,up
579163,-3.988281,6.328125,6.847656,0.099609,0.087891,-0.220703,0.908142,0.329407,0.247803,0.073486,up
579169,-3.949219,6.367187,6.769531,0.099609,0.087891,-0.220703,0.907898,0.329529,0.248657,0.072571,up
579174,-3.949219,6.441406,6.730469,0.103516,0.048828,-0.181641,0.907898,0.329529,0.248657,0.072571,up
579179,-3.949219,6.441406,6.695312,0.085937,0.048828,-0.162109,0.907898,0.329529,0.248657,0.072571,up
579184,-3.949219,6.480469,6.695312,0.083984,0.042969,-0.134766,0.907898,0.329529,0.248657,0.072571,up
579190,-3.910156,6.441406,6.699219,0.083984,0.042969,-0.134766,0.907593,0.329956,0.249756,0.071228,up
579195,-3.988281,6.402344,6.621094,0.066406,0.044922,-0.109375,0.907593,0.329956,0.249756,0.071228,up
579200,-3.949219,6.480469,6.621094,0.070312,0.046875,-0.099609,0.907593,0.329956,0.249756,0.071228,up
579206,-3.910156,6.402344,6.621094,0.080078,0.044922,-0.087891,0.907227,0.330383,0.25061,0.070435,up
579211,-3.949219,6.402344,6.617187,0.080078,0.044922,-0.087891,0.907227,0.330383,0.25061,0.070435,up
579216,-3.949219,6.402344,6.578125,0.101563,0.060547,-0.091797,0.907227,0.330383,0.25061,0.070435,up
579221,-3.910156,6.441406,6.5,0.101563,0.060547,-0.091797,0.907043,0.330627,0.251099,0.070068,up
579227,-3.949219,6.367187,6.5,0.111328,0.060547,-0.091797,0.906799,0.330994,0.251587,0.069702,up
579232,-3.910156,6.402344,6.421875,0.107422,0.064453,-0.087891,0.906677,0.331177,0.251831,0.069519,up
579237,-4.027344,6.402344,6.421875,0.107422,0.064453,-0.087891,0.906555,0.331421,0.252075,0.069336,up
579242,-3.988281,6.4375,6.347656,0.107422,0.064453,-0.087891,0.906433,0.331543,0.252319,0.069153,up
579247,-3.988281,6.4375,6.386719,0.085937,0.066406,-0.078125,0.906311,0.331726,0.252563,0.06897,up
579253,-4.027344,6.476562,6.347656,0.085937,0.066406,-0.078125,0.90625,0.331848,0.252808,0.068909,up
579258,-3.988281,6.554687,6.425781,0.085937,0.066406,-0.078125,0.906128,0.331909,0.253052,0.068787,up
579264,-4.027344,6.558594,6.386719,0.056641,0.064453,-0.060547,0.906067,0.332031,0.253235,0.068726,up
579270,-4.066406,6.554687,6.386719,0.054687,0.070312,-0.0625,0.906067,0.332031,0.253235,0.068726,up
579276,-4.101562,6.59375,6.464844,0.066406,0.068359,-0.050781,0.906067,0.332031,0.253235,0.068726,up
579281,-4.140625,6.597656,6.386719,0.052734,0.072266,-0.052734,0.906067,0.332031,0.253235,0.068726,up
579286,-4.179687,6.636719,6.3125,0.03125,0.072266,-0.052734,0.906067,0.332031,0.253235,0.068726,up
579291,-4.140625,6.554687,6.386719,0.03125,0.072266,-0.052734,0.905579,0.332397,0.254395,0.06842,up
579296,-4.140625,6.554687,6.464844,0.03125,0.072266,-0.052734,0.905518,0.332397,0.254578,0.06842,up
579302,-4.140625,6.554687,6.386719,-0.005859,0.046875,-0.029297,0.905518,0.332397,0.254578,0.06842,up
579308,-4.101562,6.558594,6.386719,0.001953,0.037109,-0.017578,0.905457,0.332336,0.254944,0.068542,up
579314,-4.140625,6.519531,6.425781,0.001953,0.037109,-0.017578,0.905396,0.332336,0.255066,0.068604,up
579319,-4.140625,6.515625,6.386719,0.009766,0.033203,0.001953,0.905396,0.332336,0.255066,0.068604,up
579325,-4.140625,6.515625,6.386719,0.011719,0.03125,0.007813,0.905396,0.332336,0.255066,0.068604,up
579330,-4.066406,6.480469,6.347656,0.011719,0.03125,0.007813,0.905396,0.332336,0.255066,0.068604,up
579336,-4.066406,6.480469,6.386719,0.011719,0.03125,0.007813,0.905273,0.332458,0.255371,0.068909,up
579342,-4.066406,6.480469,6.347656,0.050781,0.029297,0.005859,0.905273,0.332458,0.255371,0.068909,up
579347,-4.066406,6.480469,6.3125,0.050781,0.029297,0.005859,0.905029,0.332764,0.255676,0.069092,up
579352,-4.027344,6.476562,6.347656,0.0625,0.056641,0.003906,0.904968,0.332947,0.255798,0.069153,up
579357,-4.066406,6.480469,6.347656,0.0625,0.056641,0.003906,0.904968,0.332947,0.255798,0.069153,up
579362,-4.027344,6.519531,6.386719,0.070312,0.085937,-0.005859,0.904968,0.332947,0.255798,0.069153,up
579367,-4.066406,6.515625,6.3125,0.070312,0.085937,-0.005859,0.904602,0.333374,0.256409,0.069336,up
579372,-4.066406,6.519531,6.273437,0.066406,0.115234,-0.003906,0.904602,0.333374,0.256409,0.069336,up
579377,-4.101562,6.515625,6.273437,0.066406,0.115234,-0.003906,0.904358,0.333618,0.257019,0.069519,up
579382,-4.101562,6.519531,6.3125,0.050781,0.126953,0.003906,0.904358,0.333618,0.257019,0.069519,up
579387,-4.066406,6.515625,6.3125,0.050781,0.126953,0.003906,0.904053,0.333801,0.257568,0.069763,up
579392,-4.101562,6.558594,6.3125,0.050781,0.126953,0.003906,0.904053,0.333801,0.257568,0.069763,up
579397,-4.101562,6.519531,6.3125,0.060547,0.158203,0.001953,0.904053,0.333801,0.257568,0.069763,up
579402,-4.101562,6.558594,6.3125,0.060547,0.158203,0.001953,0.903625,0.334106,0.258728,0.070129,up
579408,-4.101562,6.554687,6.273437,0.060547,0.158203,0.001953,0.903442,0.334229,0.259094,0.070312,up
579413,-4.101562,6.558594,6.3125,0.078125,0.193359,0.007813,0.903442,0.334229,0.259094,0.070312,up
579419,-4.066406,6.558594,6.234375,0.087891,0.208984,0.009766,0.903442,0.334229,0.259094,0.070312,up
579424,-4.140625,6.554687,6.195312,0.087891,0.208984,0.009766,0.902771,0.334717,0.260559,0.070862,up
579430,-4.140625,6.554687,6.195312,0.083984,0.232422,0.019531,0.902771,0.334717,0.260559,0.070862,up
579436,-4.179687,6.59375,6.234375,0.074219,0.242187,0.025391,0.902771,0.334717,0.260559,0.070862,up
579441,-4.179687,6.632812,6.15625,0.0625,0.257813,0.029297,0.902771,0.334717,0.260559,0.070862,up
579446,-4.140625,6.636719,6.195312,0.048828,0.273438,0.039063,0.902771,0.334717,0.260559,0.070862,up
579452,-4.179687,6.671875,6.195312,0.039063,0.310547,0.048828,0.902771,0.334717,0.260559,0.070862,up
579457,-4.140625,6.59375,6.15625,0.039063,0.310547,0.048828,0.901123,0.33551,0.264771,0.072998,up
579463,-4.140625,6.597656,6.121094,0.03125,0.355469,0.054687,0.900818,0.335571,0.265503,0.073425,up
579468,-4.179687,6.554687,6.082031,0.023437,0.376953,0.066406,0.900513,0.335571,0.266357,0.073975,up
579473,-4.257812,6.558594,6.003906,0.023437,0.376953,0.066406,0.900208,0.335571,0.267212,0.074463,up
579479,-4.257812,6.519531,5.964844,0.023437,0.376953,0.066406,0.899963,0.335571,0.267944,0.074951,up
579484,-4.257812,6.519531,6.042969,-0.041016,0.412109,0.074219,0.899719,0.335449,0.26886,0.075562,up
579490,-4.257812,6.519531,6.042969,-0.048828,0.410156,0.078125,0.899719,0.335449,0.26886,0.075562,up
579495,-4.292969,6.519531,6.082031,-0.048828,0.410156,0.078125,0.899719,0.335449,0.26886,0.075562,up
579500,-4.292969,6.558594,6.082031,-0.048828,0.410156,0.078125,0.898926,0.335083,0.271484,0.077332,up
579505,-4.332031,6.519531,6.042969,-0.03125,0.439453,0.074219,0.898926,0.335083,0.271484,0.077332,up
579510,-4.332031,6.558594,6.042969,-0.021484,0.451172,0.074219,0.898926,0.335083,0.271484,0.077332,up
579515,-4.332031,6.519531,6.003906,-0.021484,0.451172,0.074219,0.898926,0.335083,0.271484,0.077332,up
579520,-4.410156,6.519531,5.964844,-0.021484,0.451172,0.074219,0.897705,0.334656,0.27533,0.079773,up
579526,-4.410156,6.558594,6.003906,-0.046875,0.492187,0.068359,0.897705,0.334656,0.27533,0.079773,up
579531,-4.410156,6.558594,5.964844,-0.056641,0.496094,0.066406,0.897034,0.33429,0.277466,0.081055,up
579536,-4.449219,6.554687,6.042969,-0.056641,0.496094,0.066406,0.896729,0.334106,0.278503,0.081726,up
579542,-4.488281,6.558594,6.003906,-0.113281,0.53125,0.066406,0.896729,0.334106,0.278503,0.081726,up
579547,-4.523437,6.480469,5.964844,-0.113281,0.53125,0.066406,0.895813,0.333191,0.28186,0.083862,up
579552,-4.5625,6.476562,5.964844,-0.113281,0.53125,0.066406,0.895813,0.333191,0.28186,0.083862,up
579557,-4.601562,6.4375,5.964844,-0.136719,0.546875,0.078125,0.895813,0.333191,0.28186,0.083862,up
579562,-4.640625,6.4375,5.890625,-0.150391,0.525391,0.064453,0.895813,0.333191,0.28186,0.083862,up
579567,-4.679687,6.398437,6.042969,-0.150391,0.525391,0.064453,0.894958,0.332031,0.285278,0.086121,up
579572,-4.640625,6.398437,6.082031,-0.160156,0.462891,0.046875,0.894958,0.332031,0.285278,0.086121,up
579577,-4.679687,6.371094,6.121094,-0.160156,0.462891,0.046875,0.89447,0.331177,0.287415,0.087585,up
579582,-4.640625,6.367187,6.15625,-0.113281,0.408203,0.041016,0.894226,0.33075,0.288391,0.088196,up
579588,-4.640625,6.367187,6.15625,-0.095703,0.384766,0.025391,0.89386,0.330139,0.289978,0.089233,up
579593,-4.601562,6.332031,6.15625,-0.080078,0.355469,0.025391,0.893616,0.329834,0.290894,0.089722,up
579598,-4.640625,6.292969,6.195312,-0.080078,0.355469,0.025391,0.893433,0.329651,0.291504,0.090088,up
579604,-4.601562,6.292969,6.15625,-0.080078,0.355469,0.025391,0.89325,0.329468,0.292175,0.090515,up
579609,-4.5625,6.289062,6.121094,-0.072266,0.279297,0.025391,0.893066,0.329224,0.292847,0.090881,up
579614,-4.601562,6.292969,6.15625,-0.074219,0.251953,0.03125,0.892944,0.329041,0.293396,0.091248,up
579619,-4.5625,6.253906,6.15625,-0.074219,0.251953,0.03125,0.892761,0.328796,0.293945,0.091675,up
579625,-4.601562,6.25,6.042969,-0.074219,0.251953,0.03125,0.8927,0.328613,0.294373,0.09198,up
579631,-4.601562,6.289062,6.042969,-0.078125,0.212891,0.033203,0.8927,0.328613,0.294373,0.09198,up
579637,-4.640625,6.253906,6.195312,-0.070312,0.203125,0.03125,0.8927,0.328613,0.294373,0.09198,up
579642,-4.640625,6.332031,6.195312,-0.039063,0.185547,0.039063,0.892334,0.328064,0.295715,0.093018,up
579647,-4.640625,6.292969,6.195312,-0.039063,0.185547,0.039063,0.89209,0.327881,0.296509,0.093628,up
579652,-4.601562,6.332031,6.273437,-0.039063,0.185547,0.039063,0.89209,0.327881,0.296509,0.093628,up
579657,-4.640625,6.328125,6.273437,0.025391,0.181641,0.017578,0.89209,0.327881,0.296509,0.093628,up
579662,-4.601562,6.332031,6.273437,0.025391,0.181641,0.017578,0.891785,0.32782,0.297302,0.094116,up
579667,-4.5625,6.332031,6.234375,0.060547,0.177734,0.001953,0.891602,0.327881,0.297729,0.094299,up
579672,-4.5625,6.332031,6.234375,0.060547,0.177734,0.001953,0.891418,0.327942,0.298157,0.094482,up
579677,-4.5625,6.332031,6.234375,0.050781,0.1875,-0.007813,0.891235,0.328003,0.298584,0.094604,up
579682,-4.601562,6.328125,6.195312,0.050781,0.1875,-0.007813,0.891052,0.328125,0.299011,0.094727,up
579688,-4.5625,6.367187,6.195312,0.039063,0.1875,-0.001953,0.890686,0.328186,0.299805,0.095032,up
579694,-4.601562,6.402344,6.195312,0.039063,0.1875,-0.001953,0.890564,0.328186,0.300293,0.095215,up
579699,-4.640625,6.367187,6.15625,-0.003906,0.193359,-0.003906,0.890564,0.328186,0.300293,0.095215,up
579704,-4.601562,6.398437,6.15625,-0.005859,0.210937,-0.015625,0.890259,0.328064,0.301147,0.095642,up
579709,-4.601562,6.402344,6.121094,-0.005859,0.210937,-0.015625,0.890076,0.327942,0.301758,0.095825,up
579716,-4.5625,6.371094,6.15625,-0.005859,0.210937,-0.015625,0.890076,0.327942,0.301758,0.095825,up
579721,-4.601562,6.371094,6.15625,-0.001953,0.244141,-0.021484,0.890076,0.327942,0.301758,0.095825,up
579726,-4.640625,6.371094,6.121094,-0.003906,0.257813,-0.017578,0.890076,0.327942,0.301758,0.095825,up
579732,-4.640625,6.398437,6.042969,-0.003906,0.257813,-0.017578,0.890076,0.327942,0.301758,0.095825,up
579738,-4.679687,6.398437,6.082031,0.015625,0.28125,-0.015625,0.890076,0.327942,0.301758,0.095825,up
579743,-4.679687,6.398437,6.082031,0.015625,0.28125,-0.015625,0.888672,0.327454,0.305908,0.097351,up
579749,-4.714844,6.476562,6.082031,0.015625,0.28125,-0.015625,0.888428,0.327454,0.30658,0.097595,up
579754,-4.714844,6.480469,6.15625,0.017578,0.298828,-0.013672,0.888184,0.327393,0.307251,0.097778,up
579759,-4.753906,6.476562,6.121094,0.023437,0.300781,-0.003906,0.888184,0.327393,0.307251,0.097778,up
579765,-4.753906,6.558594,6.121094,0.023437,0.300781,-0.003906,0.887634,0.327332,0.308594,0.098328,up
579771,-4.832031,6.554687,6.15625,0.017578,0.310547,0.0,0.887634,0.327332,0.308594,0.098328,up
579776,-4.792969,6.558594,6.195312,0.013672,0.306641,0.003906,0.887634,0.327332,0.308594,0.098328,up
579781,-4.753906,6.515625,6.15625,0.001953,0.308594,0.013672,0.887634,0.327332,0.308594,0.098328,up
579786,-4.832031,6.476562,6.082031,0.001953,0.308594,0.013672,0.887634,0.327332,0.308594,0.098328,up
579791,-4.832031,6.476562,6.121094,0.005859,0.306641,0.029297,0.887634,0.327332,0.308594,0.098328,up
579796,-4.832031,6.476562,6.121094,-0.009766,0.296875,0.046875,0.887634,0.327332,0.308594,0.098328,up
579802,-4.90625,6.480469,6.082031,-0.009766,0.296875,0.041016,0.887634,0.327332,0.308594,0.098328,up
579808,-4.871094,6.480469,6.15625,-0.021484,0.291016,0.056641,0.885376,0.326782,0.314575,0.101501,up
579813,-4.871094,6.476562,6.195312,-0.019531,0.279297,0.054687,0.885376,0.326782,0.314575,0.101501,up
579818,-4.832031,6.441406,6.234375,-0.019531,0.279297,0.054687,0.884949,0.32666,0.315735,0.102356,up
579823,-4.832031,6.398437,6.15625,-0.019531,0.279297,0.054687,0.884705,0.32666,0.316284,0.102661,up
579828,-4.832031,6.398437,6.15625,0.035156,0.259766,0.037109,0.884705,0.32666,0.316284,0.102661,up
579833,-4.832031,6.4375,6.195312,0.041016,0.248047,0.027344,0.88446,0.32666,0.316956,0.103027,up
579838,-4.792969,6.398437,6.15625,0.041016,0.248047,0.027344,0.883972,0.326782,0.317993,0.103516,up
579843,-4.792969,6.367187,6.195312,0.058594,0.234375,0.025391,0.883972,0.326782,0.317993,0.103516,up
579848,-4.792969,6.367187,6.121094,0.058594,0.234375,0.025391,0.883484,0.326965,0.319031,0.104004,up
579853,-4.792969,6.371094,6.15625,0.058594,0.234375,0.025391,0.883179,0.327087,0.31958,0.104248,up
579858,-4.792969,6.332031,6.15625,0.058594,0.234375,0.025391,0.882996,0.327209,0.319946,0.104431,up
579863,-4.792969,6.328125,6.082031,0.064453,0.193359,0.037109,0.882996,0.327209,0.319946,0.104431,up
579868,-4.792969,6.367187,6.082031,0.064453,0.193359,0.037109,0.882751,0.327332,0.320435,0.104675,up
579873,-4.792969,6.367187,6.082031,0.070312,0.181641,0.037109,0.882751,0.327332,0.320435,0.104675,up
579878,-4.792969,6.367187,6.082031,0.070312,0.167969,0.048828,0.882324,0.327576,0.321228,0.105103,up
579883,-4.832031,6.402344,6.042969,0.070312,0.167969,0.048828,0.881897,0.32782,0.321899,0.10553,up
579888,-4.832031,6.4375,6.121094,0.070312,0.167969,0.048828,0.881897,0.32782,0.321899,0.10553,up
579893,-4.792969,6.441406,6.15625,0.070312,0.167969,0.048828,0.881409,0.328247,0.322693,0.105896,up
579898,-4.792969,6.398437,6.15625,0.070312,0.167969,0.048828,0.881226,0.32843,0.322998,0.106079,up
579903,-4.753906,6.4375,6.121094,0.070312,0.167969,0.048828,0.881226,0.32843,0.322998,0.106079,up
579908,-4.832031,6.480469,6.15625,0.138672,0.179687,0.035156,0.881226,0.32843,0.322998,0.106079,up
579914,-4.832031,6.515625,6.15625,0.138672,0.179687,0.035156,0.880371,0.329285,0.32428,0.106506,up
579919,-4.832031,6.480469,6.15625,0.132812,0.181641,0.054687,0.880127,0.329529,0.324646,0.106689,up
579924,-4.832031,6.480469,6.15625,0.119141,0.1875,0.0625,0.879822,0.329834,0.325073,0.106934,up
579929,-4.871094,6.519531,6.195312,0.119141,0.1875,0.0625,0.879822,0.329834,0.325073,0.106934,up
579935,-4.871094,6.519531,6.195312,0.113281,0.193359,0.066406,0.879333,0.330322,0.325867,0.107361,up
579940,-4.832031,6.515625,6.234375,0.113281,0.193359,0.066406,0.879333,0.330322,0.325867,0.107361,up
579945,-4.832031,6.515625,6.234375,0.121094,0.175781,0.085937,0.878784,0.330872,0.326538,0.10791,up
579950,-4.832031,6.480469,6.234375,0.121094,0.175781,0.085937,0.878479,0.331177,0.326843,0.108154,up
579956,-4.792969,6.441406,6.234375,0.144531,0.166016,0.089844,0.878479,0.331177,0.326843,0.108154,up
579961,-4.753906,6.476562,6.195312,0.164062,0.15625,0.091797,0.878479,0.331177,0.326843,0.108154,up
579966,-4.792969,6.476562,6.121094,0.164062,0.15625,0.091797,0.877625,0.332336,0.327881,0.108948,up
579971,-4.792969,6.476562,6.042969,0.210937,0.164062,0.087891,0.877625,0.332336,0.327881,0.108948,up
579976,-4.871094,6.558594,6.042969,0.228516,0.158203,0.091797,0.877625,0.332336,0.327881,0.108948,up
579981,-4.871094,6.59375,6.082031,0.261719,0.136719,0.097656,0.877625,0.332336,0.327881,0.108948,up
579986,-4.945312,6.632812,6.195312,0.261719,0.136719,0.097656,0.877625,0.332336,0.327881,0.108948,up
579992,-4.945312,6.671875,6.234375,0.261719,0.136719,0.097656,0.875854,0.335205,0.329346,0.10968,up
579997,-4.984375,6.710937,6.273437,0.337891,0.068359,0.111328,0.875854,0.335205,0.329346,0.10968,up
580002,-4.945312,6.785156,6.3125,0.337891,0.068359,0.111328,0.875854,0.335205,0.329346,0.10968,up
580007,-4.984375,6.824219,6.3125,0.337891,0.068359,0.111328,0.874695,0.337769,0.329834,0.109863,up
580013,-4.945312,6.863281,6.3125,0.4375,0.017578,0.128906,0.874695,0.337769,0.329834,0.109863,up
580018,-4.871094,6.898437,6.273437,0.4375,0.017578,0.128906,0.873413,0.340759,0.330017,0.109802,up
580023,-4.90625,6.9375,6.234375,0.425781,-0.003906,0.130859,0.873413,0.340759,0.330017,0.109802,up
580028,-4.90625,7.019531,6.234375,0.425781,-0.003906,0.130859,0.873047,0.341797,0.330017,0.109802,up
580033,-4.90625,7.097656,6.195312,0.394531,-0.007813,0.136719,0.873047,0.341797,0.330017,0.109802,up
580038,-4.90625,7.097656,6.195312,0.394531,-0.007813,0.136719,0.871948,0.344604,0.330017,0.109802,up
580043,-4.90625,7.203125,6.082031,0.394531,-0.007813,0.136719,0.871948,0.344604,0.330017,0.109802,up
580048,-4.90625,7.28125,6.042969,0.277344,-0.007813,0.134766,0.871948,0.344604,0.330017,0.109802,up
580053,-4.90625,7.398437,6.121094,0.232422,0.003906,0.134766,0.871948,0.344604,0.330017,0.109802,up
580058,-4.90625,7.4375,6.15625,0.132812,0.001953,0.144531,0.871155,0.346619,0.329895,0.110168,up
580063,-4.90625,7.402344,6.15625,0.085937,0.005859,0.150391,0.870972,0.347107,0.329773,0.110413,up
580068,-4.945312,7.402344,6.121094,0.085937,0.005859,0.150391,0.87085,0.347412,0.329712,0.110657,up
580073,-4.984375,7.402344,6.273437,0.001953,-0.056641,0.199219,0.870728,0.347717,0.32959,0.111023,up
580078,-4.945312,7.320312,6.3125,0.001953,-0.056641,0.199219,0.870667,0.3479,0.329346,0.111328,up
580083,-4.984375,7.28125,6.386719,0.001953,-0.056641,0.199219,0.870728,0.348083,0.328979,0.111816,up
580089,-4.984375,7.164062,6.464844,-0.048828,-0.15625,0.267578,0.870728,0.348083,0.328979,0.111816,up
580095,-5.023437,7.203125,6.464844,-0.048828,-0.15625,0.267578,0.870972,0.348572,0.327148,0.113342,up
580100,-4.984375,7.242187,6.503906,-0.023437,-0.289063,0.361328,0.871155,0.348877,0.326233,0.113953,up
580106,-4.984375,7.324219,6.464844,0.005859,-0.322266,0.382813,0.871155,0.348877,0.326233,0.113953,up
580111,-4.90625,7.398437,6.503906,0.005859,-0.322266,0.382813,0.871399,0.34967,0.324158,0.115112,up
580116,-4.832031,7.515625,6.539062,0.085937,-0.369141,0.392578,0.871399,0.34967,0.324158,0.115112,up
580121,-4.792969,7.585937,6.425781,0.101563,-0.371094,0.386719,0.871399,0.34967,0.324158,0.115112,up
580126,-4.753906,7.625,6.425781,0.097656,-0.363281,0.386719,0.871399,0.34967,0.324158,0.115112,up
580131,-4.679687,7.707031,6.425781,0.097656,-0.363281,0.386719,0.871399,0.34967,0.324158,0.115112,up
580137,-4.679687,7.703125,6.386719,0.097656,-0.363281,0.386719,0.871948,0.3526,0.318726,0.117676,up
580143,-4.523437,7.625,6.464844,-0.072266,-0.238281,0.408203,0.871948,0.3526,0.318726,0.117676,up
580149,-4.523437,7.554687,6.503906,-0.171875,-0.171875,0.412109,0.872375,0.352905,0.316162,0.120239,up
580154,-4.449219,7.476562,6.578125,-0.351563,-0.03125,0.414062,0.872559,0.3526,0.315552,0.121399,up
580159,-4.449219,7.242187,6.730469,-0.351563,-0.03125,0.414062,0.872803,0.352051,0.315002,0.122742,up
580164,-4.410156,7.097656,6.769531,-0.351563,-0.03125,0.414062,0.872986,0.351501,0.314697,0.12384,up
580169,-4.449219,6.941406,6.886719,-0.496094,0.123047,0.404297,0.872986,0.351501,0.314697,0.12384,up
580174,-4.449219,6.902344,6.960937,-0.496094,0.123047,0.404297,0.873413,0.349854,0.314148,0.12677,up
580179,-4.523437,6.710937,7.226562,-0.496094,0.123047,0.404297,0.873535,0.348999,0.314087,0.128296,up
580184,-4.5625,6.671875,7.425781,-0.496094,0.123047,0.404297,0.873596,0.348328,0.314148,0.129456,up
580189,-4.5625,6.671875,7.570312,-0.296875,0.275391,0.333984,0.873596,0.348328,0.314148,0.129456,up
580194,-4.640625,6.75,7.726562,-0.296875,0.275391,0.333984,0.873474,0.347351,0.314575,0.132019,up
580200,-4.792969,6.976562,7.914062,-0.296875,0.275391,0.333984,0.873291,0.347168,0.31488,0.133057,up
580205,-4.832031,7.054687,7.917969,-0.052734,0.300781,0.294922,0.872986,0.347168,0.315247,0.134033,up
580210,-4.90625,7.132812,7.917969,-0.015625,0.285156,0.287109,0.872986,0.347168,0.315247,0.134033,up
580216,-4.984375,7.324219,7.992187,0.013672,0.267578,0.289063,0.872986,0.347168,0.315247,0.134033,up
580221,-4.984375,7.324219,7.992187,0.019531,0.253906,0.292969,0.87207,0.347473,0.316284,0.13678,up
580226,-5.0625,7.589844,7.914062,0.019531,0.253906,0.292969,0.871765,0.347656,0.316589,0.137695,up
580232,-5.175781,7.746094,7.84375,-0.041016,0.226562,0.3125,0.871765,0.347656,0.316589,0.137695,up
580237,-5.175781,7.902344,7.882812,-0.105469,0.21875,0.322266,0.871765,0.347656,0.316589,0.137695,up
580243,-5.214844,7.96875,7.84375,-0.175781,0.207031,0.345703,0.871765,0.347656,0.316589,0.137695,up
580248,-5.253906,7.96875,7.84375,-0.310547,0.191406,0.371094,0.871765,0.347656,0.316589,0.137695,up
580253,-5.253906,7.898437,7.84375,-0.310547,0.191406,0.371094,0.870911,0.346985,0.3172,0.142944,up
580258,-5.289062,7.863281,7.84375,-0.310547,0.191406,0.371094,0.870911,0.346497,0.3172,0.144226,up
580263,-5.289062,7.898437,7.765625,-0.388672,0.185547,0.404297,0.870911,0.346497,0.3172,0.144226,up
580269,-5.214844,7.824219,7.652344,-0.416016,0.164062,0.404297,0.870911,0.346497,0.3172,0.144226,up
580275,-5.175781,7.785156,7.613281,-0.416016,0.164062,0.404297,0.871216,0.343933,0.316589,0.149658,up
580280,-5.214844,7.78125,7.5,-0.4375,0.103516,0.376953,0.871216,0.343933,0.316589,0.149658,up
580285,-5.214844,7.785156,7.421875,-0.429687,0.074219,0.361328,0.871521,0.34259,0.31604,0.152222,up
580290,-5.175781,7.820312,7.308594,-0.429687,0.074219,0.361328,0.871765,0.341797,0.315674,0.153503,up
580295,-5.175781,7.820312,7.113281,-0.429687,0.074219,0.361328,0.871765,0.341797,0.315674,0.153503,up
580300,-5.136719,7.78125,7.0,-0.425781,0.03125,0.3125,0.871765,0.341797,0.315674,0.153503,up
580305,-5.0625,7.78125,6.960937,-0.451172,0.033203,0.285156,0.871765,0.341797,0.315674,0.153503,up
580310,-5.0625,7.824219,6.808594,-0.451172,0.033203,0.285156,0.871765,0.341797,0.315674,0.153503,up
580315,-5.023437,7.824219,6.695312,-0.503906,0.082031,0.279297,0.871765,0.341797,0.315674,0.153503,up
580320,-4.984375,7.785156,6.617187,-0.548828,0.115234,0.261719,0.871765,0.341797,0.315674,0.153503,up
580325,-4.984375,7.785156,6.539062,-0.603516,0.154297,0.263672,0.871765,0.341797,0.315674,0.153503,up
580331,-4.90625,7.703125,6.464844,-0.603516,0.154297,0.263672,0.873657,0.334778,0.313477,0.162231,up
580337,-4.832031,7.667969,6.386719,-0.720703,0.253906,0.263672,0.873657,0.334778,0.313477,0.162231,up
580342,-4.792969,7.585937,6.273437,-0.769531,0.310547,0.251953,0.873657,0.334778,0.313477,0.162231,up
580347,-4.753906,7.4375,6.195312,-0.769531,0.310547,0.251953,0.874573,0.330139,0.313782,0.166382,up
580352,-4.753906,7.363281,6.042969,-0.876953,0.414062,0.222656,0.874573,0.330139,0.313782,0.166382,up
580357,-4.714844,7.28125,5.890625,-0.923828,0.476562,0.210937,0.874573,0.330139,0.313782,0.166382,up
580362,-4.832031,7.203125,5.734375,-0.923828,0.476562,0.210937,0.875488,0.324219,0.314941,0.171021,up
580368,-4.871094,7.09375,5.582031,-1.023438,0.529297,0.154297,0.875488,0.324219,0.314941,0.171021,up
580373,-4.871094,7.058594,5.660156,-1.023438,0.529297,0.154297,0.876099,0.319641,0.316162,0.174255,up
580379,-4.871094,6.976562,5.542969,-1.050781,0.517578,0.125,0.876099,0.319641,0.316162,0.174255,up
580384,-4.832031,6.9375,5.542969,-1.089844,0.470703,0.0625,0.876831,0.314819,0.317261,0.177246,up
580389,-4.832031,6.863281,5.46875,-1.089844,0.470703,0.0625,0.877747,0.309631,0.318237,0.179993,up
580394,-4.792969,6.820312,5.46875,-1.089844,0.470703,0.0625,0.877747,0.309631,0.318237,0.179993,up
580399,-4.714844,6.785156,5.351562,-1.101563,0.423828,-0.007813,0.877747,0.309631,0.318237,0.179993,up
580404,-4.714844,6.753906,5.316406,-1.101563,0.384766,-0.042969,0.878784,0.304443,0.319092,0.182373,up
580409,-4.714844,6.714844,5.199219,-1.101563,0.384766,-0.042969,0.879333,0.301697,0.319458,0.183533,up
580414,-4.714844,6.714844,5.199219,-1.125,0.355469,-0.060547,0.880493,0.296326,0.320068,0.185608,up
580419,-4.714844,6.675781,5.125,-1.125,0.355469,-0.060547,0.880493,0.296326,0.320068,0.185608,up
580424,-4.714844,6.59375,5.085937,-1.125,0.355469,-0.060547,0.880493,0.296326,0.320068,0.185608,up
580429,-4.714844,6.59375,5.085937,-1.222656,0.310547,-0.091797,0.882629,0.287415,0.320557,0.188599,up
580435,-4.601562,6.402344,4.894531,-1.222656,0.310547,-0.091797,0.883484,0.283997,0.32074,0.189636,up
580441,-4.5625,6.25,4.777344,-1.222656,0.310547,-0.091797,0.884216,0.280945,0.320862,0.190552,up
580446,-4.523437,6.136719,4.738281,-1.455078,0.345703,-0.201172,0.885071,0.277405,0.321045,0.191528,up
580451,-4.449219,5.945312,4.625,-1.517578,0.378906,-0.242187,0.885071,0.277405,0.321045,0.191528,up
580457,-4.449219,5.832031,4.625,-1.517578,0.378906,-0.242187,0.88678,0.27002,0.321533,0.193359,up
580462,-4.371094,5.710937,4.625,-1.623047,0.435547,-0.296875,0.88678,0.27002,0.321533,0.193359,up
580468,-4.332031,5.597656,4.546875,-1.667969,0.470703,-0.337891,0.88678,0.27002,0.321533,0.193359,up
580473,-4.292969,5.292969,4.511719,-1.667969,0.470703,-0.337891,0.88678,0.27002,0.321533,0.193359,up
580478,-4.332031,5.179687,4.433594,-1.667969,0.470703,-0.337891,0.890381,0.252686,0.323303,0.197021,up
580483,-4.332031,5.105469,4.394531,-1.746094,0.580078,-0.4375,0.890381,0.252686,0.323303,0.197021,up
580488,-4.410156,5.027344,4.320312,-1.75,0.625,-0.470703,0.892029,0.243896,0.324585,0.198547,up
580493,-4.410156,5.023437,4.433594,-1.732422,0.636719,-0.517578,0.892029,0.243896,0.324585,0.198547,up
580498,-4.371094,4.945312,4.472656,-1.712891,0.626953,-0.568359,0.892029,0.243896,0.324585,0.198547,up
580504,-4.371094,4.910156,4.546875,-1.65625,0.599609,-0.65625,0.892029,0.243896,0.324585,0.198547,up
580510,-4.371094,4.757812,4.511719,-1.65625,0.599609,-0.65625,0.895935,0.221191,0.328796,0.200562,up
580515,-4.410156,4.761719,4.585937,-1.59375,0.552734,-0.730469,0.89679,0.216248,0.329712,0.200562,up
580521,-4.410156,4.792969,4.546875,-1.59375,0.552734,-0.730469,0.897522,0.212219,0.330444,0.200439,up
580526,-4.332031,4.761719,4.585937,-1.59375,0.552734,-0.730469,0.898376,0.207886,0.331177,0.200195,up
580532,-4.332031,4.683594,4.546875,-1.546875,0.419922,-0.873047,0.898376,0.207886,0.331177,0.200195,up
580537,-4.257812,4.5625,4.511719,-1.605469,0.369141,-0.921875,0.898376,0.207886,0.331177,0.200195,up
580542,-4.292969,4.523437,4.433594,-1.6875,0.306641,-0.96875,0.901184,0.194397,0.332703,0.198608,up
580547,-4.21875,4.523437,4.394531,-1.6875,0.306641,-0.96875,0.901184,0.194397,0.332703,0.198608,up
580553,-4.21875,4.523437,4.394531,-1.767578,0.230469,-1.017578,0.903503,0.184387,0.332947,0.197083,up
580558,-4.21875,4.523437,4.394531,-1.953125,0.076172,-1.136719,0.904785,0.179199,0.332764,0.196167,up
580563,-3.988281,4.449219,4.433594,-1.953125,0.076172,-1.136719,0.90625,0.173706,0.332336,0.19519,up
580568,-3.875,4.296875,4.507812,-1.953125,0.076172,-1.136719,0.907837,0.167725,0.331726,0.194092,up
580573,-3.835938,4.027344,4.511719,-1.953125,0.076172,-1.136719,0.907837,0.167725,0.331726,0.194092,up
580578,-3.796875,3.605469,4.667969,-2.371094,-0.21875,-1.40625,0.907837,0.167725,0.331726,0.194092,up
580583,-3.757813,3.53125,4.734375,-2.371094,-0.21875,-1.40625,0.913025,0.148743,0.328674,0.190186,up
580589,-3.757813,3.644531,4.734375,-2.5,-0.324219,-1.513672,0.913025,0.148743,0.328674,0.190186,up
580594,-3.71875,3.644531,4.667969,-2.513672,-0.361328,-1.556641,0.918701,0.128296,0.324341,0.185242,up
580599,-3.683594,3.261719,4.664062,-2.513672,-0.361328,-1.556641,0.918701,0.128296,0.324341,0.185242,up
580604,-3.683594,2.957031,4.738281,-2.513672,-0.361328,-1.556641,0.920593,0.121338,0.322754,0.183472,up
580609,-3.644531,2.878906,4.777344,-2.693359,-0.474609,-1.701172,0.920593,0.121338,0.322754,0.183472,up
580614,-3.527344,2.726563,4.664062,-2.693359,-0.474609,-1.701172,0.9245,0.106201,0.319031,0.179443,up
580619,-3.492188,2.6875,4.703125,-2.693359,-0.474609,-1.701172,0.926453,0.098633,0.317078,0.177368,up
580624,-3.453125,2.613281,4.8125,-2.693359,-0.474609,-1.701172,0.928345,0.091125,0.315002,0.17511,up
580629,-3.453125,2.613281,4.8125,-2.617188,-0.599609,-1.853516,0.930054,0.084351,0.313049,0.172913,up
580634,-3.453125,2.613281,4.8125,-2.595703,-0.648437,-1.923828,0.931763,0.077454,0.310974,0.170532,up
580639,-3.335938,2.457031,5.125,-2.5625,-0.707031,-2.003906,0.931763,0.077454,0.310974,0.170532,up
580645,-3.375,2.457031,5.277344,-2.5625,-0.707031,-2.003906,0.933655,0.070007,0.308594,0.167664,up
580650,-3.375,2.457031,5.277344,-2.457031,-0.787109,-2.138672,0.939148,0.048706,0.301025,0.158203,up
580656,-3.300781,2.648438,5.429687,-2.457031,-0.787109,-2.138672,0.940918,0.041809,0.298401,0.154663,up
580661,-3.300781,2.6875,5.433594,-2.357422,-0.894531,-2.214844,0.940918,0.041809,0.298401,0.154663,up
580667,-3.300781,2.648438,5.390625,-2.353516,-0.933594,-2.179688,0.944336,0.028076,0.292725,0.1474,up
580672,-3.335938,2.191406,5.699219,-2.353516,-0.933594,-2.179688,0.945984,0.021301,0.289734,0.143982,up
580678,-3.335938,2.035156,5.851562,-2.455078,-0.990234,-2.019531,0.945984,0.021301,0.289734,0.143982,up
580683,-3.453125,2.191406,5.890625,-2.482422,-1.044922,-1.927734,0.945984,0.021301,0.289734,0.143982,up
580688,-3.492188,2.113281,5.964844,-2.458984,-1.103516,-1.839844,0.945984,0.021301,0.289734,0.143982,up
580693,-3.375,1.15625,6.277344,-2.458984,-1.103516,-1.839844,0.945984,0.021301,0.289734,0.143982,up
580698,-3.414063,0.964844,6.460937,-2.458984,-1.103516,-1.839844,0.953247,-0.012878,0.272583,0.129761,up
580703,-3.453125,0.8125,6.65625,-2.357422,-1.314453,-1.607422,0.953247,-0.012878,0.272583,0.129761,up
580709,-3.492188,0.542969,6.699219,-2.25,-1.365234,-1.548828,0.953247,-0.012878,0.272583,0.129761,up
580714,-3.492188,0.542969,6.699219,-2.107422,-1.400391,-1.513672,0.957092,-0.031128,0.260559,0.123047,up
580719,-3.71875,0.3125,6.769531,-1.916016,-1.433594,-1.472656,0.958252,-0.036377,0.25647,0.12085,up
580724,-3.835938,0.082031,7.039062,-1.916016,-1.433594,-1.472656,0.959534,-0.041382,0.252136,0.118591,up
580729,-3.835938,0.082031,7.039062,-1.494141,-1.546875,-1.408203,0.960693,-0.045593,0.247925,0.116272,up
580734,-4.332031,0.199219,7.847656,-1.494141,-1.546875,-1.408203,0.960693,-0.045593,0.247925,0.116272,up
580739,-4.410156,0.007813,7.957031,-1.494141,-1.546875,-1.408203,0.963196,-0.053101,0.23877,0.111267,up
580744,-4.410156,0.007813,7.957031,-0.929687,-1.582031,-1.289063,0.964355,-0.055969,0.234619,0.108948,up
580750,-4.449219,0.234375,8.074219,-0.861328,-1.566406,-1.261719,0.965393,-0.058411,0.230713,0.106689,up
580755,-4.410156,0.160156,8.148438,-0.861328,-1.566406,-1.261719,0.967651,-0.063416,0.221924,0.101746,up
580760,-5.0625,0.121094,8.109375,-0.861328,-1.566406,-1.261719,0.967651,-0.063416,0.221924,0.101746,up
580765,-5.175781,-0.222656,7.0,-0.861328,-1.566406,-1.261719,0.968689,-0.065674,0.217834,0.099487,up
580770,-4.488281,-0.375,6.617187,-1.119141,-1.138672,-1.052734,0.968689,-0.065674,0.217834,0.099487,up
580776,-3.796875,0.273438,8.53125,-1.119141,-1.138672,-1.052734,0.970947,-0.073853,0.20752,0.09375,up
580782,-3.796875,-0.644531,8.722656,-1.119141,-1.138672,-1.052734,0.971436,-0.076233,0.204895,0.092224,up
580787,-3.796875,-0.644531,8.722656,-0.976562,-0.953125,-0.949219,0.972046,-0.079163,0.201843,0.090332,up
580793,-3.375,-0.914062,8.53125,-0.976562,-0.953125,-0.949219,0.972046,-0.079163,0.201843,0.090332,up
580799,-3.261719,-1.105469,8.453125,-0.923828,-0.84375,-0.876953,0.972046,-0.079163,0.201843,0.090332,up
580804,-3.183594,-1.027344,8.453125,-0.923828,-0.794922,-0.837891,0.972046,-0.079163,0.201843,0.090332,up
580810,-3.183594,-1.066406,8.496094,-0.826172,-0.640625,-0.765625,0.972046,-0.079163,0.201843,0.090332,up
580815,-3.03125,-1.027344,8.574219,-0.779297,-0.564453,-0.732422,0.973999,-0.091064,0.190308,0.082764,up
580820,-2.992188,-1.027344,8.609375,-0.779297,-0.564453,-0.732422,0.974487,-0.095581,0.186707,0.079956,up
580825,-2.878906,-1.144531,8.570313,-0.779297,-0.564453,-0.732422,0.974487,-0.095581,0.186707,0.079956,up
580830,-2.878906,-1.144531,8.570313,-0.753906,-0.388672,-0.623047,0.974609,-0.097351,0.185486,0.078857,up
580835,-2.878906,-1.5625,8.570313,-0.701172,-0.273438,-0.568359,0.974609,-0.097351,0.185486,0.078857,up
580840,-2.878906,-1.5625,8.570313,-0.626953,-0.175781,-0.529297,0.974792,-0.101196,0.183594,0.076721,up
580845,-2.992188,-1.910156,8.835938,-0.626953,-0.175781,-0.529297,0.974792,-0.102783,0.183044,0.075684,up
580850,-3.183594,-1.71875,9.335938,-0.488281,0.017578,-0.470703,0.974731,-0.104248,0.182739,0.074829,up
580855,-3.183594,-1.640625,9.484375,-0.404297,0.076172,-0.472656,0.97467,-0.106689,0.182678,0.072693,up
580860,-3.222656,-1.5625,9.566406,-0.404297,0.076172,-0.472656,0.97467,-0.106689,0.182678,0.072693,up
580865,-3.300781,-1.5625,9.5625,-0.191406,0.201172,-0.492187,0.97467,-0.106689,0.182678,0.072693,up
580870,-3.222656,-1.640625,9.453125,-0.191406,0.201172,-0.492187,0.974487,-0.109131,0.183472,0.069092,up
580875,-3.144531,-1.640625,9.566406,-0.128906,0.275391,-0.478516,0.974487,-0.109131,0.183472,0.069092,up
580880,-3.183594,-1.527344,9.601563,-0.128906,0.275391,-0.478516,0.974426,-0.109741,0.18396,0.067749,up
580885,-3.183594,-1.371094,9.527344,-0.123047,0.349609,-0.439453,0.974426,-0.109741,0.18396,0.067749,up
580890,-3.183594,-1.296875,9.523438,-0.123047,0.349609,-0.439453,0.974121,-0.111267,0.185852,0.06427,up
580895,-3.183594,-1.179688,9.566406,-0.097656,0.380859,-0.394531,0.974121,-0.111267,0.185852,0.06427,up
580900,-3.222656,-1.179688,9.644531,-0.097656,0.380859,-0.394531,0.973999,-0.111816,0.186707,0.063049,up
580905,-3.183594,-1.257813,9.644531,-0.142578,0.4375,-0.324219,0.973999,-0.111816,0.186707,0.063049,up
580910,-3.261719,-1.335938,9.484375,-0.130859,0.476562,-0.298828,0.973694,-0.112793,0.188354,0.061157,up
580915,-3.261719,-1.296875,9.453125,-0.130859,0.476562,-0.298828,0.97345,-0.113403,0.189514,0.06012,up
580920,-3.335938,-1.21875,9.414063,-0.130859,0.476562,-0.298828,0.972961,-0.11438,0.191833,0.058533,up
580925,-3.527344,-1.179688,9.605469,-0.130859,0.476562,-0.298828,0.972717,-0.114746,0.193115,0.0578,up
580930,-3.605469,-1.335938,9.839844,-0.060547,0.708984,-0.169922,0.972717,-0.114746,0.193115,0.0578,up
580935,-3.71875,-1.410156,9.988281,-0.060547,0.708984,-0.169922,0.972351,-0.115112,0.194885,0.057068,up
580940,-3.875,-1.449219,10.066406,-0.041016,0.765625,-0.128906,0.972351,-0.115112,0.194885,0.057068,up
580945,-3.875,-1.449219,10.066406,0.015625,0.919922,-0.042969,0.971619,-0.115601,0.198547,0.055908,up
580950,-4.027344,-1.410156,10.21875,0.015625,0.919922,-0.042969,0.971252,-0.115723,0.2005,0.055481,up
580955,-4.101562,-1.410156,10.21875,0.107422,1.039063,0.033203,0.971252,-0.115723,0.2005,0.055481,up
580961,-4.257812,-1.449219,10.261719,0.107422,1.039063,0.033203,0.969788,-0.115479,0.208008,0.054382,up
580967,-4.488281,-1.179688,10.289063,0.107422,1.039063,0.033203,0.969238,-0.11499,0.210632,0.054138,up
580972,-4.601562,-1.105469,10.367188,0.341797,1.179688,0.171875,0.968689,-0.114319,0.213562,0.053955,up
580977,-4.640625,-1.105469,10.488281,0.341797,1.179688,0.171875,0.968079,-0.113403,0.216858,0.053772,up
580983,-4.90625,-0.875,10.484375,0.341797,1.179688,0.171875,0.968079,-0.113403,0.216858,0.053772,up
580988,-4.984375,-0.796875,10.601563,0.460937,1.169922,0.220703,0.967041,-0.111389,0.222534,0.053589,up
580993,-5.0625,-0.722656,10.605469,0.453125,1.126953,0.208984,0.967041,-0.111389,0.222534,0.053589,up
580998,-5.253906,-0.605469,10.640625,0.453125,1.126953,0.208984,0.967041,-0.111389,0.222534,0.053589,up
581004,-5.367187,-0.644531,10.679688,0.453125,1.126953,0.208984,0.965454,-0.108337,0.230835,0.053223,up
581009,-5.445312,-0.722656,10.679688,0.277344,0.953125,0.177734,0.965454,-0.108337,0.230835,0.053223,up
581015,-5.445312,-0.722656,10.75,0.224609,0.890625,0.183594,0.965454,-0.108337,0.230835,0.053223,up
581020,-5.445312,-0.875,10.832031,0.109375,0.791016,0.216797,0.963989,-0.106445,0.237793,0.053162,up
581026,-5.445312,-0.835937,10.714844,0.109375,0.791016,0.216797,0.963074,-0.105774,0.241699,0.053528,up
581031,-5.40625,-1.027344,10.679688,0.109375,0.791016,0.216797,0.962524,-0.10553,0.243896,0.053955,up
581037,-5.367187,-1.144531,10.523438,0.109375,0.791016,0.216797,0.962097,-0.105225,0.245728,0.054382,up
581042,-5.40625,-1.179688,10.445313,0.146484,0.826172,0.404297,0.962097,-0.105225,0.245728,0.054382,up
581048,-5.40625,-1.144531,10.40625,0.259766,0.865234,0.460937,0.962097,-0.105225,0.245728,0.054382,up
581054,-5.480469,-1.027344,10.292969,0.259766,0.865234,0.460937,0.962097,-0.105225,0.245728,0.054382,up
581060,-5.480469,-0.914062,10.292969,0.748047,1.017578,0.681641,0.962097,-0.105225,0.245728,0.054382,up
581065,-5.558594,-0.914062,10.179688,0.748047,1.017578,0.681641,0.958862,-0.097412,0.260193,0.058655,up
581070,-5.710937,-0.644531,9.949219,0.748047,1.017578,0.681641,0.958862,-0.097412,0.260193,0.058655,up
581075,-5.867187,-0.414062,9.90625,1.066406,1.138672,0.878906,0.958252,-0.094727,0.263123,0.059631,up
581080,-5.867187,-0.414062,9.90625,1.066406,1.138672,0.878906,0.958252,-0.094727,0.263123,0.059631,up
581085,-5.902344,-0.148437,9.90625,1.25,1.183594,1.078125,0.958252,-0.094727,0.263123,0.059631,up
581090,-5.902344,-0.148437,9.90625,1.277344,1.158203,1.138672,0.956238,-0.084351,0.272888,0.063721,up
581095,-6.59375,1.15625,9.71875,1.277344,1.158203,1.138672,0.955505,-0.08075,0.276001,0.065308,up
581100,-6.632812,1.195313,9.722656,1.277344,1.158203,1.138672,0.954834,-0.077332,0.278931,0.067017,up
581105,-6.671875,1.117188,9.679688,0.882812,0.931641,1.216797,0.954834,-0.077332,0.278931,0.067017,up
581111,-6.515625,1.15625,9.679688,0.662109,0.832031,1.228516,0.952759,-0.069458,0.286377,0.073425,up
581116,-6.515625,1.078125,9.566406,0.238281,0.658203,1.244141,0.952087,-0.067749,0.288452,0.076111,up
581121,-6.402344,1.003906,9.484375,0.238281,0.658203,1.244141,0.951477,-0.066711,0.290039,0.078552,up
581126,-6.324219,0.8125,9.375,-0.09375,0.550781,1.271484,0.950806,-0.065857,0.291626,0.081482,up
581132,-5.980469,0.082031,9.144531,-0.09375,0.550781,1.271484,0.950134,-0.065369,0.293091,0.084473,up
581137,-5.902344,-0.109375,9.035156,-0.275391,0.53125,1.333984,0.949402,-0.065063,0.294495,0.087585,up
581142,-5.867187,-0.261719,8.914063,-0.275391,0.53125,1.333984,0.948669,-0.064819,0.295959,0.090881,up
581148,-6.019531,-0.644531,8.796875,-0.275391,0.53125,1.333984,0.947937,-0.064392,0.297424,0.094055,up
581154,-6.019531,-0.644531,8.796875,-0.019531,0.611328,1.367188,0.947937,-0.064392,0.297424,0.094055,up
581159,-6.09375,-0.414062,8.878906,0.191406,0.642578,1.34375,0.947937,-0.064392,0.297424,0.094055,up
581164,-6.132812,-0.492187,8.917969,0.373047,0.681641,1.322266,0.947937,-0.064392,0.297424,0.094055,up
581169,-6.210937,-0.453125,8.796875,0.542969,0.730469,1.296875,0.947937,-0.064392,0.297424,0.094055,up
581174,-6.285156,-0.339844,8.757813,0.677734,0.775391,1.265625,0.947937,-0.064392,0.297424,0.094055,up
581179,-6.363281,-0.222656,8.757813,0.677734,0.775391,1.265625,0.943115,-0.05426,0.30896,0.110168,up
581184,-6.363281,-0.183594,8.722656,0.853516,0.828125,1.203125,0.943115,-0.05426,0.30896,0.110168,up
581189,-6.441406,0.007813,8.691406,0.90625,0.853516,1.181641,0.943115,-0.05426,0.30896,0.110168,up
581194,-6.554687,0.273438,8.652344,0.962891,0.853516,1.166016,0.943115,-0.05426,0.30896,0.110168,up
581199,-6.59375,0.621094,8.652344,0.962891,0.853516,1.166016,0.943115,-0.05426,0.30896,0.110168,up
581204,-6.59375,0.8125,8.535156,0.962891,0.853516,1.166016,0.938721,-0.039734,0.320862,0.119568,up
581210,-6.59375,0.8125,8.535156,0.912109,0.791016,1.128906,0.937805,-0.036865,0.32312,0.121277,up
581215,-6.632812,1.039063,8.375,0.833984,0.759766,1.126953,0.937805,-0.036865,0.32312,0.121277,up
581221,-6.59375,1.078125,8.335938,0.734375,0.71875,1.123047,0.936035,-0.031433,0.327393,0.125,up
581226,-6.59375,1.078125,8.335938,0.621094,0.683594,1.115234,0.936035,-0.031433,0.327393,0.125,up
581231,-6.632812,0.964844,8.339844,0.621094,0.683594,1.115234,0.934326,-0.0271,0.331116,0.128967,up
581236,-6.632812,0.964844,8.339844,0.621094,0.683594,1.115234,0.932739,-0.023376,0.334351,0.133118,up
581241,-6.554687,0.773437,8.339844,0.345703,0.533203,1.068359,0.932739,-0.023376,0.334351,0.133118,up
581246,-6.476562,0.65625,8.191406,0.345703,0.533203,1.068359,0.931152,-0.020142,0.337219,0.137268,up
581251,-6.402344,0.503906,8.070313,0.345703,0.533203,1.068359,0.930359,-0.018555,0.338623,0.139404,up
581256,-6.363281,0.390625,8.109375,0.396484,0.539062,1.052734,0.930359,-0.018555,0.338623,0.139404,up
581261,-6.363281,0.390625,7.996094,0.396484,0.539062,1.052734,0.929504,-0.016785,0.340149,0.141663,up
581266,-6.324219,0.464844,7.996094,0.552734,0.591797,1.082031,0.929504,-0.016785,0.340149,0.141663,up
581271,-6.324219,0.429687,7.886719,0.65625,0.623047,1.095703,0.927856,-0.013123,0.343079,0.145508,up
581277,-6.363281,0.542969,7.730469,0.65625,0.623047,1.095703,0.926086,-0.008667,0.346436,0.149231,up
581282,-6.324219,0.65625,7.730469,0.867187,0.708984,1.142578,0.926086,-0.008667,0.346436,0.149231,up
581288,-6.476562,0.964844,7.609375,0.867187,0.708984,1.142578,0.924011,-0.003052,0.350403,0.152832,up
581293,-6.515625,1.039063,7.574219,1.105469,0.804687,1.216797,0.924011,-0.003052,0.350403,0.152832,up
581298,-6.554687,1.078125,7.574219,1.199219,0.847656,1.269531,0.924011,-0.003052,0.350403,0.152832,up
581304,-6.632812,1.15625,7.570312,1.279297,0.873047,1.314453,0.924011,-0.003052,0.350403,0.152832,up
581310,-6.785156,1.425781,7.5,1.279297,0.873047,1.314453,0.917664,0.01532,0.362427,0.162109,up
581315,-6.863281,1.5,7.460937,1.279297,0.873047,1.314453,0.917664,0.01532,0.362427,0.162109,up
581321,-6.863281,1.539063,7.382812,1.462891,0.935547,1.466797,0.917664,0.01532,0.362427,0.162109,up
581326,-6.9375,1.808594,7.5,1.505859,0.935547,1.482422,0.914673,0.023865,0.367676,0.166077,up
581331,-7.015625,2.0,7.503906,1.505859,0.935547,1.482422,0.912964,0.028687,0.370605,0.168274,up
581336,-7.015625,2.0,7.503906,1.537109,0.925781,1.486328,0.909912,0.037292,0.37561,0.172119,up
581341,-6.976562,2.226563,7.460937,1.537109,0.925781,1.486328,0.909912,0.037292,0.37561,0.172119,up
581346,-7.015625,2.613281,7.503906,1.537109,0.925781,1.486328,0.909912,0.037292,0.37561,0.172119,up
581351,-7.015625,2.613281,7.503906,1.539063,0.835937,1.466797,0.906616,0.046448,0.380615,0.176025,up
581356,-7.054687,3.222656,7.265625,1.515625,0.798828,1.449219,0.903442,0.055481,0.385193,0.179871,up
581361,-7.089844,3.453125,7.347656,1.515625,0.798828,1.449219,0.901978,0.059753,0.387146,0.181702,up
581366,-7.207031,3.992188,7.230469,1.515625,0.798828,1.449219,0.901978,0.059753,0.387146,0.181702,up
581371,-7.324219,4.183594,7.152344,1.175781,0.529297,1.330078,0.901978,0.059753,0.387146,0.181702,up
581376,-7.398437,4.257812,7.078125,1.175781,0.529297,1.330078,0.899109,0.067871,0.390625,0.185425,up
581382,-7.398437,4.257812,7.078125,0.849609,0.398438,1.255859,0.896667,0.074646,0.393127,0.189331,up
581387,-7.359375,4.21875,6.960937,0.689453,0.339844,1.222656,0.895508,0.077637,0.394165,0.191528,up
581392,-7.359375,4.21875,6.960937,0.537109,0.283203,1.183594,0.894592,0.080017,0.394836,0.193481,up
581398,-7.242187,3.835938,7.0,0.537109,0.283203,1.183594,0.893677,0.082092,0.395386,0.195618,up
581403,-7.207031,3.722656,6.960937,0.318359,0.183594,1.132813,0.893677,0.082092,0.395386,0.195618,up
581408,-7.125,3.683594,7.0,0.261719,0.136719,1.107422,0.89209,0.085754,0.395996,0.200073,up
581414,-6.980469,3.644531,6.960937,0.261719,0.136719,1.107422,0.891296,0.087524,0.396179,0.202393,up
581420,-6.902344,3.53125,6.886719,0.236328,0.076172,1.083984,0.891296,0.087524,0.396179,0.202393,up
581425,-6.824219,3.453125,6.925781,0.253906,0.058594,1.080078,0.891296,0.087524,0.396179,0.202393,up
581430,-6.632812,3.453125,6.886719,0.302734,0.039063,1.080078,0.891296,0.087524,0.396179,0.202393,up
581435,-6.59375,3.378906,6.84375,0.423828,0.027344,1.082031,0.891296,0.087524,0.396179,0.202393,up
581440,-6.476562,3.414063,6.921875,0.423828,0.027344,1.082031,0.888,0.096191,0.396179,0.212769,up
581446,-6.441406,3.492188,6.769531,0.484375,0.042969,1.080078,0.888,0.096191,0.396179,0.212769,up
581451,-6.476562,3.570313,6.578125,0.484375,0.042969,1.080078,0.885803,0.102539,0.396362,0.218506,up
581456,-6.515625,3.605469,6.503906,0.484375,0.042969,1.080078,0.885803,0.102539,0.396362,0.218506,up
581461,-6.558594,3.722656,6.539062,0.460937,0.128906,1.068359,0.885803,0.102539,0.396362,0.218506,up
581466,-6.59375,3.761719,6.539062,0.460937,0.128906,1.068359,0.883301,0.108826,0.396973,0.224243,up
581471,-6.632812,3.722656,6.617187,0.460937,0.128906,1.068359,0.883301,0.108826,0.396973,0.224243,up
581476,-6.632812,3.722656,6.617187,0.429687,0.173828,1.060547,0.882446,0.110779,0.397278,0.226196,up
581481,-6.703125,3.644531,6.578125,0.429687,0.173828,1.060547,0.881531,0.112732,0.397644,0.228149,up
581486,-6.785156,3.914063,6.730469,0.419922,0.193359,1.048828,0.880676,0.114624,0.397949,0.230103,up
581491,-6.785156,3.914063,6.730469,0.419922,0.193359,1.048828,0.880676,0.114624,0.397949,0.230103,up
581497,-6.820312,4.066406,6.769531,0.414062,0.189453,1.041016,0.87793,0.120239,0.398987,0.235901,up
581502,-6.820312,4.105469,6.769531,0.414062,0.189453,1.041016,0.876953,0.122253,0.399231,0.237976,up
581508,-6.824219,4.257812,6.65625,0.414062,0.189453,1.041016,0.876099,0.123962,0.399475,0.239746,up
581513,-6.785156,4.296875,6.65625,0.394531,0.160156,1.033203,0.875244,0.125793,0.399719,0.241577,up
581518,-6.78125,4.335937,6.617187,0.376953,0.173828,1.025391,0.875244,0.125793,0.399719,0.241577,up
581524,-6.746094,4.449219,6.539062,0.376953,0.173828,1.025391,0.873413,0.129395,0.400269,0.245422,up
581530,-6.746094,4.488281,6.503906,0.308594,0.193359,0.992187,0.873413,0.129395,0.400269,0.245422,up
581536,-6.746094,4.566406,6.578125,0.261719,0.203125,0.984375,0.870728,0.133972,0.401062,0.25116,up
581541,-6.824219,4.601562,6.539062,0.261719,0.203125,0.984375,0.870728,0.133972,0.401062,0.25116,up
581546,-6.820312,4.566406,6.539062,0.261719,0.203125,0.984375,0.869812,0.135254,0.401306,0.253235,up
581551,-6.898437,4.527344,6.539062,0.058594,0.177734,0.9375,0.869812,0.135254,0.401306,0.253235,up
581556,-6.9375,4.527344,6.503906,0.058594,0.177734,0.9375,0.868103,0.137451,0.401611,0.257324,up
581562,-6.941406,4.527344,6.539062,0.019531,0.119141,0.933594,0.868103,0.137451,0.401611,0.257324,up
581567,-6.980469,4.488281,6.539062,0.005859,0.080078,0.927734,0.866577,0.139404,0.401611,0.261475,up
581572,-6.980469,4.488281,6.539062,-0.007813,0.046875,0.921875,0.865845,0.14032,0.401489,0.263489,up
581577,-6.859375,4.296875,6.503906,-0.007813,0.046875,0.921875,0.864624,0.14209,0.401062,0.267273,up
581582,-6.820312,4.183594,6.503906,-0.007813,0.046875,0.921875,0.864014,0.143005,0.400696,0.269226,up
581588,-6.59375,3.761719,6.578125,-0.007813,0.046875,0.921875,0.863403,0.143921,0.400391,0.271057,up
581594,-6.515625,3.492188,6.699219,0.078125,-0.011719,0.765625,0.863403,0.143921,0.400391,0.271057,up
581600,-6.59375,3.492188,6.730469,0.146484,-0.005859,0.671875,0.863403,0.143921,0.400391,0.271057,up
581605,-6.632812,3.644531,6.847656,0.234375,-0.023437,0.580078,0.863403,0.143921,0.400391,0.271057,up
581611,-6.671875,4.027344,6.882812,0.341797,-0.078125,0.488281,0.863403,0.143921,0.400391,0.271057,up
581616,-6.707031,4.027344,6.730469,0.462891,-0.1875,0.386719,0.861084,0.149536,0.399475,0.276672,up
581621,-6.742187,4.183594,6.617187,0.462891,-0.1875,0.386719,0.86084,0.151062,0.399231,0.277039,up
581627,-6.78125,4.375,6.578125,0.580078,-0.253906,0.363281,0.86084,0.151062,0.399231,0.277039,up
581632,-6.941406,4.679687,6.503906,0.580078,-0.253906,0.363281,0.860168,0.156311,0.398376,0.277527,up
581637,-6.980469,4.679687,6.503906,0.574219,-0.294922,0.425781,0.859924,0.158264,0.397949,0.27771,up
581642,-6.9375,4.640625,6.539062,0.550781,-0.298828,0.476562,0.85968,0.160217,0.397522,0.278015,up
581647,-6.785156,4.640625,6.578125,0.550781,-0.298828,0.476562,0.859436,0.161987,0.397095,0.278381,up
581652,-6.675781,4.679687,6.539062,0.550781,-0.298828,0.476562,0.85907,0.164124,0.396484,0.278992,up
581657,-6.554687,4.71875,6.578125,0.550781,-0.298828,0.476562,0.85907,0.164124,0.396484,0.278992,up
581662,-6.441406,4.71875,6.539062,0.513672,-0.291016,0.666016,0.858337,0.16803,0.395447,0.280579,up
581667,-6.25,4.679687,6.460937,0.523437,-0.230469,0.779297,0.857849,0.170044,0.394897,0.281555,up
581672,-6.09375,4.640625,6.34375,0.523437,-0.230469,0.779297,0.857239,0.172119,0.394531,0.282593,up
581677,-5.867187,4.640625,6.15625,0.523437,-0.230469,0.779297,0.857239,0.172119,0.394531,0.282593,up
581682,-5.75,4.792969,6.121094,0.673828,-0.105469,0.873047,0.857239,0.172119,0.394531,0.282593,up
581687,-5.675781,5.0625,5.921875,0.673828,-0.105469,0.873047,0.85498,0.179138,0.39386,0.286011,up
581692,-5.675781,5.0625,5.921875,0.673828,-0.105469,0.873047,0.85498,0.179138,0.39386,0.286011,up
581697,-5.636719,5.0625,5.855469,0.673828,0.0,0.916016,0.85498,0.179138,0.39386,0.286011,up
581702,-5.636719,5.0625,5.855469,0.654297,0.046875,0.916016,0.853088,0.18396,0.393921,0.288574,up
581707,-5.558594,5.140625,5.855469,0.654297,0.046875,0.916016,0.853088,0.18396,0.393921,0.288574,up
581712,-5.558594,5.140625,5.855469,0.583984,0.115234,0.898437,0.851013,0.188293,0.394348,0.29126,up
581717,-5.597656,5.40625,6.003906,0.583984,0.115234,0.898437,0.848816,0.192383,0.394836,0.294189,up
581722,-5.675781,5.445312,6.003906,0.583984,0.115234,0.898437,0.8479,0.194031,0.39502,0.295532,up
581727,-5.710937,5.445312,6.121094,0.583984,0.115234,0.898437,0.8479,0.194031,0.39502,0.295532,up
581732,-5.710937,5.445312,6.160156,0.394531,0.115234,0.839844,0.8479,0.194031,0.39502,0.295532,up
581737,-5.710937,5.523437,6.199219,0.396484,0.099609,0.830078,0.845947,0.197449,0.395386,0.298523,up
581743,-5.710937,5.753906,6.160156,0.396484,0.099609,0.830078,0.844177,0.200562,0.395508,0.301208,up
581748,-5.710937,5.753906,6.160156,0.373047,0.076172,0.833984,0.843262,0.202148,0.395569,0.302673,up
581753,-5.597656,5.789062,6.082031,0.357422,0.078125,0.824219,0.842224,0.203979,0.395569,0.30426,up
581759,-5.40625,5.945312,6.042969,0.357422,0.078125,0.824219,0.841492,0.2052,0.395569,0.305481,up
581765,-5.367187,6.054687,6.042969,0.285156,0.089844,0.808594,0.841492,0.2052,0.395569,0.305481,up
581770,-5.289062,6.097656,6.042969,0.255859,0.091797,0.800781,0.841492,0.2052,0.395569,0.305481,up
581775,-5.328125,6.136719,6.082031,0.216797,0.091797,0.785156,0.841492,0.2052,0.395569,0.305481,up
581781,-5.328125,6.136719,6.121094,0.173828,0.089844,0.787109,0.841492,0.2052,0.395569,0.305481,up
581786,-5.367187,6.097656,6.195312,0.121094,0.072266,0.767578,0.841492,0.2052,0.395569,0.305481,up
581792,-5.40625,6.136719,6.277344,0.060547,0.023437,0.738281,0.841492,0.2052,0.395569,0.305481,up
581797,-5.445312,6.175781,6.3125,0.060547,0.023437,0.738281,0.835327,0.214111,0.394348,0.317627,up
581802,-5.445312,6.175781,6.3125,0.060547,0.023437,0.738281,0.835327,0.214111,0.394348,0.317627,up
581807,-5.40625,6.25,6.273437,0.015625,-0.060547,0.681641,0.835327,0.214111,0.394348,0.317627,up
581812,-5.480469,6.328125,6.082031,0.0,-0.099609,0.662109,0.835327,0.214111,0.394348,0.317627,up
581818,-5.445312,6.367187,6.121094,-0.023437,-0.164062,0.660156,0.833923,0.21637,0.392761,0.321655,up
581823,-5.480469,6.4375,5.964844,-0.023437,-0.164062,0.660156,0.833191,0.217957,0.391235,0.324463,up
581829,-5.40625,6.328125,5.925781,-0.023437,-0.164062,0.660156,0.832886,0.218506,0.390564,0.325623,up
581834,-5.367187,6.132812,5.890625,-0.023437,-0.164062,0.660156,0.832581,0.219116,0.389709,0.327026,up
581839,-5.289062,6.097656,5.851562,-0.158203,-0.173828,0.699219,0.832581,0.219116,0.389709,0.327026,up
581845,-5.253906,6.019531,5.8125,-0.152344,-0.160156,0.730469,0.832581,0.219116,0.389709,0.327026,up
581851,-5.0625,5.980469,5.773437,-0.138672,-0.132812,0.765625,0.832581,0.219116,0.389709,0.327026,up
581856,-4.984375,6.058594,5.773437,-0.085937,-0.095703,0.814453,0.832581,0.219116,0.389709,0.327026,up
581862,-4.945312,6.136719,5.734375,0.046875,-0.027344,0.945312,0.832581,0.219116,0.389709,0.327026,up
581867,-4.753906,6.210937,5.660156,0.046875,-0.027344,0.945312,0.829712,0.223083,0.38501,0.337036,up
581873,-4.679687,6.292969,5.542969,0.111328,0.011719,1.015625,0.82782,0.225525,0.384094,0.341064,up
581878,-4.601562,6.367187,5.46875,0.255859,0.111328,1.15625,0.826538,0.227173,0.383789,0.343445,up
581884,-4.488281,6.554687,5.390625,0.255859,0.111328,1.15625,0.825317,0.228638,0.383667,0.34552,up
581889,-4.488281,6.4375,5.277344,0.255859,0.111328,1.15625,0.823853,0.230286,0.383606,0.347839,up
581895,-4.410156,6.289062,5.238281,0.314453,0.316406,1.275391,0.823853,0.230286,0.383606,0.347839,up
581901,-4.332031,6.25,5.238281,0.326172,0.404297,1.285156,0.823853,0.230286,0.383606,0.347839,up
581907,-4.292969,6.328125,5.351562,0.339844,0.492187,1.261719,0.823853,0.230286,0.383606,0.347839,up
581912,-4.292969,6.328125,5.351562,0.367188,0.556641,1.246094,0.817017,0.236511,0.385132,0.358032,up
581917,-4.292969,6.328125,5.507812,0.367188,0.556641,1.246094,0.815186,0.237976,0.385864,0.360535,up
581922,-4.292969,6.714844,5.429687,0.466797,0.615234,1.248047,0.813171,0.239563,0.38678,0.362976,up
581927,-4.292969,6.714844,5.429687,0.466797,0.615234,1.248047,0.813171,0.239563,0.38678,0.362976,up
581932,-4.332031,7.019531,5.46875,0.560547,0.623047,1.265625,0.813171,0.239563,0.38678,0.362976,up
581938,-4.410156,7.285156,5.351562,0.587891,0.582031,1.279297,0.806885,0.244873,0.389709,0.3703,up
581944,-4.523437,7.441406,5.351562,0.587891,0.582031,1.279297,0.802612,0.248596,0.391541,0.375061,up
581949,-4.601562,7.515625,5.316406,0.501953,0.5625,1.240234,0.800598,0.250366,0.392395,0.37738,up
581955,-4.5625,7.554687,5.316406,0.4375,0.53125,1.191406,0.800598,0.250366,0.392395,0.37738,up
581960,-4.601562,7.625,5.316406,0.4375,0.53125,1.191406,0.796692,0.253479,0.39386,0.382019,up
581965,-4.601562,7.625,5.390625,0.244141,0.501953,1.099609,0.796692,0.253479,0.39386,0.382019,up
581971,-4.601562,7.707031,5.351562,0.144531,0.476562,1.050781,0.793213,0.255676,0.394897,0.386597,up
581976,-4.5625,7.667969,5.351562,0.144531,0.476562,1.050781,0.793213,0.255676,0.394897,0.386597,up
581981,-4.523437,7.667969,5.429687,-0.056641,0.4375,0.978516,0.793213,0.255676,0.394897,0.386597,up
581987,-4.5625,7.585937,5.390625,-0.136719,0.414062,0.955078,0.793213,0.255676,0.394897,0.386597,up
581992,-4.410156,7.363281,5.542969,-0.15625,0.402344,0.953125,0.793213,0.255676,0.394897,0.386597,up
581997,-4.449219,7.324219,5.542969,-0.15625,0.402344,0.953125,0.786438,0.257874,0.395691,0.398071,up
582003,-4.410156,7.363281,5.542969,-0.064453,0.408203,0.980469,0.786438,0.257874,0.395691,0.398071,up
582008,-4.410156,7.4375,5.542969,-0.064453,0.408203,0.980469,0.78241,0.259033,0.395935,0.405029,up
582014,-4.332031,7.519531,5.46875,-0.064453,0.408203,0.980469,0.780945,0.259705,0.396118,0.407104,up
582019,-4.292969,7.664062,5.429687,-0.064453,0.408203,0.980469,0.779419,0.260498,0.396423,0.409241,up
582024,-4.332031,7.703125,5.429687,0.232422,0.451172,1.023438,0.779419,0.260498,0.396423,0.409241,up
582030,-4.292969,7.898437,5.390625,0.285156,0.457031,1.029297,0.779419,0.260498,0.396423,0.409241,up
582036,-4.257812,8.011719,5.390625,0.310547,0.447266,1.013672,0.779419,0.260498,0.396423,0.409241,up
582041,-4.257812,8.207031,5.316406,0.300781,0.431641,1.011719,0.779419,0.260498,0.396423,0.409241,up
582046,-4.257812,8.320313,5.316406,0.279297,0.408203,0.996094,0.779419,0.260498,0.396423,0.409241,up
582052,-4.257812,8.585938,5.160156,0.279297,0.408203,0.996094,0.769409,0.267029,0.399109,0.421204,up
582057,-4.332031,8.703125,5.125,0.109375,0.363281,0.96875,0.769409,0.267029,0.399109,0.421204,up
582062,-4.371094,8.933594,5.007812,0.109375,0.363281,0.96875,0.766235,0.268921,0.399658,0.425232,up
582067,-4.449219,9.011719,4.933594,0.109375,0.363281,0.96875,0.764771,0.269653,0.39978,0.427368,up
582072,-4.449219,9.011719,4.933594,0.109375,0.363281,0.96875,0.763489,0.270264,0.39978,0.42926,up
582077,-4.449219,9.011719,4.933594,-0.09375,0.359375,0.992187,0.762024,0.270752,0.399719,0.431519,up
582082,-4.449219,8.96875,4.855469,-0.09375,0.359375,0.992187,0.760681,0.271118,0.399597,0.433777,up
582087,-4.410156,8.851563,4.933594,-0.162109,0.400391,1.021484,0.760681,0.271118,0.399597,0.433777,up
582093,-4.410156,8.777344,5.007812,-0.15625,0.443359,1.044922,0.759277,0.271423,0.399475,0.436096,up
582098,-4.410156,8.625,5.160156,-0.15625,0.443359,1.044922,0.7547,0.272278,0.399292,0.443665,up
582103,-4.410156,8.550781,5.277344,-0.15625,0.443359,1.044922,0.753235,0.272583,0.399292,0.445923,up
582108,-4.332031,8.550781,5.351562,-0.072266,0.476562,1.109375,0.751526,0.27301,0.399353,0.448547,up
582114,-4.292969,8.589844,5.429687,-0.072266,0.476562,1.109375,0.749878,0.273438,0.399414,0.450928,up
582119,-4.21875,8.664063,5.46875,-0.042969,0.466797,1.132813,0.748169,0.273987,0.399475,0.45343,up
582124,-4.257812,8.8125,5.507812,-0.042969,0.466797,1.132813,0.74646,0.274475,0.399475,0.455872,up
582130,-4.292969,8.777344,5.46875,-0.070312,0.447266,1.132813,0.744751,0.275024,0.399475,0.458435,up
582136,-4.332031,8.855469,5.429687,-0.121094,0.425781,1.123047,0.744751,0.275024,0.399475,0.458435,up
582142,-4.371094,8.773438,5.429687,-0.121094,0.425781,1.123047,0.744751,0.275024,0.399475,0.458435,up
582147,-4.332031,8.707031,5.429687,-0.238281,0.355469,1.080078,0.744751,0.275024,0.399475,0.458435,up
582152,-4.332031,8.707031,5.429687,-0.365234,0.275391,1.035156,0.744751,0.275024,0.399475,0.458435,up
582157,-4.257812,8.589844,5.429687,-0.365234,0.275391,1.035156,0.737244,0.276367,0.397888,0.470947,up
582162,-4.21875,8.546875,5.429687,-0.365234,0.275391,1.035156,0.736023,0.276367,0.397156,0.473389,up
582168,-4.101562,8.511719,5.390625,-0.513672,0.173828,0.994141,0.736023,0.276367,0.397156,0.473389,up
582173,-3.910156,8.203125,5.507812,-0.513672,0.173828,0.994141,0.733887,0.276184,0.395386,0.478333,up
582179,-3.910156,8.203125,5.507812,-0.474609,0.152344,1.011719,0.731812,0.27594,0.393372,0.483276,up
582184,-3.757813,8.164063,5.46875,-0.40625,0.160156,1.03125,0.730591,0.27594,0.392334,0.485962,up
582189,-3.527344,8.128906,5.316406,-0.40625,0.160156,1.03125,0.729492,0.276123,0.391541,0.488159,up
582194,-3.527344,8.164063,5.238281,-0.40625,0.160156,1.03125,0.72821,0.276367,0.390808,0.490479,up
582200,-3.527344,8.28125,5.125,-0.40625,0.160156,1.03125,0.726807,0.276794,0.390198,0.492859,up
582205,-3.492188,8.359375,5.125,-0.105469,0.296875,1.142578,0.726807,0.276794,0.390198,0.492859,up
582210,-3.605469,8.472656,4.96875,-0.060547,0.339844,1.177734,0.726807,0.276794,0.390198,0.492859,up
582215,-3.566406,8.511719,5.007812,-0.041016,0.376953,1.212891,0.726807,0.276794,0.390198,0.492859,up
582222,-3.566406,8.589844,5.007812,-0.064453,0.412109,1.244141,0.726807,0.276794,0.390198,0.492859,up
582227,-3.566406,8.589844,5.007812,-0.115234,0.447266,1.259766,0.726807,0.276794,0.390198,0.492859,up
582232,-3.566406,8.589844,5.007812,-0.115234,0.447266,1.259766,0.726807,0.276794,0.390198,0.492859,up
582237,-3.566406,8.589844,5.007812,-0.167969,0.46875,1.259766,0.713928,0.280334,0.388184,0.510864,up
582242,-3.566406,8.589844,5.007812,-0.292969,0.464844,1.214844,0.712097,0.280457,0.387817,0.513611,up
582247,-3.644531,8.664063,5.125,-0.292969,0.464844,1.214844,0.710327,0.280457,0.387329,0.516479,up
582252,-3.683594,8.742188,5.007812,-0.292969,0.464844,1.214844,0.708679,0.280396,0.38678,0.519165,up
582257,-3.683594,8.777344,5.085937,-0.292969,0.464844,1.214844,0.708679,0.280396,0.38678,0.519165,up
582263,-3.566406,8.628906,5.125,-0.603516,0.246094,1.0625,0.708679,0.280396,0.38678,0.519165,up
582268,-3.492188,8.394531,5.125,-0.603516,0.246094,1.0625,0.703308,0.279236,0.382874,0.529907,up
582273,-3.414063,8.324219,5.160156,-0.603516,0.246094,1.0625,0.703308,0.279236,0.382874,0.529907,up
582278,-3.335938,8.203125,5.160156,-0.605469,0.162109,1.0625,0.700989,0.278687,0.380371,0.535034,up
582283,-3.144531,8.085938,5.085937,-0.605469,0.162109,1.0625,0.699768,0.278564,0.379089,0.537598,up
582288,-2.992188,8.050781,5.085937,-0.513672,0.146484,1.134766,0.699768,0.278564,0.379089,0.537598,up
582293,-2.953125,7.972656,5.007812,-0.513672,0.146484,1.134766,0.698486,0.278564,0.377869,0.5401,up
582298,-2.839844,7.941406,5.007812,-0.439453,0.207031,1.189453,0.698486,0.278564,0.377869,0.5401,up
582304,-2.722656,7.941406,4.894531,-0.439453,0.207031,1.189453,0.693848,0.278748,0.374329,0.548401,up
582309,-2.570313,7.859375,4.933594,-0.439453,0.207031,1.189453,0.693848,0.278748,0.374329,0.548401,up
582314,-2.53125,7.863281,4.96875,-0.363281,0.341797,1.253906,0.690491,0.278931,0.37262,0.55365,up
582319,-2.457031,7.859375,5.007812,-0.363281,0.341797,1.253906,0.688843,0.278931,0.371948,0.556213,up
582324,-2.457031,7.972656,5.199219,-0.363281,0.341797,1.253906,0.688843,0.278931,0.371948,0.556213,up
582329,-2.457031,7.972656,5.199219,-0.376953,0.433594,1.248047,0.685059,0.278809,0.370544,0.561829,up
582334,-2.53125,8.125,5.238281,-0.384766,0.419922,1.236328,0.683044,0.278748,0.369873,0.564758,up
582340,-2.6875,8.429688,5.238281,-0.384766,0.419922,1.236328,0.681274,0.278625,0.369141,0.567383,up
582345,-2.761719,8.507813,5.199219,-0.457031,0.349609,1.234375,0.681274,0.278625,0.369141,0.567383,up
582350,-2.800781,8.628906,5.199219,-0.498047,0.316406,1.230469,0.677795,0.278381,0.36731,0.572876,up
582356,-2.839844,8.546875,5.125,-0.544922,0.275391,1.222656,0.677795,0.278381,0.36731,0.572876,up
582362,-2.839844,8.507813,5.046875,-0.595703,0.253906,1.21875,0.677795,0.278381,0.36731,0.572876,up
582368,-2.761719,8.472656,5.125,-0.646484,0.226562,1.210938,0.677795,0.278381,0.36731,0.572876,up
582373,-2.761719,8.472656,5.125,-0.695312,0.208984,1.210938,0.671448,0.277405,0.362183,0.583984,up
582378,-2.53125,8.203125,5.160156,-0.695312,0.208984,1.210938,0.671448,0.277405,0.362183,0.583984,up
582383,-2.339844,8.050781,5.199219,-0.748047,0.214844,1.193359,0.668518,0.276489,0.35907,0.589661,up
582388,-2.339844,8.050781,5.199219,-0.748047,0.214844,1.193359,0.668518,0.276489,0.35907,0.589661,up
582393,-2.035156,7.78125,5.46875,-0.658203,0.228516,1.210938,0.66394,0.275391,0.354675,0.597961,up
582398,-2.035156,7.78125,5.46875,-0.658203,0.228516,1.210938,0.66394,0.275391,0.354675,0.597961,up
582403,-1.996094,7.78125,5.46875,-0.511719,0.246094,1.263672,0.66394,0.275391,0.354675,0.597961,up
582408,-1.957031,7.898437,5.46875,-0.384766,0.273438,1.3125,0.66394,0.275391,0.354675,0.597961,up
582414,-1.957031,7.972656,5.390625,-0.326172,0.289063,1.339844,0.658508,0.275269,0.351074,0.606079,up
582419,-1.882813,8.007813,5.429687,-0.326172,0.289063,1.339844,0.654114,0.275696,0.349121,0.611755,up
582424,-1.84375,8.207031,5.351562,-0.326172,0.289063,1.339844,0.651855,0.276001,0.348328,0.614441,up
582429,-1.84375,8.320313,5.277344,-0.326172,0.289063,1.339844,0.649963,0.276306,0.347717,0.616699,up
582434,-1.765625,8.324219,5.277344,-0.224609,0.363281,1.410156,0.649963,0.276306,0.347717,0.616699,up
582439,-1.765625,8.324219,5.238281,-0.224609,0.363281,1.410156,0.645081,0.276978,0.34613,0.622375,up
582444,-1.691406,8.359375,5.238281,-0.224609,0.363281,1.410156,0.642639,0.277222,0.345337,0.625183,up
582449,-1.691406,8.324219,5.238281,-0.224609,0.363281,1.410156,0.642639,0.277222,0.345337,0.625183,up
582454,-1.726563,8.363281,5.238281,-0.308594,0.369141,1.414063,0.638245,0.277527,0.343689,0.630493,up
582459,-1.652344,8.285156,5.238281,-0.384766,0.332031,1.410156,0.635742,0.277588,0.34259,0.633606,up
582464,-1.574219,8.203125,5.277344,-0.384766,0.332031,1.410156,0.633545,0.27771,0.341492,0.636353,up
582469,-1.5,8.207031,5.351562,-0.384766,0.332031,1.410156,0.63147,0.277832,0.340454,0.638855,up
582474,-1.421875,8.242188,5.46875,-0.367188,0.232422,1.40625,0.629089,0.278076,0.339172,0.641785,up
582479,-1.308594,8.164063,5.429687,-0.367188,0.232422,1.40625,0.62677,0.27832,0.337891,0.644592,up
582484,-1.269531,8.167969,5.46875,-0.367188,0.232422,1.40625,0.624817,0.278687,0.336792,0.646912,up
582489,-1.117188,8.046875,5.542969,-0.367188,0.232422,1.40625,0.622681,0.279053,0.33551,0.649536,up
582494,-0.960937,7.859375,5.582031,-0.283203,0.166016,1.441406,0.620117,0.279602,0.334106,0.652466,up
582499,-0.808594,7.703125,5.582031,-0.283203,0.166016,1.441406,0.620117,0.279602,0.334106,0.652466,up
582505,-0.847656,7.707031,5.660156,-0.283203,0.166016,1.441406,0.615662,0.280701,0.332031,0.657227,up
582510,-0.847656,7.707031,5.660156,-0.113281,0.207031,1.494141,0.613098,0.281433,0.331055,0.65979,up
582515,-0.847656,7.707031,5.660156,-0.076172,0.210937,1.511719,0.610535,0.282166,0.330139,0.662292,up
582520,-0.730469,7.820312,5.542969,-0.076172,0.210937,1.511719,0.610535,0.282166,0.330139,0.662292,up
582525,-0.769531,7.898437,5.46875,-0.03125,0.199219,1.53125,0.60791,0.28302,0.329285,0.664795,up
582530,-0.769531,7.898437,5.46875,-0.03125,0.199219,1.53125,0.605103,0.283936,0.328491,0.667297,up
582535,-0.539062,8.246094,5.277344,0.035156,0.242187,1.496094,0.599731,0.285767,0.327148,0.672058,up
582540,-0.347656,8.324219,5.238281,0.035156,0.242187,1.496094,0.599731,0.285767,0.327148,0.672058,up
582545,-0.273438,8.28125,5.316406,-0.023437,0.296875,1.433594,0.599731,0.285767,0.327148,0.672058,up
582550,-0.15625,8.324219,5.316406,-0.107422,0.328125,1.394531,0.599731,0.285767,0.327148,0.672058,up
582555,-0.121094,8.246094,5.429687,-0.107422,0.328125,1.394531,0.589172,0.288147,0.324402,0.68158,up
582560,0.070312,8.046875,5.582031,-0.107422,0.328125,1.394531,0.589172,0.288147,0.324402,0.68158,up
582565,0.035156,7.941406,5.660156,-0.375,0.302734,1.328125,0.589172,0.288147,0.324402,0.68158,up
582570,0.035156,7.941406,5.660156,-0.429687,0.273438,1.316406,0.582275,0.288452,0.321228,0.688904,up
582576,0.226562,7.554687,6.195312,-0.429687,0.273438,1.316406,0.582275,0.288452,0.321228,0.688904,up
582582,0.148437,7.480469,5.925781,-0.410156,0.197266,1.363281,0.582275,0.288452,0.321228,0.688904,up
582588,0.035156,7.554687,5.8125,-0.367188,0.191406,1.394531,0.582275,0.288452,0.321228,0.688904,up
582593,0.148437,7.476562,6.003906,-0.287109,0.171875,1.419922,0.582275,0.288452,0.321228,0.688904,up
582598,0.109375,7.402344,5.964844,-0.287109,0.171875,1.419922,0.570801,0.289612,0.314514,0.700989,up
582604,0.109375,7.359375,5.890625,0.082031,0.173828,1.484375,0.570801,0.289612,0.314514,0.700989,up
582609,0.035156,7.363281,5.890625,0.082031,0.173828,1.484375,0.5625,0.292236,0.312012,0.707703,up
582615,0.035156,7.625,5.660156,0.082031,0.173828,1.484375,0.559692,0.293335,0.311646,0.709595,up
582620,0.070312,7.824219,5.621094,0.300781,0.25,1.445313,0.559692,0.293335,0.311646,0.709595,up
582625,0.070312,7.902344,5.390625,0.283203,0.308594,1.423828,0.559692,0.293335,0.311646,0.709595,up
582631,0.1875,8.007813,5.316406,0.283203,0.308594,1.423828,0.550842,0.296387,0.311157,0.715515,up
582636,0.1875,7.972656,5.316406,0.123047,0.390625,1.34375,0.547913,0.297119,0.310913,0.717529,up
582642,0.226562,7.898437,5.277344,-0.013672,0.427734,1.318359,0.547913,0.297119,0.310913,0.717529,up
582647,0.1875,7.628906,5.316406,-0.013672,0.427734,1.318359,0.542603,0.297607,0.31012,0.72168,up
582652,0.1875,7.628906,5.316406,-0.013672,0.427734,1.318359,0.542603,0.297607,0.31012,0.72168,up
582657,0.226562,7.476562,5.390625,-0.316406,0.478516,1.25,0.542603,0.297607,0.31012,0.72168,up
582662,0.226562,7.476562,5.390625,-0.523437,0.517578,1.234375,0.5354,0.296387,0.307251,0.72876,up
582667,0.226562,6.9375,5.773437,-0.523437,0.517578,1.234375,0.5354,0.296387,0.307251,0.72876,up
582673,0.1875,6.824219,5.851562,-0.544922,0.507812,1.236328,0.530945,0.295044,0.304871,0.733521,up
582679,0.417969,6.671875,6.082031,-0.410156,0.462891,1.25,0.526245,0.294189,0.302795,0.738159,up
582684,0.492187,6.597656,6.15625,-0.410156,0.462891,1.25,0.523499,0.294006,0.301941,0.74054,up
582689,0.492187,6.632812,6.121094,0.011719,0.443359,1.302734,0.523499,0.294006,0.301941,0.74054,up
582694,0.53125,6.75,6.082031,0.011719,0.443359,1.302734,0.520996,0.294067,0.301514,0.742371,up
582699,0.609375,6.898437,5.925781,0.177734,0.435547,1.318359,0.520996,0.294067,0.301514,0.742371,up
582704,0.648437,7.019531,5.851562,0.328125,0.429687,1.341797,0.515137,0.294922,0.30127,0.746277,up
582709,0.800781,7.136719,5.699219,0.328125,0.429687,1.341797,0.509216,0.296082,0.301575,0.749695,up
582714,0.875,7.320312,5.46875,0.328125,0.429687,1.341797,0.509216,0.296082,0.301575,0.749695,up
582719,0.875,7.285156,5.46875,0.328125,0.429687,1.341797,0.503052,0.296936,0.301941,0.753418,up
582724,0.875,7.363281,5.507812,0.328125,0.429687,1.341797,0.503052,0.296936,0.301941,0.753418,up
582729,0.875,7.363281,5.507812,0.132812,0.578125,1.285156,0.503052,0.296936,0.301941,0.753418,up
582734,0.839844,7.28125,5.542969,0.037109,0.589844,1.246094,0.503052,0.296936,0.301941,0.753418,up
582739,0.914062,7.207031,5.660156,-0.193359,0.599609,1.195313,0.494263,0.296875,0.301697,0.759277,up
582744,0.839844,7.207031,5.734375,-0.193359,0.599609,1.195313,0.491394,0.296448,0.30127,0.761536,up
582749,0.875,7.097656,5.773437,-0.193359,0.599609,1.195313,0.488892,0.295898,0.300659,0.76355,up
582754,0.875,7.015625,5.890625,-0.380859,0.552734,1.107422,0.488892,0.295898,0.300659,0.76355,up
582759,0.992187,6.9375,6.195312,-0.380859,0.552734,1.107422,0.484497,0.294739,0.299194,0.767395,up
582764,0.992187,6.941406,6.273437,-0.339844,0.476562,1.080078,0.482056,0.294006,0.298218,0.769531,up
582769,1.144531,6.824219,6.425781,-0.339844,0.476562,1.080078,0.479858,0.293457,0.297363,0.771484,up
582775,1.257813,6.785156,6.464844,-0.339844,0.476562,1.080078,0.475647,0.292725,0.295837,0.774963,up
582780,1.414063,6.710937,6.503906,-0.115234,0.373047,1.099609,0.473083,0.292603,0.295044,0.776855,up
582785,1.488281,6.632812,6.464844,-0.019531,0.357422,1.117188,0.470703,0.292603,0.294556,0.778503,up
582790,1.644531,6.558594,6.582031,-0.019531,0.357422,1.117188,0.468567,0.292786,0.29425,0.779785,up
582795,1.679688,6.558594,6.617187,-0.019531,0.357422,1.117188,0.465942,0.293213,0.294128,0.781311,up
582800,1.679688,6.59375,6.539062,0.287109,0.306641,1.173828,0.463013,0.293823,0.294128,0.782776,up
582805,1.757813,6.75,6.464844,0.287109,0.306641,1.173828,0.460205,0.294495,0.29425,0.78418,up
582810,1.757813,6.859375,6.425781,0.287109,0.306641,1.173828,0.457703,0.295105,0.294434,0.785339,up
582815,1.757813,6.976562,6.3125,0.400391,0.341797,1.197266,0.454651,0.295898,0.294739,0.786682,up
582820,1.757813,7.164062,6.15625,0.373047,0.378906,1.1875,0.451721,0.296509,0.294983,0.788025,up
582825,1.796875,7.4375,5.925781,0.373047,0.378906,1.1875,0.448792,0.296997,0.295288,0.789429,up
582830,1.796875,7.519531,5.925781,0.373047,0.378906,1.1875,0.448792,0.296997,0.295288,0.789429,up
582835,1.796875,7.519531,5.925781,0.236328,0.484375,1.130859,0.44635,0.297241,0.295471,0.790649,up
582840,1.757813,7.515625,5.890625,0.158203,0.521484,1.095703,0.44635,0.297241,0.295471,0.790649,up
582845,1.757813,7.285156,6.195312,0.089844,0.533203,1.074219,0.440979,0.297241,0.295593,0.79364,up
582850,1.757813,7.285156,6.195312,0.015625,0.542969,1.0625,0.440979,0.297241,0.295593,0.79364,up
582856,1.757813,7.285156,6.195312,-0.076172,0.503906,1.058594,0.433472,0.296448,0.294983,0.798218,up
582863,1.796875,6.859375,6.347656,-0.076172,0.503906,1.058594,0.433472,0.296448,0.294983,0.798218,up
582869,1.796875,6.859375,6.386719,-0.095703,0.466797,1.091797,0.433472,0.296448,0.294983,0.798218,up
582874,1.796875,6.78125,6.464844,0.005859,0.402344,1.119141,0.433472,0.296448,0.294983,0.798218,up
582879,1.835938,6.710937,6.464844,0.005859,0.402344,1.119141,0.423645,0.295776,0.293152,0.804382,up
582884,1.871094,6.753906,6.425781,0.005859,0.402344,1.119141,0.421021,0.295898,0.292847,0.805908,up
582890,1.949219,6.785156,6.425781,0.185547,0.318359,1.134766,0.421021,0.295898,0.292847,0.805908,up
582895,2.027344,6.820312,6.464844,0.294922,0.277344,1.126953,0.421021,0.295898,0.292847,0.805908,up
582901,2.0625,7.058594,6.386719,0.294922,0.277344,1.126953,0.410522,0.298157,0.293091,0.810364,up
582906,2.21875,7.136719,6.425781,0.541016,0.175781,1.0625,0.410522,0.298157,0.293091,0.810364,up
582912,2.21875,7.246094,6.3125,0.542969,0.173828,1.039063,0.405151,0.300171,0.294006,0.811951,up
582917,2.371094,7.097656,6.273437,0.498047,0.189453,1.025391,0.405151,0.300171,0.294006,0.811951,up
582923,2.410156,7.136719,6.273437,0.408203,0.203125,1.007813,0.405151,0.300171,0.294006,0.811951,up
582928,2.292969,7.054687,6.234375,0.310547,0.240234,1.001953,0.405151,0.300171,0.294006,0.811951,up
582933,2.253906,7.097656,6.273437,0.240234,0.261719,0.996094,0.405151,0.300171,0.294006,0.811951,up
582939,2.253906,7.058594,6.386719,0.183594,0.273438,1.003906,0.405151,0.300171,0.294006,0.811951,up
582944,2.21875,6.980469,6.273437,0.136719,0.296875,1.0,0.405151,0.300171,0.294006,0.811951,up
582949,2.140625,6.941406,6.347656,0.095703,0.294922,1.025391,0.405151,0.300171,0.294006,0.811951,up
582954,2.140625,6.902344,6.273437,0.070312,0.287109,1.056641,0.383362,0.304688,0.293945,0.820862,up
582959,2.21875,6.785156,6.3125,0.070312,0.287109,1.056641,0.383362,0.304688,0.293945,0.820862,up
582964,2.21875,6.710937,6.347656,0.068359,0.289063,1.099609,0.383362,0.304688,0.293945,0.820862,up
582969,2.253906,6.710937,6.3125,0.242187,0.28125,1.119141,0.383362,0.304688,0.293945,0.820862,up
582974,2.292969,6.753906,6.234375,0.242187,0.28125,1.119141,0.37561,0.305786,0.292969,0.824402,up
582979,2.371094,6.78125,6.273437,0.242187,0.28125,1.119141,0.372925,0.306335,0.292969,0.825378,up
582985,2.410156,6.863281,6.347656,0.537109,0.277344,1.083984,0.372925,0.306335,0.292969,0.825378,up
582990,2.332031,6.980469,6.273437,0.537109,0.277344,1.083984,0.364502,0.308411,0.29425,0.827881,up
582996,2.523438,7.054687,6.121094,0.537109,0.277344,1.083984,0.361694,0.309082,0.294861,0.828674,up
583001,2.601563,7.015625,6.15625,0.490234,0.345703,1.009766,0.358887,0.309692,0.295471,0.829468,up
583006,2.675781,6.976562,6.15625,0.417969,0.378906,0.964844,0.358887,0.309692,0.295471,0.829468,up
583011,2.714844,6.863281,6.121094,0.417969,0.378906,0.964844,0.358887,0.309692,0.295471,0.829468,up
583016,2.714844,6.863281,6.042969,0.333984,0.408203,0.925781,0.351318,0.310364,0.296631,0.83197,up
583021,2.714844,6.863281,6.042969,0.333984,0.408203,0.925781,0.351318,0.310364,0.296631,0.83197,up
583026,2.640625,6.636719,6.082031,0.130859,0.460937,0.851562,0.351318,0.310364,0.296631,0.83197,up
583031,2.640625,6.636719,6.082031,-0.070312,0.517578,0.789062,0.346924,0.309937,0.296692,0.833984,up
583036,2.640625,6.636719,6.082031,-0.070312,0.517578,0.789062,0.343018,0.308899,0.296143,0.836182,up
583042,2.332031,6.785156,6.386719,-0.070312,0.517578,0.789062,0.343018,0.308899,0.296143,0.836182,up
583047,2.253906,6.785156,6.3125,-0.117188,0.550781,0.742187,0.343018,0.308899,0.296143,0.836182,up
583053,2.21875,6.902344,6.386719,-0.107422,0.556641,0.730469,0.343018,0.308899,0.296143,0.836182,up
583058,2.253906,7.015625,6.539062,-0.068359,0.550781,0.730469,0.343018,0.308899,0.296143,0.836182,up
583064,2.332031,6.9375,6.730469,0.105469,0.490234,0.742187,0.343018,0.308899,0.296143,0.836182,up
583070,2.253906,6.902344,6.730469,0.105469,0.490234,0.742187,0.331665,0.305115,0.294617,0.842651,up
583075,2.253906,7.019531,6.695312,0.246094,0.376953,0.806641,0.331665,0.305115,0.294617,0.842651,up
583080,2.445313,6.9375,6.921875,0.246094,0.376953,0.806641,0.325439,0.304871,0.295105,0.845032,up
583085,2.484375,6.902344,7.039062,0.236328,0.263672,0.873047,0.325439,0.304871,0.295105,0.845032,up
583090,2.523438,6.785156,7.039062,0.224609,0.21875,0.890625,0.322937,0.305176,0.295227,0.845825,up
583096,2.523438,6.785156,7.039062,0.179687,0.177734,0.904297,0.318848,0.305847,0.295166,0.847168,up
583101,2.792969,6.367187,7.082031,0.179687,0.177734,0.904297,0.316711,0.306335,0.294983,0.847839,up
583107,2.90625,6.210937,7.1875,0.123047,0.091797,0.898437,0.314575,0.306885,0.294617,0.848511,up
583112,2.984375,6.058594,7.1875,0.107422,0.064453,0.888672,0.312622,0.307495,0.29425,0.849182,up
583118,3.136719,5.90625,7.191406,0.107422,0.064453,0.888672,0.310425,0.308167,0.293823,0.849915,up
583123,3.289063,5.867187,7.308594,0.119141,0.042969,0.839844,0.310425,0.308167,0.293823,0.849915,up
583128,3.40625,5.753906,7.347656,0.132812,0.029297,0.826172,0.310425,0.308167,0.293823,0.849915,up
583133,3.519531,5.597656,7.304687,0.144531,0.023437,0.818359,0.310425,0.308167,0.293823,0.849915,up
583138,3.597656,5.332031,7.34375,0.144531,0.023437,0.818359,0.310425,0.308167,0.293823,0.849915,up
583144,3.597656,5.445312,7.226562,0.144531,0.023437,0.818359,0.301086,0.311523,0.292358,0.852539,up
583150,3.597656,5.597656,7.1875,0.421875,-0.078125,0.90625,0.301086,0.311523,0.292358,0.852539,up
583155,3.75,5.714844,7.191406,0.421875,-0.078125,0.90625,0.294861,0.314697,0.292542,0.853516,up
583160,3.789063,5.753906,7.042969,0.634766,-0.183594,1.035156,0.294861,0.314697,0.292542,0.853516,up
583165,3.863281,5.753906,6.886719,0.734375,-0.220703,1.119141,0.292236,0.316284,0.292908,0.853699,up
583170,3.902344,5.828125,6.769531,0.734375,-0.220703,1.119141,0.286804,0.319885,0.293945,0.853821,up
583175,3.980469,5.945312,6.726562,0.734375,-0.220703,1.119141,0.283691,0.322021,0.294678,0.853821,up
583180,4.054687,5.980469,6.539062,0.734375,-0.220703,1.119141,0.283691,0.322021,0.294678,0.853821,up
583185,4.09375,6.058594,6.460937,1.140625,-0.259766,1.476563,0.283691,0.322021,0.294678,0.853821,up
583190,4.09375,6.058594,6.34375,1.140625,-0.259766,1.476563,0.272583,0.329163,0.297607,0.853699,up
583195,4.09375,6.019531,6.273437,1.140625,-0.259766,1.476563,0.268433,0.331604,0.298645,0.853699,up
583200,4.132812,5.945312,6.082031,1.140625,-0.259766,1.476563,0.268433,0.331604,0.298645,0.853699,up
583205,4.285156,6.214844,6.121094,1.228516,-0.144531,1.703125,0.268433,0.331604,0.298645,0.853699,up
583210,4.324219,6.253906,6.15625,1.228516,-0.144531,1.703125,0.259277,0.336548,0.300903,0.853821,up
583215,4.324219,6.253906,6.15625,1.361328,-0.146484,1.826172,0.254517,0.33905,0.302063,0.853821,up
583221,4.324219,6.25,6.082031,1.427734,-0.132812,1.886719,0.254517,0.33905,0.302063,0.853821,up
583226,4.246094,6.597656,5.8125,1.484375,-0.130859,1.957031,0.244141,0.344299,0.30481,0.85376,up
583231,4.246094,6.597656,5.8125,1.552734,-0.191406,2.048828,0.23877,0.347107,0.306213,0.853699,up
583236,4.09375,6.941406,5.660156,1.552734,-0.191406,2.048828,0.233154,0.350098,0.307617,0.853455,up
583241,4.054687,6.859375,5.390625,1.552734,-0.191406,2.048828,0.233154,0.350098,0.307617,0.853455,up
583246,3.980469,6.976562,4.96875,1.552734,-0.191406,2.048828,0.220764,0.357178,0.310791,0.852722,up
583251,3.980469,6.976562,4.96875,1.892578,-0.380859,2.640625,0.220764,0.357178,0.310791,0.852722,up
583256,4.054687,6.898437,4.816406,1.892578,-0.380859,2.640625,0.199707,0.368835,0.315247,0.851318,up
583261,4.210937,6.898437,4.664062,1.892578,-0.380859,2.640625,0.192139,0.372864,0.316467,0.85083,up
583266,4.285156,6.980469,4.777344,1.892578,-0.380859,2.640625,0.185425,0.376282,0.317444,0.850403,up
583271,4.476562,6.9375,4.816406,1.914063,-0.304688,2.976563,0.185425,0.376282,0.317444,0.850403,up
583276,4.785156,6.371094,4.703125,1.914063,-0.183594,2.990234,0.177185,0.380432,0.318604,0.849915,up
583282,4.859375,6.214844,4.546875,1.914063,-0.183594,2.990234,0.161621,0.387512,0.320801,0.848999,up
583287,4.976562,6.441406,4.703125,1.935547,0.0625,3.025391,0.161621,0.387512,0.320801,0.848999,up
583292,4.976562,6.441406,4.703125,1.910156,0.119141,3.011719,0.144958,0.393738,0.323181,0.848267,up
583298,5.128906,6.292969,5.351562,2.105469,0.105469,2.964844,0.136658,0.396606,0.324524,0.847778,up
583303,5.128906,6.292969,5.351562,2.150391,0.09375,2.910156,0.136658,0.396606,0.324524,0.847778,up
583308,5.128906,6.292969,5.351562,2.150391,0.09375,2.910156,0.119873,0.402405,0.327881,0.846252,up
583313,5.128906,6.292969,5.351562,2.3125,-0.019531,2.732422,0.111755,0.405273,0.329895,0.845276,up
583318,5.359375,5.828125,5.125,2.363281,-0.142578,2.611328,0.103638,0.408386,0.332092,0.843933,up
583325,5.511719,5.945312,5.007812,2.363281,-0.142578,2.611328,0.103638,0.408386,0.332092,0.843933,up
583330,5.625,5.828125,5.085937,2.570313,-0.765625,2.277344,0.103638,0.408386,0.332092,0.843933,up
583336,5.816406,5.371094,4.664062,2.570313,-0.765625,2.277344,0.075256,0.423279,0.342651,0.835327,up
583341,5.894531,5.140625,4.203125,2.744141,-0.949219,2.054688,0.068176,0.427917,0.346252,0.832092,up
583346,6.007812,4.910156,3.820313,2.8125,-1.039063,1.982422,0.061523,0.432434,0.349854,0.828735,up
583351,6.164062,4.757812,3.628906,2.8125,-1.039063,1.982422,0.056335,0.436157,0.352905,0.825867,up
583356,6.316406,4.527344,3.515625,2.8125,-1.039063,1.982422,0.056335,0.436157,0.352905,0.825867,up
583361,6.550781,4.335937,3.207031,2.886719,-1.103516,1.865234,0.056335,0.436157,0.352905,0.825867,up
583366,6.550781,4.335937,3.207031,2.833984,-1.042969,1.859375,0.038269,0.448792,0.363831,0.815308,up
583371,6.351562,3.953125,2.710938,2.833984,-1.042969,1.859375,0.038269,0.448792,0.363831,0.815308,up
583376,6.351562,3.953125,2.710938,2.673828,-0.970703,1.962891,0.032043,0.452881,0.367188,0.811829,up
583381,5.933594,5.292969,2.402344,2.673828,-0.970703,1.962891,0.019775,0.461548,0.373352,0.804443,up
583386,5.664062,5.671875,2.785156,2.673828,-0.970703,1.962891,0.013977,0.466064,0.376282,0.800659,up
583391,5.550781,6.398437,2.785156,2.673828,-0.970703,1.962891,0.013977,0.466064,0.376282,0.800659,up
583396,5.511719,6.863281,2.59375,2.580078,-1.458984,1.769531,0.013977,0.466064,0.376282,0.800659,up
583401,5.589844,6.820312,2.328125,2.580078,-1.458984,1.769531,0.001953,-0.479919,-0.385315,-0.788208,up
583406,5.78125,6.597656,2.058594,2.580078,-1.458984,1.769531,0.005737,-0.484192,-0.388062,-0.78418,up
583411,6.429687,6.175781,2.402344,2.537109,-2.011719,1.238281,0.005737,-0.484192,-0.388062,-0.78418,up
583416,6.621094,5.980469,2.785156,2.537109,-2.011719,1.238281,0.012756,-0.494202,-0.394897,-0.774353,up
583421,7.117187,5.40625,3.246094,2.537109,-2.011719,1.238281,0.015869,-0.499573,-0.399109,-0.768677,up
583426,7.355469,5.023437,3.167969,2.537109,-2.011719,1.238281,0.018066,-0.503906,-0.40271,-0.763916,up
583431,7.539062,4.679687,2.902344,2.197266,-2.142578,0.523437,0.020081,-0.508728,-0.406738,-0.758545,up
583436,7.539062,4.679687,2.902344,2.197266,-2.142578,0.523437,0.020081,-0.508728,-0.406738,-0.758545,up
583441,7.695312,4.183594,2.785156,1.685547,-2.185547,0.464844,0.020081,-0.508728,-0.406738,-0.758545,up
583446,7.847656,3.644531,2.710938,1.046875,-2.300781,0.478516,0.021484,-0.517639,-0.411804,-0.749695,up
583451,7.847656,3.644531,2.710938,1.046875,-2.300781,0.478516,0.021484,-0.517639,-0.411804,-0.749695,up
583456,7.847656,3.644531,2.710938,0.425781,-2.490234,0.513672,0.017212,-0.533203,-0.411133,-0.739136,up
583461,7.460937,3.800781,1.945313,0.425781,-2.490234,0.513672,0.014465,-0.53833,-0.409302,-0.736572,up
583466,6.929687,4.183594,1.445313,0.425781,-2.490234,0.513672,0.011353,-0.543335,-0.407166,-0.73407,up
583471,6.855469,4.21875,1.332031,0.425781,-2.490234,0.513672,0.007996,-0.548462,-0.40509,-0.731445,up
583476,6.894531,4.335937,1.484375,-0.566406,-2.488281,0.078125,0.007996,-0.548462,-0.40509,-0.731445,up
583482,7.078125,4.949219,1.484375,-0.566406,-2.488281,0.078125,0.001709,-0.5578,-0.402893,-0.725647,up
583487,7.117187,5.371094,1.214844,0.400391,-2.287109,-0.140625,0.001709,-0.5578,-0.402893,-0.725647,up
583492,7.117187,5.371094,1.214844,0.925781,-2.177734,-0.183594,0.002258,0.565796,0.404663,0.718384,up
583499,7.238281,6.402344,0.257813,0.925781,-2.177734,-0.183594,0.002258,0.565796,0.404663,0.718384,up
583504,7.238281,6.632812,0.027344,1.785156,-1.958984,-0.228516,0.002258,0.565796,0.404663,0.718384,up
583509,7.238281,6.558594,-0.085937,2.105469,-1.863281,-0.220703,0.002258,0.565796,0.404663,0.718384,up
583514,7.199219,6.441406,-0.125,2.257813,-1.769531,-0.199219,0.002258,0.565796,0.404663,0.718384,up
583519,7.0,6.25,-0.316406,2.257813,-1.769531,-0.199219,0.002258,0.565796,0.404663,0.718384,up
583525,7.0,6.058594,-0.355469,2.257813,-1.769531,-0.199219,0.000305,-0.584595,-0.426453,-0.690247,up
583531,6.96875,5.90625,-0.46875,1.826172,-1.613281,-0.068359,0.000305,-0.584595,-0.426453,-0.690247,up
583536,7.003906,6.175781,-0.8125,1.826172,-1.613281,-0.068359,0.002502,-0.589844,-0.433777,-0.681091,up
583541,7.003906,6.175781,-0.8125,1.46875,-1.658203,-0.03125,0.003052,-0.592529,-0.436646,-0.676941,up
583546,7.082031,6.367187,-1.121094,1.46875,-1.658203,-0.03125,0.002991,-0.595459,-0.438782,-0.672974,up
583551,7.503906,6.671875,-1.734375,0.634766,-1.75,0.056641,0.00238,-0.598389,-0.440125,-0.669495,up
583556,7.503906,6.671875,-1.734375,0.308594,-1.767578,0.083984,0.001282,-0.601379,-0.440796,-0.666382,up
583562,7.539062,6.824219,-2.230469,-0.068359,-1.714844,0.111328,0.001282,-0.601379,-0.440796,-0.666382,up
583567,7.539062,6.824219,-2.230469,-0.060547,-1.742188,0.103516,0.001282,-0.601379,-0.440796,-0.666382,up
583572,7.699219,6.59375,-2.0,-0.060547,-1.742188,0.103516,0.001282,-0.601379,-0.440796,-0.666382,up
583577,7.882812,6.902344,-2.117188,0.189453,-1.724609,0.041016,0.001282,-0.601379,-0.440796,-0.666382,up
583583,7.804687,6.824219,-2.117188,0.365234,-1.693359,0.0,0.008789,0.619141,0.440735,0.649841,up
583588,7.621094,6.671875,-2.117188,0.365234,-1.693359,0.0,0.009949,0.621887,0.441528,0.646729,up
583593,7.621094,6.632812,-2.347656,0.365234,-1.693359,0.0,0.010742,0.624268,0.442566,0.643677,up
583598,7.738281,6.59375,-2.347656,0.904297,-1.566406,-0.0625,0.010742,0.624268,0.442566,0.643677,up
583604,8.042969,6.75,-2.5,1.029297,-1.521484,-0.054687,0.010742,0.624268,0.442566,0.643677,up
583609,8.039063,6.785156,-2.691406,1.089844,-1.480469,-0.044922,0.010742,0.624268,0.442566,0.643677,up
583615,7.921875,6.824219,-2.84375,1.070313,-1.439453,0.005859,0.010742,0.624268,0.442566,0.643677,up
583620,7.882812,6.863281,-2.996094,1.019531,-1.388672,0.042969,0.010742,0.624268,0.442566,0.643677,up
583625,8.265625,6.863281,-3.34375,0.861328,-1.402344,0.138672,0.010742,0.624268,0.442566,0.643677,up
583630,8.347656,6.902344,-3.34375,0.861328,-1.402344,0.138672,0.011414,0.640808,0.453186,0.619568,up
583635,8.382813,6.941406,-3.382813,0.804687,-1.357422,0.175781,0.011414,0.640808,0.453186,0.619568,up
583641,8.386719,7.015625,-3.609375,0.78125,-1.291016,0.191406,0.011414,0.640808,0.453186,0.619568,up
583646,8.460938,7.054687,-3.6875,0.701172,-1.179688,0.191406,0.011292,0.647522,0.455933,0.610474,up
583651,8.542969,7.132812,-3.726563,0.701172,-1.179688,0.191406,0.011169,0.649841,0.456787,0.607361,up
583656,8.542969,7.132812,-3.726563,0.652344,-1.089844,0.179687,0.011108,0.651672,0.457397,0.60498,up
583661,8.5,7.132812,-3.765625,0.605469,-0.980469,0.167969,0.011108,0.651672,0.457397,0.60498,up
583666,8.425781,7.09375,-3.765625,0.542969,-0.876953,0.148437,0.010864,0.654968,0.458679,0.600464,up
583671,8.425781,7.09375,-3.765625,0.542969,-0.876953,0.148437,0.010864,0.654968,0.458679,0.600464,up
583676,8.460938,7.015625,-3.957031,0.488281,-0.769531,0.123047,0.010681,0.657654,0.459656,0.596741,up
583682,8.425781,7.015625,-3.917969,0.371094,-0.667969,0.083984,0.010803,0.659851,0.46051,0.593689,up
583687,8.464844,6.632812,-3.917969,0.210937,-0.642578,0.064453,0.010986,0.66095,0.460754,0.592224,up
583693,8.5,6.785156,-3.992188,0.210937,-0.642578,0.064453,0.011292,0.661926,0.460937,0.591003,up
583699,8.425781,6.632812,-3.992188,0.210937,-0.642578,0.064453,0.011719,0.662964,0.46106,0.589722,up
583705,8.539063,6.136719,-3.878906,0.072266,-0.59375,0.072266,0.011719,0.662964,0.46106,0.589722,up
583711,8.460938,7.476562,-4.414062,0.009766,-0.539062,0.097656,0.011719,0.662964,0.46106,0.589722,up
583716,8.34375,6.402344,-3.765625,-0.076172,-0.546875,0.097656,0.011719,0.662964,0.46106,0.589722,up
583721,8.160156,6.902344,-3.917969,0.056641,-0.46875,0.083984,0.013672,0.666626,0.460632,0.585876,up
583726,8.269531,6.558594,-3.992188,0.056641,-0.46875,0.083984,0.014038,0.66748,0.460571,0.584961,up
583731,8.1875,6.558594,-3.992188,0.021484,-0.355469,0.082031,0.014404,0.668213,0.46051,0.584106,up
583737,8.082031,6.863281,-3.878906,0.021484,-0.355469,0.082031,0.014832,0.669373,0.460388,0.582886,up
583742,8.191406,6.75,-3.496094,0.134766,-0.345703,0.107422,0.014954,0.670044,0.460327,0.582153,up
583747,8.226563,6.671875,-3.382813,0.134766,-0.345703,0.107422,0.014832,0.670593,0.460449,0.581421,up
583752,8.191406,6.558594,-3.726563,0.134766,-0.345703,0.107422,0.014526,0.671204,0.460693,0.580505,up
583758,8.117188,6.175781,-3.992188,0.134766,-0.345703,0.107422,0.014099,0.671753,0.46106,0.579651,up
583763,8.078125,6.441406,-4.070312,0.308594,-0.257813,0.136719,0.014099,0.671753,0.46106,0.579651,up
583769,8.226563,6.019531,-3.765625,0.1875,-0.265625,0.134766,0.014099,0.671753,0.46106,0.579651,up
583775,8.121094,5.867187,-3.6875,0.033203,-0.230469,0.128906,0.014099,0.671753,0.46106,0.579651,up
583780,7.964844,5.828125,-3.648438,-0.068359,-0.191406,0.123047,0.014099,0.671753,0.46106,0.579651,up
583785,7.882812,5.597656,-3.800781,-0.148437,-0.179687,0.09375,0.014099,0.671753,0.46106,0.579651,up
583790,7.84375,5.597656,-3.765625,-0.197266,-0.158203,0.078125,0.014099,0.671753,0.46106,0.579651,up
583795,7.773437,5.523437,-3.6875,-0.228516,-0.128906,0.056641,0.014099,0.671753,0.46106,0.579651,up
583800,7.695312,5.523437,-3.609375,-0.246094,-0.121094,0.033203,0.014099,0.671753,0.46106,0.579651,up
583805,7.617187,5.484375,-3.535156,-0.246094,-0.121094,0.033203,0.01532,0.67511,0.459351,0.577087,up
583810,7.542969,5.371094,-3.535156,-0.246094,-0.117188,-0.011719,0.01532,0.67511,0.459351,0.577087,up
583816,7.464844,5.332031,-3.496094,-0.216797,-0.136719,-0.035156,0.01532,0.67511,0.459351,0.577087,up
583821,7.394531,5.332031,-3.457031,-0.183594,-0.162109,-0.050781,0.01532,0.67511,0.459351,0.577087,up
583826,7.394531,5.332031,-3.457031,-0.183594,-0.162109,-0.050781,0.017456,0.675659,0.458496,0.577026,up
583831,7.421875,5.332031,-3.417969,-0.183594,-0.162109,-0.050781,0.018005,0.675903,0.458435,0.576721,up
583837,7.464844,5.332031,-3.382813,-0.044922,-0.257813,-0.064453,0.018921,0.676453,0.458557,0.575989,up
583842,7.503906,5.292969,-3.34375,-0.044922,-0.257813,-0.064453,0.019226,0.676697,0.458679,0.575562,up
583847,7.421875,5.332031,-3.382813,0.037109,-0.232422,-0.046875,0.019226,0.676697,0.458679,0.575562,up
583852,7.394531,5.332031,-3.496094,0.037109,-0.232422,-0.046875,0.019775,0.677246,0.458984,0.574707,up
583857,7.390625,5.40625,-3.496094,0.037109,-0.232422,-0.046875,0.02002,0.67749,0.459167,0.574219,up
583862,7.355469,5.40625,-3.535156,0.037109,-0.232422,-0.046875,0.020203,0.677673,0.459351,0.573853,up
583867,7.355469,5.445312,-3.574219,0.056641,-0.162109,-0.068359,0.020386,0.677856,0.459595,0.573425,up
583872,7.273437,5.445312,-3.609375,0.056641,-0.162109,-0.068359,0.020569,0.677979,0.459839,0.57312,up
583877,7.273437,5.445312,-3.574219,0.056641,-0.162109,-0.068359,0.020752,0.67804,0.460083,0.572876,up
583883,7.355469,5.484375,-3.6875,0.056641,-0.162109,-0.068359,0.021057,0.678162,0.460327,0.57251,up
583888,7.355469,5.40625,-3.535156,0.005859,-0.146484,-0.113281,0.021362,0.678223,0.46051,0.572266,up
583893,7.355469,5.40625,-3.535156,-0.013672,-0.134766,-0.105469,0.021667,0.678223,0.460754,0.572021,up
583899,7.316406,5.40625,-3.457031,-0.013672,-0.134766,-0.105469,0.021973,0.678284,0.460876,0.571838,up
583904,7.316406,5.40625,-3.417969,-0.050781,-0.091797,-0.097656,0.021973,0.678284,0.460876,0.571838,up
583909,7.234375,5.40625,-3.417969,-0.083984,-0.066406,-0.080078,0.021973,0.678284,0.460876,0.571838,up
583914,7.238281,5.332031,-3.457031,-0.083984,-0.066406,-0.080078,0.02301,0.678284,0.461121,0.571655,up
583920,7.277344,5.445312,-3.457031,-0.160156,-0.078125,-0.078125,0.02301,0.678284,0.461121,0.571655,up
583925,7.277344,5.332031,-3.417969,-0.179687,-0.105469,-0.09375,0.02301,0.678284,0.461121,0.571655,up
583931,7.238281,5.292969,-3.417969,-0.183594,-0.117188,-0.101563,0.02301,0.678284,0.461121,0.571655,up
583936,7.277344,5.214844,-3.457031,-0.183594,-0.117188,-0.101563,0.02301,0.678284,0.461121,0.571655,up
583942,7.3125,5.214844,-3.457031,-0.083984,-0.162109,-0.138672,0.02301,0.678284,0.461121,0.571655,up
583947,7.351562,5.101562,-3.417969,-0.083984,-0.162109,-0.138672,0.026123,0.678406,0.46106,0.571472,up
583952,7.460937,5.140625,-3.417969,-0.083984,-0.162109,-0.138672,0.026855,0.678406,0.461548,0.570984,up
583957,7.460937,5.179687,-3.382813,-0.083984,-0.162109,-0.138672,0.026855,0.678406,0.461548,0.570984,up
583962,7.394531,5.292969,-3.382813,0.150391,-0.109375,-0.148437,0.027039,0.678345,0.462524,0.570251,up
583967,7.351562,5.5625,-3.457031,0.150391,-0.109375,-0.148437,0.026917,0.678284,0.463135,0.569824,up
583972,7.316406,5.675781,-3.496094,0.150391,-0.109375,-0.148437,0.026794,0.678223,0.463745,0.569458,up
583977,7.3125,5.753906,-3.496094,0.277344,-0.056641,-0.144531,0.026794,0.678223,0.463745,0.569458,up
583982,7.273437,5.867187,-3.496094,0.28125,-0.060547,-0.128906,0.02655,0.678101,0.464478,0.56897,up
583987,7.15625,5.90625,-3.535156,0.28125,-0.060547,-0.128906,0.026123,0.677979,0.465698,0.568115,up
583992,7.195312,5.945312,-3.457031,0.28125,-0.060547,-0.128906,0.026123,0.677979,0.465698,0.568115,up
583997,7.234375,5.90625,-3.382813,0.242187,-0.121094,-0.091797,0.026123,0.677979,0.465698,0.568115,up
584003,7.160156,5.945312,-3.382813,0.242187,-0.121094,-0.091797,0.025574,0.678101,0.467407,0.566589,up
584009,7.199219,6.058594,-3.457031,0.242187,-0.121094,-0.091797,0.025513,0.678162,0.467773,0.566223,up
584015,7.195312,6.097656,-3.417969,0.074219,-0.099609,-0.048828,0.025513,0.678223,0.468079,0.565857,up
584021,7.234375,6.058594,-3.457031,0.011719,-0.089844,-0.042969,0.025513,0.678223,0.468079,0.565857,up
584026,7.273437,6.019531,-3.457031,0.011719,-0.089844,-0.042969,0.025757,0.678345,0.468323,0.565552,up
584032,7.351562,5.980469,-3.496094,-0.052734,-0.089844,-0.044922,0.025757,0.678345,0.468323,0.565552,up
584037,7.390625,5.90625,-3.496094,-0.056641,-0.078125,-0.048828,0.025757,0.678345,0.468323,0.565552,up
584042,7.425781,5.90625,-3.496094,-0.056641,-0.078125,-0.048828,0.026672,0.678528,0.468506,0.565186,up
