timestamp,ax,ay,az,gx,gy,gz,qw,qx,qy,qz,label
90198,3.242188,4.617187,7.082031,1.287109,0.996094,-0.583984,0.965027,0.21051,-0.152466,-0.033447,up
90203,3.167969,4.65625,7.039062,1.287109,0.996094,-0.583984,0.96106,0.236877,-0.137695,-0.03656,up
90208,3.128906,4.65625,7.15625,1.287109,0.996094,-0.583984,0.960632,0.23999,-0.134766,-0.037048,up
90213,2.859375,4.808594,7.582031,1.287109,0.996094,-0.583984,0.960632,0.23999,-0.134766,-0.037048,up
90218,2.785156,4.886719,7.660156,1.15625,1.230469,-0.65625,0.960632,0.23999,-0.134766,-0.037048,up
90223,2.707031,4.925781,7.726562,1.15625,1.230469,-0.65625,0.959534,0.249329,-0.125183,-0.038635,up
90228,2.628906,4.964844,7.847656,1.15625,1.230469,-0.65625,0.959106,0.25238,-0.121887,-0.039185,up
90233,2.59375,5.117187,8.191406,1.15625,1.230469,-0.65625,0.959106,0.25238,-0.121887,-0.039185,up
90238,2.554688,5.269531,8.308594,1.166016,1.3125,-0.642578,0.959106,0.25238,-0.121887,-0.039185,up
90243,2.4375,5.460937,8.464844,1.166016,1.3125,-0.642578,0.958252,0.258728,-0.114929,-0.040222,up
90248,2.4375,5.460937,8.464844,1.148438,1.324219,-0.621094,0.958252,0.258728,-0.114929,-0.040222,up
90254,2.4375,5.5,8.53125,1.148438,1.324219,-0.621094,0.957825,0.26178,-0.111511,-0.040588,up
90259,2.246094,5.613281,8.421875,1.097656,1.365234,-0.535156,0.956482,0.27063,-0.100952,-0.041199,up
90264,2.246094,5.613281,8.421875,1.097656,1.365234,-0.535156,0.956482,0.27063,-0.100952,-0.041199,up
90269,2.019531,5.921875,8.535156,1.044922,1.386719,-0.425781,0.955627,0.276184,-0.093933,-0.040894,up
90274,1.980469,5.921875,8.53125,1.044922,1.386719,-0.425781,0.955261,0.278687,-0.090454,-0.040588,up
90280,1.980469,6.074219,8.691406,1.044922,1.386719,-0.425781,0.954895,0.281189,-0.086914,-0.0401,up
90285,1.902344,6.152344,8.730469,0.865234,1.402344,-0.173828,0.954529,0.283447,-0.083557,-0.03949,up
90290,1.902344,6.1875,8.730469,0.818359,1.416016,-0.117188,0.954224,0.285583,-0.0802,-0.038757,up
90296,1.863281,6.226562,8.804688,0.769531,1.445313,-0.082031,0.954224,0.285583,-0.0802,-0.038757,up
90301,1.824219,6.226562,8.84375,0.728516,1.464844,-0.050781,0.954224,0.285583,-0.0802,-0.038757,up
90306,1.789063,6.152344,8.953125,0.703125,1.482422,-0.03125,0.954224,0.285583,-0.0802,-0.038757,up
90311,1.671875,6.113281,8.996094,0.666016,1.509766,-0.007813,0.954224,0.285583,-0.0802,-0.038757,up
90316,1.597656,5.996094,8.84375,0.666016,1.509766,-0.007813,0.954224,0.285583,-0.0802,-0.038757,up
90321,1.597656,5.960937,8.917969,0.587891,1.554688,-0.035156,0.954224,0.285583,-0.0802,-0.038757,up
90327,1.597656,5.960937,8.996094,0.527344,1.566406,-0.054687,0.954224,0.285583,-0.0802,-0.038757,up
90332,1.558594,5.996094,8.953125,0.527344,1.566406,-0.054687,0.952271,0.2995,-0.050964,-0.030334,up
90337,1.597656,5.960937,8.996094,0.527344,1.566406,-0.054687,0.952271,0.2995,-0.050964,-0.030334,up
90342,1.597656,5.921875,8.992188,0.527344,1.566406,-0.054687,0.952026,0.301575,-0.043701,-0.028442,up
90348,1.519531,5.921875,8.957031,0.277344,1.597656,-0.048828,0.952026,0.301575,-0.043701,-0.028442,up
90353,1.328125,5.804687,9.070313,0.271484,1.59375,-0.019531,0.951904,0.303162,-0.036194,-0.026428,up
90358,1.136719,5.730469,9.03125,0.271484,1.59375,-0.019531,0.951782,0.303955,-0.03241,-0.025391,up
90363,0.832031,5.613281,8.957031,0.265625,1.626953,0.033203,0.951782,0.303955,-0.03241,-0.025391,up
90368,0.832031,5.613281,8.957031,0.265625,1.626953,0.033203,0.951599,0.30542,-0.02478,-0.022949,up
90373,0.253906,5.421875,8.53125,0.265625,1.626953,0.033203,0.951599,0.30542,-0.02478,-0.022949,up
90379,-0.050781,5.421875,8.421875,0.279297,1.621094,0.054687,0.951599,0.30542,-0.02478,-0.022949,up
90384,-0.050781,5.421875,8.421875,0.306641,1.443359,0.134766,0.950989,0.308594,-0.010559,-0.017395,up
90389,-0.511719,5.882812,8.503906,0.306641,1.443359,0.134766,0.950745,0.30957,-0.007874,-0.016113,up
90394,-0.394531,6.074219,8.847656,0.306641,1.443359,0.134766,0.950317,0.310852,-0.005371,-0.014832,up
90399,-0.28125,6.152344,8.917969,0.693359,0.818359,0.195312,0.950317,0.310852,-0.005371,-0.014832,up
90404,-0.164062,6.304687,8.992188,0.693359,0.818359,0.195312,0.94928,0.314148,-0.001831,-0.012756,up
90410,0.101563,6.765625,8.953125,0.693359,0.818359,0.195312,0.948608,0.316284,-0.000427,-0.011902,up
90415,0.179687,6.839844,8.914063,1.015625,0.542969,0.142578,0.948608,0.316284,-0.000427,-0.011902,up
90420,0.253906,6.957031,8.808594,1.027344,0.490234,0.132812,0.948608,0.316284,-0.000427,-0.011902,up
90426,0.410156,7.109375,8.53125,1.027344,0.490234,0.132812,0.946167,0.323486,0.00293,-0.009827,up
90432,0.5625,7.070312,8.382813,0.806641,0.46875,0.130859,0.946167,0.323486,0.00293,-0.009827,up
90438,0.714844,7.109375,8.082031,0.615234,0.488281,0.148437,0.946167,0.323486,0.00293,-0.009827,up
90444,0.832031,7.109375,7.960937,0.150391,0.574219,0.21875,0.946167,0.323486,0.00293,-0.009827,up
90449,0.945312,7.070312,7.804687,-0.097656,0.646484,0.255859,0.944214,0.329224,0.007141,-0.006958,up
90454,1.097656,6.957031,7.730469,-0.097656,0.646484,0.255859,0.944336,0.328735,0.01001,-0.004639,up
90459,1.136719,6.917969,7.695312,-0.097656,0.646484,0.255859,0.944641,0.32782,0.011536,-0.003418,up
90464,1.136719,6.917969,7.582031,-0.703125,1.054688,0.392578,0.94519,0.326294,0.013672,-0.001709,up
90469,1.097656,6.765625,7.578125,-0.703125,1.054688,0.392578,0.945679,0.324646,0.015869,0.0,up
90474,1.023438,6.574219,7.582031,-0.853516,1.416016,0.427734,0.945679,0.324646,0.015869,0.0,up
90479,0.867187,6.417969,7.382812,-0.853516,1.416016,0.427734,0.94696,0.320618,0.022034,0.004395,up
90484,0.753906,6.304687,7.273437,-0.853516,1.416016,0.427734,0.94696,0.320618,0.022034,0.004395,up
90489,0.601562,6.152344,7.160156,-0.785156,1.90625,0.384766,0.94696,0.320618,0.022034,0.004395,up
90495,0.332031,5.996094,7.003906,-0.785156,1.90625,0.384766,0.948425,0.314819,0.034424,0.01178,up
90500,-0.011719,5.578125,6.890625,-0.785156,1.90625,0.384766,0.948792,0.313232,0.038574,0.014099,up
90505,-0.011719,5.578125,6.890625,-0.662109,2.111328,0.396484,0.949097,0.311584,0.043152,0.016663,up
90510,-0.394531,5.308594,6.738281,-0.662109,2.111328,0.396484,0.949341,0.309875,0.048523,0.019653,up
90516,-0.933594,5.539062,6.394531,-0.662109,2.111328,0.396484,0.949402,0.308838,0.052673,0.022095,up
90522,-1.085938,5.613281,6.238281,-0.222656,2.064453,0.470703,0.949402,0.308838,0.052673,0.022095,up
90527,-1.085938,5.613281,6.238281,-0.175781,1.914063,0.505859,0.949158,0.307556,0.061707,0.027527,up
90533,-1.160156,5.347656,6.429687,-0.148437,1.798828,0.582031,0.948914,0.307129,0.065674,0.030212,up
90538,-1.160156,5.347656,6.429687,-0.091797,1.712891,0.666016,0.948669,0.306824,0.069336,0.032959,up
90543,-1.199219,5.308594,6.816406,-0.091797,1.712891,0.666016,0.948364,0.306702,0.072876,0.03595,up
90548,-1.199219,5.308594,6.816406,0.058594,1.675781,0.773437,0.947937,0.306702,0.076233,0.039001,up
90553,-1.351563,5.386719,7.34375,0.058594,1.675781,0.773437,0.947449,0.307007,0.079651,0.041992,up
90559,-1.390625,5.5,7.5,0.615234,1.582031,0.701172,0.947449,0.307007,0.079651,0.041992,up
90564,-1.46875,5.730469,7.84375,0.615234,1.582031,0.701172,0.944946,0.310608,0.089661,0.050354,up
90570,-1.429688,5.84375,8.082031,1.240234,1.582031,0.507812,0.943665,0.313171,0.09314,0.052612,up
90575,-1.507813,5.769531,8.226563,1.560547,1.640625,0.410156,0.942017,0.316589,0.096985,0.054687,up
90580,-1.660156,5.84375,8.113281,1.833984,1.638672,0.3125,0.940125,0.320557,0.100891,0.056396,up
90585,-1.964844,5.960937,7.964844,1.833984,1.638672,0.3125,0.938293,0.324646,0.104431,0.057678,up
90590,-2.347656,6.800781,7.808594,1.833984,1.638672,0.3125,0.936157,0.329407,0.108093,0.058777,up
90595,-2.425781,7.148437,7.847656,2.25,1.373047,0.123047,0.933838,0.334534,0.111694,0.059631,up
90600,-2.539063,7.453125,7.804687,2.308594,1.277344,0.087891,0.933838,0.334534,0.111694,0.059631,up
90605,-2.65625,7.796875,7.65625,2.308594,1.277344,0.087891,0.929199,0.34491,0.118103,0.060791,up
90610,-2.65625,7.796875,7.65625,2.353516,1.105469,0.080078,0.926453,0.350952,0.121521,0.061279,up
90615,-2.769531,8.484375,7.386719,2.314453,1.001953,0.115234,0.924072,0.35614,0.124207,0.061646,up
90620,-2.847656,8.910156,7.386719,2.314453,1.001953,0.115234,0.921631,0.36145,0.126648,0.062073,up
90625,-2.769531,9.066406,7.386719,2.314453,1.001953,0.115234,0.921631,0.36145,0.126648,0.062073,up
90630,-2.769531,9.066406,7.386719,2.134766,0.78125,0.230469,0.919617,0.365845,0.128479,0.062439,up
90635,-2.734375,9.140625,7.347656,2.134766,0.78125,0.230469,0.91748,0.370544,0.130188,0.062988,up
90640,-2.503906,9.140625,7.15625,1.845703,0.609375,0.394531,0.915344,0.375122,0.131714,0.063782,up
90645,-2.503906,9.140625,7.15625,1.707031,0.527344,0.488281,0.913452,0.379211,0.132874,0.064697,up
90650,-2.503906,9.140625,7.15625,1.707031,0.527344,0.488281,0.909851,0.386719,0.134399,0.067078,up
90656,-2.042969,8.527344,6.8125,1.707031,0.527344,0.488281,0.908264,0.390137,0.134827,0.06842,up
90661,-1.8125,8.484375,6.773437,1.707031,0.527344,0.488281,0.906677,0.393433,0.135132,0.069824,up
90666,-1.738281,8.5625,6.621094,1.3125,0.25,0.734375,0.90509,0.396729,0.135254,0.071289,up
90672,-1.660156,8.523438,6.429687,1.267578,0.21875,0.71875,0.90509,0.396729,0.135254,0.071289,up
90677,-1.621094,8.566406,6.199219,1.195313,0.197266,0.681641,0.90509,0.396729,0.135254,0.071289,up
90683,-1.546875,8.566406,6.085937,1.101563,0.160156,0.634766,0.90509,0.396729,0.135254,0.071289,up
90688,-1.507813,8.484375,6.046875,1.007813,0.130859,0.589844,0.899536,0.408264,0.135132,0.076355,up
90694,-1.429688,8.296875,5.96875,0.888672,0.117188,0.535156,0.899536,0.408264,0.135132,0.076355,up
90699,-1.429688,8.261719,5.894531,0.580078,0.082031,0.462891,0.8974,0.412659,0.134888,0.078308,up
90704,-1.351563,8.179688,5.929687,0.580078,0.082031,0.462891,0.895996,0.415588,0.134521,0.080078,up
90709,-1.238281,7.988281,5.929687,0.580078,0.082031,0.462891,0.895996,0.415588,0.134521,0.080078,up
90714,-1.160156,7.914062,5.929687,0.580078,0.082031,0.462891,0.895508,0.416504,0.134216,0.081055,up
90719,-1.125,7.796875,5.96875,-0.117188,0.03125,0.402344,0.895264,0.416931,0.133911,0.081848,up
90725,-1.085938,7.683594,6.046875,-0.117188,0.03125,0.402344,0.895325,0.416748,0.133179,0.08374,up
90730,-1.085938,7.378906,6.007812,-0.117188,0.03125,0.402344,0.895508,0.41626,0.132812,0.084778,up
90736,-1.085938,7.183594,6.046875,-0.117188,0.03125,0.402344,0.895691,0.415771,0.132507,0.085693,up
90741,-1.046875,7.03125,6.121094,-0.337891,0.066406,0.384766,0.895691,0.415771,0.132507,0.085693,up
90747,-1.007813,6.878906,6.160156,-0.306641,0.080078,0.375,0.895691,0.415771,0.132507,0.085693,up
90752,-1.007813,6.796875,6.160156,-0.248047,0.099609,0.382813,0.895691,0.415771,0.132507,0.085693,up
90758,-1.007813,6.730469,6.199219,-0.183594,0.121094,0.376953,0.895691,0.415771,0.132507,0.085693,up
90764,-1.007813,6.652344,6.238281,0.013672,0.132812,0.371094,0.895691,0.415771,0.132507,0.085693,up
90770,-0.96875,6.6875,6.277344,0.101563,0.148437,0.373047,0.896301,0.413574,0.131104,0.091675,up
90775,-1.007813,6.6875,6.238281,0.101563,0.148437,0.373047,0.895752,0.414307,0.131104,0.093628,up
90780,-1.085938,6.726562,6.238281,0.242187,0.1875,0.361328,0.895386,0.414856,0.131165,0.094543,up
90786,-1.125,6.796875,6.160156,0.242187,0.1875,0.361328,0.89502,0.415466,0.131287,0.095337,up
90791,-1.160156,6.996094,6.277344,0.242187,0.1875,0.361328,0.894531,0.41626,0.131409,0.096191,up
90796,-1.160156,7.035156,6.238281,0.3125,0.203125,0.330078,0.894531,0.41626,0.131409,0.096191,up
90801,-1.160156,7.035156,6.238281,0.298828,0.205078,0.314453,0.894531,0.41626,0.131409,0.096191,up
90806,-1.199219,7.074219,6.277344,0.298828,0.205078,0.314453,0.893127,0.418518,0.131958,0.098633,up
90812,-1.199219,7.152344,6.316406,0.298828,0.205078,0.314453,0.892761,0.419067,0.132202,0.099365,up
90817,-1.277344,7.152344,6.277344,0.125,0.216797,0.267578,0.892761,0.419067,0.132202,0.099365,up
90822,-1.351563,7.183594,6.199219,0.125,0.216797,0.267578,0.892212,0.419739,0.132629,0.100891,up
90827,-1.351563,7.152344,6.238281,-0.042969,0.238281,0.230469,0.892212,0.419739,0.132629,0.100891,up
90833,-1.390625,7.113281,6.199219,-0.121094,0.236328,0.214844,0.892212,0.419739,0.132629,0.100891,up
90838,-1.429688,7.148437,6.238281,-0.1875,0.236328,0.191406,0.892212,0.419739,0.132629,0.100891,up
90844,-1.46875,7.179687,6.277344,-0.291016,0.238281,0.164062,0.892212,0.419739,0.132629,0.100891,up
90849,-1.429688,7.148437,6.277344,-0.291016,0.238281,0.164062,0.892273,0.418274,0.134033,0.104553,up
90854,-1.46875,7.109375,6.316406,-0.291016,0.238281,0.164062,0.892517,0.417542,0.134338,0.105286,up
90860,-1.46875,7.03125,6.316406,-0.390625,0.240234,0.130859,0.893066,0.415771,0.134949,0.106628,up
90865,-1.46875,7.070312,6.277344,-0.455078,0.255859,0.089844,0.893066,0.415771,0.134949,0.106628,up
90870,-1.546875,6.996094,6.316406,-0.455078,0.255859,0.089844,0.893738,0.413757,0.135681,0.107788,up
90875,-1.582031,7.03125,6.390625,-0.455078,0.255859,0.089844,0.894165,0.412598,0.136108,0.108337,up
90880,-1.546875,7.03125,6.46875,-0.455078,0.255859,0.089844,0.894531,0.41156,0.136475,0.108765,up
90885,-1.546875,6.953125,6.507812,-0.455078,0.255859,0.089844,0.894531,0.41156,0.136475,0.108765,up
90890,-1.582031,6.878906,6.507812,-0.544922,0.271484,-0.029297,0.894531,0.41156,0.136475,0.108765,up
90896,-1.582031,6.878906,6.507812,-0.544922,0.257813,-0.044922,0.895874,0.407776,0.137878,0.109985,up
90901,-1.660156,6.726562,6.582031,-0.53125,0.240234,-0.074219,0.896423,0.406311,0.138367,0.110352,up
90906,-1.621094,6.765625,6.699219,-0.53125,0.240234,-0.074219,0.896851,0.405273,0.138794,0.110535,up
90911,-1.660156,6.765625,6.734375,-0.53125,0.240234,-0.074219,0.897278,0.403992,0.139221,0.110657,up
90916,-1.621094,6.835937,6.773437,-0.53125,0.240234,-0.074219,0.897278,0.403992,0.139221,0.110657,up
90922,-1.621094,6.835937,6.734375,-0.482422,0.195312,-0.158203,0.898193,0.401672,0.140076,0.110779,up
90927,-1.660156,6.875,6.734375,-0.482422,0.1875,-0.183594,0.898193,0.401672,0.140076,0.110779,up
90933,-1.582031,6.917969,6.851562,-0.482422,0.1875,-0.183594,0.899109,0.399292,0.141052,0.110596,up
90938,-1.621094,6.957031,6.851562,-0.478516,0.193359,-0.214844,0.899109,0.399292,0.141052,0.110596,up
90943,-1.660156,6.996094,6.851562,-0.462891,0.203125,-0.226562,0.899109,0.399292,0.141052,0.110596,up
90949,-1.621094,6.992187,7.039062,-0.460937,0.214844,-0.230469,0.90094,0.394653,0.143188,0.109985,up
90954,-1.621094,7.03125,7.078125,-0.460937,0.214844,-0.230469,0.90094,0.394653,0.143188,0.109985,up
90959,-1.660156,7.109375,7.15625,-0.478516,0.236328,-0.248047,0.90094,0.394653,0.143188,0.109985,up
90965,-1.699219,7.109375,7.238281,-0.501953,0.261719,-0.271484,0.90094,0.394653,0.143188,0.109985,up
90970,-1.890625,7.109375,7.195312,-0.501953,0.261719,-0.271484,0.902771,0.389587,0.145935,0.109253,up
90975,-1.890625,7.109375,7.160156,-0.501953,0.261719,-0.271484,0.902771,0.389587,0.145935,0.109253,up
90980,-1.964844,7.109375,7.308594,-0.589844,0.195312,-0.314453,0.902771,0.389587,0.145935,0.109253,up
90985,-1.929688,6.992187,7.347656,-0.589844,0.195312,-0.314453,0.904419,0.385254,0.147766,0.108398,up
90990,-2.003906,7.070312,7.542969,-0.589844,0.195312,-0.314453,0.904419,0.385254,0.147766,0.108398,up
90995,-1.964844,7.109375,7.5,-0.650391,0.072266,-0.400391,0.905151,0.383484,0.148315,0.107849,up
91001,-1.964844,7.300781,7.425781,-0.650391,0.072266,-0.400391,0.906494,0.38031,0.149048,0.106689,up
91007,-1.929688,7.339844,7.34375,-0.650391,0.072266,-0.400391,0.907227,0.378723,0.149292,0.105957,up
91012,-1.929688,7.339844,7.34375,-0.859375,-0.074219,-0.542969,0.908142,0.376709,0.149475,0.105042,up
91017,-1.929688,7.375,7.347656,-0.859375,-0.074219,-0.542969,0.908142,0.376709,0.149475,0.105042,up
91022,-1.851563,7.300781,7.273437,-0.982422,-0.111328,-0.580078,0.908142,0.376709,0.149475,0.105042,up
91027,-1.851563,7.300781,7.273437,-1.203125,-0.191406,-0.636719,0.911621,0.369141,0.149414,0.101746,up
91034,-1.890625,7.109375,7.277344,-1.203125,-0.191406,-0.636719,0.911621,0.369141,0.149414,0.101746,up
91040,-1.929688,6.957031,7.382812,-1.373047,-0.208984,-0.646484,0.915955,0.359497,0.148743,0.098267,up
91045,-1.929688,6.878906,7.382812,-1.373047,-0.208984,-0.646484,0.915955,0.359497,0.148743,0.098267,up
91050,-1.964844,6.6875,7.386719,-1.574219,-0.212891,-0.615234,0.915955,0.359497,0.148743,0.098267,up
91055,-2.042969,6.535156,7.386719,-1.574219,-0.212891,-0.615234,0.919189,0.352051,0.148132,0.096069,up
91061,-2.042969,6.535156,7.386719,-1.533203,-0.203125,-0.609375,0.922302,0.344604,0.147461,0.094055,up
91066,-2.042969,6.304687,7.539062,-1.486328,-0.193359,-0.615234,0.923889,0.340698,0.147156,0.092957,up
91071,-2.042969,6.304687,7.539062,-1.400391,-0.195312,-0.625,0.925232,0.337524,0.146973,0.09198,up
91078,-2.121094,6.152344,7.847656,-1.400391,-0.195312,-0.625,0.926636,0.334106,0.146729,0.09082,up
91083,-2.121094,6.074219,8.003906,-1.263672,-0.199219,-0.669922,0.926636,0.334106,0.146729,0.09082,up
91089,-2.121094,6.074219,8.003906,-1.195313,-0.220703,-0.693359,0.926636,0.334106,0.146729,0.09082,up
91094,-2.121094,6.074219,8.003906,-1.195313,-0.220703,-0.693359,0.926636,0.334106,0.146729,0.09082,up
91099,-2.121094,6.074219,7.882812,-1.195313,-0.220703,-0.693359,0.931641,0.321716,0.145813,0.085144,up
91104,-2.15625,6.1875,7.84375,-1.148438,-0.259766,-0.771484,0.931641,0.321716,0.145813,0.085144,up
91109,-2.195313,6.304687,7.84375,-1.132813,-0.287109,-0.792969,0.931641,0.321716,0.145813,0.085144,up
91114,-2.121094,6.378906,7.847656,-1.132813,-0.287109,-0.792969,0.931641,0.321716,0.145813,0.085144,up
91119,-2.082031,6.34375,7.847656,-1.132813,-0.287109,-0.792969,0.93634,0.31012,0.144714,0.078552,up
91124,-2.121094,6.378906,7.847656,-1.291016,-0.308594,-0.837891,0.93634,0.31012,0.144714,0.078552,up
91129,-2.121094,6.457031,7.847656,-1.367188,-0.302734,-0.835937,0.938782,0.303772,0.144043,0.075195,up
91134,-2.121094,6.457031,7.847656,-1.427734,-0.279297,-0.837891,0.940063,0.300415,0.143799,0.073547,up
91139,-2.195313,6.457031,7.886719,-1.427734,-0.279297,-0.837891,0.941345,0.296814,0.143494,0.07196,up
91144,-2.195313,6.457031,7.886719,-1.53125,-0.226562,-0.78125,0.942749,0.292908,0.14325,0.070435,up
91149,-2.234375,6.417969,7.925781,-1.53125,-0.226562,-0.78125,0.944031,0.289063,0.143005,0.069031,up
91154,-2.464844,6.304687,8.191406,-1.53125,-0.226562,-0.78125,0.945312,0.285217,0.142883,0.06781,up
91159,-2.578125,6.226562,8.230469,-1.560547,-0.119141,-0.636719,0.945312,0.285217,0.142883,0.06781,up
91164,-2.578125,6.113281,8.265625,-1.560547,-0.119141,-0.636719,0.947937,0.2771,0.1427,0.065674,up
91170,-2.695313,5.960937,8.425781,-1.560547,-0.119141,-0.636719,0.950134,0.269775,0.1427,0.06427,up
91175,-2.769531,5.996094,8.503906,-1.560547,-0.119141,-0.636719,0.950134,0.269775,0.1427,0.06427,up
91180,-2.769531,5.960937,8.574219,-1.3125,0.0625,-0.371094,0.950134,0.269775,0.1427,0.06427,up
91185,-2.808594,5.996094,8.503906,-1.3125,0.0625,-0.371094,0.952026,0.263,0.142944,0.063293,up
91191,-2.808594,5.960937,8.574219,-1.177734,0.117188,-0.294922,0.952026,0.263,0.142944,0.063293,up
91196,-2.769531,5.960937,8.53125,-1.177734,0.117188,-0.294922,0.954529,0.253662,0.143738,0.0625,up
91201,-2.734375,5.882812,8.53125,-1.177734,0.117188,-0.294922,0.9552,0.250854,0.144104,0.062378,up
91206,-2.847656,5.84375,8.5,-1.177734,0.117188,-0.294922,0.95575,0.248596,0.144531,0.062317,up
91211,-2.886719,5.84375,8.535156,-1.005859,0.246094,-0.201172,0.95636,0.245789,0.145081,0.062256,up
91216,-2.925781,5.769531,8.53125,-1.005859,0.246094,-0.201172,0.956909,0.243225,0.145691,0.062317,up
91221,-2.960938,5.804687,8.535156,-1.005859,0.246094,-0.201172,0.957397,0.241089,0.14624,0.0625,up
91226,-3.078125,5.804687,8.5,-1.035156,0.388672,-0.134766,0.957397,0.241089,0.14624,0.0625,up
91231,-3.078125,5.804687,8.460938,-1.035156,0.388672,-0.134766,0.958374,0.235901,0.147888,0.063049,up
91236,-3.191406,5.769531,8.460938,-1.035156,0.388672,-0.134766,0.958923,0.23291,0.148987,0.063538,up
91241,-3.230469,5.691406,8.503906,-1.035156,0.388672,-0.134766,0.959351,0.230286,0.149963,0.064026,up
91246,-3.230469,5.539062,8.5,-1.228516,0.566406,-0.039063,0.9599,0.227234,0.151123,0.064636,up
91252,-3.152344,5.230469,8.5,-1.228516,0.566406,-0.039063,0.960327,0.224304,0.152283,0.065308,up
91257,-3.078125,5.0,8.464844,-1.228516,0.566406,-0.039063,0.960815,0.221069,0.153564,0.066162,up
91264,-3.039063,4.847656,8.425781,-1.296875,0.675781,0.013672,0.960815,0.221069,0.153564,0.066162,up
91269,-3.039063,4.847656,8.425781,-1.285156,0.691406,0.021484,0.96167,0.214661,0.156372,0.067932,up
91274,-2.960938,4.503906,8.382813,-1.273438,0.701172,0.037109,0.962097,0.211487,0.157837,0.068848,up
91279,-2.960938,4.503906,8.382813,-1.273438,0.701172,0.037109,0.962097,0.211487,0.157837,0.068848,up
91284,-2.960938,4.503906,8.382813,-1.244141,0.707031,0.052734,0.96283,0.205322,0.160706,0.070801,up
91290,-2.960938,4.503906,8.382813,-1.173828,0.699219,0.078125,0.963135,0.202393,0.16217,0.071838,up
91295,-2.734375,3.699219,8.109375,-1.060547,0.705078,0.080078,0.963379,0.199585,0.163574,0.072815,up
91300,-2.734375,3.585938,8.0,-1.060547,0.705078,0.080078,0.963623,0.196777,0.165039,0.073853,up
91305,-2.65625,3.660156,7.921875,-0.910156,0.693359,0.023437,0.963623,0.196777,0.165039,0.073853,up
91310,-2.539063,3.699219,7.808594,-0.910156,0.693359,0.023437,0.963989,0.191833,0.167969,0.075623,up
91315,-2.539063,3.699219,7.808594,-0.910156,0.693359,0.023437,0.964111,0.189575,0.169434,0.076294,up
91321,-2.539063,3.738281,7.730469,-0.804687,0.662109,-0.140625,0.964111,0.189575,0.169434,0.076294,up
91326,-2.578125,3.8125,7.621094,-0.804687,0.662109,-0.140625,0.964478,0.183044,0.174072,0.077454,up
91331,-2.578125,3.777344,7.582031,-0.804687,0.662109,-0.140625,0.9646,0.18103,0.175476,0.077576,up
91336,-2.617188,3.660156,7.503906,-0.912109,0.658203,-0.302734,0.9646,0.18103,0.175476,0.077576,up
91341,-2.695313,3.585938,7.425781,-0.912109,0.658203,-0.302734,0.964966,0.175842,0.178711,0.077454,up
91346,-2.65625,3.546875,7.234375,-0.912109,0.658203,-0.302734,0.964966,0.175842,0.178711,0.077454,up
91351,-2.65625,3.46875,7.238281,-1.119141,0.683594,-0.386719,0.965454,0.170166,0.181763,0.077209,up
91356,-2.695313,3.429688,7.277344,-1.357422,0.705078,-0.433594,0.965454,0.170166,0.181763,0.077209,up
91361,-2.65625,3.394531,7.304687,-1.357422,0.705078,-0.433594,0.966125,0.16272,0.18512,0.076904,up
91366,-2.65625,3.355469,7.34375,-1.529297,0.695312,-0.453125,0.966125,0.16272,0.18512,0.076904,up
91371,-2.464844,3.085938,7.425781,-1.529297,0.695312,-0.453125,0.966858,0.154663,0.188232,0.076599,up
91377,-2.425781,3.007813,7.582031,-1.568359,0.636719,-0.464844,0.967224,0.150574,0.189636,0.076477,up
91382,-2.347656,2.703125,7.65625,-1.568359,0.636719,-0.464844,0.96759,0.146362,0.19104,0.076294,up
91388,-2.195313,2.472656,7.730469,-1.568359,0.636719,-0.464844,0.967896,0.142822,0.192139,0.076111,up
91393,-2.15625,2.472656,7.726562,-1.478516,0.505859,-0.501953,0.967896,0.142822,0.192139,0.076111,up
91398,-2.121094,2.472656,7.695312,-1.423828,0.455078,-0.521484,0.968628,0.13501,0.194397,0.075378,up
91403,-2.042969,2.433594,7.726562,-1.423828,0.455078,-0.521484,0.969055,0.131165,0.195374,0.07489,up
91408,-2.042969,2.433594,7.726562,-1.423828,0.455078,-0.521484,0.969055,0.131165,0.195374,0.07489,up
91413,-2.042969,2.433594,7.726562,-1.333984,0.306641,-0.615234,0.969788,0.124023,0.196899,0.073608,up
91419,-2.082031,2.28125,7.699219,-1.308594,0.269531,-0.650391,0.970154,0.120361,0.197571,0.072754,up
91424,-2.082031,2.28125,7.699219,-1.308594,0.269531,-0.650391,0.970154,0.120361,0.197571,0.072754,up
91429,-2.234375,2.28125,7.660156,-1.294922,0.242187,-0.681641,0.970886,0.113403,0.198669,0.070923,up
91434,-2.3125,2.359375,7.617187,-1.310547,0.214844,-0.730469,0.970886,0.113403,0.198669,0.070923,up
91440,-2.386719,2.472656,7.660156,-1.310547,0.214844,-0.730469,0.972046,0.102417,0.200134,0.067505,up
91445,-2.464844,2.359375,7.769531,-1.310547,0.214844,-0.730469,0.972046,0.102417,0.200134,0.067505,up
91450,-2.578125,2.242188,7.886719,-1.451172,0.166016,-0.849609,0.972046,0.102417,0.200134,0.067505,up
91456,-2.769531,2.28125,7.921875,-1.478516,0.152344,-0.900391,0.972839,0.094849,0.200867,0.065063,up
91461,-2.847656,2.398438,7.84375,-1.478516,0.152344,-0.900391,0.973267,0.09082,0.201233,0.06366,up
91466,-2.925781,2.511719,7.925781,-1.558594,0.097656,-1.023438,0.973267,0.09082,0.201233,0.06366,up
91471,-2.960938,2.703125,7.964844,-1.558594,0.097656,-1.023438,0.97406,0.08252,0.201843,0.060486,up
91477,-2.960938,2.703125,7.964844,-1.6875,0.033203,-1.152344,0.974976,0.073425,0.202087,0.056763,up
91482,-2.925781,2.625,8.152344,-1.765625,-0.013672,-1.201172,0.975464,0.068298,0.202087,0.054626,up
91487,-2.808594,2.242188,8.1875,-1.765625,-0.013672,-1.201172,0.975891,0.063721,0.201965,0.052673,up
91492,-2.769531,2.167969,8.082031,-1.765625,-0.013672,-1.201172,0.976379,0.058411,0.201721,0.050415,up
91497,-2.734375,2.050781,8.039063,-1.765625,-0.013672,-1.201172,0.976868,0.05304,0.201416,0.048157,up
91502,-2.65625,1.9375,8.109375,-2.152344,-0.119141,-1.363281,0.977417,0.046509,0.200989,0.045593,up
91508,-2.617188,1.667969,8.082031,-2.152344,-0.119141,-1.363281,0.977844,0.041199,0.200684,0.043579,up
91513,-2.464844,1.09375,8.0,-2.152344,-0.119141,-1.363281,0.977844,0.041199,0.200684,0.043579,up
91518,-2.464844,1.09375,8.0,-2.347656,-0.091797,-1.394531,0.978638,0.02832,0.199951,0.039001,up
91523,-2.273438,0.980469,7.921875,-2.347656,-0.091797,-1.394531,0.978943,0.021851,0.199707,0.036804,up
91528,-2.273438,0.863281,8.265625,-2.371094,0.027344,-1.410156,0.978943,0.021851,0.199707,0.036804,up
91534,-2.808594,0.519531,8.304688,-2.371094,0.027344,-1.410156,0.979309,0.008789,0.199585,0.032227,up
91540,-3.191406,0.058594,8.308594,-2.263672,0.15625,-1.392578,0.979309,0.008789,0.199585,0.032227,up
91546,-2.273438,-0.476562,6.960937,-2.332031,0.248047,-1.457031,0.979309,0.008789,0.199585,0.032227,up
91551,-2.425781,0.289063,7.15625,-2.458984,0.439453,-1.572266,0.979065,-0.01709,0.201721,0.022278,up
91556,-2.960938,0.519531,8.109375,-2.458984,0.439453,-1.572266,0.979065,-0.01709,0.201721,0.022278,up
91561,-2.734375,-0.324219,6.507812,-2.271484,0.689453,-1.650391,0.979065,-0.01709,0.201721,0.022278,up
91567,-2.808594,-0.707031,7.0,-2.271484,0.689453,-1.650391,0.977478,-0.036621,0.207458,0.012878,up
91572,-2.695313,-0.476562,7.503906,-2.142578,1.326172,-2.060547,0.976562,-0.04364,0.210571,0.008606,up
91577,-2.65625,-0.707031,7.15625,-2.248047,1.625,-2.228516,0.975525,-0.050293,0.213928,0.004272,up
91583,-3.039063,-0.820312,6.117187,-2.248047,1.625,-2.228516,0.974426,-0.056335,0.217407,0.000183,up
91588,-3.039063,-0.820312,6.117187,-2.472656,2.101563,-2.548828,0.974426,-0.056335,0.217407,0.000183,up
91593,-3.039063,-0.820312,6.117187,-2.552734,2.296875,-2.708984,0.971252,-0.071167,0.226868,-0.010254,up
91599,-3.460938,-1.320313,6.855469,-2.625,2.476563,-2.853516,0.971252,-0.071167,0.226868,-0.010254,up
91605,-3.691406,-1.511719,6.894531,-2.650391,2.664063,-3.011719,0.971252,-0.071167,0.226868,-0.010254,up
91610,-3.84375,-1.511719,7.039062,-2.671875,2.773438,-3.148438,0.971252,-0.071167,0.226868,-0.010254,up
91616,-4.035156,-1.320313,7.769531,-2.6875,2.777344,-3.244141,0.971252,-0.071167,0.226868,-0.010254,up
91621,-4.113281,-1.511719,8.003906,-2.6875,2.777344,-3.244141,0.95636,-0.119629,0.261902,-0.049072,up
91626,-4.148437,-1.703125,8.042969,-2.6875,2.777344,-3.244141,0.95636,-0.119629,0.261902,-0.049072,up
91631,-4.148437,-1.894531,8.191406,-2.669922,2.542969,-3.220703,0.950256,-0.136292,0.272949,-0.062744,up
91636,-4.417969,-1.933594,8.5,-2.669922,2.542969,-3.220703,0.950256,-0.136292,0.272949,-0.062744,up
91641,-4.457031,-1.96875,8.652344,-2.533203,2.044922,-2.847656,0.947388,-0.14386,0.277527,-0.068665,up
91647,-4.53125,-2.046875,8.726563,-2.533203,2.044922,-2.847656,0.944153,-0.152344,0.282288,-0.075134,up
91652,-4.53125,-2.046875,8.726563,-2.410156,1.865234,-2.693359,0.941528,-0.159058,0.286011,-0.0802,up
91657,-4.992187,-2.390625,8.652344,-2.230469,1.71875,-2.542969,0.941528,-0.159058,0.286011,-0.0802,up
91662,-5.414062,-2.429688,8.535156,-2.033203,1.589844,-2.402344,0.936096,-0.172546,0.292908,-0.090393,up
91667,-5.414062,-2.429688,8.535156,-1.832031,1.443359,-2.255859,0.931274,-0.183533,0.298523,-0.099487,up
91673,-6.488281,-2.316406,8.425781,-1.832031,1.443359,-2.255859,0.928894,-0.188721,0.301147,-0.104187,up
91678,-6.679687,-2.238281,8.460938,-1.253906,1.207031,-1.871094,0.928894,-0.188721,0.301147,-0.104187,up
91683,-6.792969,-2.316406,8.269531,-1.097656,1.160156,-1.742188,0.928894,-0.188721,0.301147,-0.104187,up
91688,-6.792969,-2.316406,8.269531,-0.964844,1.138672,-1.609375,0.928894,-0.188721,0.301147,-0.104187,up
91694,-7.328125,-1.96875,7.964844,-0.964844,1.138672,-1.609375,0.921326,-0.202759,0.309692,-0.118896,up
91699,-7.675781,-1.96875,7.921875,-0.900391,1.193359,-1.353516,0.921326,-0.202759,0.309692,-0.118896,up
91704,-7.9375,-1.933594,7.921875,-0.919922,1.246094,-1.212891,0.921326,-0.202759,0.309692,-0.118896,up
91709,-8.554688,-1.933594,7.847656,-0.943359,1.318359,-1.060547,0.921326,-0.202759,0.309692,-0.118896,up
91716,-8.785156,-2.007813,7.960937,-0.943359,1.318359,-1.060547,0.914001,-0.213379,0.319824,-0.129578,up
91722,-9.054688,-2.125,8.113281,-0.964844,1.474609,-0.617187,0.914001,-0.213379,0.319824,-0.129578,up
91727,-9.285156,-2.351563,8.230469,-0.964844,1.474609,-0.617187,0.908081,-0.220337,0.329712,-0.13446,up
91733,-10.011719,-2.660156,8.230469,-0.964844,1.474609,-0.617187,0.906189,-0.222168,0.333252,-0.135559,up
91738,-10.355469,-2.429688,8.535156,-0.761719,1.515625,-0.300781,0.904358,-0.223755,0.336792,-0.136536,up
91743,-10.546875,-2.390625,8.535156,-0.761719,1.515625,-0.300781,0.902405,-0.22522,0.340759,-0.137451,up
91748,-10.773438,-2.507813,8.421875,-0.761719,1.515625,-0.300781,0.902405,-0.22522,0.340759,-0.137451,up
91753,-10.773438,-2.429688,8.382813,-0.554687,1.421875,-0.164062,0.90094,-0.226135,0.343689,-0.138062,up
91758,-10.773438,-2.429688,8.382813,-0.490234,1.322266,-0.105469,0.898071,-0.2276,0.349792,-0.13916,up
91763,-10.890625,-2.277344,8.230469,-0.490234,1.322266,-0.105469,0.896729,-0.228271,0.3526,-0.139526,up
91768,-11.007813,-1.96875,7.921875,-0.517578,1.019531,0.001953,0.895508,-0.229004,0.355164,-0.139709,up
91773,-10.933594,-2.007813,7.847656,-0.609375,0.910156,0.042969,0.895508,-0.229004,0.355164,-0.139709,up
91778,-10.738281,-2.125,7.921875,-0.726562,0.796875,0.085937,0.895508,-0.229004,0.355164,-0.139709,up
91783,-10.511719,-2.199219,7.730469,-0.726562,0.796875,0.085937,0.895508,-0.229004,0.355164,-0.139709,up
91788,-10.511719,-2.199219,7.730469,-1.041016,0.59375,0.175781,0.895508,-0.229004,0.355164,-0.139709,up
91794,-10.089844,-2.660156,7.617187,-1.041016,0.59375,0.175781,0.895508,-0.229004,0.355164,-0.139709,up
91800,-9.933594,-2.964844,7.503906,-1.277344,0.402344,0.289063,0.895508,-0.229004,0.355164,-0.139709,up
91806,-10.011719,-3.847656,6.890625,-1.355469,0.324219,0.353516,0.895508,-0.229004,0.355164,-0.139709,up
91811,-9.46875,-2.964844,7.464844,-1.455078,0.146484,0.546875,0.895508,-0.229004,0.355164,-0.139709,up
91816,-9.402344,-4.152344,6.542969,-1.455078,0.146484,0.546875,0.886414,-0.245422,0.370483,-0.1297,up
91821,-9.125,-3.886719,6.582031,-1.455078,0.146484,0.546875,0.885559,-0.247986,0.371704,-0.127075,up
91826,-8.863281,-3.730469,6.773437,-1.037109,0.076172,0.804687,0.885559,-0.247986,0.371704,-0.127075,up
91831,-8.78125,-3.886719,6.660156,-0.853516,0.103516,1.087891,0.885559,-0.247986,0.371704,-0.127075,up
91836,-8.671875,-3.847656,6.351562,-0.853516,0.103516,1.087891,0.884216,-0.252075,0.374939,-0.118652,up
91841,-8.4375,-3.886719,6.429687,-0.853516,0.103516,1.087891,0.883972,-0.252686,0.376099,-0.115295,up
91847,-8.4375,-3.925781,6.46875,-0.550781,0.126953,1.552734,0.883972,-0.252686,0.376099,-0.115295,up
91852,-8.515625,-3.925781,6.316406,-0.550781,0.126953,1.552734,0.883789,-0.252625,0.378601,-0.108154,up
91858,-8.515625,-4.191406,6.46875,-0.550781,0.126953,1.552734,0.88385,-0.251465,0.381592,-0.099792,up
91863,-8.703125,-4.308594,6.390625,-0.4375,0.083984,1.957031,0.883972,-0.25061,0.383057,-0.095276,up
91868,-8.703125,-4.308594,6.390625,-0.414062,0.033203,2.056641,0.884094,-0.249573,0.384583,-0.090332,up
91875,-9.015625,-4.691406,6.582031,-0.414062,0.033203,2.056641,0.884338,-0.248352,0.385986,-0.085388,up
91881,-9.125,-4.804687,6.542969,-0.316406,-0.119141,2.169922,0.884338,-0.248352,0.385986,-0.085388,up
91886,-9.207031,-4.917969,6.351562,-0.283203,-0.285156,2.175781,0.884338,-0.248352,0.385986,-0.085388,up
91891,-9.28125,-4.957031,6.390625,-0.283203,-0.285156,2.175781,0.885559,-0.244019,0.389099,-0.069763,up
91896,-9.46875,-4.804687,6.277344,-0.298828,-0.367188,2.185547,0.886047,-0.242554,0.389771,-0.06427,up
91901,-9.46875,-4.804687,6.277344,-0.326172,-0.441406,2.195313,0.886047,-0.242554,0.389771,-0.06427,up
91907,-10.128906,-4.957031,6.507812,-0.326172,-0.441406,2.195313,0.886597,-0.241089,0.390259,-0.05896,up
91912,-10.203125,-5.074219,6.46875,-0.443359,-0.628906,2.261719,0.888489,-0.237366,0.390564,-0.041687,up
91917,-10.207031,-5.1875,6.582031,-0.595703,-0.808594,2.376953,0.888489,-0.237366,0.390564,-0.041687,up
91922,-10.125,-5.339844,6.699219,-0.625,-0.873047,2.460938,0.88916,-0.236267,0.390259,-0.034912,up
91927,-10.007813,-5.570312,6.316406,-0.625,-0.873047,2.460938,0.890442,-0.234253,0.389465,-0.022217,up
91932,-9.824219,-6.222656,7.117187,-0.625,-0.873047,2.460938,0.891113,-0.233032,0.389038,-0.015381,up
91937,-9.585938,-6.300781,6.660156,-0.625,-0.873047,2.460938,0.891113,-0.233032,0.389038,-0.015381,up
91942,-9.550781,-6.03125,6.46875,-0.394531,-0.908203,2.775391,0.891113,-0.233032,0.389038,-0.015381,up
91947,-9.746094,-5.6875,6.277344,-0.394531,-0.908203,2.775391,0.893311,-0.226746,0.387939,0.005798,up
91952,-9.742188,-5.457031,6.316406,0.048828,-0.863281,2.929688,0.893311,-0.226746,0.387939,0.005798,up
91957,-9.667969,-5.457031,6.351562,0.048828,-0.863281,2.929688,0.894958,-0.220398,0.387329,0.020569,up
91962,-9.628906,-5.496094,6.46875,0.048828,-0.863281,2.929688,0.895691,-0.217407,0.386963,0.026855,up
91967,-9.398438,-5.265625,6.660156,0.162109,-0.980469,2.853516,0.895691,-0.217407,0.386963,0.026855,up
91972,-9.398438,-5.265625,6.660156,0.162109,-0.980469,2.853516,0.896545,-0.213989,0.386414,0.034058,up
91977,-9.46875,-5.148437,6.621094,0.158203,-1.048828,2.806641,0.896545,-0.213989,0.386414,0.034058,up
91982,-9.46875,-5.148437,6.621094,0.125,-1.144531,2.761719,0.898132,-0.207703,0.384705,0.047058,up
91987,-9.285156,-4.957031,7.042969,0.125,-1.144531,2.761719,0.898987,-0.204651,0.383423,0.05365,up
91992,-9.015625,-4.691406,6.851562,0.042969,-1.404297,2.751953,0.90094,-0.198547,0.379883,0.067688,up
91997,-8.9375,-4.574219,6.773437,0.042969,-1.404297,2.751953,0.90094,-0.198547,0.379883,0.067688,up
92002,-8.703125,-4.691406,6.542969,-0.095703,-1.648438,3.003906,0.901917,-0.195557,0.377747,0.075073,up
92007,-8.59375,-4.84375,6.542969,-0.095703,-1.648438,3.003906,0.902832,-0.192566,0.375488,0.082764,up
92012,-8.476563,-5.226562,6.582031,-0.138672,-1.671875,3.289063,0.902832,-0.192566,0.375488,0.082764,up
92018,-8.476563,-5.226562,6.582031,0.058594,-1.671875,3.363281,0.905029,-0.183105,0.368774,0.106567,up
92023,-8.441406,-5.1875,6.390625,0.308594,-1.677734,3.388672,0.905823,-0.178467,0.366272,0.115845,up
92029,-8.363281,-4.917969,6.46875,0.308594,-1.677734,3.388672,0.906494,-0.174377,0.36438,0.122864,up
92034,-8.402344,-4.613281,6.542969,0.308594,-1.677734,3.388672,0.907349,-0.168945,0.362,0.131042,up
92039,-8.402344,-3.886719,6.699219,0.308594,-1.677734,3.388672,0.907349,-0.168945,0.362,0.131042,up
92044,-8.363281,-3.65625,6.660156,0.972656,-1.837891,3.083984,0.907349,-0.168945,0.362,0.131042,up
92049,-8.363281,-3.65625,6.660156,0.923828,-1.927734,2.960938,0.909973,-0.152466,0.354614,0.15155,up
92054,-8.210938,-3.195313,6.699219,0.923828,-1.927734,2.960938,0.909973,-0.152466,0.354614,0.15155,up
92059,-8.210938,-3.195313,6.699219,0.771484,-2.013672,2.855469,0.910889,-0.147156,0.351563,0.158081,up
92065,-8.210938,-3.195313,6.699219,0.771484,-2.013672,2.855469,0.912781,-0.137573,0.344482,0.171021,up
92072,-7.597656,-2.660156,6.890625,0.322266,-2.306641,2.587891,0.912781,-0.137573,0.344482,0.171021,up
92077,-7.484375,-2.621094,6.660156,0.322266,-2.306641,2.587891,0.914551,-0.129211,0.336426,0.183716,up
92082,-7.367187,-2.660156,6.660156,0.185547,-2.339844,2.644531,0.914551,-0.129211,0.336426,0.183716,up
92087,-7.09375,-2.738281,6.851562,0.185547,-2.339844,2.644531,0.916138,-0.121033,0.327271,0.197205,up
92092,-6.90625,-2.773438,7.039062,0.185547,-2.339844,2.644531,0.917297,-0.113098,0.318665,0.210266,up
92097,-6.714844,-2.8125,7.234375,0.185547,-2.339844,2.644531,0.917297,-0.113098,0.318665,0.210266,up
92102,-6.601562,-2.582031,6.960937,0.560547,-2.384766,2.978516,0.918152,-0.102966,0.309875,0.224426,up
92107,-6.523437,-2.429688,6.734375,0.560547,-2.384766,2.978516,0.918152,-0.102966,0.309875,0.224426,up
92112,-6.410156,-2.160156,6.617187,1.304688,-2.277344,3.359375,0.918152,-0.102966,0.309875,0.224426,up
92117,-6.410156,-1.933594,6.429687,1.304688,-2.277344,3.359375,0.918518,-0.089722,0.301636,0.239319,up
92122,-6.140625,-1.320313,6.15625,1.304688,-2.277344,3.359375,0.918457,-0.08252,0.298157,0.246521,up
92128,-6.105469,-0.898437,6.007812,1.712891,-1.896484,3.705078,0.918152,-0.075012,0.294983,0.253662,up
92133,-6.261719,-0.898437,6.085937,1.712891,-1.896484,3.705078,0.917542,-0.066895,0.292114,0.261292,up
92139,-6.144531,-0.4375,6.121094,1.720703,-1.732422,3.808594,0.915588,-0.051819,0.287781,0.276001,up
92144,-6.296875,0.175781,6.355469,1.720703,-1.732422,3.808594,0.915588,-0.051819,0.287781,0.276001,up
92149,-6.257812,0.328125,6.238281,1.628906,-1.429688,4.015625,0.914124,-0.044128,0.286011,0.283936,up
92154,-6.296875,0.941406,6.660156,1.628906,-1.429688,4.015625,0.914124,-0.044128,0.286011,0.283936,up
92159,-6.410156,0.863281,6.660156,1.628906,-1.429688,4.015625,0.914124,-0.044128,0.286011,0.283936,up
92164,-6.296875,0.941406,7.160156,1.628906,-1.429688,4.015625,0.907715,-0.021301,0.28125,0.310669,up
92170,-6.296875,0.863281,7.15625,1.050781,-1.220703,4.34375,0.907715,-0.021301,0.28125,0.310669,up
92175,-6.257812,0.863281,7.277344,0.947266,-1.263672,4.365234,0.907715,-0.021301,0.28125,0.310669,up
92180,-5.988281,1.054688,7.273437,0.947266,-1.263672,4.365234,0.8974,0.003784,0.274109,0.345703,up
92185,-5.949219,1.054688,7.195312,0.775391,-1.304688,4.359375,0.8974,0.003784,0.274109,0.345703,up
92191,-5.796875,1.132813,7.078125,0.699219,-1.333984,4.359375,0.8974,0.003784,0.274109,0.345703,up
92196,-5.683594,1.09375,7.082031,0.699219,-1.333984,4.359375,0.887878,0.022339,0.266479,0.374451,up
92201,-5.527344,0.902344,7.042969,0.699219,-1.333984,4.359375,0.887878,0.022339,0.266479,0.374451,up
92206,-5.414062,0.902344,7.082031,0.699219,-1.333984,4.359375,0.881714,0.032898,0.26123,0.391541,up
92212,-5.414062,0.902344,7.082031,0.507812,-1.339844,4.242187,0.878418,0.038086,0.258484,0.400085,up
92217,-5.183594,0.980469,7.15625,0.486328,-1.3125,4.208984,0.875061,0.043274,0.255676,0.408752,up
92222,-5.183594,0.980469,7.15625,0.464844,-1.283203,4.15625,0.871582,0.04834,0.252869,0.417236,up
92228,-5.109375,1.09375,7.195312,0.458984,-1.273438,4.121094,0.864258,0.058411,0.247192,0.434204,up
92233,-5.109375,1.171875,7.382812,0.458984,-1.273438,4.121094,0.860474,0.063538,0.244263,0.442627,up
92238,-5.070312,1.210938,7.425781,0.458984,-1.273438,4.121094,0.85675,0.068542,0.241394,0.450623,up
92243,-4.953125,1.285156,7.621094,0.544922,-1.292969,3.988281,0.85675,0.068542,0.241394,0.450623,up
92248,-4.878906,1.285156,7.726562,0.544922,-1.292969,3.988281,0.84906,0.078735,0.235657,0.466248,up
92254,-4.6875,1.476563,7.808594,0.544922,-1.292969,3.988281,0.844971,0.084167,0.232605,0.474121,up
92259,-4.53125,1.785156,7.847656,0.65625,-1.416016,3.886719,0.841064,0.089478,0.229614,0.481506,up
92264,-4.339844,1.820313,7.882812,0.683594,-1.449219,3.837891,0.837158,0.094849,0.226562,0.48877,up
92269,-4.339844,1.820313,7.882812,0.6875,-1.443359,3.785156,0.833008,0.100464,0.223328,0.496094,up
92274,-4.226562,2.089844,7.460937,0.6875,-1.443359,3.785156,0.833008,0.100464,0.223328,0.496094,up
92279,-4.226562,2.089844,7.460937,0.675781,-1.431641,3.746094,0.824829,0.111145,0.217041,0.510132,up
92284,-3.921875,2.089844,7.464844,0.675781,-1.431641,3.746094,0.820801,0.116211,0.213867,0.516785,up
92290,-3.726563,2.28125,7.503906,0.675781,-1.431641,3.746094,0.816711,0.121155,0.210754,0.523376,up
92295,-3.726563,2.28125,7.582031,0.605469,-1.341797,3.609375,0.816711,0.121155,0.210754,0.523376,up
92301,-3.652344,2.242188,7.695312,0.636719,-1.333984,3.578125,0.816711,0.121155,0.210754,0.523376,up
92306,-3.460938,2.398438,7.695312,0.681641,-1.351563,3.564453,0.816711,0.121155,0.210754,0.523376,up
92311,-3.382813,2.472656,7.699219,0.730469,-1.363281,3.546875,0.799438,0.141418,0.198425,0.549133,up
92316,-3.308594,2.511719,7.617187,0.777344,-1.400391,3.529297,0.799438,0.141418,0.198425,0.549133,up
92322,-3.152344,2.511719,7.5,0.777344,-1.400391,3.529297,0.790283,0.152283,0.192261,0.561523,up
92328,-3.078125,2.703125,7.304687,0.861328,-1.546875,3.5,0.790283,0.152283,0.192261,0.561523,up
92333,-3.117188,2.855469,7.117187,0.861328,-1.546875,3.5,0.776733,0.168762,0.182739,0.578613,up
92338,-3.117188,3.007813,7.195312,0.929687,-1.683594,3.476563,0.77179,0.174866,0.179138,0.584534,up
92343,-2.960938,3.203125,7.238281,0.929687,-1.683594,3.476563,0.767456,0.180359,0.175964,0.589478,up
92348,-2.847656,3.394531,7.234375,1.001953,-1.841797,3.498047,0.762573,0.186646,0.172241,0.594971,up
92353,-2.847656,3.394531,7.234375,1.001953,-1.841797,3.498047,0.762573,0.186646,0.172241,0.594971,up
92358,-2.769531,3.46875,7.195312,0.990234,-1.888672,3.517578,0.762573,0.186646,0.172241,0.594971,up
92363,-2.769531,3.46875,7.195312,0.962891,-1.945313,3.539063,0.752869,0.199036,0.164673,0.605347,up
92383,-2.121094,3.316406,7.660156,0.888672,-2.171875,3.730469,0.731934,0.224426,0.147461,0.626221,up
92388,-1.964844,3.507813,7.726562,0.888672,-2.171875,3.730469,0.725891,0.231445,0.142395,0.631836,up
92393,-1.546875,3.929688,7.84375,0.933594,-2.224609,3.775391,0.725891,0.231445,0.142395,0.631836,up
92399,-1.390625,3.851563,8.0,0.933594,-2.224609,3.775391,0.708923,0.251038,0.128174,0.646484,up
92404,-1.390625,3.851563,8.0,1.037109,-2.457031,3.876953,0.702942,0.257996,0.123169,0.651306,up
92409,-1.160156,3.851563,7.84375,1.017578,-2.523438,3.943359,0.696533,0.265259,0.117798,0.65625,up
92414,-0.742187,3.507813,7.769531,1.017578,-2.523438,3.943359,0.696533,0.265259,0.117798,0.65625,up
92419,-0.742187,3.507813,7.769531,0.962891,-2.582031,4.015625,0.690186,0.272339,0.112305,0.66095,up
92424,-0.203125,3.355469,7.695312,0.962891,-2.582031,4.015625,0.683594,0.279297,0.106689,0.665833,up
92429,-0.203125,3.355469,7.695312,0.9375,-2.720703,4.3125,0.669495,0.29364,0.094604,0.67572,up
92434,-0.011719,3.316406,7.65625,0.992187,-2.787109,4.453125,0.661804,0.301147,0.088257,0.680847,up
92440,0.675781,2.972656,7.425781,0.992187,-2.787109,4.453125,0.654114,0.308594,0.081909,0.68573,up
92445,0.792969,2.972656,7.277344,1.042969,-2.951172,4.65625,0.654114,0.308594,0.081909,0.68573,up
92451,0.984375,2.050781,7.121094,1.046875,-2.970703,4.714844,0.654114,0.308594,0.081909,0.68573,up
92456,1.289063,1.746094,7.0,1.048828,-2.880859,4.746094,0.654114,0.308594,0.081909,0.68573,up
92462,1.597656,1.554688,6.960937,1.123047,-2.820313,4.763672,0.654114,0.308594,0.081909,0.68573,up
92467,2.054688,1.476563,7.160156,1.306641,-2.820313,4.78125,0.654114,0.308594,0.081909,0.68573,up
92472,2.054688,1.476563,7.160156,1.306641,-2.820313,4.78125,0.654114,0.308594,0.081909,0.68573,up
92477,2.054688,1.476563,7.160156,1.546875,-2.806641,4.771484,0.592346,0.362122,0.037598,0.71875,up
92483,2.054688,1.476563,7.160156,2.044922,-2.736328,4.791016,0.58197,0.370544,0.032471,0.723206,up
92488,2.785156,2.359375,7.542969,2.394531,-2.697266,4.763672,0.58197,0.370544,0.032471,0.723206,up
92493,2.976563,1.785156,6.925781,2.529297,-2.556641,4.722656,0.560547,0.387756,0.024231,0.731323,up
92498,3.128906,1.59375,6.429687,2.689453,-2.234375,4.642578,0.560547,0.387756,0.024231,0.731323,up
92503,3.433594,1.898438,5.667969,2.689453,-2.234375,4.642578,0.538879,0.404053,0.018066,0.738953,up
92508,3.550781,2.089844,5.46875,2.689453,-2.234375,4.642578,0.526794,0.412598,0.015015,0.742981,up
92513,3.550781,2.089844,5.46875,2.689453,-2.234375,4.642578,0.516602,0.419556,0.012512,0.746277,up
92518,3.589844,1.976563,5.246094,2.699219,-2.105469,4.505859,0.516602,0.419556,0.012512,0.746277,up
92523,4.316406,1.476563,4.4375,2.693359,-2.082031,4.431641,0.494141,0.43457,0.007507,0.75293,up
92528,4.316406,1.476563,4.4375,2.693359,-2.082031,4.431641,0.494141,0.43457,0.007507,0.75293,up
92533,4.316406,1.476563,4.4375,2.490234,-1.988281,4.253906,0.471985,0.448792,0.002686,0.75885,up
92538,5.042969,1.054688,4.207031,2.490234,-1.988281,4.253906,0.45105,0.461548,-0.001953,0.763855,up
92543,6.0,2.015625,4.398437,2.490234,-1.988281,4.253906,0.45105,0.461548,-0.001953,0.763855,up
92548,6.304687,2.433594,4.707031,2.490234,-1.988281,4.253906,0.430969,0.473511,-0.006165,0.768127,up
92553,6.421875,2.242188,4.972656,2.490234,-1.988281,4.253906,0.430969,0.473511,-0.006165,0.768127,up
92558,6.804687,1.515625,5.089844,2.162109,-1.431641,3.478516,0.430969,0.473511,-0.006165,0.768127,up
92563,6.847656,1.246094,4.898437,2.162109,-1.431641,3.478516,0.412354,0.483582,-0.009277,0.772034,up
92568,6.886719,1.324219,4.4375,2.0,-1.035156,3.150391,0.412354,0.483582,-0.009277,0.772034,up
92573,6.886719,1.324219,4.4375,1.888672,-0.912109,3.037109,0.395264,0.491577,-0.011475,0.775879,up
92578,6.691406,1.363281,3.554688,1.751953,-0.822266,2.888672,0.38739,0.494934,-0.012451,0.77771,up
92583,6.691406,1.363281,3.554688,1.634766,-0.751953,2.765625,0.38739,0.494934,-0.012451,0.77771,up
92588,6.503906,1.132813,3.554688,1.634766,-0.751953,2.765625,0.379883,0.497986,-0.013428,0.779419,up
92593,6.503906,1.132813,3.554688,1.566406,-1.117188,2.482422,0.365356,0.504211,-0.015625,0.782349,up
92599,7.230469,0.941406,5.472656,1.566406,-1.117188,2.482422,0.350769,0.511597,-0.017944,0.78418,up
92604,7.53125,1.363281,5.625,1.548828,-1.158203,2.347656,0.344177,0.515076,-0.018921,0.78479,up
92609,7.914062,1.628906,5.625,1.548828,-1.158203,2.347656,0.338501,0.518066,-0.019836,0.785217,up
92614,8.800781,1.59375,5.511719,1.548828,-1.158203,2.347656,0.332153,0.521545,-0.020935,0.785645,up
92619,9.144531,1.707031,5.546875,1.181641,-1.074219,2.039063,0.325806,0.525024,-0.022278,0.78595,up
92624,8.839844,2.015625,5.320312,0.955078,-1.064453,1.9375,0.320313,0.527954,-0.023682,0.786194,up
92629,8.300781,1.976563,4.972656,0.955078,-1.064453,1.9375,0.316162,0.530396,-0.025269,0.786194,up
92634,8.453125,1.285156,4.167969,0.955078,-1.064453,1.9375,0.311584,0.533325,-0.028076,0.78595,up
92640,8.070313,0.597656,4.476562,0.955078,-1.064453,1.9375,0.308777,0.535095,-0.030823,0.785706,up
92645,8.109375,0.214844,4.550781,-0.617187,-1.185547,1.476563,0.308777,0.535095,-0.030823,0.785706,up
92651,8.339844,0.136719,4.09375,-0.617187,-1.185547,1.476563,0.304565,0.538452,-0.038879,0.784729,up
92657,8.878906,-0.054687,4.167969,-1.337891,-1.191406,1.238281,0.304565,0.538452,-0.038879,0.784729,up
92662,8.878906,-0.324219,4.285156,-1.650391,-1.0,1.035156,0.304565,0.538452,-0.038879,0.784729,up
92667,8.601563,-0.285156,4.285156,-1.650391,-1.0,1.035156,0.303589,0.541077,-0.054871,0.782349,up
92672,8.839844,-0.324219,4.09375,-1.650391,-1.0,1.035156,0.303589,0.541077,-0.054871,0.782349,up
92677,8.839844,-0.324219,3.902344,-1.882813,-0.8125,0.679687,0.305664,0.541199,-0.065002,0.780701,up
92683,8.839844,-0.324219,3.902344,-1.630859,-0.589844,0.326172,0.307129,0.541077,-0.069336,0.779846,up
92688,8.605469,-0.4375,4.015625,-1.292969,-0.541016,0.197266,0.307129,0.541077,-0.069336,0.779846,up
92693,8.605469,-0.4375,4.015625,-1.005859,-0.457031,0.054687,0.309692,0.541077,-0.075806,0.778198,up
92698,9.023438,-0.207031,4.515625,-1.005859,-0.457031,0.054687,0.311707,0.541504,-0.078918,0.776794,up
92703,9.105469,0.175781,4.398437,-1.005859,-0.457031,0.054687,0.311707,0.541504,-0.078918,0.776794,up
92708,8.875,0.367188,4.246094,-0.080078,-0.152344,-0.28125,0.312439,0.541809,-0.079407,0.776245,up
92713,8.914063,0.558594,4.132812,-0.080078,-0.152344,-0.28125,0.31311,0.542114,-0.079468,0.775757,up
92719,9.0625,0.710937,4.167969,0.007813,-0.021484,-0.410156,0.31311,0.542114,-0.079468,0.775757,up
92724,9.066406,0.902344,4.398437,0.007813,-0.021484,-0.410156,0.31543,0.542664,-0.078003,0.774597,up
92729,9.066406,0.980469,4.4375,0.015625,0.070312,-0.544922,0.31543,0.542664,-0.078003,0.774597,up
92734,8.953125,1.246094,4.4375,0.015625,0.070312,-0.544922,0.317444,0.542603,-0.076355,0.773926,up
92739,9.023438,1.515625,4.476562,0.015625,0.070312,-0.544922,0.318787,0.542542,-0.075378,0.77356,up
92744,8.914063,1.746094,4.4375,0.015625,0.070312,-0.544922,0.320129,0.542419,-0.074402,0.773193,up
92749,8.953125,1.9375,4.4375,0.015625,0.070312,-0.544922,0.320129,0.542419,-0.074402,0.773193,up
92754,8.800781,2.089844,4.4375,-0.025391,0.208984,-0.861328,0.320129,0.542419,-0.074402,0.773193,up
92759,8.875,2.472656,4.589844,-0.025391,0.208984,-0.861328,0.325195,0.541748,-0.070496,0.771912,up
92764,8.914063,2.589844,4.707031,-0.025391,0.208984,-0.861328,0.326782,0.541504,-0.069031,0.771484,up
92769,8.835938,2.816406,4.628906,0.138672,0.216797,-0.960937,0.326782,0.541504,-0.069031,0.771484,up
92774,8.835938,3.125,4.550781,0.138672,0.216797,-0.960937,0.328552,0.541321,-0.067261,0.771057,up
92779,8.835938,3.125,4.550781,0.193359,0.193359,-0.996094,0.331787,0.541138,-0.063599,0.770081,up
92784,8.875,3.394531,4.550781,0.179687,0.199219,-1.017578,0.331787,0.541138,-0.063599,0.770081,up
92789,8.796875,3.507813,4.628906,0.179687,0.199219,-1.017578,0.335205,0.540955,-0.059692,0.769043,up
92794,8.839844,3.777344,4.667969,0.179687,0.199219,-1.017578,0.336975,0.540771,-0.057739,0.768555,up
92799,8.796875,3.851563,4.667969,0.179687,0.199219,-1.017578,0.336975,0.540771,-0.057739,0.768555,up
92804,8.679688,3.96875,4.667969,0.003906,0.226562,-0.986328,0.336975,0.540771,-0.057739,0.768555,up
92809,8.761719,4.121094,4.667969,0.003906,0.226562,-0.986328,0.34259,0.539978,-0.052673,0.767029,up
92814,8.796875,4.121094,4.628906,0.003906,0.226562,-0.986328,0.34436,0.539612,-0.051453,0.766541,up
92819,8.835938,4.273437,4.667969,0.003906,0.226562,-0.986328,0.346619,0.539062,-0.050293,0.765991,up
92824,8.800781,4.234375,4.589844,0.003906,0.226562,-0.986328,0.346619,0.539062,-0.050293,0.765991,up
92829,8.835938,4.234375,4.589844,-0.433594,0.226562,-0.826172,0.346619,0.539062,-0.050293,0.765991,up
92834,8.839844,4.273437,4.515625,-0.449219,0.236328,-0.785156,0.350708,0.537842,-0.048889,0.765076,up
92840,8.835938,4.195312,4.550781,-0.449219,0.236328,-0.785156,0.355042,0.536255,-0.047913,0.764282,up
92845,8.796875,4.160156,4.589844,-0.449219,0.236328,-0.785156,0.356995,0.535461,-0.047546,0.763916,up
92851,8.796875,4.234375,4.550781,-0.449219,0.236328,-0.785156,0.358582,0.534851,-0.047241,0.763672,up
92856,8.722656,4.234375,4.515625,-0.320313,0.240234,-0.591797,0.358582,0.534851,-0.047241,0.763672,up
92861,8.644531,4.234375,4.476562,-0.25,0.253906,-0.548828,0.361572,0.533508,-0.046326,0.763245,up
92866,8.492188,4.195312,4.515625,-0.164062,0.25,-0.517578,0.361572,0.533508,-0.046326,0.763245,up
92871,8.417969,4.160156,4.589844,-0.083984,0.25,-0.486328,0.364014,0.532288,-0.044983,0.763,up
92876,8.457031,4.082031,4.667969,-0.021484,0.246094,-0.470703,0.364014,0.532288,-0.044983,0.763,up
92882,8.453125,4.082031,4.78125,0.025391,0.242187,-0.466797,0.364014,0.532288,-0.044983,0.763,up
92887,8.535156,4.082031,4.820312,0.025391,0.242187,-0.466797,0.364014,0.532288,-0.044983,0.763,up
92892,8.53125,4.042969,4.78125,0.029297,0.212891,-0.458984,0.364014,0.532288,-0.044983,0.763,up
92897,8.492188,4.042969,4.742187,0.007813,0.203125,-0.466797,0.364014,0.532288,-0.044983,0.763,up
92903,8.53125,4.003906,4.742187,0.007813,0.203125,-0.466797,0.369019,0.529968,-0.039551,0.762512,up
92909,8.53125,3.96875,4.742187,0.007813,0.203125,-0.466797,0.369019,0.529968,-0.039551,0.762512,up
92914,8.566406,3.890625,4.78125,-0.148437,0.166016,-0.476562,0.369019,0.529968,-0.039551,0.762512,up
92919,8.566406,3.8125,4.820312,-0.148437,0.166016,-0.476562,0.371887,0.528809,-0.037354,0.762024,up
92925,8.566406,3.8125,4.820312,-0.242187,0.15625,-0.470703,0.374023,0.527893,-0.036438,0.761658,up
92930,8.535156,3.777344,4.820312,-0.273438,0.166016,-0.478516,0.375366,0.527344,-0.036011,0.761414,up
92936,8.339844,3.699219,4.78125,-0.273438,0.166016,-0.478516,0.376465,0.526794,-0.035767,0.76123,up
92942,8.183594,3.546875,4.820312,-0.273438,0.166016,-0.478516,0.377686,0.526184,-0.035522,0.761047,up
92947,8.183594,3.507813,4.742187,-0.304688,0.166016,-0.427734,0.377686,0.526184,-0.035522,0.761047,up
92952,8.183594,3.46875,4.78125,-0.296875,0.148437,-0.400391,0.377686,0.526184,-0.035522,0.761047,up
92957,8.222656,3.46875,4.820312,-0.300781,0.128906,-0.373047,0.377686,0.526184,-0.035522,0.761047,up
92962,8.300781,3.46875,4.898437,-0.300781,0.128906,-0.373047,0.377686,0.526184,-0.035522,0.761047,up
92968,8.257813,3.46875,4.898437,-0.300781,0.128906,-0.373047,0.382996,0.52356,-0.03479,0.760254,up
92974,8.257813,3.546875,4.820312,-0.240234,0.091797,-0.310547,0.382996,0.52356,-0.03479,0.760254,up
92979,8.222656,3.585938,4.820312,-0.240234,0.091797,-0.310547,0.385437,0.522461,-0.034241,0.759827,up
92984,8.179688,3.585938,4.820312,-0.240234,0.091797,-0.310547,0.385437,0.522461,-0.034241,0.759827,up
92989,8.152344,3.585938,4.820312,-0.046875,0.074219,-0.269531,0.385437,0.522461,-0.034241,0.759827,up
92994,8.070313,3.621094,4.628906,-0.046875,0.074219,-0.269531,0.386536,0.521973,-0.033569,0.759583,up
92999,8.070313,3.621094,4.628906,-0.019531,0.060547,-0.265625,0.387024,0.521851,-0.033142,0.75946,up
93004,8.113281,3.621094,4.667969,-0.019531,0.060547,-0.265625,0.387512,0.521729,-0.032715,0.759338,up
93009,8.113281,3.621094,4.667969,-0.021484,0.052734,-0.271484,0.388,0.521606,-0.032349,0.759155,up
93014,8.113281,3.660156,4.820312,-0.021484,0.052734,-0.271484,0.388489,0.521484,-0.031921,0.758972,up
93019,8.074219,3.777344,4.859375,-0.021484,0.052734,-0.271484,0.389038,0.521484,-0.031555,0.758789,up
93024,8.03125,3.738281,4.742187,-0.017578,0.019531,-0.277344,0.389465,0.521423,-0.031067,0.758606,up
93029,8.035156,3.777344,4.707031,-0.017578,0.019531,-0.277344,0.390442,0.521301,-0.030273,0.75824,up
93034,7.996094,3.699219,4.667969,-0.017578,0.019531,-0.277344,0.390991,0.52124,-0.029907,0.757996,up
93039,8.074219,3.738281,4.78125,-0.017578,0.019531,-0.277344,0.390991,0.52124,-0.029907,0.757996,up
93044,7.992187,3.777344,4.707031,-0.113281,0.0,-0.289063,0.390991,0.52124,-0.029907,0.757996,up
93049,8.03125,3.8125,4.78125,-0.113281,0.0,-0.289063,0.392151,0.520996,-0.029358,0.757568,up
93055,8.035156,3.8125,4.707031,-0.150391,-0.007813,-0.291016,0.393494,0.520752,-0.028992,0.75708,up
93060,8.03125,3.8125,4.78125,-0.167969,-0.007813,-0.302734,0.394226,0.52063,-0.02887,0.756775,up
93065,7.992187,3.777344,4.667969,-0.167969,-0.007813,-0.302734,0.394958,0.520447,-0.028687,0.756531,up
93070,7.953125,3.738281,4.628906,-0.167969,-0.007813,-0.302734,0.395569,0.520325,-0.028564,0.756287,up
93075,7.953125,3.777344,4.628906,-0.150391,0.0,-0.294922,0.396362,0.520142,-0.028442,0.755981,up
93080,7.953125,3.777344,4.628906,-0.150391,0.0,-0.294922,0.396973,0.52002,-0.028259,0.755798,up
93085,7.914062,3.738281,4.628906,-0.150391,0.0,-0.294922,0.397644,0.519836,-0.028076,0.755554,up
93090,7.953125,3.777344,4.589844,-0.146484,0.013672,-0.269531,0.398254,0.519714,-0.027893,0.755371,up
93095,7.914062,3.777344,4.589844,-0.146484,0.013672,-0.269531,0.398865,0.519531,-0.027771,0.755127,up
93100,7.835937,3.777344,4.476562,-0.146484,0.013672,-0.269531,0.399536,0.519287,-0.027588,0.754944,up
93106,7.796875,3.777344,4.550781,-0.146484,0.013672,-0.269531,0.400085,0.519043,-0.027405,0.754822,up
93111,7.796875,3.777344,4.550781,-0.152344,0.056641,-0.259766,0.400757,0.518799,-0.027222,0.754639,up
93116,7.769531,3.738281,4.550781,-0.152344,0.056641,-0.259766,0.401306,0.518555,-0.027039,0.754517,up
93121,7.730469,3.8125,4.476562,-0.152344,0.056641,-0.259766,0.401306,0.518555,-0.027039,0.754517,up
93126,7.730469,3.8125,4.476562,-0.132812,0.046875,-0.257813,0.401306,0.518555,-0.027039,0.754517,up
93132,7.726562,3.8125,4.515625,-0.134766,0.050781,-0.259766,0.403015,0.517822,-0.026428,0.75415,up
93138,7.6875,3.851563,4.515625,-0.134766,0.050781,-0.259766,0.403687,0.517578,-0.026184,0.753967,up
93144,7.691406,3.890625,4.515625,-0.136719,0.035156,-0.273438,0.403687,0.517578,-0.026184,0.753967,up
93149,7.613281,3.96875,4.515625,-0.136719,0.035156,-0.273438,0.404846,0.517151,-0.025818,0.753662,up
