timestamp,ax,ay,az,gx,gy,gz,qw,qx,qy,qz,label
65313,1.097656,3.585938,7.925781,2.269531,-0.787109,0.46875,0.982361,0.184021,-0.032104,0.01062,up
65318,1.097656,3.585938,7.925781,2.035156,-0.554687,0.320313,0.981323,0.189087,-0.033752,0.011169,up
65323,1.214844,3.585938,7.960937,1.892578,-0.439453,0.283203,0.980347,0.193848,-0.035095,0.011597,up
65328,1.519531,3.851563,8.0,1.892578,-0.439453,0.283203,0.980347,0.193848,-0.035095,0.011597,up
65334,1.519531,3.851563,8.0,1.316406,-0.082031,0.287109,0.978577,0.202148,-0.036804,0.012695,up
65340,1.328125,3.660156,8.308594,1.316406,-0.082031,0.287109,0.977844,0.205566,-0.037231,0.013428,up
65346,1.289063,3.429688,8.265625,1.316406,-0.082031,0.287109,0.976562,0.211426,-0.037598,0.014587,up
65351,1.289063,3.429688,8.265625,1.126953,0.142578,0.375,0.975952,0.214111,-0.037598,0.01532,up
65356,1.023438,3.316406,8.148438,1.126953,0.142578,0.375,0.975281,0.217224,-0.037292,0.016418,up
65362,0.753906,3.429688,8.039063,1.126953,0.142578,0.375,0.974731,0.219666,-0.037048,0.017273,up
65368,0.636719,3.507813,8.003906,1.289063,0.271484,0.425781,0.974731,0.219666,-0.037048,0.017273,up
65373,0.601562,3.621094,8.003906,1.359375,0.283203,0.410156,0.974731,0.219666,-0.037048,0.017273,up
65379,0.601562,3.851563,8.082031,1.4375,0.265625,0.386719,0.97168,0.232605,-0.035156,0.021484,up
65384,0.5625,4.082031,8.042969,1.4375,0.265625,0.386719,0.97168,0.232605,-0.035156,0.021484,up
65389,0.636719,4.234375,8.0,1.513672,0.277344,0.294922,0.97168,0.232605,-0.035156,0.021484,up
65394,0.523437,4.503906,7.886719,1.492188,0.277344,0.25,0.97168,0.232605,-0.035156,0.021484,up
65399,0.523437,4.582031,7.964844,1.492188,0.277344,0.25,0.969055,0.243469,-0.033508,0.023682,up
65405,0.5625,4.65625,7.964844,1.244141,0.300781,0.146484,0.969055,0.243469,-0.033508,0.023682,up
65410,0.5625,4.808594,7.886719,1.244141,0.300781,0.146484,0.966675,0.252869,-0.031555,0.024902,up
65415,0.636719,4.847656,7.925781,1.244141,0.300781,0.146484,0.966003,0.25531,-0.030884,0.025391,up
65420,0.753906,4.808594,8.0,0.806641,0.373047,0.167969,0.966003,0.25531,-0.030884,0.025391,up
65425,0.753906,4.773437,7.964844,0.806641,0.373047,0.167969,0.965454,0.257568,-0.030029,0.02594,up
65430,0.792969,4.617187,7.964844,0.564453,0.460937,0.228516,0.965454,0.257568,-0.030029,0.02594,up
65435,0.636719,4.464844,7.84375,0.564453,0.460937,0.228516,0.964294,0.261902,-0.027344,0.027954,up
65440,0.601562,4.425781,7.964844,0.513672,0.501953,0.306641,0.964294,0.261902,-0.027344,0.027954,up
65445,0.601562,4.425781,8.0,0.537109,0.509766,0.339844,0.963928,0.263184,-0.026245,0.028992,up
65450,0.636719,4.390625,8.039063,0.537109,0.509766,0.339844,0.963257,0.265625,-0.024231,0.031067,up
65455,0.675781,4.3125,8.113281,0.537109,0.509766,0.339844,0.962891,0.267029,-0.023254,0.032227,up
65460,0.832031,4.273437,8.113281,0.537109,0.509766,0.339844,0.962891,0.267029,-0.023254,0.032227,up
65465,0.90625,4.273437,8.148438,0.740234,0.535156,0.390625,0.961853,0.270508,-0.021118,0.034729,up
65470,0.792969,4.464844,8.191406,0.740234,0.535156,0.390625,0.961304,0.272522,-0.02002,0.035889,up
65475,0.601562,4.617187,8.0,0.740234,0.535156,0.390625,0.961304,0.272522,-0.02002,0.035889,up
65480,0.5625,4.695312,7.960937,1.011719,0.570312,0.337891,0.9599,0.277283,-0.017578,0.038147,up
65485,0.601562,4.925781,7.886719,1.011719,0.570312,0.337891,0.959167,0.279724,-0.016296,0.039063,up
65490,0.636719,5.0,7.847656,1.011719,0.570312,0.337891,0.959167,0.279724,-0.016296,0.039063,up
65495,0.636719,5.0,7.847656,0.884766,0.572266,0.167969,0.958557,0.281799,-0.015076,0.039734,up
65500,0.601562,5.0,7.765625,0.791016,0.578125,0.113281,0.958557,0.281799,-0.015076,0.039734,up
65505,0.792969,5.078125,7.804687,0.703125,0.603516,0.058594,0.957458,0.2854,-0.01239,0.040894,up
65510,0.792969,5.078125,7.804687,0.623047,0.654297,0.003906,0.957458,0.2854,-0.01239,0.040894,up
65516,0.832031,5.191406,7.960937,0.623047,0.654297,0.003906,0.956238,0.289612,-0.007446,0.041809,up
65522,0.753906,5.230469,7.960937,0.623047,0.654297,0.003906,0.955872,0.29071,-0.005493,0.04187,up
65528,0.675781,5.191406,7.964844,0.623047,0.654297,0.003906,0.955872,0.29071,-0.005493,0.04187,up
65533,0.601562,5.191406,7.925781,0.371094,0.927734,-0.066406,0.955872,0.29071,-0.005493,0.04187,up
65538,0.601562,5.15625,7.804687,0.339844,0.972656,-0.041016,0.955872,0.29071,-0.005493,0.04187,up
65544,0.601562,5.078125,7.730469,0.339844,0.972656,-0.041016,0.955872,0.29071,-0.005493,0.04187,up
65549,0.5625,5.078125,7.765625,0.324219,1.091797,0.007813,0.955872,0.29071,-0.005493,0.04187,up
65555,0.523437,5.039062,7.769531,0.349609,1.144531,0.03125,0.953979,0.296204,0.011292,0.044983,up
65560,0.21875,5.15625,7.621094,0.349609,1.144531,0.03125,0.953613,0.297119,0.014282,0.045959,up
65565,-0.011719,5.230469,7.660156,0.349609,1.144531,0.03125,0.953613,0.297119,0.014282,0.045959,up
65570,-0.28125,5.386719,7.726562,0.525391,1.265625,0.111328,0.953613,0.297119,0.014282,0.045959,up
65575,-0.625,5.769531,7.804687,0.591797,1.25,0.121094,0.952209,0.300659,0.023071,0.049011,up
65580,-0.703125,5.882812,7.886719,0.603516,1.175781,0.095703,0.952209,0.300659,0.023071,0.049011,up
65585,-0.777344,5.996094,7.921875,0.603516,1.175781,0.095703,0.951599,0.302124,0.026184,0.050049,up
65590,-0.855469,6.035156,7.960937,0.445312,1.046875,0.066406,0.951599,0.302124,0.026184,0.050049,up
65596,-0.742187,6.074219,8.003906,0.445312,1.046875,0.066406,0.950256,0.305237,0.033447,0.052185,up
65601,-0.664062,6.074219,8.082031,0.335938,0.896484,0.027344,0.94989,0.306091,0.035889,0.052795,up
65607,-0.664062,6.074219,8.191406,0.335938,0.896484,0.027344,0.949585,0.306641,0.037659,0.053101,up
65612,-0.664062,5.960937,8.226563,0.263672,0.798828,0.0,0.949585,0.306641,0.037659,0.053101,up
65618,-0.664062,5.804687,8.148438,0.263672,0.798828,0.0,0.949585,0.306641,0.037659,0.053101,up
65624,-0.664062,5.730469,8.082031,0.214844,0.734375,0.009766,0.949585,0.306641,0.037659,0.053101,up
65630,-0.703125,5.652344,8.113281,0.203125,0.720703,0.021484,0.949585,0.306641,0.037659,0.053101,up
65636,-0.625,5.691406,8.191406,0.265625,0.712891,0.054687,0.949585,0.306641,0.037659,0.053101,up
65641,-0.550781,5.691406,8.265625,0.265625,0.712891,0.054687,0.947693,0.310425,0.049866,0.055237,up
65647,-0.550781,5.804687,8.304688,0.265625,0.712891,0.054687,0.947327,0.311279,0.051392,0.055664,up
65652,-0.585937,5.960937,8.308594,0.265625,0.712891,0.054687,0.946777,0.312439,0.053162,0.056213,up
65657,-0.625,6.113281,8.226563,0.746094,0.837891,0.064453,0.946777,0.312439,0.053162,0.056213,up
65662,-0.664062,6.304687,8.109375,0.833984,0.865234,0.064453,0.946777,0.312439,0.053162,0.056213,up
65668,-0.703125,6.457031,8.039063,0.833984,0.865234,0.064453,0.944519,0.317871,0.059387,0.057617,up
65674,-0.816406,6.609375,7.921875,0.894531,0.90625,0.035156,0.944519,0.317871,0.059387,0.057617,up
65679,-0.777344,6.765625,7.882812,0.894531,0.90625,0.035156,0.942871,0.321716,0.063538,0.058411,up
65685,-0.855469,6.878906,7.808594,0.789062,0.9375,0.021484,0.942871,0.321716,0.063538,0.058411,up
65690,-0.933594,6.839844,7.765625,0.550781,0.958984,0.017578,0.941345,0.325256,0.067993,0.059265,up
65695,-1.046875,6.839844,7.578125,0.550781,0.958984,0.017578,0.940613,0.32666,0.070435,0.059814,up
65700,-1.046875,6.839844,7.578125,0.273438,0.955078,0.019531,0.940125,0.327637,0.07251,0.060242,up
65705,-1.238281,6.765625,7.34375,0.273438,0.955078,0.019531,0.939636,0.328308,0.07489,0.061035,up
65710,-1.429688,6.648437,7.238281,0.273438,0.955078,0.019531,0.939636,0.328308,0.07489,0.061035,up
65715,-1.429688,6.648437,7.238281,0.125,0.904297,0.041016,0.938904,0.328491,0.080872,0.063354,up
65720,-1.429688,6.574219,7.730469,0.125,0.904297,0.041016,0.938904,0.328491,0.080872,0.063354,up
65726,-1.390625,6.535156,7.84375,-0.154297,0.681641,0.146484,0.938843,0.328125,0.082581,0.064087,up
65731,-1.277344,6.496094,7.804687,-0.130859,0.658203,0.183594,0.938782,0.327759,0.084045,0.06488,up
65737,-1.160156,6.417969,7.886719,-0.130859,0.658203,0.183594,0.93866,0.327087,0.086609,0.066406,up
65743,-1.007813,6.34375,7.804687,-0.130859,0.658203,0.183594,0.938538,0.326965,0.087891,0.067322,up
65748,-0.933594,6.34375,7.765625,0.015625,0.667969,0.263672,0.938538,0.326965,0.087891,0.067322,up
65754,-0.816406,6.304687,7.621094,0.089844,0.708984,0.28125,0.938538,0.326965,0.087891,0.067322,up
65759,-0.625,6.304687,7.539062,0.089844,0.708984,0.28125,0.938538,0.326965,0.087891,0.067322,up
65765,-0.585937,6.34375,7.503906,0.089844,0.708984,0.28125,0.937439,0.327576,0.093628,0.071472,up
65771,-0.585937,6.417969,7.503906,0.191406,0.980469,0.351563,0.937439,0.327576,0.093628,0.071472,up
65776,-0.777344,6.6875,7.660156,0.191406,0.980469,0.351563,0.936157,0.328674,0.099243,0.075439,up
65782,-1.199219,6.726562,7.460937,0.191406,0.980469,0.351563,0.935608,0.329163,0.101563,0.077087,up
65787,-1.390625,6.765625,7.121094,0.201172,1.191406,0.335938,0.935608,0.329163,0.101563,0.077087,up
65792,-1.390625,6.765625,7.121094,0.173828,1.277344,0.314453,0.93457,0.329834,0.106445,0.0802,up
65797,-2.082031,6.726562,6.582031,0.173828,1.277344,0.314453,0.934082,0.330078,0.10907,0.081543,up
65804,-2.273438,6.914062,6.660156,0.109375,1.158203,0.292969,0.934082,0.330078,0.10907,0.081543,up
65809,-2.425781,7.03125,6.8125,0.144531,1.007813,0.298828,0.934082,0.330078,0.10907,0.081543,up
65815,-2.234375,7.222656,7.273437,0.144531,1.007813,0.298828,0.934082,0.330078,0.10907,0.081543,up
65820,-2.121094,7.375,7.308594,0.244141,0.699219,0.228516,0.934082,0.330078,0.10907,0.081543,up
65825,-2.042969,7.457031,7.347656,0.244141,0.699219,0.228516,0.931763,0.331787,0.118896,0.087158,up
65830,-1.929688,7.5625,7.386719,0.216797,0.630859,0.210937,0.931763,0.331787,0.118896,0.087158,up
65835,-1.8125,7.53125,7.425781,0.154297,0.558594,0.205078,0.931763,0.331787,0.118896,0.087158,up
65840,-1.738281,7.53125,7.308594,0.154297,0.558594,0.205078,0.930664,0.332947,0.122437,0.089355,up
65846,-1.582031,7.453125,7.273437,-0.113281,0.474609,0.238281,0.930664,0.332947,0.122437,0.089355,up
65851,-1.507813,7.335937,7.234375,-0.113281,0.474609,0.238281,0.930603,0.331421,0.124878,0.092224,up
65856,-1.46875,7.261719,7.277344,-0.753906,0.486328,0.378906,0.930603,0.331421,0.124878,0.092224,up
65861,-1.46875,7.070312,7.386719,-0.929687,0.519531,0.435547,0.930969,0.329834,0.125549,0.093567,up
65866,-1.46875,6.765625,7.5,-0.929687,0.519531,0.435547,0.931946,0.325806,0.126648,0.096558,up
65871,-1.507813,6.574219,7.5,-1.138672,0.613281,0.501953,0.931946,0.325806,0.126648,0.096558,up
65876,-1.621094,6.417969,7.503906,-1.138672,0.613281,0.501953,0.933167,0.320557,0.128052,0.100342,up
65882,-1.738281,6.074219,7.65625,-1.138672,0.613281,0.501953,0.933716,0.317871,0.128906,0.102356,up
65888,-1.964844,5.730469,7.882812,-1.138672,0.613281,0.501953,0.934204,0.315552,0.1297,0.104248,up
65893,-2.003906,5.613281,7.964844,-0.923828,0.677734,0.521484,0.934631,0.313171,0.130615,0.106323,up
65898,-2.003906,5.460937,8.039063,-0.722656,0.628906,0.494141,0.934631,0.313171,0.130615,0.106323,up
65903,-1.929688,5.308594,8.265625,-0.722656,0.628906,0.494141,0.934631,0.313171,0.130615,0.106323,up
65908,-1.890625,5.308594,8.386719,-0.271484,0.517578,0.384766,0.934631,0.313171,0.130615,0.106323,up
65913,-1.890625,5.308594,8.386719,-0.076172,0.457031,0.335938,0.934998,0.308716,0.13385,0.112061,up
65919,-1.890625,5.308594,8.386719,0.09375,0.417969,0.265625,0.934753,0.308777,0.134583,0.112915,up
65924,-1.8125,5.421875,8.464844,0.09375,0.417969,0.265625,0.934753,0.308777,0.134583,0.112915,up
65929,-1.773438,5.5,8.386719,0.232422,0.378906,0.1875,0.934753,0.308777,0.134583,0.112915,up
65935,-1.773438,5.5,8.386719,0.316406,0.330078,0.132812,0.933716,0.310547,0.13678,0.114197,up
65940,-1.699219,5.730469,8.152344,0.361328,0.248047,0.033203,0.933716,0.310547,0.13678,0.114197,up
65946,-1.699219,5.804687,8.152344,0.326172,0.21875,-0.001953,0.933716,0.310547,0.13678,0.114197,up
65951,-1.660156,5.882812,8.078125,0.271484,0.216797,-0.025391,0.933716,0.310547,0.13678,0.114197,up
65956,-1.699219,6.035156,8.042969,0.226562,0.234375,-0.041016,0.933716,0.310547,0.13678,0.114197,up
65961,-1.738281,6.035156,7.964844,0.171875,0.291016,-0.066406,0.93219,0.313843,0.139771,0.11377,up
65966,-1.773438,6.113281,7.882812,0.171875,0.291016,-0.066406,0.931763,0.314636,0.141296,0.113403,up
65971,-1.773438,6.113281,7.84375,0.171875,0.291016,-0.066406,0.931763,0.314636,0.141296,0.113403,up
65976,-1.890625,6.1875,7.925781,0.216797,0.365234,-0.070312,0.931213,0.315491,0.143066,0.113098,up
65981,-1.929688,6.226562,7.960937,0.216797,0.365234,-0.070312,0.931213,0.315491,0.143066,0.113098,up
65986,-1.929688,6.304687,7.921875,0.376953,0.455078,-0.085937,0.931213,0.315491,0.143066,0.113098,up
65991,-1.929688,6.34375,8.003906,0.376953,0.455078,-0.085937,0.930054,0.317627,0.146423,0.112732,up
65996,-1.964844,6.378906,7.964844,0.376953,0.455078,-0.085937,0.929565,0.318481,0.147705,0.11261,up
66001,-2.003906,6.417969,8.078125,0.376953,0.455078,-0.085937,0.929565,0.318481,0.147705,0.11261,up
66006,-2.042969,6.378906,8.039063,0.402344,0.523437,-0.105469,0.929565,0.318481,0.147705,0.11261,up
66011,-2.042969,6.378906,7.964844,0.402344,0.523437,-0.105469,0.928101,0.320862,0.151794,0.112488,up
66016,-2.082031,6.34375,7.921875,0.402344,0.523437,-0.105469,0.927673,0.321411,0.153198,0.112427,up
66021,-2.082031,6.378906,7.847656,0.402344,0.523437,-0.105469,0.927673,0.321411,0.153198,0.112427,up
66026,-2.082031,6.34375,7.886719,0.232422,0.515625,-0.128906,0.926941,0.322144,0.155945,0.112366,up
66031,-2.121094,6.378906,7.730469,0.232422,0.515625,-0.128906,0.926697,0.322266,0.157288,0.112305,up
66036,-2.195313,6.417969,7.660156,0.232422,0.515625,-0.128906,0.926697,0.322266,0.157288,0.112305,up
66041,-2.273438,6.417969,7.726562,0.017578,0.505859,-0.179687,0.926697,0.322266,0.157288,0.112305,up
66047,-2.3125,6.378906,7.804687,0.017578,0.505859,-0.179687,0.926147,0.322021,0.161194,0.111938,up
66052,-2.386719,6.417969,7.804687,0.017578,0.505859,-0.179687,0.926025,0.321899,0.162476,0.111755,up
66057,-2.464844,6.378906,7.730469,0.003906,0.505859,-0.189453,0.925842,0.321716,0.163879,0.111633,up
66062,-2.539063,6.226562,7.699219,0.003906,0.505859,-0.189453,0.925659,0.321533,0.165283,0.111572,up
66067,-2.578125,6.265625,7.695312,0.003906,0.505859,-0.189453,0.925537,0.321411,0.166382,0.111511,up
66072,-2.65625,6.265625,7.730469,0.103516,0.484375,-0.171875,0.925293,0.321411,0.167847,0.111389,up
66078,-2.578125,6.265625,7.847656,0.103516,0.484375,-0.171875,0.925049,0.321533,0.168945,0.111206,up
66083,-2.539063,6.304687,7.886719,0.103516,0.484375,-0.171875,0.924683,0.321899,0.170227,0.111023,up
66089,-2.464844,6.378906,7.765625,0.103516,0.484375,-0.171875,0.924683,0.321899,0.170227,0.111023,up
66094,-2.464844,6.457031,7.765625,0.361328,0.429687,-0.150391,0.924683,0.321899,0.170227,0.111023,up
66099,-2.464844,6.535156,7.765625,0.416016,0.421875,-0.150391,0.924683,0.321899,0.170227,0.111023,up
66105,-2.425781,6.648437,7.695312,0.416016,0.421875,-0.150391,0.923035,0.324646,0.174866,0.109802,up
66110,-2.425781,6.648437,7.621094,0.453125,0.410156,-0.160156,0.923035,0.324646,0.174866,0.109802,up
66116,-2.503906,6.6875,7.503906,0.439453,0.433594,-0.167969,0.923035,0.324646,0.174866,0.109802,up
66122,-2.578125,6.726562,7.34375,0.341797,0.496094,-0.189453,0.923035,0.324646,0.174866,0.109802,up
66127,-2.617188,6.6875,7.308594,0.341797,0.496094,-0.189453,0.920593,0.328674,0.181213,0.10791,up
66132,-2.65625,6.609375,7.277344,0.341797,0.496094,-0.189453,0.920593,0.328674,0.181213,0.10791,up
66137,-2.734375,6.609375,7.304687,0.169922,0.523437,-0.167969,0.920593,0.328674,0.181213,0.10791,up
66143,-2.808594,6.496094,7.34375,0.169922,0.523437,-0.167969,0.919739,0.329041,0.185059,0.107544,up
66149,-2.847656,6.535156,7.421875,-0.048828,0.546875,-0.136719,0.919739,0.329041,0.185059,0.107544,up
66154,-2.769531,6.496094,7.539062,-0.107422,0.53125,-0.130859,0.919739,0.329041,0.185059,0.107544,up
66160,-2.769531,6.457031,7.539062,-0.154297,0.521484,-0.121094,0.919739,0.329041,0.185059,0.107544,up
66165,-2.769531,6.378906,7.578125,-0.193359,0.521484,-0.134766,0.919739,0.329041,0.185059,0.107544,up
66171,-2.808594,6.34375,7.539062,-0.273438,0.523437,-0.162109,0.919739,0.329041,0.185059,0.107544,up
66177,-2.847656,6.265625,7.460937,-0.306641,0.519531,-0.175781,0.919189,0.325989,0.192627,0.108093,up
66182,-2.886719,6.226562,7.542969,-0.306641,0.519531,-0.175781,0.919312,0.324158,0.19519,0.108093,up
66187,-2.925781,6.226562,7.617187,-0.306641,0.519531,-0.175781,0.919434,0.32312,0.196411,0.108032,up
66192,-2.960938,6.1875,7.617187,-0.306641,0.519531,-0.175781,0.919495,0.322266,0.197388,0.10791,up
66198,-3.0,6.113281,7.578125,-0.306641,0.519531,-0.175781,0.919617,0.321228,0.198608,0.107727,up
66203,-2.960938,6.074219,7.542969,-0.367188,0.501953,-0.267578,0.919617,0.321228,0.198608,0.107727,up
66208,-2.960938,6.035156,7.539062,-0.367188,0.496094,-0.28125,0.919861,0.319214,0.200989,0.1073,up
66214,-2.925781,5.996094,7.425781,-0.367188,0.496094,-0.28125,0.920044,0.318115,0.202271,0.106995,up
66220,-2.925781,5.960937,7.34375,-0.419922,0.511719,-0.302734,0.920044,0.318115,0.202271,0.106995,up
66226,-2.925781,5.730469,7.195312,-0.4375,0.525391,-0.318359,0.920044,0.318115,0.202271,0.106995,up
66231,-2.960938,5.691406,7.121094,-0.480469,0.554687,-0.330078,0.920044,0.318115,0.202271,0.106995,up
66236,-2.925781,5.613281,7.0,-0.541016,0.626953,-0.345703,0.920044,0.318115,0.202271,0.106995,up
66241,-2.960938,5.5,6.960937,-0.541016,0.626953,-0.345703,0.920898,0.311401,0.209106,0.106079,up
66246,-3.0,5.308594,6.773437,-0.566406,0.658203,-0.361328,0.920898,0.311401,0.209106,0.106079,up
66251,-3.078125,5.230469,6.660156,-0.566406,0.658203,-0.361328,0.921265,0.308228,0.21228,0.105652,up
66256,-3.078125,5.230469,6.660156,-0.603516,0.740234,-0.408203,0.921509,0.306335,0.214172,0.105408,up
66261,-3.117188,5.15625,6.539062,-0.615234,0.763672,-0.417969,0.921509,0.306335,0.214172,0.105408,up
66266,-3.078125,5.0,6.472656,-0.609375,0.787109,-0.443359,0.921509,0.306335,0.214172,0.105408,up
66272,-3.078125,5.0,6.472656,-0.607422,0.824219,-0.472656,0.921936,0.301025,0.219849,0.104919,up
66277,-3.117188,4.964844,6.507812,-0.591797,0.859375,-0.507812,0.921936,0.301025,0.219849,0.104919,up
66282,-3.269531,4.847656,6.46875,-0.601562,0.894531,-0.535156,0.92218,0.297363,0.224182,0.104431,up
66287,-3.34375,4.808594,6.429687,-0.632812,0.935547,-0.583984,0.922363,0.293457,0.228943,0.103577,up
66293,-3.460938,4.808594,6.390625,-0.632812,0.935547,-0.583984,0.922485,0.291321,0.231506,0.102966,up
66298,-3.421875,4.773437,6.542969,-0.679687,0.931641,-0.734375,0.922485,0.291321,0.231506,0.102966,up
66303,-3.460938,4.734375,6.539062,-0.679687,0.931641,-0.734375,0.922729,0.286987,0.236389,0.101501,up
66308,-3.535156,4.65625,6.511719,-0.679687,0.931641,-0.734375,0.922974,0.284546,0.238953,0.100464,up
66314,-3.574219,4.582031,6.578125,-0.855469,0.847656,-0.919922,0.922974,0.284546,0.238953,0.100464,up
66319,-3.535156,4.503906,6.542969,-0.855469,0.847656,-0.919922,0.923584,0.279297,0.243591,0.098206,up
66325,-3.535156,4.351562,6.46875,-0.96875,0.728516,-1.017578,0.923584,0.279297,0.243591,0.098206,up
66330,-3.460938,4.234375,6.429687,-1.021484,0.681641,-1.058594,0.923584,0.279297,0.243591,0.098206,up
66335,-3.421875,4.160156,6.429687,-1.058594,0.619141,-1.076172,0.92511,0.270203,0.249756,0.093811,up
66341,-3.34375,4.082031,6.3125,-1.074219,0.59375,-1.103516,0.92511,0.270203,0.249756,0.093811,up
66347,-3.382813,4.042969,6.351562,-1.037109,0.535156,-1.117188,0.92511,0.270203,0.249756,0.093811,up
66352,-3.5,3.929688,6.511719,-1.037109,0.535156,-1.117188,0.926941,0.260376,0.255188,0.088806,up
66357,-3.191406,3.507813,5.320312,-1.080078,0.611328,-1.134766,0.92804,0.253784,0.259033,0.085388,up
66362,-3.230469,3.699219,5.46875,-1.080078,0.611328,-1.134766,0.92804,0.253784,0.259033,0.085388,up
66367,-3.269531,3.929688,5.929687,-0.878906,0.806641,-1.152344,0.92804,0.253784,0.259033,0.085388,up
66372,-3.34375,3.929688,6.117187,-0.878906,0.806641,-1.152344,0.928955,0.244629,0.265991,0.080383,up
66378,-3.726563,3.851563,5.585937,-0.878906,0.806641,-1.152344,0.928955,0.242065,0.268799,0.078735,up
66383,-3.84375,3.929688,5.667969,-0.552734,1.103516,-1.111328,0.928833,0.239685,0.271912,0.077026,up
66388,-3.957031,4.121094,5.664062,-0.474609,1.183594,-1.115234,0.928833,0.239685,0.271912,0.077026,up
66393,-4.1875,4.273437,5.589844,-0.474609,1.183594,-1.115234,0.928833,0.239685,0.271912,0.077026,up
66398,-4.1875,4.273437,5.589844,-0.394531,1.261719,-1.109375,0.928162,0.235596,0.278503,0.07373,up
66403,-4.339844,4.425781,5.628906,-0.324219,1.318359,-1.111328,0.928162,0.235596,0.278503,0.07373,up
66408,-4.722656,4.925781,5.734375,-0.273438,1.351563,-1.128906,0.927124,0.232117,0.285645,0.070435,up
66413,-4.722656,4.925781,5.734375,-0.263672,1.369141,-1.134766,0.927124,0.232117,0.285645,0.070435,up
66419,-4.722656,4.925781,5.734375,-0.375,1.402344,-1.160156,0.925232,0.226929,0.296997,0.065247,up
66425,-5.03125,5.421875,5.816406,-0.375,1.402344,-1.160156,0.925232,0.226929,0.296997,0.065247,up
66430,-5.109375,5.421875,5.773437,-0.544922,1.433594,-1.177734,0.92395,0.222656,0.304749,0.061951,up
66436,-5.109375,5.347656,5.816406,-0.65625,1.4375,-1.171875,0.92395,0.222656,0.304749,0.061951,up
66442,-5.144531,5.191406,5.773437,-0.771484,1.4375,-1.15625,0.922302,0.214539,0.316223,0.057495,up
66447,-5.109375,4.964844,5.734375,-0.771484,1.4375,-1.15625,0.921753,0.21106,0.320374,0.056152,up
66452,-5.183594,4.886719,5.628906,-0.771484,1.4375,-1.15625,0.921753,0.21106,0.320374,0.056152,up
66457,-5.144531,4.734375,5.625,-1.083984,1.402344,-1.158203,0.921753,0.21106,0.320374,0.056152,up
66463,-5.070312,4.542969,6.007812,-1.083984,1.402344,-1.158203,0.920471,0.200745,0.331177,0.052673,up
66468,-5.03125,4.542969,6.011719,-1.099609,1.308594,-1.275391,0.919983,0.196594,0.335205,0.051147,up
66474,-5.070312,4.847656,6.050781,-1.099609,1.308594,-1.275391,0.919678,0.19342,0.338074,0.049805,up
66479,-5.109375,4.925781,6.121094,-1.125,1.164063,-1.490234,0.919678,0.19342,0.338074,0.049805,up
66484,-5.144531,4.925781,6.195312,-1.125,1.164063,-1.490234,0.919128,0.185486,0.344543,0.045654,up
66489,-5.222656,5.039062,6.089844,-1.230469,1.005859,-1.78125,0.919128,0.185486,0.344543,0.045654,up
66496,-5.335937,5.117187,6.007812,-1.332031,0.927734,-1.9375,0.919128,0.185486,0.344543,0.045654,up
66502,-5.527344,5.039062,5.738281,-1.332031,0.927734,-1.9375,0.919006,0.166016,0.356018,0.033875,up
66507,-5.644531,4.964844,5.773437,-1.332031,0.927734,-1.9375,0.919006,0.166016,0.356018,0.033875,up
66512,-5.605469,4.808594,5.972656,-2.175781,0.775391,-2.595703,0.919006,0.166016,0.356018,0.033875,up
66517,-5.605469,4.808594,5.972656,-2.175781,0.775391,-2.595703,0.919434,0.152771,0.361328,0.02655,up
66522,-5.875,4.886719,5.929687,-2.175781,0.775391,-2.595703,0.919434,0.152771,0.361328,0.02655,up
66527,-6.140625,4.886719,5.96875,-2.611328,0.730469,-2.880859,0.919434,0.152771,0.361328,0.02655,up
66532,-6.140625,4.886719,5.96875,-2.808594,0.685547,-3.009766,0.920471,0.127747,0.369019,0.014709,up
66537,-6.332031,4.195312,6.355469,-2.808594,0.685547,-3.009766,0.920837,0.117981,0.37146,0.010437,up
66542,-6.371094,3.96875,6.472656,-3.267578,0.671875,-3.433594,0.921204,0.108093,0.373779,0.005981,up
66547,-6.410156,3.890625,6.433594,-3.267578,0.671875,-3.433594,0.921448,0.096558,0.376404,0.000854,up
66552,-6.523437,3.851563,6.507812,-3.417969,0.695312,-3.658203,0.921509,0.085815,0.378723,-0.003967,up
66558,-6.449219,3.316406,6.925781,-3.417969,0.695312,-3.658203,0.921326,0.064148,0.38324,-0.013855,up
66563,-6.296875,3.125,7.042969,-3.378906,0.638672,-3.8125,0.920959,0.051636,0.385681,-0.019836,up
66568,-6.296875,2.359375,7.304687,-3.378906,0.638672,-3.8125,0.920532,0.040039,0.387817,-0.025635,up
66573,-6.410156,2.359375,7.308594,-3.378906,0.638672,-3.8125,0.920532,0.040039,0.387817,-0.025635,up
66578,-6.679687,2.359375,7.195312,-2.992188,0.542969,-3.992188,0.920532,0.040039,0.387817,-0.025635,up
66583,-6.90625,2.050781,7.195312,-2.992188,0.542969,-3.992188,0.918396,0.007507,0.393127,-0.044189,up
66589,-7.136719,1.785156,7.542969,-2.992188,0.542969,-3.992188,0.917603,-0.001587,0.394409,-0.049988,up
66594,-7.367187,1.898438,7.730469,-2.992188,0.542969,-3.992188,0.917603,-0.001587,0.394409,-0.049988,up
66599,-7.636719,1.9375,7.804687,-2.712891,0.408203,-4.072266,0.915405,-0.021912,0.39679,-0.063599,up
66604,-7.636719,1.9375,7.804687,-2.373047,0.333984,-4.082031,0.915405,-0.021912,0.39679,-0.063599,up
66609,-7.710937,1.210938,7.617187,-2.373047,0.333984,-4.082031,0.914246,-0.031433,0.397766,-0.070435,up
66614,-7.710937,1.210938,7.617187,-2.203125,0.337891,-4.044922,0.911499,-0.0495,0.399414,-0.084778,up
66619,-8.359375,1.4375,6.699219,-2.203125,0.337891,-4.044922,0.909973,-0.057739,0.400208,-0.091797,up
66626,-8.359375,1.476563,6.773437,-2.203125,0.337891,-4.044922,0.909973,-0.057739,0.400208,-0.091797,up
66632,-8.519531,1.363281,6.964844,-1.802734,0.410156,-3.578125,0.909973,-0.057739,0.400208,-0.091797,up
66637,-8.746094,1.171875,6.890625,-1.730469,0.654297,-3.175781,0.909973,-0.057739,0.400208,-0.091797,up
66642,-9.28125,0.941406,7.042969,-1.730469,0.654297,-3.175781,0.903015,-0.088013,0.403748,-0.117554,up
66647,-9.585938,0.941406,7.347656,-1.730469,0.654297,-3.175781,0.900879,-0.095154,0.405212,-0.123413,up
66653,-9.742188,1.019531,7.65625,-1.617188,0.75,-2.677734,0.900879,-0.095154,0.405212,-0.123413,up
66658,-9.742188,1.019531,7.65625,-1.570313,0.808594,-2.412109,0.896729,-0.107361,0.408325,-0.132751,up
66663,-10.167969,0.136719,7.960937,-1.541016,0.806641,-2.128906,0.894897,-0.112305,0.409912,-0.13623,up
66668,-10.167969,0.136719,7.960937,-1.591797,0.863281,-1.859375,0.892883,-0.117432,0.411743,-0.139343,up
66673,-10.546875,-0.285156,8.34375,-1.591797,0.863281,-1.859375,0.890869,-0.122559,0.413757,-0.141907,up
66678,-10.546875,-0.285156,8.34375,-1.490234,0.914062,-1.310547,0.887024,-0.131226,0.418091,-0.145264,up
66683,-10.972656,-0.132812,8.652344,-1.490234,0.914062,-1.310547,0.885315,-0.134766,0.420349,-0.14624,up
66688,-11.464844,-0.324219,8.726563,-1.490234,0.914062,-1.310547,0.883545,-0.138062,0.422791,-0.14679,up
66694,-11.660156,-0.359375,8.726563,-1.490234,0.914062,-1.310547,0.882141,-0.140442,0.424866,-0.146912,up
66700,-12.160156,-0.4375,8.421875,-1.490234,0.914062,-1.310547,0.880798,-0.142639,0.426941,-0.146606,up
66705,-12.308594,-0.4375,8.078125,-1.013672,0.814453,0.060547,0.880798,-0.142639,0.426941,-0.146606,up
66711,-12.34375,-0.359375,7.769531,-1.046875,0.796875,0.242187,0.880798,-0.142639,0.426941,-0.146606,up
66716,-12.578125,-0.398438,7.578125,-1.083984,0.806641,0.419922,0.877258,-0.147949,0.433655,-0.14325,up
66722,-12.691406,-0.859375,7.386719,-1.144531,0.849609,0.578125,0.877258,-0.147949,0.433655,-0.14325,up
66727,-12.886719,-0.898437,7.386719,-1.203125,0.873047,0.730469,0.877258,-0.147949,0.433655,-0.14325,up
66732,-13.148438,-1.320313,7.273437,-1.240234,0.90625,0.878906,0.877258,-0.147949,0.433655,-0.14325,up
66738,-13.308594,-1.355469,7.386719,-1.291016,0.904297,1.029297,0.87146,-0.155029,0.44696,-0.129395,up
66743,-13.453125,-1.546875,7.65625,-1.291016,0.800781,1.302734,0.87146,-0.155029,0.44696,-0.129395,up
66748,-13.496094,-1.664063,7.617187,-1.291016,0.800781,1.302734,0.869385,-0.157227,0.452515,-0.121216,up
66753,-13.230469,-1.777344,7.347656,-1.267578,0.701172,1.550781,0.869385,-0.157227,0.452515,-0.121216,up
66758,-13.347656,-2.125,7.730469,-1.267578,0.701172,1.550781,0.867737,-0.158569,0.457458,-0.112122,up
66763,-13.425781,-1.96875,7.65625,-1.052734,0.474609,1.814453,0.867187,-0.158813,0.459595,-0.1073,up
66768,-13.648438,-1.933594,7.503906,-1.052734,0.474609,1.814453,0.867187,-0.158813,0.459595,-0.1073,up
66773,-13.691406,-2.046875,7.425781,-1.052734,0.474609,1.814453,0.866821,-0.15863,0.461609,-0.102051,up
66778,-13.691406,-2.046875,7.425781,-0.917969,0.232422,2.146484,0.866577,-0.158203,0.463196,-0.097046,up
66783,-13.6875,-2.316406,7.347656,-0.927734,0.125,2.324219,0.866577,-0.158203,0.463196,-0.097046,up
66788,-13.804688,-2.699219,6.429687,-0.980469,0.03125,2.496094,0.866638,-0.156738,0.466003,-0.084839,up
66793,-13.804688,-2.699219,6.429687,-0.980469,0.03125,2.496094,0.866638,-0.156738,0.466003,-0.084839,up
66798,-13.804688,-2.699219,6.429687,-0.990234,-0.035156,2.677734,0.867371,-0.152954,0.469299,-0.063416,up
66803,-13.648438,-2.085938,6.277344,-0.990234,-0.035156,2.677734,0.867371,-0.152954,0.469299,-0.063416,up
66808,-13.6875,-2.160156,6.199219,-0.990234,-0.035156,2.677734,0.868347,-0.14856,0.470764,-0.047607,up
66813,-13.425781,-2.351563,6.046875,-0.748047,-0.421875,3.591797,0.868347,-0.14856,0.470764,-0.047607,up
66818,-13.1875,-2.507813,5.816406,-0.748047,-0.421875,3.591797,0.869507,-0.143311,0.471741,-0.029785,up
66823,-13.148438,-2.277344,5.28125,-0.748047,-0.421875,3.591797,0.870056,-0.140137,0.472229,-0.019531,up
66828,-13.0,-2.277344,5.546875,-0.748047,-0.421875,3.591797,0.870483,-0.137085,0.472656,-0.01062,up
66833,-13.042969,-2.238281,5.394531,-0.638672,-0.447266,4.251953,0.870483,-0.137085,0.472656,-0.01062,up
66838,-13.003906,-2.125,5.203125,-0.638672,-0.447266,4.251953,0.87085,-0.133362,0.473083,-0.000244,up
66843,-13.152344,-2.125,5.089844,-0.611328,-0.449219,4.414062,0.87085,-0.133362,0.473083,-0.000244,up
66848,-13.113281,-2.046875,5.050781,-0.599609,-0.447266,4.724609,0.871338,-0.125488,0.473999,0.020508,up
66853,-13.304688,-1.933594,4.898437,-0.628906,-0.460937,4.861328,0.871338,-0.120789,0.474426,0.032654,up
66858,-13.304688,-1.933594,4.898437,-0.628906,-0.460937,4.861328,0.871277,-0.116638,0.474792,0.04303,up
66863,-13.308594,-1.855469,4.742187,-0.652344,-0.488281,4.972656,0.871277,-0.116638,0.474792,0.04303,up
66868,-13.308594,-1.855469,4.742187,-0.667969,-0.521484,5.076172,0.870728,-0.1073,0.475281,0.066711,up
66873,-13.496094,-1.96875,4.628906,-0.667969,-0.521484,5.076172,0.8703,-0.102539,0.475342,0.078674,up
66878,-13.496094,-1.96875,4.628906,-0.6875,-0.611328,5.234375,0.86969,-0.097778,0.47522,0.09082,up
66884,-13.347656,-1.703125,4.515625,-0.789062,-0.773437,5.294922,0.869019,-0.092712,0.474854,0.103577,up
66889,-13.042969,-1.320313,4.167969,-0.789062,-0.773437,5.294922,0.867432,-0.083069,0.473389,0.12854,up
66895,-13.074219,-1.164063,4.359375,-0.882812,-0.894531,5.335937,0.867432,-0.083069,0.473389,0.12854,up
66900,-13.039063,-0.78125,4.207031,-0.882812,-0.894531,5.335937,0.865479,-0.073364,0.470947,0.154297,up
66906,-13.074219,-0.898437,4.324219,-0.910156,-1.019531,5.349609,0.865479,-0.073364,0.470947,0.154297,up
66911,-13.113281,-0.589844,4.324219,-0.953125,-1.072266,5.316406,0.865479,-0.073364,0.470947,0.154297,up
66916,-12.730469,-0.898437,4.054687,-1.001953,-1.126953,5.265625,0.865479,-0.073364,0.470947,0.154297,up
66921,-12.730469,-0.898437,4.054687,-0.976562,-1.191406,5.255859,0.860291,-0.054199,0.463318,0.205627,up
66926,-12.15625,-1.050781,5.011719,-0.976562,-1.191406,5.255859,0.860291,-0.054199,0.463318,0.205627,up
66931,-12.421875,-0.207031,4.207031,-0.802734,-1.308594,5.271484,0.857422,-0.044189,0.458191,0.230164,up
66936,-12.421875,-0.207031,4.207031,-0.802734,-1.308594,5.271484,0.857422,-0.044189,0.458191,0.230164,up
66942,-12.234375,-0.246094,4.324219,-0.757812,-1.435547,5.226562,0.854187,-0.033508,0.452087,0.2547,up
66948,-12.117188,-0.398438,4.207031,-0.757812,-1.435547,5.226562,0.850708,-0.023315,0.444824,0.279175,up
66954,-11.882813,-0.554687,3.976563,-0.757812,-1.435547,5.226562,0.848877,-0.01825,0.440918,0.290955,up
66959,-11.738281,-0.515625,3.824219,-0.888672,-1.716797,5.041016,0.846802,-0.012695,0.436401,0.303894,up
66964,-11.542969,-0.4375,3.746094,-0.869141,-1.753906,5.003906,0.844727,-0.007446,0.432068,0.315735,up
66970,-11.011719,-0.167969,3.480469,-0.869141,-1.753906,5.003906,0.842896,-0.002991,0.428284,0.325806,up
66975,-11.011719,-0.167969,3.480469,-0.869141,-1.753906,5.003906,0.842896,-0.002991,0.428284,0.325806,up
66981,-11.011719,-0.167969,3.480469,-0.951172,-1.732422,4.914062,0.838257,0.006775,0.41925,0.348511,up
66986,-11.011719,-0.167969,3.480469,-0.978516,-1.666016,4.876953,0.835754,0.01123,0.414856,0.359619,up
66991,-10.507813,0.441406,3.136719,-0.978516,-1.666016,4.876953,0.835754,0.01123,0.414856,0.359619,up
66997,-10.390625,0.519531,3.171875,-1.001953,-1.634766,4.855469,0.8302,0.020386,0.405701,0.381836,up
67003,-10.007813,0.519531,3.328125,-0.939453,-1.603516,4.822266,0.824097,0.029663,0.396545,0.403503,up
67008,-9.4375,0.632812,3.441406,-0.939453,-1.603516,4.822266,0.820923,0.034302,0.392029,0.413879,up
67013,-9.164063,0.710937,3.519531,-0.939453,-1.603516,4.822266,0.820923,0.034302,0.392029,0.413879,up
67018,-9.164063,0.710937,3.519531,-0.783203,-1.59375,4.734375,0.817627,0.039001,0.387512,0.424072,up
67023,-8.863281,0.863281,3.480469,-0.730469,-1.628906,4.689453,0.817627,0.039001,0.387512,0.424072,up
67028,-8.28125,1.019531,3.746094,-0.730469,-1.628906,4.689453,0.817627,0.039001,0.387512,0.424072,up
67033,-8.28125,1.019531,3.746094,-0.679687,-1.666016,4.650391,0.807129,0.053833,0.373291,0.454224,up
67038,-7.554687,1.515625,3.710938,-0.679687,-1.666016,4.650391,0.799744,0.06427,0.36322,0.473633,up
67043,-7.214844,1.898438,3.519531,-0.679687,-1.666016,4.650391,0.796204,0.069153,0.358276,0.482544,up
67048,-6.5625,1.976563,3.441406,-0.679687,-1.666016,4.650391,0.796204,0.069153,0.358276,0.482544,up
67053,-6.261719,1.9375,3.363281,-0.802734,-1.751953,4.570312,0.796204,0.069153,0.358276,0.482544,up
67058,-6.179687,1.746094,3.402344,-0.904297,-1.681641,4.580078,0.796204,0.069153,0.358276,0.482544,up
67063,-6.183594,1.667969,3.554688,-0.904297,-1.681641,4.580078,0.779663,0.087341,0.336304,0.520996,up
67068,-5.984375,1.820313,3.519531,-0.904297,-1.681641,4.580078,0.779663,0.087341,0.336304,0.520996,up
67073,-6.023437,1.820313,3.519531,-1.287109,-1.375,4.570312,0.779663,0.087341,0.336304,0.520996,up
67078,-6.179687,1.59375,3.710938,-1.287109,-1.375,4.570312,0.771057,0.094238,0.325928,0.538818,up
67083,-6.179687,1.59375,3.710938,-1.410156,-1.320313,4.59375,0.766235,0.097412,0.32019,0.548523,up
67089,-6.101562,1.515625,4.09375,-1.509766,-1.269531,4.628906,0.761353,0.10022,0.314636,0.557922,up
67094,-6.101562,1.515625,4.09375,-1.498047,-1.220703,4.691406,0.750854,0.105408,0.303101,0.577271,up
67099,-5.945312,0.671875,4.246094,-1.498047,-1.220703,4.691406,0.750854,0.105408,0.303101,0.577271,up
67104,-5.757812,0.519531,4.324219,-1.462891,-1.242188,4.695312,0.73999,0.11084,0.291687,0.595886,up
67109,-5.605469,0.828125,4.628906,-1.083984,-1.537109,4.691406,0.733826,0.114624,0.285278,0.605713,up
67114,-5.183594,1.171875,6.15625,-1.083984,-1.537109,4.691406,0.728699,0.118591,0.279968,0.613647,up
67119,-5.261719,0.789062,7.078125,-1.083984,-1.537109,4.691406,0.723145,0.12384,0.274231,0.621704,up
67124,-5.300781,0.097656,7.234375,-0.027344,-2.097656,4.769531,0.716736,0.130676,0.268127,0.63031,up
67129,-4.800781,-0.054687,6.273437,-0.027344,-2.097656,4.769531,0.710632,0.137939,0.262573,0.638,up
67134,-4.457031,0.25,5.734375,-0.027344,-2.097656,4.769531,0.710632,0.137939,0.262573,0.638,up
67139,-4.457031,0.25,5.734375,0.423828,-2.304688,4.880859,0.705017,0.144897,0.25769,0.644653,up
67144,-4.113281,0.597656,5.324219,0.423828,-2.304688,4.880859,0.698547,0.152832,0.252625,0.651794,up
67150,-4.113281,0.597656,5.324219,0.849609,-2.357422,4.927734,0.68457,0.1698,0.243347,0.665771,up
67155,-4.113281,0.597656,5.324219,0.849609,-2.357422,4.927734,0.68457,0.1698,0.243347,0.665771,up
67160,-2.769531,0.214844,5.242187,1.296875,-2.171875,4.837891,0.670166,0.1875,0.235901,0.678284,up
67165,-2.3125,-0.285156,6.542969,1.296875,-2.171875,4.837891,0.662598,0.197754,0.232544,0.68396,up
67171,-1.738281,-1.011719,7.660156,1.296875,-2.171875,4.837891,0.655151,0.208496,0.229675,0.688904,up
67176,-1.738281,-1.011719,7.660156,2.863281,-2.625,4.679687,0.655151,0.208496,0.229675,0.688904,up
67182,-1.660156,-0.9375,7.730469,2.863281,-2.625,4.679687,0.6474,0.220093,0.227356,0.693298,up
67187,-1.316406,-0.132812,6.855469,3.765625,-2.556641,4.84375,0.630127,0.245483,0.224976,0.701477,up
67192,-1.316406,-0.132812,6.855469,3.765625,-2.556641,4.84375,0.630127,0.245483,0.224976,0.701477,up
67197,-1.277344,0.902344,5.664062,4.121094,-2.585938,4.980469,0.610229,0.273376,0.224792,0.708801,up
67203,-0.359375,3.546875,4.28125,4.6875,-2.757813,5.402344,0.610229,0.273376,0.224792,0.708801,up
67208,-0.242187,5.1875,3.824219,4.6875,-2.757813,5.402344,0.587646,0.303833,0.22522,0.715332,up
67213,-0.28125,6.417969,3.824219,4.931641,-2.568359,5.953125,0.587646,0.303833,0.22522,0.715332,up
67218,-0.28125,6.417969,3.824219,4.949219,-2.521484,6.216797,0.56189,0.334412,0.225647,0.722229,up
67223,-0.703125,6.800781,4.707031,4.900391,-2.490234,6.451172,0.548035,0.349365,0.225525,0.725769,up
67228,-0.703125,6.800781,4.707031,4.710937,-2.486328,6.710937,0.548035,0.349365,0.225525,0.725769,up
67234,-0.855469,6.378906,5.320312,4.710937,-2.486328,6.710937,0.53363,0.364075,0.224915,0.729492,up
67239,-0.855469,6.378906,5.320312,3.808594,-2.882813,7.71875,0.502441,0.39386,0.220825,0.737366,up
67244,-0.242187,6.765625,4.4375,3.808594,-2.882813,7.71875,0.469177,0.422241,0.211975,0.746094,up
67249,0.179687,5.613281,4.132812,3.808594,-2.882813,7.71875,0.452759,0.434875,0.205139,0.750916,up
67254,0.292969,3.316406,4.703125,3.808594,-2.882813,7.71875,0.452759,0.434875,0.205139,0.750916,up
67259,1.214844,0.558594,4.933594,1.845703,-2.927734,8.474609,0.435852,0.447205,0.196289,0.755981,up
67264,1.214844,0.558594,4.933594,1.607422,-2.923828,8.626953,0.435852,0.447205,0.196289,0.755981,up
67269,1.671875,0.25,4.398437,1.607422,-2.923828,8.626953,0.419434,0.458618,0.186768,0.760803,up
67274,1.671875,0.25,4.398437,0.662109,-1.802734,8.699219,0.368225,0.486328,0.154968,0.7771,up
67279,1.941406,-1.703125,4.589844,0.662109,-1.802734,8.699219,0.35199,0.493774,0.143921,0.782043,up
67284,1.824219,-1.703125,5.707031,0.613281,-2.402344,8.064453,0.35199,0.493774,0.143921,0.782043,up
67289,2.246094,-1.703125,6.921875,0.613281,-2.402344,8.064453,0.319519,0.51001,0.121155,0.789368,up
67294,3.433594,-2.390625,7.765625,1.052734,-2.017578,6.822266,0.319519,0.51001,0.121155,0.789368,up
67299,5.003906,-2.8125,7.617187,1.052734,-2.017578,6.822266,0.291809,0.523315,0.104858,0.793701,up
67304,5.3125,-2.390625,6.660156,2.373047,-1.355469,6.091797,0.291809,0.523315,0.104858,0.793701,up
67309,5.542969,-1.933594,5.472656,3.226563,-1.535156,5.738281,0.276306,0.529785,0.098938,0.795715,up
67314,5.421875,0.519531,4.550781,3.226563,-1.535156,5.738281,0.247131,0.542542,0.094421,0.797302,up
67319,5.421875,0.519531,4.550781,3.226563,-1.535156,5.738281,0.247131,0.542542,0.094421,0.797302,up
67324,5.355469,1.515625,4.78125,5.441406,-2.046875,4.816406,0.247131,0.542542,0.094421,0.797302,up
67329,5.355469,1.515625,4.78125,7.166016,-2.566406,3.800781,0.197571,0.568726,0.106445,0.791321,up
67334,5.195312,3.394531,5.511719,7.166016,-2.566406,3.800781,0.197571,0.568726,0.106445,0.791321,up
67339,5.195312,3.394531,5.511719,7.501953,-2.626953,3.363281,0.180542,0.578613,0.114563,0.787109,up
67344,6.921875,3.277344,7.273437,7.501953,-2.626953,3.363281,0.147461,0.59729,0.132629,0.777161,up
67349,7.417969,3.277344,7.082031,7.501953,-2.626953,3.363281,0.13446,0.604187,0.139465,0.772949,up
67354,7.835937,3.277344,5.011719,4.943359,-1.728516,2.705078,0.13446,0.604187,0.139465,0.772949,up
67359,7.835937,3.277344,5.011719,4.943359,-1.728516,2.705078,0.121521,0.610779,0.145264,0.768799,up
67364,7.957031,2.816406,3.785156,3.435547,-1.798828,2.544922,0.121521,0.610779,0.145264,0.768799,up
67370,8.71875,1.363281,2.140625,1.78125,-1.976563,2.349609,0.103638,0.621704,0.148865,0.761963,up
67375,8.71875,1.363281,2.140625,1.78125,-1.976563,2.349609,0.103638,0.621704,0.148865,0.761963,up
67380,9.179688,0.480469,1.984375,-1.289063,-1.863281,1.820313,0.097412,0.634399,0.135071,0.754822,up
67386,9.71875,-0.398438,2.214844,-1.289063,-1.863281,1.820313,0.099854,0.637207,0.127136,0.75354,up
67392,9.789063,-0.285156,2.253906,-4.115234,-1.423828,1.041016,0.099854,0.637207,0.127136,0.75354,up
67397,9.722656,-0.09375,2.292969,-4.611328,-1.382813,0.861328,0.110168,0.641235,0.107361,0.75177,up
67402,9.335938,0.289063,2.40625,-4.619141,-1.408203,0.677734,0.110168,0.641235,0.107361,0.75177,up
67407,9.367188,0.097656,2.523438,-4.177734,-1.492188,0.503906,0.110168,0.641235,0.107361,0.75177,up
67412,9.339844,-0.246094,2.597656,-4.177734,-1.492188,0.503906,0.12915,0.646057,0.078735,0.748108,up
67418,9.339844,-0.246094,2.597656,-2.248047,-1.357422,0.175781,0.133789,0.647949,0.072327,0.746338,up
67423,8.953125,0.25,2.023438,-1.144531,-1.232422,0.085937,0.133789,0.647949,0.072327,0.746338,up
67428,8.953125,0.25,2.023438,-0.300781,-1.279297,0.005859,0.137878,0.651855,0.066711,0.742737,up
67433,8.835938,0.214844,1.601563,-0.300781,-1.279297,0.005859,0.138306,0.654358,0.066223,0.740479,up
67438,8.835938,0.214844,1.601563,0.625,-1.443359,-0.191406,0.138062,0.657104,0.066833,0.738037,up
67443,9.601563,0.828125,0.605469,0.625,-1.443359,-0.191406,0.137634,0.659912,0.067993,0.735474,up
67449,9.867188,0.941406,0.261719,0.775391,-1.335938,-0.464844,0.137634,0.659912,0.067993,0.735474,up
67454,10.0625,1.246094,0.222656,0.775391,-1.335938,-0.464844,0.136902,0.667908,0.072937,0.727905,up
67459,10.371094,1.628906,0.222656,0.775391,-1.335938,-0.464844,0.137085,0.670349,0.074524,0.725464,up
67464,10.832031,2.359375,0.183594,0.775391,-1.335938,-0.464844,0.137085,0.670349,0.074524,0.725464,up
67469,10.789063,2.972656,0.183594,0.144531,-1.041016,-0.630859,0.137085,0.670349,0.074524,0.725464,up
67474,10.714844,3.394531,0.03125,-0.068359,-0.947266,-0.652344,0.13855,0.674561,0.077087,0.721008,up
67479,10.597656,3.890625,-0.390625,-0.068359,-0.947266,-0.652344,0.141479,0.677673,0.078491,0.717346,up
67484,10.488281,4.195312,-0.464844,-0.068359,-0.947266,-0.652344,0.141479,0.677673,0.078491,0.717346,up
67489,10.175781,4.695312,-0.425781,-0.337891,-0.791016,-0.712891,0.145508,0.680054,0.079224,0.714233,up
67494,10.027344,5.078125,-0.425781,-0.300781,-0.701172,-0.716797,0.145508,0.680054,0.079224,0.714233,up
67499,10.023438,5.078125,-0.582031,-0.277344,-0.693359,-0.71875,0.147461,0.68103,0.079651,0.71283,up
67504,9.988281,5.191406,-0.582031,-0.277344,-0.693359,-0.71875,0.149353,0.682007,0.080139,0.711426,up
67509,10.140625,5.039062,-0.542969,-0.302734,-0.695312,-0.714844,0.149353,0.682007,0.080139,0.711426,up
67514,10.140625,5.039062,-0.542969,-0.482422,-0.585937,-0.671875,0.153381,0.68396,0.080994,0.708557,up
67519,10.066406,4.847656,-0.925781,-0.482422,-0.585937,-0.671875,0.155273,0.684692,0.081177,0.707458,up
67524,9.984375,4.695312,-1.078125,-0.671875,-0.529297,-0.607422,0.157654,0.685364,0.081177,0.706238,up
67529,10.023438,4.390625,-0.964844,-0.671875,-0.529297,-0.607422,0.159912,0.685913,0.080994,0.705261,up
67534,10.144531,4.3125,-0.847656,-0.828125,-0.548828,-0.542969,0.162292,0.686462,0.080566,0.704224,up
67539,10.140625,4.160156,-0.734375,-0.828125,-0.548828,-0.542969,0.164673,0.686951,0.079956,0.703247,up
67544,10.101563,4.082031,-0.695312,-0.851562,-0.429687,-0.498047,0.166931,0.687378,0.079224,0.702393,up
67549,10.101563,4.082031,-0.695312,-0.792969,-0.355469,-0.472656,0.169678,0.687744,0.078369,0.701477,up
67554,9.984375,4.234375,-0.847656,-0.792969,-0.355469,-0.472656,0.171814,0.687988,0.077698,0.700806,up
67559,9.949219,4.390625,-0.8125,-0.792969,-0.355469,-0.472656,0.174072,0.68811,0.077087,0.700195,up
67565,9.90625,4.582031,-0.65625,-0.521484,-0.228516,-0.458984,0.174072,0.68811,0.077087,0.700195,up
67571,9.792969,4.925781,-0.390625,-0.521484,-0.228516,-0.458984,0.178528,0.688293,0.077209,0.698853,up
67576,9.792969,4.925781,-0.390625,0.228516,-0.054687,-0.470703,0.179199,0.688354,0.078247,0.698486,up
67581,9.722656,5.078125,-0.3125,0.228516,-0.054687,-0.470703,0.179382,0.688477,0.079651,0.698181,up
67586,9.679688,5.078125,-0.082031,0.228516,-0.054687,-0.470703,0.179382,0.688477,0.079651,0.698181,up
67591,9.640625,5.15625,-0.042969,0.671875,0.027344,-0.419922,0.179382,0.688477,0.079651,0.698181,up
67596,9.566406,5.15625,-0.007813,0.705078,0.0625,-0.382813,0.178406,0.688904,0.085266,0.697388,up
67601,9.5625,5.117187,0.070312,0.654297,0.074219,-0.351563,0.178406,0.688904,0.085266,0.697388,up
67606,9.484375,5.078125,0.148437,0.654297,0.074219,-0.351563,0.178406,0.688904,0.085266,0.697388,up
67611,9.484375,4.773437,0.109375,0.353516,0.0625,-0.253906,0.178406,0.688904,0.085266,0.697388,up
67616,9.484375,4.773437,0.109375,0.121094,0.066406,-0.222656,0.176941,0.688904,0.091125,0.69696,up
67622,9.257813,4.617187,0.070312,0.121094,0.066406,-0.222656,0.177185,0.688782,0.091614,0.697021,up
67628,9.300781,4.503906,0.148437,-0.267578,0.029297,-0.166016,0.177185,0.688782,0.091614,0.697021,up
67633,9.300781,4.351562,0.148437,-0.421875,0.007813,-0.128906,0.177185,0.688782,0.091614,0.697021,up
67639,9.410156,4.273437,0.261719,-0.521484,0.007813,-0.117188,0.177185,0.688782,0.091614,0.697021,up
67644,9.300781,4.160156,0.300781,-0.521484,0.007813,-0.117188,0.180603,0.687744,0.090149,0.697327,up
67649,9.339844,4.121094,0.261719,-0.507812,0.117188,-0.105469,0.180603,0.687744,0.090149,0.697327,up
67654,9.261719,4.042969,0.339844,-0.507812,0.117188,-0.105469,0.1828,0.686829,0.088745,0.697815,up
67660,9.027344,3.851563,0.375,-0.507812,0.117188,-0.105469,0.184448,0.685852,0.088013,0.698425,up
67665,8.953125,3.851563,0.414062,-0.210937,0.199219,-0.171875,0.184448,0.685852,0.088013,0.698425,up
67670,8.835938,3.777344,0.414062,-0.210937,0.199219,-0.171875,0.18573,0.684814,0.088074,0.699158,up
67675,8.875,3.621094,0.414062,-0.210937,0.199219,-0.171875,0.186157,0.684387,0.088379,0.699402,up
67680,8.875,3.585938,0.453125,-0.210937,0.199219,-0.171875,0.186584,0.683899,0.088745,0.699707,up
67685,8.875,3.507813,0.644531,-0.105469,0.171875,-0.242187,0.186584,0.683899,0.088745,0.699707,up
67690,8.953125,3.355469,0.796875,-0.113281,0.179687,-0.257813,0.187134,0.683411,0.089172,0.699951,up
67695,8.875,3.394531,0.835937,-0.113281,0.179687,-0.257813,0.188171,0.682556,0.089905,0.700439,up
67700,8.875,3.394531,0.835937,-0.113281,0.179687,-0.257813,0.188171,0.682556,0.089905,0.700439,up
67705,8.835938,3.429688,0.796875,-0.142578,0.191406,-0.257813,0.188171,0.682556,0.089905,0.700439,up
67710,8.835938,3.46875,0.988281,-0.164062,0.177734,-0.261719,0.189453,0.68158,0.090637,0.700989,up
67715,8.835938,3.46875,0.988281,-0.164062,0.177734,-0.261719,0.189453,0.68158,0.090637,0.700989,up
67720,8.835938,3.46875,0.988281,-0.136719,0.121094,-0.248047,0.190735,0.680786,0.091125,0.701294,up
67725,8.875,3.660156,0.988281,-0.136719,0.121094,-0.248047,0.191956,0.680054,0.091797,0.701599,up
67730,8.875,3.738281,0.914062,-0.136719,0.121094,-0.248047,0.192383,0.679749,0.092224,0.701721,up
67735,8.914063,3.890625,0.796875,0.001953,0.158203,-0.246094,0.19281,0.679321,0.092773,0.701965,up
67741,8.957031,4.082031,0.722656,0.001953,0.158203,-0.246094,0.193115,0.679016,0.093384,0.702087,up
67746,8.917969,4.082031,0.722656,0.074219,0.154297,-0.271484,0.193359,0.67865,0.094116,0.702271,up
67751,8.875,4.082031,0.683594,0.074219,0.154297,-0.271484,0.193604,0.678345,0.09491,0.702393,up
67757,8.953125,4.042969,0.683594,0.074219,0.154297,-0.271484,0.193848,0.677979,0.095764,0.702576,up
67762,8.953125,4.003906,0.683594,0.115234,0.214844,-0.330078,0.193848,0.677979,0.095764,0.702576,up
67767,8.914063,3.96875,0.683594,0.115234,0.214844,-0.330078,0.194458,0.677185,0.097534,0.702942,up
67772,8.761719,3.929688,0.683594,0.023437,0.228516,-0.357422,0.194458,0.677185,0.097534,0.702942,up
67778,8.71875,3.890625,0.761719,-0.027344,0.228516,-0.365234,0.194458,0.677185,0.097534,0.702942,up
67783,8.640625,3.890625,0.835937,-0.072266,0.224609,-0.373047,0.194458,0.677185,0.097534,0.702942,up
67788,8.722656,3.929688,0.875,-0.117188,0.195312,-0.353516,0.194458,0.677185,0.097534,0.702942,up
67793,8.722656,3.929688,0.914062,-0.150391,0.164062,-0.349609,0.194458,0.677185,0.097534,0.702942,up
67799,8.683594,4.042969,0.988281,-0.1875,0.142578,-0.339844,0.194458,0.677185,0.097534,0.702942,up
67804,8.644531,4.003906,1.027344,-0.1875,0.142578,-0.339844,0.199036,0.673645,0.10199,0.704407,up
67810,8.601563,4.003906,1.144531,-0.195312,0.113281,-0.318359,0.199036,0.673645,0.10199,0.704407,up
67815,8.640625,4.003906,1.105469,-0.152344,0.099609,-0.3125,0.199036,0.673645,0.10199,0.704407,up
67820,8.640625,4.082031,1.066406,-0.083984,0.087891,-0.298828,0.199036,0.673645,0.10199,0.704407,up
67825,8.640625,4.082031,1.066406,0.03125,0.076172,-0.28125,0.20166,0.672119,0.103882,0.704834,up
67830,8.722656,4.082031,1.105469,0.03125,0.076172,-0.28125,0.202454,0.671631,0.105286,0.704895,up
67835,8.761719,4.121094,1.066406,0.03125,0.076172,-0.28125,0.202637,0.671509,0.105957,0.704834,up
67840,8.875,4.160156,1.144531,0.03125,0.076172,-0.28125,0.202942,0.671326,0.106689,0.704773,up
