timestamp,ax,ay,az,gx,gy,gz,qw,qx,qy,qz,label
324700,-1.582031,4.425781,7.921875,2.21875,-0.115234,0.099609,0.959961,0.208862,0.04303,-0.181824,up
324705,-1.582031,4.503906,7.960937,2.21875,-0.115234,0.099609,0.959961,0.208862,0.04303,-0.181824,up
324710,-1.621094,4.464844,8.003906,1.833984,0.099609,0.021484,0.959961,0.208862,0.04303,-0.181824,up
324715,-1.546875,4.464844,7.964844,1.833984,0.099609,0.021484,0.957886,0.218201,0.041504,-0.182068,up
324720,-1.507813,4.503906,7.960937,1.736328,0.134766,0.029297,0.955933,0.226562,0.040527,-0.182251,up
324725,-1.46875,4.503906,8.003906,1.736328,0.134766,0.029297,0.955933,0.226562,0.040527,-0.182251,up
324730,-1.46875,4.503906,8.042969,1.611328,0.230469,0.050781,0.955933,0.226562,0.040527,-0.182251,up
324735,-1.546875,4.65625,8.109375,1.611328,0.230469,0.050781,0.953979,0.234619,0.039856,-0.182312,up
324740,-1.582031,4.65625,8.039063,1.619141,0.265625,0.0625,0.953064,0.238586,0.039673,-0.182251,up
324745,-1.621094,4.734375,8.078125,1.619141,0.265625,0.0625,0.952026,0.242737,0.039551,-0.182129,up
324751,-1.621094,4.734375,8.113281,1.648438,0.3125,0.046875,0.952026,0.242737,0.039551,-0.182129,up
324757,-1.546875,4.808594,8.109375,1.648438,0.3125,0.046875,0.948914,0.254944,0.039368,-0.181885,up
324762,-1.507813,4.847656,8.082031,1.625,0.3125,0.060547,0.947815,0.258911,0.039368,-0.181763,up
324767,-1.46875,4.808594,8.078125,1.605469,0.306641,0.060547,0.946777,0.262878,0.039307,-0.181641,up
324772,-1.429688,4.925781,7.960937,1.605469,0.306641,0.060547,0.945679,0.266907,0.039246,-0.181519,up
324778,-1.46875,4.964844,8.003906,1.587891,0.339844,0.072266,0.94458,0.270813,0.039246,-0.181335,up
324783,-1.507813,5.039062,8.0,1.554688,0.347656,0.083984,0.94458,0.270813,0.039246,-0.181335,up
324789,-1.546875,5.117187,7.960937,1.517578,0.365234,0.101563,0.94458,0.270813,0.039246,-0.181335,up
324795,-1.582031,5.15625,8.039063,1.46875,0.380859,0.113281,0.94458,0.270813,0.039246,-0.181335,up
324800,-1.582031,5.15625,8.039063,1.404297,0.388672,0.130859,0.940308,0.285889,0.039673,-0.180237,up
324805,-1.582031,5.230469,8.003906,1.337891,0.388672,0.142578,0.940308,0.285889,0.039673,-0.180237,up
324810,-1.582031,5.230469,8.003906,1.267578,0.386719,0.162109,0.938477,0.29248,0.040039,-0.179382,up
324816,-1.621094,5.347656,7.925781,1.267578,0.386719,0.162109,0.937561,0.295654,0.040283,-0.178833,up
324821,-1.621094,5.421875,7.925781,1.115234,0.371094,0.191406,0.935974,0.30127,0.04071,-0.177673,up
324826,-1.621094,5.421875,7.882812,1.115234,0.371094,0.191406,0.935181,0.303894,0.040894,-0.177063,up
324831,-1.699219,5.421875,7.847656,1.115234,0.371094,0.191406,0.93457,0.306213,0.041077,-0.176514,up
324836,-1.582031,5.421875,7.808594,0.857422,0.308594,0.255859,0.93457,0.306213,0.041077,-0.176514,up
324841,-1.46875,5.347656,7.726562,0.857422,0.308594,0.255859,0.933289,0.31073,0.041321,-0.17511,up
324846,-1.429688,5.308594,7.699219,0.857422,0.308594,0.255859,0.932861,0.3125,0.041443,-0.174438,up
324851,-1.390625,5.308594,7.617187,0.634766,0.28125,0.291016,0.932861,0.3125,0.041443,-0.174438,up
324856,-1.429688,5.230469,7.621094,0.634766,0.28125,0.291016,0.932007,0.315857,0.041748,-0.172913,up
324861,-1.507813,5.15625,7.542969,0.634766,0.28125,0.291016,0.93158,0.317383,0.041931,-0.172119,up
324866,-1.546875,5.078125,7.5,0.537109,0.306641,0.289063,0.93158,0.317383,0.041931,-0.172119,up
324871,-1.507813,5.117187,7.542969,0.537109,0.306641,0.289063,0.930847,0.320313,0.042419,-0.170532,up
324876,-1.46875,5.078125,7.582031,0.541016,0.304688,0.253906,0.930847,0.320313,0.042419,-0.170532,up
324881,-1.351563,5.039062,7.582031,0.541016,0.304688,0.253906,0.930115,0.32312,0.042908,-0.169189,up
324886,-1.351563,4.964844,7.617187,0.595703,0.324219,0.216797,0.930115,0.32312,0.042908,-0.169189,up
324891,-1.277344,4.925781,7.695312,0.595703,0.324219,0.216797,0.929687,0.324768,0.043274,-0.168457,up
324896,-1.277344,4.964844,7.699219,0.730469,0.375,0.175781,0.929687,0.324768,0.043274,-0.168457,up
324901,-1.316406,5.078125,7.617187,0.730469,0.375,0.175781,0.92865,0.328125,0.043945,-0.167297,up
324906,-1.316406,5.117187,7.617187,0.869141,0.414062,0.148437,0.92865,0.328125,0.043945,-0.167297,up
324911,-1.316406,5.15625,7.65625,0.869141,0.414062,0.148437,0.926514,0.334656,0.045349,-0.16571,up
324916,-1.351563,5.191406,7.578125,0.869141,0.414062,0.148437,0.925842,0.336731,0.045837,-0.165222,up
324921,-1.390625,5.421875,7.464844,0.949219,0.484375,0.142578,0.925842,0.336731,0.045837,-0.165222,up
324926,-1.390625,5.539062,7.425781,0.949219,0.484375,0.142578,0.924133,0.341919,0.047058,-0.164062,up
324931,-1.546875,5.84375,7.425781,0.949219,0.484375,0.142578,0.924133,0.341919,0.047058,-0.164062,up
324936,-1.621094,5.921875,7.425781,0.949219,0.484375,0.142578,0.922485,0.346558,0.04834,-0.162842,up
324941,-1.699219,6.074219,7.347656,0.949219,0.484375,0.142578,0.922485,0.346558,0.04834,-0.162842,up
324946,-1.773438,6.152344,7.382812,0.914062,0.525391,0.181641,0.920837,0.351379,0.049683,-0.161499,up
324951,-1.890625,6.378906,7.34375,0.914062,0.525391,0.181641,0.920105,0.353638,0.050293,-0.160767,up
324956,-1.929688,6.378906,7.382812,0.914062,0.525391,0.181641,0.919434,0.355469,0.050842,-0.160156,up
324961,-1.964844,6.496094,7.347656,0.666016,0.40625,0.205078,0.919434,0.355469,0.050842,-0.160156,up
324966,-1.890625,6.535156,7.382812,0.587891,0.380859,0.214844,0.918762,0.357422,0.051392,-0.159485,up
324971,-1.890625,6.609375,7.421875,0.587891,0.380859,0.214844,0.917786,0.360413,0.052185,-0.158203,up
324976,-1.851563,6.574219,7.382812,0.423828,0.328125,0.232422,0.917786,0.360413,0.052185,-0.158203,up
324981,-1.851563,6.574219,7.34375,0.423828,0.328125,0.232422,0.917358,0.361816,0.052551,-0.157471,up
324986,-1.8125,6.574219,7.382812,0.328125,0.316406,0.261719,0.917358,0.361816,0.052551,-0.157471,up
324992,-1.929688,6.648437,7.386719,0.328125,0.316406,0.261719,0.916687,0.364258,0.053589,-0.155273,up
324997,-1.929688,6.648437,7.386719,0.060547,0.316406,0.287109,0.916626,0.364685,0.054016,-0.154419,up
325002,-1.929688,6.574219,7.421875,0.005859,0.314453,0.289063,0.916687,0.364929,0.054443,-0.153442,up
325008,-1.8125,6.574219,7.578125,0.005859,0.314453,0.289063,0.916748,0.365051,0.054871,-0.15271,up
325013,-1.773438,6.574219,7.621094,-0.091797,0.320313,0.271484,0.916748,0.365051,0.054871,-0.15271,up
325018,-1.773438,6.574219,7.621094,-0.126953,0.333984,0.257813,0.916931,0.365051,0.055847,-0.151001,up
325023,-1.773438,6.574219,7.621094,-0.130859,0.353516,0.25,0.917114,0.364929,0.056458,-0.150208,up
325028,-1.738281,6.457031,7.660156,-0.130859,0.353516,0.25,0.917114,0.364929,0.056458,-0.150208,up
325033,-1.699219,6.265625,7.695312,-0.123047,0.367188,0.236328,0.917358,0.364746,0.057739,-0.14856,up
325038,-1.699219,6.265625,7.695312,-0.076172,0.388672,0.201172,0.91748,0.364746,0.058472,-0.147705,up
325044,-1.8125,6.226562,7.621094,-0.076172,0.388672,0.201172,0.91748,0.364746,0.058472,-0.147705,up
325049,-1.8125,6.152344,7.582031,-0.021484,0.396484,0.164062,0.91748,0.364746,0.058472,-0.147705,up
325054,-1.851563,6.113281,7.621094,-0.005859,0.398438,0.142578,0.91748,0.364746,0.058472,-0.147705,up
325060,-1.890625,6.152344,7.539062,0.015625,0.392578,0.121094,0.91748,0.364746,0.058472,-0.147705,up
325065,-1.890625,6.152344,7.5,0.015625,0.392578,0.121094,0.91748,0.364746,0.058472,-0.147705,up
325070,-1.890625,6.1875,7.5,0.015625,0.392578,0.121094,0.917297,0.365845,0.062988,-0.144104,up
325076,-1.890625,6.265625,7.503906,0.201172,0.339844,0.009766,0.917297,0.365845,0.062988,-0.144104,up
325082,-1.929688,6.417969,7.460937,0.201172,0.339844,0.009766,0.916626,0.367371,0.065002,-0.143372,up
325087,-2.003906,6.457031,7.421875,0.292969,0.324219,-0.039063,0.91626,0.368225,0.065735,-0.14325,up
325093,-2.003906,6.535156,7.304687,0.292969,0.324219,-0.039063,0.915955,0.368958,0.066345,-0.143188,up
325098,-2.082031,6.648437,7.234375,0.347656,0.314453,-0.066406,0.915955,0.368958,0.066345,-0.143188,up
325105,-2.121094,6.765625,7.199219,0.347656,0.314453,-0.066406,0.915955,0.368958,0.066345,-0.143188,up
325110,-2.082031,6.800781,7.15625,0.34375,0.292969,-0.078125,0.915955,0.368958,0.066345,-0.143188,up
325115,-2.042969,6.917969,7.121094,0.310547,0.275391,-0.085937,0.915955,0.368958,0.066345,-0.143188,up
325120,-2.042969,6.917969,7.082031,0.287109,0.261719,-0.087891,0.915955,0.368958,0.066345,-0.143188,up
325125,-2.042969,6.957031,7.042969,0.25,0.267578,-0.078125,0.915955,0.368958,0.066345,-0.143188,up
325130,-2.042969,6.996094,6.964844,0.216797,0.267578,-0.085937,0.915955,0.368958,0.066345,-0.143188,up
325135,-2.082031,7.074219,6.890625,0.216797,0.267578,-0.085937,0.915955,0.368958,0.066345,-0.143188,up
325141,-2.15625,7.03125,6.8125,0.216797,0.267578,-0.085937,0.91272,0.375793,0.071777,-0.143433,up
325146,-2.15625,7.03125,6.851562,0.029297,0.224609,-0.058594,0.91272,0.375793,0.071777,-0.143433,up
325151,-2.195313,7.03125,6.734375,0.029297,0.224609,-0.058594,0.912415,0.376343,0.072876,-0.143494,up
325156,-2.195313,7.03125,6.734375,0.029297,0.224609,-0.058594,0.912292,0.376465,0.073425,-0.143494,up
325161,-2.195313,7.03125,6.699219,-0.101563,0.177734,-0.046875,0.912292,0.376465,0.073425,-0.143494,up
325166,-2.15625,7.070312,6.734375,-0.101563,0.177734,-0.046875,0.912231,0.376404,0.074341,-0.143494,up
325171,-2.15625,7.070312,6.734375,-0.121094,0.15625,-0.052734,0.912292,0.376221,0.074829,-0.143494,up
325176,-2.121094,7.074219,6.699219,-0.121094,0.15625,-0.052734,0.912354,0.376038,0.075256,-0.143555,up
325182,-2.15625,7.070312,6.699219,-0.136719,0.150391,-0.0625,0.912354,0.376038,0.075256,-0.143555,up
325187,-2.15625,7.074219,6.660156,-0.136719,0.150391,-0.0625,0.912476,0.375305,0.076599,-0.143616,up
325192,-2.195313,7.070312,6.582031,-0.136719,0.150391,-0.0625,0.912537,0.375061,0.076965,-0.143677,up
325197,-2.195313,7.035156,6.582031,-0.136719,0.150391,-0.0625,0.912537,0.375061,0.076965,-0.143677,up
325202,-2.195313,7.035156,6.582031,-0.222656,0.166016,-0.072266,0.912537,0.375061,0.076965,-0.143677,up
325207,-2.195313,7.035156,6.582031,-0.259766,0.169922,-0.066406,0.912903,0.37384,0.07843,-0.143799,up
325212,-2.195313,7.035156,6.582031,-0.259766,0.169922,-0.066406,0.913086,0.373291,0.078979,-0.143799,up
325217,-2.121094,6.996094,6.582031,-0.259766,0.169922,-0.066406,0.913269,0.372681,0.079529,-0.143799,up
325222,-2.121094,6.996094,6.582031,-0.320313,0.232422,-0.068359,0.913269,0.372681,0.079529,-0.143799,up
325228,-2.15625,6.914062,6.542969,-0.320313,0.232422,-0.068359,0.913696,0.37146,0.080933,-0.143677,up
325233,-2.15625,6.914062,6.507812,-0.351563,0.279297,-0.056641,0.91394,0.370728,0.081665,-0.143555,up
325238,-2.15625,6.914062,6.507812,-0.373047,0.304688,-0.056641,0.914124,0.370056,0.08252,-0.143433,up
325243,-2.195313,6.917969,6.46875,-0.373047,0.304688,-0.056641,0.914429,0.369324,0.083374,-0.14325,up
325249,-2.195313,6.878906,6.46875,-0.410156,0.355469,-0.035156,0.914429,0.369324,0.083374,-0.14325,up
325254,-2.234375,6.878906,6.429687,-0.425781,0.380859,-0.011719,0.914429,0.369324,0.083374,-0.14325,up
325259,-2.234375,6.839844,6.429687,-0.423828,0.410156,-0.005859,0.914429,0.369324,0.083374,-0.14325,up
325264,-2.273438,6.726562,6.429687,-0.423828,0.410156,-0.005859,0.914429,0.369324,0.083374,-0.14325,up
325270,-2.386719,6.6875,6.46875,-0.435547,0.458984,0.025391,0.914429,0.369324,0.083374,-0.14325,up
325275,-2.464844,6.726562,6.507812,-0.423828,0.462891,0.037109,0.914429,0.369324,0.083374,-0.14325,up
325281,-2.578125,6.609375,6.542969,-0.423828,0.462891,0.037109,0.916565,0.363037,0.092041,-0.139893,up
325286,-2.578125,6.691406,6.621094,-0.423828,0.462891,0.037109,0.916565,0.363037,0.092041,-0.139893,up
325291,-2.617188,6.691406,6.660156,-0.332031,0.386719,0.015625,0.916565,0.363037,0.092041,-0.139893,up
325296,-2.65625,6.6875,6.734375,-0.332031,0.386719,0.015625,0.917053,0.361755,0.094177,-0.138977,up
325301,-2.578125,6.6875,6.816406,-0.332031,0.386719,0.015625,0.917236,0.361145,0.095154,-0.138611,up
325307,-2.578125,6.6875,6.816406,-0.269531,0.310547,-0.021484,0.917236,0.361145,0.095154,-0.138611,up
325312,-2.617188,6.726562,6.773437,-0.269531,0.310547,-0.021484,0.917725,0.359558,0.097717,-0.137756,up
325317,-2.578125,6.726562,6.816406,-0.269531,0.310547,-0.021484,0.917847,0.359192,0.098389,-0.137573,up
325322,-2.617188,6.765625,6.8125,-0.248047,0.259766,-0.035156,0.917847,0.359192,0.098389,-0.137573,up
325327,-2.617188,6.800781,6.8125,-0.248047,0.259766,-0.035156,0.918091,0.358154,0.099854,-0.137268,up
325332,-2.617188,6.835937,6.8125,-0.248047,0.259766,-0.035156,0.918091,0.358154,0.099854,-0.137268,up
325337,-2.65625,6.875,6.851562,-0.248047,0.259766,-0.035156,0.918396,0.357117,0.101135,-0.136963,up
325342,-2.65625,6.917969,6.960937,-0.324219,0.25,-0.025391,0.918396,0.357117,0.101135,-0.136963,up
325347,-2.695313,6.878906,6.921875,-0.324219,0.25,-0.025391,0.918823,0.355774,0.1026,-0.136597,up
325352,-2.734375,6.917969,6.890625,-0.324219,0.25,-0.025391,0.919006,0.355164,0.103271,-0.136414,up
325357,-2.769531,6.917969,6.960937,-0.378906,0.273438,-0.027344,0.91925,0.35437,0.104065,-0.136169,up
325362,-2.808594,6.878906,6.960937,-0.378906,0.273438,-0.027344,0.919495,0.353638,0.104858,-0.135986,up
325367,-2.808594,6.878906,7.039062,-0.392578,0.294922,-0.041016,0.919495,0.353638,0.104858,-0.135986,up
325373,-2.886719,6.839844,7.082031,-0.392578,0.294922,-0.041016,0.919983,0.352051,0.106506,-0.135559,up
325378,-2.886719,6.839844,7.082031,-0.384766,0.310547,-0.044922,0.920227,0.351257,0.107422,-0.135315,up
325383,-2.960938,6.800781,7.121094,-0.378906,0.3125,-0.052734,0.92041,0.350403,0.108337,-0.135132,up
325389,-3.039063,6.726562,7.199219,-0.378906,0.3125,-0.052734,0.920593,0.349792,0.109131,-0.134949,up
325395,-3.039063,6.6875,7.234375,-0.351563,0.310547,-0.048828,0.920593,0.349792,0.109131,-0.134949,up
325400,-3.0,6.648437,7.238281,-0.34375,0.296875,-0.041016,0.920593,0.349792,0.109131,-0.134949,up
325405,-3.0,6.574219,7.238281,-0.330078,0.296875,-0.042969,0.920593,0.349792,0.109131,-0.134949,up
325410,-3.0,6.574219,7.304687,-0.308594,0.28125,-0.03125,0.920593,0.349792,0.109131,-0.134949,up
325415,-2.960938,6.535156,7.273437,-0.292969,0.275391,-0.029297,0.920593,0.349792,0.109131,-0.134949,up
325420,-2.960938,6.496094,7.308594,-0.255859,0.257813,-0.019531,0.920593,0.349792,0.109131,-0.134949,up
325425,-2.960938,6.457031,7.234375,-0.255859,0.257813,-0.019531,0.920593,0.349792,0.109131,-0.134949,up
325431,-2.925781,6.378906,7.273437,-0.255859,0.257813,-0.019531,0.921875,0.345154,0.115234,-0.133301,up
325436,-2.960938,6.378906,7.199219,-0.132812,0.232422,0.029297,0.921875,0.345154,0.115234,-0.133301,up
325441,-2.960938,6.304687,7.121094,-0.132812,0.232422,0.029297,0.921997,0.344604,0.116394,-0.132751,up
325446,-2.960938,6.304687,7.082031,-0.132812,0.232422,0.029297,0.922058,0.344421,0.116882,-0.132507,up
325452,-2.886719,6.265625,7.039062,-0.066406,0.224609,0.066406,0.922058,0.344421,0.116882,-0.132507,up
325457,-2.886719,6.265625,7.039062,-0.066406,0.224609,0.066406,0.922058,0.344238,0.118347,-0.131531,up
325462,-2.886719,6.265625,7.039062,-0.066406,0.224609,0.066406,0.921997,0.344299,0.118774,-0.131287,up
325467,-2.808594,6.226562,7.0,-0.066406,0.224609,0.066406,0.921997,0.344299,0.118774,-0.131287,up
325472,-2.734375,6.226562,7.0,0.027344,0.257813,0.078125,0.921997,0.344299,0.118774,-0.131287,up
325477,-2.734375,6.1875,6.925781,0.027344,0.257813,0.078125,0.921753,0.344788,0.1203,-0.130249,up
325482,-2.65625,6.074219,6.921875,0.027344,0.257813,0.078125,0.921753,0.344788,0.1203,-0.130249,up
325487,-2.695313,6.074219,6.960937,0.027344,0.257813,0.078125,0.921631,0.345093,0.120911,-0.129822,up
325492,-2.617188,6.035156,6.960937,0.035156,0.306641,0.066406,0.921631,0.345093,0.120911,-0.129822,up
325497,-2.539063,5.996094,7.0,0.035156,0.306641,0.066406,0.921448,0.34552,0.122131,-0.12915,up
325502,-2.539063,5.960937,6.960937,0.035156,0.306641,0.066406,0.921326,0.345703,0.122742,-0.128784,up
325507,-2.503906,5.960937,6.964844,-0.041016,0.421875,0.056641,0.921326,0.345703,0.122742,-0.128784,up
325513,-2.503906,5.921875,7.039062,-0.041016,0.421875,0.056641,0.921021,0.346069,0.125427,-0.127441,up
325519,-2.464844,5.882812,6.964844,-0.041016,0.421875,0.056641,0.920959,0.346069,0.126404,-0.126953,up
325524,-2.503906,5.921875,7.0,-0.130859,0.521484,0.054687,0.920898,0.346008,0.127563,-0.126404,up
325529,-2.578125,5.921875,7.003906,-0.162109,0.554687,0.056641,0.920898,0.346008,0.127563,-0.126404,up
325534,-2.617188,5.921875,7.082031,-0.162109,0.554687,0.056641,0.920837,0.345703,0.130066,-0.125183,up
325540,-2.734375,5.960937,7.039062,-0.220703,0.640625,0.060547,0.920776,0.345459,0.131531,-0.124512,up
325545,-2.808594,5.996094,7.039062,-0.236328,0.667969,0.068359,0.920776,0.345459,0.131531,-0.124512,up
325550,-2.847656,5.921875,7.078125,-0.236328,0.667969,0.068359,0.920776,0.34491,0.134583,-0.122986,up
325555,-2.925781,5.921875,7.195312,-0.236328,0.667969,0.068359,0.920776,0.34491,0.134583,-0.122986,up
325560,-2.925781,5.921875,7.195312,-0.298828,0.730469,0.048828,0.920776,0.344116,0.137939,-0.121338,up
325565,-2.925781,5.921875,7.195312,-0.324219,0.755859,0.054687,0.920776,0.343689,0.139648,-0.120544,up
325570,-3.230469,5.921875,6.960937,-0.324219,0.755859,0.054687,0.920776,0.343689,0.139648,-0.120544,up
325576,-3.230469,5.921875,6.960937,-0.335938,0.720703,0.050781,0.920837,0.342712,0.143188,-0.118896,up
325581,-3.308594,5.921875,7.082031,-0.322266,0.689453,0.056641,0.920837,0.342712,0.143188,-0.118896,up
325587,-3.421875,6.035156,7.277344,-0.294922,0.666016,0.064453,0.920898,0.341309,0.14801,-0.116455,up
325592,-3.460938,6.152344,7.34375,-0.273438,0.626953,0.074219,0.920898,0.341309,0.14801,-0.116455,up
325597,-3.5,6.152344,7.425781,-0.273438,0.626953,0.074219,0.920898,0.340881,0.149597,-0.115662,up
325602,-3.460938,6.226562,7.578125,-0.261719,0.601562,0.085937,0.920898,0.340881,0.149597,-0.115662,up
325607,-3.460938,6.226562,7.578125,-0.261719,0.601562,0.085937,0.920898,0.339783,0.153564,-0.113403,up
325612,-3.460938,6.304687,7.582031,-0.261719,0.601562,0.085937,0.920898,0.339783,0.153564,-0.113403,up
325617,-3.421875,6.304687,7.617187,-0.28125,0.5625,0.117188,0.920898,0.339783,0.153564,-0.113403,up
325622,-3.5,6.304687,7.542969,-0.318359,0.554687,0.138672,0.920898,0.339783,0.153564,-0.113403,up
325627,-3.460938,6.226562,7.539062,-0.318359,0.554687,0.138672,0.921082,0.33844,0.157349,-0.11084,up
325632,-3.535156,6.265625,7.621094,-0.425781,0.566406,0.181641,0.921082,0.33844,0.157349,-0.11084,up
325637,-3.535156,6.226562,7.617187,-0.425781,0.566406,0.181641,0.921387,0.337097,0.159912,-0.108826,up
325642,-3.574219,6.113281,7.542969,-0.425781,0.566406,0.181641,0.92157,0.336365,0.161133,-0.107849,up
325647,-3.574219,6.035156,7.542969,-0.425781,0.566406,0.181641,0.921753,0.33551,0.162292,-0.106873,up
325652,-3.613281,5.996094,7.539062,-0.632812,0.583984,0.162109,0.921753,0.33551,0.162292,-0.106873,up
325657,-3.613281,5.921875,7.542969,-0.632812,0.583984,0.162109,0.922363,0.333252,0.1651,-0.104553,up
325662,-3.691406,5.769531,7.464844,-0.632812,0.583984,0.162109,0.922668,0.332031,0.166443,-0.103516,up
325667,-3.726563,5.730469,7.421875,-0.632812,0.583984,0.162109,0.922974,0.330872,0.167664,-0.1026,up
325673,-3.726563,5.691406,7.464844,-0.607422,0.519531,0.099609,0.922974,0.330872,0.167664,-0.1026,up
325678,-3.765625,5.652344,7.582031,-0.607422,0.519531,0.099609,0.923645,0.328247,0.170349,-0.100586,up
325683,-3.765625,5.652344,7.503906,-0.554687,0.488281,0.085937,0.924133,0.326172,0.172668,-0.09906,up
325688,-3.765625,5.652344,7.542969,-0.431641,0.421875,0.087891,0.924316,0.325195,0.173767,-0.098328,up
325693,-3.726563,5.652344,7.5,-0.431641,0.421875,0.087891,0.9245,0.324402,0.174744,-0.097595,up
325698,-3.765625,5.730469,7.5,-0.431641,0.421875,0.087891,0.924622,0.323792,0.175537,-0.097046,up
325703,-3.765625,5.804687,7.425781,-0.318359,0.333984,0.109375,0.924744,0.323181,0.176392,-0.096375,up
325708,-3.765625,5.804687,7.425781,-0.3125,0.314453,0.115234,0.924744,0.323181,0.176392,-0.096375,up
325713,-3.765625,5.84375,7.386719,-0.3125,0.314453,0.115234,0.924988,0.322021,0.177734,-0.095154,up
325718,-3.804688,5.882812,7.347656,-0.3125,0.314453,0.115234,0.925171,0.321472,0.178345,-0.094482,up
325723,-3.765625,5.921875,7.308594,-0.353516,0.306641,0.142578,0.925171,0.321472,0.178345,-0.094482,up
325728,-3.765625,5.882812,7.238281,-0.353516,0.306641,0.142578,0.925476,0.320129,0.179749,-0.093018,up
325733,-3.804688,5.921875,7.199219,-0.353516,0.306641,0.142578,0.925659,0.319519,0.18042,-0.092285,up
325738,-3.804688,5.960937,7.160156,-0.353516,0.306641,0.142578,0.925842,0.318787,0.181213,-0.091492,up
325743,-3.765625,5.960937,7.160156,-0.412109,0.417969,0.195312,0.925842,0.318787,0.181213,-0.091492,up
325748,-3.804688,5.960937,7.160156,-0.412109,0.417969,0.195312,0.926208,0.317261,0.183044,-0.089539,up
325753,-3.804688,5.960937,7.121094,-0.412109,0.417969,0.195312,0.926331,0.316589,0.18396,-0.088623,up
325758,-3.84375,5.882812,7.078125,-0.449219,0.546875,0.242187,0.926453,0.315796,0.185181,-0.087402,up
325764,-3.84375,5.84375,7.199219,-0.449219,0.546875,0.242187,0.926636,0.315063,0.186279,-0.086243,up
325769,-3.84375,5.84375,7.117187,-0.449219,0.546875,0.242187,0.926758,0.31427,0.187622,-0.084961,up
325774,-3.882813,5.691406,7.160156,-0.449219,0.546875,0.242187,0.926819,0.313477,0.188904,-0.083679,up
325780,-3.921875,5.691406,7.117187,-0.462891,0.660156,0.275391,0.926941,0.312683,0.190308,-0.082397,up
325785,-3.921875,5.730469,7.199219,-0.455078,0.666016,0.275391,0.926941,0.312683,0.190308,-0.082397,up
325790,-3.921875,5.652344,7.238281,-0.431641,0.662109,0.277344,0.926941,0.312683,0.190308,-0.082397,up
325796,-3.996094,5.613281,7.199219,-0.400391,0.642578,0.289063,0.926941,0.312683,0.190308,-0.082397,up
325801,-4.035156,5.578125,7.273437,-0.353516,0.607422,0.310547,0.926941,0.312683,0.190308,-0.082397,up
325807,-4.035156,5.613281,7.308594,-0.353516,0.607422,0.310547,0.927185,0.309082,0.198059,-0.074402,up
325812,-4.035156,5.613281,7.34375,-0.353516,0.607422,0.310547,0.927185,0.309082,0.198059,-0.074402,up
325817,-4.074219,5.691406,7.425781,-0.191406,0.464844,0.402344,0.927185,0.309082,0.198059,-0.074402,up
325822,-4.113281,5.652344,7.425781,-0.191406,0.464844,0.402344,0.927185,0.308655,0.199829,-0.071777,up
325827,-4.113281,5.652344,7.425781,-0.173828,0.429687,0.423828,0.927124,0.308594,0.200623,-0.070374,up
325832,-4.074219,5.691406,7.539062,-0.173828,0.429687,0.423828,0.927124,0.308594,0.200623,-0.070374,up
325837,-4.074219,5.691406,7.539062,-0.158203,0.394531,0.460937,0.927124,0.308472,0.201721,-0.067566,up
325842,-3.957031,5.308594,7.578125,-0.169922,0.318359,0.515625,0.927124,0.308472,0.201721,-0.067566,up
325847,-3.957031,5.269531,7.65625,-0.169922,0.318359,0.515625,0.927246,0.30835,0.202454,-0.064514,up
325853,-3.921875,5.15625,7.804687,-0.169922,0.251953,0.578125,0.927246,0.30835,0.202454,-0.064514,up
325858,-3.921875,5.039062,7.847656,-0.169922,0.251953,0.578125,0.92749,0.308228,0.203003,-0.059753,up
325863,-3.882813,4.886719,7.847656,-0.169922,0.251953,0.578125,0.927551,0.308289,0.203064,-0.058228,up
325868,-3.84375,4.582031,7.964844,-0.169922,0.251953,0.578125,0.927551,0.308289,0.203064,-0.058228,up
325873,-3.804688,4.390625,7.921875,-0.070312,0.130859,0.521484,0.927551,0.308289,0.203064,-0.058228,up
325878,-3.804688,4.3125,8.042969,-0.070312,0.130859,0.521484,0.927734,0.308655,0.20282,-0.054138,up
325883,-3.726563,4.273437,8.191406,-0.070312,0.130859,0.521484,0.927734,0.308655,0.20282,-0.054138,up
325888,-3.726563,4.3125,8.1875,0.115234,0.03125,0.453125,0.927612,0.309753,0.202148,-0.052124,up
325893,-3.691406,4.390625,8.113281,0.115234,0.03125,0.453125,0.927429,0.310791,0.201721,-0.051453,up
325898,-3.613281,4.542969,8.078125,0.115234,0.03125,0.453125,0.927124,0.311951,0.201294,-0.051086,up
325903,-3.652344,4.695312,8.039063,0.621094,-0.123047,0.253906,0.927124,0.311951,0.201294,-0.051086,up
325908,-3.613281,4.925781,7.925781,0.642578,-0.152344,0.212891,0.926697,0.313599,0.200684,-0.050842,up
325913,-3.691406,5.230469,7.769531,0.642578,-0.152344,0.212891,0.925964,0.31665,0.199463,-0.050781,up
325918,-3.652344,5.421875,7.730469,0.642578,-0.152344,0.212891,0.925964,0.31665,0.199463,-0.050781,up
325923,-3.652344,5.539062,7.617187,0.466797,-0.216797,0.154297,0.925964,0.31665,0.199463,-0.050781,up
325929,-3.652344,5.652344,7.539062,0.466797,-0.216797,0.154297,0.925049,0.320496,0.197327,-0.051025,up
325935,-3.691406,5.769531,7.421875,0.466797,-0.216797,0.154297,0.924988,0.321106,0.196655,-0.051025,up
325941,-3.652344,5.882812,7.425781,-0.007813,-0.28125,0.111328,0.925049,0.32135,0.195862,-0.051025,up
325946,-3.574219,6.035156,7.386719,-0.234375,-0.306641,0.068359,0.925049,0.32135,0.195862,-0.051025,up
325951,-3.460938,6.226562,7.308594,-0.234375,-0.306641,0.068359,0.925049,0.32135,0.195862,-0.051025,up
325956,-3.421875,6.378906,7.082031,-0.234375,-0.306641,0.068359,0.926392,0.318848,0.193604,-0.051147,up
325961,-3.421875,6.304687,7.0,-1.042969,-0.443359,-0.123047,0.926392,0.318848,0.193604,-0.051147,up
325966,-3.308594,6.1875,7.0,-1.365234,-0.505859,-0.197266,0.926392,0.318848,0.193604,-0.051147,up
325971,-3.0,5.539062,7.117187,-1.365234,-0.505859,-0.197266,0.926392,0.318848,0.193604,-0.051147,up
325976,-2.886719,5.117187,7.121094,-1.365234,-0.505859,-0.197266,0.931519,0.305603,0.190186,-0.052002,up
325982,-2.617188,4.3125,7.195312,-2.216797,-0.601562,-0.347656,0.931519,0.305603,0.190186,-0.052002,up
325987,-2.503906,3.890625,7.304687,-2.4375,-0.605469,-0.376953,0.931519,0.305603,0.190186,-0.052002,up
325992,-2.464844,3.546875,7.421875,-2.4375,-0.605469,-0.376953,0.937439,0.288452,0.187622,-0.052673,up
325998,-2.425781,3.316406,7.5,-2.751953,-0.541016,-0.398438,0.937439,0.288452,0.187622,-0.052673,up
326003,-2.425781,3.007813,7.695312,-2.71875,-0.523437,-0.417969,0.94165,0.275452,0.186157,-0.052795,up
326008,-2.386719,3.007813,7.84375,-2.71875,-0.523437,-0.417969,0.943604,0.269104,0.185547,-0.052917,up
326013,-2.386719,3.277344,7.84375,-2.529297,-0.529297,-0.527344,0.945801,0.261658,0.184875,-0.053101,up
326018,-2.386719,3.46875,7.84375,-2.529297,-0.529297,-0.527344,0.947632,0.255371,0.184265,-0.053406,up
326023,-2.503906,4.121094,7.460937,-2.529297,-0.529297,-0.527344,0.950867,0.24353,0.183167,-0.054871,up
326028,-2.578125,4.121094,7.347656,-2.529297,-0.529297,-0.527344,0.950867,0.24353,0.183167,-0.054871,up
326033,-2.65625,4.003906,7.421875,-2.710938,-0.683594,-1.039063,0.950867,0.24353,0.183167,-0.054871,up
326038,-2.695313,3.96875,7.308594,-2.710938,-0.683594,-1.039063,0.955994,0.222961,0.181274,-0.059387,up
326043,-2.808594,4.160156,7.082031,-2.710938,-0.683594,-1.039063,0.957764,0.215088,0.180664,-0.06134,up
326048,-2.960938,4.082031,6.351562,-2.710938,-0.683594,-1.039063,0.957764,0.215088,0.180664,-0.06134,up
326053,-3.0,3.851563,6.121094,-3.550781,-0.794922,-1.457031,0.96167,0.196533,0.179382,-0.065979,up
326058,-3.117188,3.238281,6.085937,-3.550781,-0.794922,-1.457031,0.96167,0.196533,0.179382,-0.065979,up
326063,-3.117188,3.238281,6.085937,-4.455078,-0.986328,-1.650391,0.963928,0.185242,0.178589,-0.068481,up
326068,-3.078125,2.972656,6.199219,-4.896484,-1.042969,-1.734375,0.963928,0.185242,0.178589,-0.068481,up
326073,-3.078125,2.972656,6.199219,-4.896484,-1.042969,-1.734375,0.963928,0.185242,0.178589,-0.068481,up
326078,-2.65625,1.210938,6.117187,-5.513672,-0.554687,-1.916016,0.963928,0.185242,0.178589,-0.068481,up
326083,-2.539063,0.789062,6.578125,-5.513672,-0.554687,-1.916016,0.973755,0.117065,0.177673,-0.08075,up
326088,-2.464844,0.136719,6.855469,-5.513672,-0.554687,-1.916016,0.973755,0.117065,0.177673,-0.08075,up
326093,-2.695313,-0.476562,7.082031,-5.447266,-0.060547,-2.015625,0.973755,0.117065,0.177673,-0.08075,up
326098,-2.886719,-0.628906,7.082031,-4.966797,0.578125,-2.078125,0.975769,0.088806,0.180664,-0.085815,up
326103,-2.886719,-0.628906,7.082031,-4.966797,0.578125,-2.078125,0.976196,0.074707,0.18335,-0.088623,up
326108,-2.886719,-0.628906,7.082031,-4.587891,0.912109,-2.103516,0.976196,0.063354,0.18634,-0.091187,up
326113,-3.039063,-0.898437,7.195312,-4.587891,0.912109,-2.103516,0.97583,0.051758,0.190308,-0.094238,up
326118,-3.421875,-1.164063,7.5,-3.585938,1.435547,-2.207031,0.975098,0.041748,0.194641,-0.097534,up
326124,-3.804688,-0.820312,8.152344,-3.085938,1.533203,-2.257813,0.9729,0.024475,0.204407,-0.10553,up
326129,-4.1875,-0.9375,8.648438,-3.085938,1.533203,-2.257813,0.971497,0.017639,0.209106,-0.109985,up
326134,-4.417969,-1.128906,8.648438,-3.085938,1.533203,-2.257813,0.970215,0.012512,0.213196,-0.114319,up
326139,-4.570312,-0.9375,8.574219,-1.359375,1.359375,-2.494141,0.970215,0.012512,0.213196,-0.114319,up
326144,-4.570312,-0.9375,8.574219,-1.054688,1.171875,-2.558594,0.967346,0.004028,0.220642,-0.124756,up
326149,-4.648437,-0.398438,8.765625,-1.054688,1.171875,-2.558594,0.965881,0.00061,0.223511,-0.130615,up
326154,-4.648437,0.441406,9.191406,-0.652344,0.683594,-2.636719,0.964417,-0.002625,0.225952,-0.137146,up
326160,-4.457031,0.789062,8.804688,-0.652344,0.683594,-2.636719,0.963318,-0.005127,0.227295,-0.142456,up
326165,-4.378906,0.789062,8.648438,-0.652344,0.683594,-2.636719,0.962097,-0.00824,0.228516,-0.148804,up
326171,-4.035156,0.902344,7.882812,-0.652344,0.683594,-2.636719,0.960999,-0.01123,0.229187,-0.154358,up
326177,-3.882813,0.902344,7.460937,-0.888672,0.027344,-2.486328,0.960999,-0.01123,0.229187,-0.154358,up
326182,-3.882813,0.902344,7.460937,-1.037109,-0.027344,-2.367188,0.958862,-0.018311,0.229919,-0.165344,up
326187,-3.726563,1.019531,6.734375,-1.037109,-0.027344,-2.367188,0.958862,-0.018311,0.229919,-0.165344,up
326192,-3.726563,1.019531,6.734375,-1.171875,-0.029297,-2.070313,0.956909,-0.026245,0.230469,-0.174805,up
326197,-3.308594,1.132813,6.511719,-1.171875,-0.029297,-2.070313,0.956909,-0.026245,0.230469,-0.174805,up
326202,-3.308594,1.132813,6.511719,-1.191406,0.037109,-1.902344,0.955017,-0.033997,0.231445,-0.182434,up
326208,-3.308594,1.171875,6.351562,-1.191406,0.037109,-1.902344,0.955017,-0.033997,0.231445,-0.182434,up
326214,-3.535156,1.246094,6.539062,-0.900391,0.529297,-1.158203,0.955017,-0.033997,0.231445,-0.182434,up
326219,-3.804688,1.285156,6.695312,-0.900391,0.529297,-1.158203,0.951172,-0.046082,0.23645,-0.193115,up
326224,-4.265625,1.363281,7.042969,-0.900391,0.529297,-1.158203,0.950195,-0.047668,0.238403,-0.195007,up
326229,-4.457031,1.324219,7.277344,-0.900391,0.529297,-1.158203,0.949219,-0.048523,0.240601,-0.196838,up
326234,-4.6875,1.324219,7.464844,-0.105469,1.113281,-0.65625,0.94812,-0.04895,0.243347,-0.198669,up
326240,-5.070312,1.363281,7.699219,0.035156,1.210938,-0.580078,0.947205,-0.048767,0.24585,-0.200073,up
326245,-5.71875,2.015625,8.421875,0.035156,1.210938,-0.580078,0.946167,-0.048218,0.248596,-0.201538,up
326250,-5.988281,2.128906,8.570313,0.265625,1.314453,-0.455078,0.946167,-0.048218,0.248596,-0.201538,up
326255,-6.105469,2.28125,8.6875,0.328125,1.316406,-0.402344,0.946167,-0.048218,0.248596,-0.201538,up
326261,-6.257812,2.550781,8.765625,0.328125,1.316406,-0.402344,0.943176,-0.044983,0.257263,-0.205505,up
326267,-6.332031,2.933594,8.765625,0.357422,1.275391,-0.298828,0.943176,-0.044983,0.257263,-0.205505,up
326273,-6.601562,3.621094,8.765625,0.335938,1.242188,-0.244141,0.943176,-0.044983,0.257263,-0.205505,up
326278,-6.679687,3.929688,8.730469,0.335938,1.242188,-0.244141,0.94043,-0.041077,0.265503,-0.208374,up
326284,-6.714844,4.195312,8.730469,0.107422,1.144531,-0.041016,0.94043,-0.041077,0.265503,-0.208374,up
326289,-6.832031,4.351562,8.574219,0.107422,1.144531,-0.041016,0.937927,-0.038147,0.273682,-0.209473,up
326294,-7.0625,4.425781,8.535156,0.107422,1.144531,-0.041016,0.937317,-0.037781,0.276123,-0.209351,up
326299,-7.484375,4.464844,8.726563,0.107422,1.144531,-0.041016,0.937317,-0.037781,0.276123,-0.209351,up
326304,-7.484375,4.464844,8.726563,-0.349609,1.089844,0.216797,0.936584,-0.037659,0.278992,-0.20874,up
326309,-7.902344,4.273437,8.953125,-0.523437,1.099609,0.320313,0.935303,-0.038452,0.284546,-0.206665,up
326314,-7.902344,4.273437,8.953125,-0.523437,1.099609,0.320313,0.935303,-0.038452,0.284546,-0.206665,up
326319,-8.171875,3.929688,9.300781,-0.523437,1.099609,0.320313,0.935303,-0.038452,0.284546,-0.206665,up
326324,-8.171875,3.929688,9.300781,-0.917969,1.132813,0.785156,0.934143,-0.040283,0.290649,-0.203125,up
326330,-8.785156,2.972656,9.917969,-0.917969,1.132813,0.785156,0.933105,-0.042175,0.296997,-0.198303,up
326336,-8.9375,2.625,10.414063,-0.917969,1.132813,0.785156,0.932678,-0.042847,0.299988,-0.195557,up
326341,-9.015625,2.703125,10.640625,-0.605469,1.003906,1.097656,0.932373,-0.043091,0.302856,-0.192688,up
326347,-9.207031,3.046875,10.640625,-0.396484,0.916016,1.181641,0.932373,-0.043091,0.302856,-0.192688,up
326352,-9.359375,3.164063,10.679688,-0.189453,0.802734,1.263672,0.932373,-0.043091,0.302856,-0.192688,up
326358,-9.511719,3.277344,10.683594,0.001953,0.683594,1.359375,0.932373,-0.043091,0.302856,-0.192688,up
326363,-9.703125,3.660156,10.523438,0.146484,0.560547,1.445313,0.932373,-0.043091,0.302856,-0.192688,up
326368,-9.78125,3.699219,10.488281,0.146484,0.560547,1.445313,0.932556,-0.037659,0.312378,-0.177002,up
326374,-9.894531,3.660156,10.484375,0.220703,0.203125,1.755859,0.932556,-0.037659,0.312378,-0.177002,up
326379,-9.894531,3.585938,10.378906,0.220703,0.203125,1.755859,0.934265,-0.031616,0.314392,-0.165283,up
326384,-9.894531,3.238281,10.378906,0.220703,0.203125,1.755859,0.934265,-0.031616,0.314392,-0.165283,up
326389,-9.933594,2.855469,10.644531,-0.330078,-0.080078,2.119141,0.934265,-0.031616,0.314392,-0.165283,up
326394,-9.894531,2.511719,10.875,-0.330078,-0.080078,2.119141,0.936829,-0.028198,0.31488,-0.149841,up
326399,-9.933594,2.089844,10.875,-0.705078,-0.164062,2.347656,0.936829,-0.028198,0.31488,-0.149841,up
326404,-9.820313,1.285156,10.878906,-0.705078,-0.164062,2.347656,0.938599,-0.027771,0.314941,-0.138245,up
326409,-9.78125,0.980469,10.839844,-0.84375,-0.181641,2.474609,0.938599,-0.027771,0.314941,-0.138245,up
326414,-9.667969,0.828125,10.839844,-0.785156,-0.189453,2.505859,0.939575,-0.027832,0.314941,-0.131104,up
326419,-9.511719,0.558594,10.878906,-0.785156,-0.189453,2.505859,0.941284,-0.027588,0.314941,-0.118347,up
326424,-9.550781,0.40625,10.71875,-0.785156,-0.189453,2.505859,0.942078,-0.026855,0.314941,-0.112183,up
326429,-9.628906,0.136719,10.644531,-0.785156,-0.189453,2.505859,0.942078,-0.026855,0.314941,-0.112183,up
326434,-9.628906,0.097656,10.757813,-0.173828,-0.025391,2.554688,0.943481,-0.02356,0.315247,-0.099487,up
326439,-9.667969,0.25,10.640625,-0.173828,-0.025391,2.554688,0.943481,-0.02356,0.315247,-0.099487,up
326444,-9.667969,0.25,10.640625,0.347656,0.123047,2.599609,0.944092,-0.020996,0.315491,-0.093628,up
326449,-9.703125,0.367188,10.71875,0.347656,0.123047,2.599609,0.94458,-0.017883,0.315857,-0.087891,up
326454,-9.703125,0.367188,10.71875,0.785156,0.21875,2.671875,0.945007,-0.014099,0.316284,-0.082153,up
326459,-9.859375,0.597656,11.105469,0.785156,0.21875,2.671875,0.945007,-0.014099,0.316284,-0.082153,up
326464,-9.859375,0.597656,11.105469,1.150391,0.185547,2.789063,0.94574,-0.005005,0.317017,-0.070679,up
326469,-10.203125,1.246094,11.0625,1.150391,0.185547,2.789063,0.946472,0.005432,0.317261,-0.059021,up
326474,-10.355469,1.59375,10.90625,1.150391,0.185547,2.789063,0.946472,0.005432,0.317261,-0.059021,up
326479,-10.355469,1.707031,10.984375,1.150391,0.185547,2.789063,0.946838,0.010925,0.3172,-0.052795,up
326484,-10.46875,1.554688,11.066406,1.021484,-0.056641,3.115234,0.946838,0.010925,0.3172,-0.052795,up
326489,-10.46875,1.210938,11.144531,1.021484,-0.056641,3.115234,0.947449,0.021484,0.31665,-0.039551,up
326494,-10.46875,1.210938,11.144531,0.890625,-0.083984,3.240234,0.947754,0.026367,0.316162,-0.032837,up
326499,-10.316406,0.902344,10.761719,0.890625,-0.083984,3.240234,0.947998,0.030701,0.315735,-0.026489,up
326504,-10.125,0.863281,10.601563,0.923828,-0.033203,3.373047,0.947998,0.030701,0.315735,-0.026489,up
326509,-9.859375,0.597656,10.296875,0.923828,-0.033203,3.373047,0.948242,0.040771,0.314636,-0.011353,up
326514,-9.78125,0.519531,10.144531,1.095703,0.128906,3.486328,0.948242,0.045532,0.31427,-0.004333,up
326519,-9.703125,0.519531,9.953125,1.095703,0.128906,3.486328,0.948059,0.050903,0.314026,0.003296,up
326524,-9.703125,0.519531,9.953125,1.28125,0.230469,3.541016,0.947693,0.056458,0.313965,0.01062,up
326529,-9.550781,0.902344,9.492188,1.488281,0.34375,3.597656,0.947144,0.062317,0.314148,0.017761,up
326534,-9.550781,0.902344,9.492188,1.488281,0.34375,3.597656,0.947144,0.062317,0.314148,0.017761,up
326539,-9.707031,1.171875,9.148438,1.699219,0.458984,3.658203,0.945374,0.076233,0.315247,0.032654,up
326544,-9.707031,1.171875,9.148438,1.699219,0.458984,3.658203,0.944153,0.083984,0.316101,0.039978,up
326549,-9.742188,1.859375,8.917969,1.699219,0.458984,3.658203,0.940857,0.101135,0.318665,0.054932,up
326554,-9.890625,2.050781,8.804688,1.699219,0.458984,3.658203,0.940857,0.101135,0.318665,0.054932,up
326559,-9.972656,2.28125,8.765625,2.648438,1.123047,4.128906,0.940857,0.101135,0.318665,0.054932,up
326564,-10.046875,2.511719,8.917969,2.648438,1.123047,4.128906,0.934021,0.128845,0.323853,0.078247,up
326569,-10.164063,2.894531,8.957031,2.648438,1.123047,4.128906,0.934021,0.128845,0.323853,0.078247,up
326574,-10.316406,2.855469,8.882813,2.511719,1.259766,4.363281,0.930969,0.13916,0.325989,0.087341,up
326579,-10.394531,2.933594,8.882813,2.511719,1.259766,4.363281,0.92804,0.148499,0.327881,0.095825,up
326585,-10.738281,3.316406,8.804688,2.511719,1.259766,4.363281,0.92511,0.157166,0.329651,0.104126,up
326590,-10.738281,3.316406,8.804688,2.349609,1.310547,4.466797,0.921997,0.165649,0.33136,0.112549,up
326595,-10.929688,3.355469,8.726563,2.349609,1.310547,4.466797,0.91864,0.174316,0.33313,0.121399,up
326600,-11.078125,3.890625,8.535156,2.283203,1.359375,4.4375,0.914978,0.183105,0.335022,0.130493,up
326605,-11.078125,3.890625,8.535156,2.283203,1.359375,4.4375,0.914978,0.183105,0.335022,0.130493,up
326610,-11.160156,4.160156,8.34375,2.267578,1.363281,4.425781,0.903442,0.208313,0.34021,0.156799,up
326615,-11.050781,4.695312,8.078125,2.150391,1.322266,4.265625,0.903442,0.208313,0.34021,0.156799,up
326620,-11.046875,5.15625,7.730469,2.078125,1.263672,4.222656,0.898865,0.217529,0.342041,0.166504,up
326626,-10.96875,5.347656,7.503906,2.078125,1.263672,4.222656,0.891174,0.232117,0.344482,0.182251,up
326631,-11.011719,5.5,7.386719,1.880859,1.173828,4.1875,0.891174,0.232117,0.344482,0.182251,up
326636,-10.894531,5.578125,7.273437,1.794922,1.134766,4.197266,0.891174,0.232117,0.344482,0.182251,up
326641,-10.734375,5.691406,7.273437,1.794922,1.134766,4.197266,0.891174,0.232117,0.344482,0.182251,up
326646,-10.625,5.804687,7.042969,1.705078,1.089844,4.21875,0.874268,0.260803,0.347595,0.216309,up
326651,-10.625,5.804687,7.042969,1.705078,1.089844,4.21875,0.874268,0.260803,0.347595,0.216309,up
326656,-10.316406,6.1875,6.507812,1.515625,1.054688,4.298828,0.870056,0.267273,0.347961,0.224854,up
326661,-10.316406,6.1875,6.507812,1.367188,1.0625,4.351562,0.870056,0.267273,0.347961,0.224854,up
326666,-10.273438,6.113281,6.277344,1.367188,1.0625,4.351562,0.856506,0.28595,0.348267,0.251587,up
326672,-10.242188,6.265625,6.121094,1.314453,1.074219,4.40625,0.856506,0.28595,0.348267,0.251587,up
326677,-10.207031,6.378906,6.160156,1.304688,1.074219,4.416016,0.856506,0.28595,0.348267,0.251587,up
326682,-10.089844,6.417969,6.085937,1.326172,1.0625,4.412109,0.856506,0.28595,0.348267,0.251587,up
326688,-9.894531,6.496094,5.929687,1.332031,1.046875,4.388672,0.856506,0.28595,0.348267,0.251587,up
326694,-9.511719,6.574219,5.546875,1.332031,1.046875,4.388672,0.826538,0.321594,0.346863,0.305115,up
326699,-9.207031,6.535156,5.394531,1.332031,1.046875,4.388672,0.826538,0.321594,0.346863,0.305115,up
326704,-9.207031,6.535156,5.394531,1.263672,0.962891,4.316406,0.821167,0.327393,0.346375,0.313904,up
326709,-8.519531,7.03125,5.011719,1.232422,0.935547,4.330078,0.815918,0.332947,0.345703,0.322388,up
326714,-8.519531,7.03125,5.011719,1.232422,0.935547,4.330078,0.815918,0.332947,0.345703,0.322388,up
326719,-8.519531,7.03125,5.011719,1.164063,0.892578,4.363281,0.805115,0.343811,0.343811,0.339722,up
326724,-8.28125,6.957031,4.820312,1.164063,0.892578,4.363281,0.799744,0.348816,0.342529,0.34845,up
326729,-7.75,6.609375,4.742187,0.810547,0.845703,4.525391,0.799744,0.348816,0.342529,0.34845,up
326734,-7.515625,6.378906,4.859375,0.730469,0.871094,4.607422,0.799744,0.348816,0.342529,0.34845,up
326739,-7.25,6.265625,4.898437,0.730469,0.871094,4.607422,0.78302,0.363037,0.337524,0.375732,up
326745,-6.90625,6.035156,4.820312,0.820312,0.869141,4.630859,0.777039,0.367737,0.335632,0.385132,up
326750,-6.644531,5.996094,4.742187,0.904297,0.865234,4.630859,0.771118,0.372314,0.333801,0.394165,up
326755,-6.371094,5.996094,4.550781,0.904297,0.865234,4.630859,0.757935,0.382263,0.329956,0.412903,up
326760,-6.179687,6.113281,4.4375,0.904297,0.865234,4.630859,0.757935,0.382263,0.329956,0.412903,up
326765,-5.757812,6.453125,4.132812,1.070313,0.884766,4.615234,0.757935,0.382263,0.329956,0.412903,up
326770,-5.757812,6.453125,4.132812,1.121094,0.888672,4.615234,0.745361,0.391663,0.32666,0.429382,up
326775,-5.566406,6.570312,3.976563,1.121094,0.888672,4.615234,0.738281,0.396729,0.324951,0.43811,up
326780,-5.566406,6.570312,3.976563,1.074219,0.951172,4.599609,0.731445,0.401367,0.323303,0.446533,up
326785,-5.335937,6.726562,3.671875,1.074219,0.951172,4.599609,0.731445,0.401367,0.323303,0.446533,up
326790,-4.839844,6.417969,3.519531,1.011719,0.984375,4.597656,0.717224,0.410339,0.319702,0.463684,up
326795,-4.839844,6.417969,3.519531,0.857422,0.984375,4.652344,0.710083,0.414551,0.31781,0.472107,up
326800,-3.765625,6.53125,3.710938,0.857422,0.984375,4.652344,0.702148,0.419067,0.315552,0.481506,up
326805,-3.652344,6.496094,3.632813,0.710937,0.943359,4.6875,0.702148,0.419067,0.315552,0.481506,up
326810,-3.535156,6.457031,3.632813,0.710937,0.943359,4.6875,0.687134,0.427063,0.310669,0.498962,up
326815,-3.269531,6.347656,3.554688,0.582031,0.806641,4.751953,0.67981,0.430786,0.308044,0.507324,up
326820,-3.269531,6.347656,3.554688,0.582031,0.806641,4.751953,0.665955,0.437622,0.302185,0.523132,up
326825,-2.769531,6.414062,3.480469,0.582031,0.806641,4.751953,0.665955,0.437622,0.302185,0.523132,up
326830,-2.65625,6.308594,3.59375,0.445312,0.5,4.882812,0.665955,0.437622,0.302185,0.523132,up
326835,-2.503906,6.34375,3.441406,0.408203,0.421875,4.912109,0.651001,0.445007,0.294739,0.539734,up
326840,-2.425781,6.230469,3.441406,0.408203,0.421875,4.912109,0.643311,0.448792,0.290405,0.548035,up
326846,-2.425781,6.230469,3.441406,0.373047,0.310547,4.935547,0.628479,0.456177,0.281311,0.563721,up
326851,-2.15625,6.035156,3.59375,0.373047,0.310547,4.935547,0.628479,0.456177,0.281311,0.563721,up
326856,-1.46875,5.503906,3.59375,0.289063,0.142578,4.978516,0.621033,0.4599,0.276367,0.57135,up
326861,-1.46875,5.503906,3.59375,0.289063,0.142578,4.978516,0.621033,0.4599,0.276367,0.57135,up
326866,-1.046875,4.925781,3.632813,0.357422,0.029297,5.105469,0.597839,0.471191,0.260254,0.593994,up
326872,-0.511719,4.351562,4.054687,0.357422,0.029297,5.105469,0.589722,0.475159,0.254822,0.601257,up
326877,-0.28125,3.96875,4.132812,0.560547,-0.046875,5.291016,0.589722,0.475159,0.254822,0.601257,up
326884,-0.089844,3.546875,3.976563,0.607422,-0.015625,5.384766,0.589722,0.475159,0.254822,0.601257,up
326889,0.179687,3.125,3.980469,0.634766,-0.027344,5.496094,0.589722,0.475159,0.254822,0.601257,up
326894,0.253906,3.164063,3.976563,0.634766,-0.027344,5.496094,0.553467,0.492249,0.231873,0.630554,up
326900,0.484375,3.355469,3.820313,0.75,-0.123047,5.671875,0.553467,0.492249,0.231873,0.630554,up
326905,0.484375,3.355469,3.820313,0.847656,-0.130859,5.714844,0.533752,0.50116,0.219849,0.644653,up
326910,0.753906,3.621094,3.519531,0.927734,-0.167969,5.714844,0.533752,0.50116,0.219849,0.644653,up
326915,0.753906,3.621094,3.519531,1.044922,-0.201172,5.707031,0.512817,0.510498,0.207886,0.658142,up
326921,0.867187,3.929688,2.867188,1.201172,-0.199219,5.662109,0.512817,0.510498,0.207886,0.658142,up
326926,0.945312,3.933594,2.523438,1.316406,-0.15625,5.619141,0.491028,0.519958,0.196594,0.670715,up
326931,0.753906,3.660156,2.523438,1.40625,-0.09375,5.611328,0.47998,0.524597,0.191406,0.676575,up
326937,0.753906,3.660156,2.523438,1.664063,-0.207031,5.714844,0.456604,0.534119,0.181213,0.688049,up
326942,0.792969,2.855469,2.714844,1.664063,-0.207031,5.714844,0.444641,0.539001,0.176147,0.693359,up
326947,0.636719,2.816406,3.015625,1.664063,-0.207031,5.714844,0.444641,0.539001,0.176147,0.693359,up
326952,0.636719,2.816406,3.015625,1.634766,-0.365234,6.226562,0.444641,0.539001,0.176147,0.693359,up
326957,-0.011719,2.972656,3.4375,1.634766,-0.365234,6.226562,0.41925,0.548889,0.164734,0.704163,up
326963,-0.011719,2.972656,3.4375,1.558594,-0.505859,6.396484,0.392517,0.559021,0.151184,0.714539,up
326968,1.058594,2.433594,2.792969,0.902344,-0.710937,6.728516,0.379456,0.563782,0.143188,0.719482,up
326973,1.558594,2.742188,2.792969,0.541016,-0.685547,6.775391,0.379456,0.563782,0.143188,0.719482,up
326978,1.863281,2.894531,3.292969,0.185547,-0.792969,6.802734,0.379456,0.563782,0.143188,0.719482,up
326983,2.476563,2.625,3.980469,0.185547,-0.792969,6.802734,0.379456,0.563782,0.143188,0.719482,up
326988,2.9375,2.167969,4.519531,-0.216797,-0.826172,6.734375,0.379456,0.563782,0.143188,0.719482,up
326993,2.9375,2.167969,4.519531,-0.550781,-0.642578,6.611328,0.31897,0.580627,0.091614,0.743469,up
326998,3.207031,0.980469,4.398437,-0.970703,-0.289063,6.208984,0.31897,0.580627,0.091614,0.743469,up
327003,4.050781,-0.820312,4.015625,-0.970703,-0.289063,6.208984,0.31897,0.580627,0.091614,0.743469,up
327009,4.199219,-1.546875,4.285156,-1.197266,-0.146484,5.917969,0.289856,0.582886,0.058472,0.756836,up
327014,4.699219,-2.507813,4.859375,-1.197266,-0.146484,5.917969,0.289856,0.582886,0.058472,0.756836,up
327019,5.160156,-2.929688,5.585937,-1.197266,-0.146484,5.917969,0.27417,0.581604,0.037903,0.764954,up
327024,5.160156,-2.929688,5.585937,-1.560547,0.269531,4.634766,0.267029,0.580505,0.027832,0.768738,up
327029,5.160156,-2.929688,5.585937,-1.53125,0.212891,4.328125,0.260681,0.579346,0.018616,0.772034,up
327034,5.386719,-3.3125,5.734375,-1.607422,0.285156,4.001953,0.254761,0.578003,0.00946,0.775208,up
327039,4.96875,-3.886719,5.707031,-1.607422,0.285156,4.001953,0.254761,0.578003,0.00946,0.775208,up
327044,4.96875,-3.886719,5.707031,-1.126953,0.125,3.378906,0.24469,0.575378,-0.006287,0.780396,up
327050,6.042969,-3.539063,6.007812,-1.126953,0.125,3.378906,0.234985,0.574463,-0.017944,0.783875,up
327055,6.425781,-3.808594,5.472656,-1.126953,0.125,3.378906,0.234985,0.574463,-0.017944,0.783875,up
327060,6.539062,-3.925781,5.472656,-1.126953,0.125,3.378906,0.230469,0.574768,-0.021851,0.784912,up
327065,6.570312,-3.769531,5.546875,0.646484,-0.480469,1.574219,0.230469,0.574768,-0.021851,0.784912,up
327070,6.992187,-3.617188,5.433594,0.646484,-0.480469,1.574219,0.221924,0.576538,-0.026489,0.785889,up
327075,7.304687,-3.539063,5.433594,0.646484,-0.480469,1.574219,0.217834,0.578003,-0.027344,0.78595,up
327081,7.570312,-3.425781,5.511719,1.152344,-0.546875,0.974609,0.217834,0.578003,-0.027344,0.78595,up
327086,7.800781,-3.234375,5.625,1.269531,-0.558594,0.71875,0.207458,0.583069,-0.025085,0.785095,up
327092,8.183594,-2.046875,5.355469,1.269531,-0.558594,0.71875,0.205078,0.584717,-0.023682,0.784485,up
327097,8.296875,-1.742188,5.128906,1.025391,-0.662109,0.076172,0.205078,0.584717,-0.023682,0.784485,up
327102,8.296875,-1.394531,5.011719,0.861328,-0.732422,-0.121094,0.205078,0.584717,-0.023682,0.784485,up
327108,8.183594,-0.820312,4.589844,0.6875,-0.814453,-0.291016,0.205078,0.584717,-0.023682,0.784485,up
327114,8.183594,-0.4375,4.285156,0.533203,-0.892578,-0.433594,0.205078,0.584717,-0.023682,0.784485,up
327120,8.339844,-0.207031,4.015625,0.382813,-0.953125,-0.552734,0.205078,0.584717,-0.023682,0.784485,up
327125,8.605469,0.175781,3.824219,0.240234,-0.988281,-0.630859,0.205078,0.584717,-0.023682,0.784485,up
327130,8.796875,0.441406,3.785156,0.240234,-0.988281,-0.630859,0.202515,0.598633,-0.014893,0.774841,up
327136,8.914063,0.671875,3.824219,-0.066406,-0.882812,-0.765625,0.202515,0.598633,-0.014893,0.774841,up
327141,8.988281,0.863281,3.785156,-0.066406,-0.882812,-0.765625,0.207031,0.604126,-0.013,0.769409,up
327146,8.984375,0.941406,3.710938,-0.066406,-0.882812,-0.765625,0.208557,0.60553,-0.012573,0.767883,up
327151,9.0625,1.132813,3.710938,-0.248047,-0.732422,-0.783203,0.208557,0.60553,-0.012573,0.767883,up
327156,8.984375,1.246094,3.824219,-0.248047,-0.732422,-0.783203,0.212463,0.608276,-0.011902,0.764648,up
327161,9.027344,1.210938,3.902344,-0.248047,-0.732422,-0.783203,0.212463,0.608276,-0.011902,0.764648,up
327166,9.027344,1.210938,3.902344,-0.386719,-0.685547,-0.796875,0.214294,0.609375,-0.011719,0.763306,up
327171,8.988281,1.171875,4.015625,-0.386719,-0.685547,-0.796875,0.21637,0.610474,-0.011658,0.761841,up
327176,8.984375,1.324219,3.902344,-0.419922,-0.726562,-0.851562,0.218567,0.611633,-0.011536,0.760254,up
327181,8.984375,1.324219,3.902344,-0.419922,-0.726562,-0.851562,0.220886,0.612854,-0.011353,0.758606,up
327186,9.339844,1.667969,3.136719,-0.416016,-0.751953,-0.957031,0.223206,0.614075,-0.011169,0.756958,up
327192,9.410156,1.898438,2.945313,-0.416016,-0.751953,-0.957031,0.228333,0.616638,-0.010559,0.753357,up
327197,9.527344,2.128906,2.90625,-0.416016,-0.751953,-0.957031,0.230469,0.617554,-0.010071,0.751953,up
327203,9.523438,2.511719,2.753906,-0.416016,-0.751953,-0.957031,0.232788,0.618591,-0.009277,0.750366,up
327208,9.445313,2.78125,2.636719,-0.064453,-0.488281,-1.027344,0.232788,0.618591,-0.009277,0.750366,up
327214,9.339844,3.007813,2.558594,0.0625,-0.451172,-1.023438,0.232788,0.618591,-0.009277,0.750366,up
327220,9.183594,3.429688,2.484375,0.0625,-0.451172,-1.023438,0.232788,0.618591,-0.009277,0.750366,up
327226,9.179688,3.8125,2.484375,0.242187,-0.455078,-0.998047,0.232788,0.618591,-0.009277,0.750366,up
327231,9.144531,3.929688,2.484375,0.265625,-0.441406,-0.984375,0.242859,0.624329,0.0,0.742432,up
327237,9.0625,4.273437,2.523438,0.265625,-0.441406,-0.984375,0.24408,0.625244,0.00177,0.741272,up
327242,9.0625,4.273437,2.523438,0.296875,-0.417969,-0.947266,0.245361,0.626221,0.003601,0.73999,up
327247,9.101563,4.390625,2.484375,0.296875,-0.417969,-0.947266,0.246643,0.627136,0.00531,0.73877,up
327252,9.027344,4.503906,2.332031,0.296875,-0.417969,-0.947266,0.247986,0.628052,0.006958,0.737549,up
327257,9.140625,4.617187,2.101563,0.296875,-0.417969,-0.947266,0.247986,0.628052,0.006958,0.737549,up
327263,9.21875,4.65625,2.023438,-0.115234,-0.447266,-0.890625,0.251221,0.6297,0.00946,0.735046,up
327269,9.410156,4.695312,1.910156,-0.269531,-0.449219,-0.871094,0.251221,0.6297,0.00946,0.735046,up
327275,9.371094,4.695312,1.792969,-0.400391,-0.466797,-0.857422,0.251221,0.6297,0.00946,0.735046,up
