timestamp,ax,ay,az,gx,gy,gz,qw,qx,qy,qz,label
75046,4.777344,3.8125,8.082031,0.990234,0.238281,0.105469,0.958618,0.165527,-0.228027,-0.0401,up
75051,4.777344,3.8125,8.082031,0.861328,0.261719,0.130859,0.958618,0.165527,-0.228027,-0.0401,up
75056,4.777344,3.660156,8.042969,0.861328,0.261719,0.130859,0.958435,0.167603,-0.227539,-0.039246,up
75061,4.777344,3.660156,8.042969,0.748047,0.302734,0.15625,0.958435,0.167603,-0.227539,-0.039246,up
75066,4.8125,3.660156,8.003906,0.748047,0.302734,0.15625,0.958252,0.169495,-0.22699,-0.038391,up
75071,4.8125,3.660156,8.003906,0.501953,0.462891,0.208984,0.958191,0.173645,-0.224609,-0.035583,up
75077,4.738281,3.203125,8.109375,0.501953,0.462891,0.208984,0.958252,0.174744,-0.223572,-0.034668,up
75082,4.660156,3.085938,8.109375,0.408203,0.574219,0.207031,0.958252,0.174744,-0.223572,-0.034668,up
75087,4.546875,3.007813,8.113281,0.410156,0.595703,0.212891,0.958557,0.176636,-0.221008,-0.032776,up
75093,4.621094,2.933594,8.304688,0.453125,0.595703,0.201172,0.95874,0.177551,-0.219727,-0.031799,up
75099,4.585937,2.894531,8.347656,0.5,0.597656,0.183594,0.95874,0.177551,-0.219727,-0.031799,up
75104,4.621094,2.816406,8.34375,0.554687,0.603516,0.169922,0.95874,0.177551,-0.219727,-0.031799,up
75110,4.621094,2.855469,8.34375,0.609375,0.615234,0.152344,0.95874,0.177551,-0.219727,-0.031799,up
75116,4.546875,2.894531,8.382813,0.736328,0.607422,0.109375,0.95874,0.177551,-0.219727,-0.031799,up
75121,4.46875,2.933594,8.386719,0.736328,0.607422,0.109375,0.959106,0.186523,-0.211304,-0.026184,up
75126,4.316406,2.972656,8.347656,0.736328,0.607422,0.109375,0.959106,0.186523,-0.211304,-0.026184,up
75131,4.394531,3.046875,8.308594,0.736328,0.607422,0.109375,0.958923,0.19043,-0.208801,-0.024658,up
75136,4.355469,3.125,8.308594,0.736328,0.607422,0.109375,0.958801,0.192749,-0.207397,-0.023865,up
75141,4.355469,3.203125,8.269531,0.925781,0.591797,0.021484,0.958801,0.192749,-0.207397,-0.023865,up
75146,4.316406,3.316406,8.304688,0.917969,0.607422,0.025391,0.958618,0.19519,-0.205933,-0.02301,up
75152,4.316406,3.316406,8.304688,0.880859,0.642578,0.03125,0.958374,0.199402,-0.203186,-0.021545,up
75157,4.277344,3.546875,8.226563,0.880859,0.642578,0.03125,0.958313,0.201477,-0.20166,-0.020752,up
75162,4.277344,3.621094,8.191406,0.779297,0.708984,0.050781,0.958252,0.203491,-0.200012,-0.019897,up
75168,4.238281,3.738281,8.148438,0.779297,0.708984,0.050781,0.958191,0.205261,-0.198303,-0.019104,up
75173,4.199219,3.8125,8.039063,0.623047,0.804687,0.091797,0.958252,0.206848,-0.196472,-0.01825,up
75179,4.164062,3.8125,8.082031,0.537109,0.859375,0.109375,0.958252,0.206848,-0.196472,-0.01825,up
75184,3.855469,4.042969,8.269531,0.431641,0.921875,0.130859,0.958252,0.206848,-0.196472,-0.01825,up
75189,3.625,4.121094,8.191406,0.355469,0.970703,0.15625,0.958252,0.206848,-0.196472,-0.01825,up
75194,3.320313,4.160156,8.078125,0.3125,1.021484,0.167969,0.958252,0.206848,-0.196472,-0.01825,up
75199,3.167969,4.160156,8.113281,0.248047,1.039063,0.167969,0.958252,0.206848,-0.196472,-0.01825,up
75205,3.011719,4.160156,8.382813,0.248047,1.039063,0.167969,0.960205,0.212585,-0.180786,-0.011475,up
75210,2.9375,4.160156,8.425781,0.248047,1.039063,0.167969,0.960205,0.212585,-0.180786,-0.011475,up
75216,2.9375,4.042969,8.425781,0.042969,0.888672,0.097656,0.960205,0.212585,-0.180786,-0.011475,up
75221,2.976563,3.929688,8.574219,0.042969,0.888672,0.097656,0.961304,0.213013,-0.174377,-0.009277,up
75226,3.011719,3.890625,8.691406,0.080078,0.789062,0.058594,0.961304,0.213013,-0.174377,-0.009277,up
75231,2.976563,3.851563,8.726563,0.080078,0.789062,0.058594,0.96167,0.213196,-0.172302,-0.008667,up
75236,3.050781,3.699219,8.726563,0.125,0.751953,0.0625,0.96167,0.213196,-0.172302,-0.008667,up
75241,3.050781,3.699219,8.726563,0.125,0.751953,0.0625,0.962341,0.214233,-0.167114,-0.00708,up
75246,3.050781,3.585938,8.609375,0.125,0.751953,0.0625,0.962341,0.214233,-0.167114,-0.00708,up
75251,3.128906,3.546875,8.648438,0.208984,0.697266,0.085937,0.962341,0.214233,-0.167114,-0.00708,up
75256,3.128906,3.546875,8.648438,0.220703,0.6875,0.115234,0.962708,0.21521,-0.163757,-0.005859,up
75261,3.207031,3.621094,8.535156,0.220703,0.6875,0.115234,0.962708,0.21521,-0.163757,-0.005859,up
75266,3.242188,3.660156,8.53125,0.283203,0.730469,0.160156,0.962708,0.21521,-0.163757,-0.005859,up
75271,3.242188,3.660156,8.53125,0.355469,0.849609,0.175781,0.962708,0.21521,-0.163757,-0.005859,up
75276,3.398438,3.8125,8.421875,0.355469,0.849609,0.175781,0.96344,0.218628,-0.154846,-0.001343,up
75281,3.207031,3.890625,8.464844,0.355469,0.849609,0.175781,0.96344,0.218628,-0.154846,-0.001343,up
75286,2.976563,3.96875,8.382813,0.453125,1.03125,0.167969,0.96344,0.218628,-0.154846,-0.001343,up
75291,2.859375,4.121094,8.148438,0.453125,1.03125,0.167969,0.963867,0.22168,-0.147949,0.001831,up
75296,2.667969,4.160156,7.886719,0.453125,1.03125,0.167969,0.963989,0.222839,-0.145264,0.00293,up
75301,2.402344,4.273437,7.882812,0.453125,1.03125,0.167969,0.963989,0.222839,-0.145264,0.00293,up
75306,2.402344,4.390625,8.042969,0.544922,0.935547,0.087891,0.963989,0.222839,-0.145264,0.00293,up
75311,2.402344,4.582031,8.34375,0.544922,0.935547,0.087891,0.964111,0.225342,-0.140442,0.004944,up
75317,2.554688,4.542969,8.386719,0.544922,0.935547,0.087891,0.96405,0.227905,-0.136353,0.00647,up
75322,2.554688,4.542969,8.386719,0.611328,0.732422,-0.007813,0.963989,0.22937,-0.13446,0.00708,up
75327,2.59375,4.542969,8.425781,0.611328,0.732422,-0.007813,0.963867,0.231018,-0.132568,0.007629,up
75333,2.59375,4.65625,8.421875,0.611328,0.732422,-0.007813,0.963684,0.232605,-0.131104,0.007996,up
75338,2.667969,4.773437,8.347656,0.769531,0.59375,-0.085937,0.963379,0.234619,-0.129395,0.008362,up
75344,2.707031,4.773437,8.304688,0.773437,0.558594,-0.101563,0.963379,0.234619,-0.129395,0.008362,up
75349,2.746094,4.925781,8.304688,0.773437,0.558594,-0.101563,0.962891,0.23822,-0.126648,0.008911,up
75354,2.746094,5.039062,8.265625,0.703125,0.525391,-0.105469,0.962585,0.240051,-0.125244,0.009155,up
75359,2.785156,5.15625,8.347656,0.630859,0.533203,-0.099609,0.962585,0.240051,-0.125244,0.009155,up
75365,2.785156,5.230469,8.34375,0.630859,0.533203,-0.099609,0.962158,0.243164,-0.122498,0.009583,up
75371,2.707031,5.421875,8.34375,0.630859,0.533203,-0.099609,0.962158,0.243164,-0.122498,0.009583,up
75376,2.667969,5.5,8.421875,0.443359,0.597656,-0.105469,0.962158,0.243164,-0.122498,0.009583,up
75381,2.515625,5.578125,8.570313,0.443359,0.597656,-0.105469,0.961731,0.247009,-0.118042,0.010254,up
75386,2.363281,5.539062,8.648438,0.390625,0.632812,-0.160156,0.96167,0.248108,-0.116516,0.010437,up
75391,2.285156,5.421875,8.613281,0.382813,0.632812,-0.193359,0.961609,0.249146,-0.114807,0.010559,up
75396,2.210938,5.347656,8.535156,0.382813,0.632812,-0.193359,0.961548,0.25,-0.113342,0.010559,up
75401,1.980469,5.117187,8.5,0.375,0.617187,-0.240234,0.961487,0.251099,-0.11145,0.010559,up
75406,1.941406,5.078125,8.460938,0.375,0.617187,-0.240234,0.961426,0.251953,-0.109924,0.010437,up
75411,1.902344,5.078125,8.503906,0.375,0.617187,-0.240234,0.961304,0.253052,-0.108215,0.010254,up
75417,1.863281,5.230469,8.570313,0.425781,0.492187,-0.248047,0.961304,0.253052,-0.108215,0.010254,up
75423,1.789063,5.386719,8.6875,0.425781,0.492187,-0.248047,0.960815,0.25647,-0.104492,0.009583,up
75430,1.789063,5.5,8.648438,0.640625,0.300781,-0.251953,0.960815,0.25647,-0.104492,0.009583,up
75435,1.75,5.769531,8.609375,0.705078,0.261719,-0.251953,0.960815,0.25647,-0.104492,0.009583,up
75440,1.789063,5.84375,8.574219,0.759766,0.224609,-0.265625,0.960815,0.25647,-0.104492,0.009583,up
75445,1.863281,5.921875,8.652344,0.775391,0.203125,-0.267578,0.960815,0.25647,-0.104492,0.009583,up
75450,1.902344,5.960937,8.609375,0.763672,0.195312,-0.265625,0.960815,0.25647,-0.104492,0.009583,up
75456,1.941406,5.960937,8.535156,0.720703,0.203125,-0.248047,0.958008,0.268921,-0.099121,0.007324,up
75461,1.980469,5.921875,8.53125,0.720703,0.203125,-0.248047,0.958008,0.268921,-0.099121,0.007324,up
75466,2.019531,5.84375,8.53125,0.470703,0.259766,-0.160156,0.958008,0.268921,-0.099121,0.007324,up
75471,1.980469,5.84375,8.460938,0.470703,0.259766,-0.160156,0.957336,0.27179,-0.097656,0.006897,up
75476,1.941406,5.652344,8.535156,0.363281,0.265625,-0.115234,0.957336,0.27179,-0.097656,0.006897,up
75481,1.941406,5.652344,8.535156,0.275391,0.275391,-0.070312,0.95697,0.273682,-0.096191,0.006775,up
75486,1.980469,5.539062,8.535156,0.275391,0.275391,-0.070312,0.956909,0.274231,-0.095459,0.006836,up
75491,2.171875,5.15625,8.535156,0.142578,0.345703,-0.011719,0.956848,0.274658,-0.094666,0.00708,up
75496,2.171875,5.15625,8.535156,0.142578,0.345703,-0.011719,0.956848,0.274658,-0.094666,0.00708,up
75501,2.285156,4.964844,8.5,0.115234,0.394531,0.009766,0.956848,0.275635,-0.091675,0.008057,up
75506,2.4375,4.808594,8.421875,0.115234,0.394531,0.009766,0.956848,0.275635,-0.091675,0.008057,up
75511,2.4375,4.808594,8.421875,0.244141,0.511719,0.025391,0.956787,0.276123,-0.090454,0.008484,up
75517,2.402344,4.808594,8.386719,0.363281,0.560547,0.025391,0.956543,0.277832,-0.08783,0.009338,up
75522,2.363281,4.886719,8.34375,0.582031,0.695312,-0.027344,0.956299,0.279236,-0.086121,0.009888,up
75528,2.019531,5.191406,8.039063,0.582031,0.695312,-0.027344,0.956055,0.280579,-0.084473,0.010376,up
75533,1.824219,5.191406,8.042969,0.689453,0.794922,-0.060547,0.95575,0.282227,-0.08252,0.010864,up
75540,1.710938,5.269531,7.925781,0.701172,0.794922,-0.074219,0.95575,0.282227,-0.08252,0.010864,up
75545,1.441406,5.460937,7.730469,0.660156,0.833984,-0.070312,0.95575,0.282227,-0.08252,0.010864,up
75550,1.289063,5.460937,7.65625,0.611328,0.849609,-0.0625,0.95575,0.282227,-0.08252,0.010864,up
75555,1.214844,5.5,7.582031,0.525391,0.820312,-0.050781,0.95575,0.282227,-0.08252,0.010864,up
75560,1.136719,5.539062,7.542969,0.416016,0.744141,-0.009766,0.95575,0.282227,-0.08252,0.010864,up
75566,1.289063,5.613281,7.808594,0.314453,0.644531,0.027344,0.95575,0.282227,-0.08252,0.010864,up
75571,1.40625,5.691406,8.078125,0.154297,0.498047,0.087891,0.954102,0.291077,-0.069397,0.014587,up
75576,1.480469,5.691406,8.265625,0.154297,0.498047,0.087891,0.954041,0.291504,-0.068176,0.015137,up
75582,1.632813,5.539062,8.53125,0.126953,0.478516,0.111328,0.954041,0.291504,-0.068176,0.015137,up
75587,1.632813,5.421875,8.570313,0.095703,0.53125,0.136719,0.953979,0.292114,-0.065918,0.016296,up
75592,1.632813,5.347656,8.535156,0.095703,0.53125,0.136719,0.953979,0.292542,-0.06366,0.017639,up
75597,1.710938,4.964844,8.5,0.095703,0.53125,0.136719,0.953979,0.292542,-0.06366,0.017639,up
75602,1.75,4.808594,8.53125,0.021484,0.570312,0.222656,0.954041,0.292603,-0.062317,0.018494,up
75607,1.789063,4.734375,8.609375,0.021484,0.570312,0.222656,0.954102,0.292664,-0.059875,0.020325,up
75612,1.789063,4.734375,8.691406,0.021484,0.570312,0.222656,0.954102,0.292664,-0.059875,0.020325,up
75617,1.824219,4.808594,8.808594,0.050781,0.662109,0.263672,0.954163,0.292664,-0.058594,0.021362,up
75623,1.824219,4.808594,8.957031,0.050781,0.662109,0.263672,0.954224,0.292786,-0.055969,0.023315,up
75628,1.789063,4.808594,8.992188,0.123047,0.769531,0.25,0.954224,0.292786,-0.055969,0.023315,up
75633,1.789063,4.847656,9.035156,0.173828,0.8125,0.232422,0.954224,0.292786,-0.055969,0.023315,up
75638,1.710938,4.925781,9.074219,0.173828,0.8125,0.232422,0.954163,0.293762,-0.050781,0.026733,up
75643,1.671875,5.0,9.113281,0.277344,0.914062,0.193359,0.954163,0.293762,-0.050781,0.026733,up
75648,1.632813,5.0,9.109375,0.328125,0.951172,0.175781,0.954163,0.293762,-0.050781,0.026733,up
75653,1.632813,5.0,9.109375,0.341797,0.986328,0.158203,0.953796,0.295715,-0.044373,0.03009,up
75658,1.597656,5.15625,9.226563,0.341797,0.986328,0.158203,0.953796,0.295715,-0.044373,0.03009,up
75663,1.597656,5.15625,9.226563,0.341797,1.083984,0.125,0.953796,0.295715,-0.044373,0.03009,up
75670,1.558594,5.15625,9.148438,0.341797,1.083984,0.125,0.953308,0.297913,-0.03717,0.033386,up
75676,1.441406,5.15625,9.070313,0.275391,1.162109,0.099609,0.953308,0.297913,-0.03717,0.033386,up
75682,1.441406,5.230469,9.03125,0.244141,1.173828,0.066406,0.953308,0.297913,-0.03717,0.033386,up
75687,1.441406,5.386719,9.074219,0.244141,1.173828,0.066406,0.952942,0.299561,-0.02887,0.036621,up
75692,1.519531,5.460937,9.109375,0.244141,1.173828,0.066406,0.952698,0.300476,-0.023254,0.038513,up
75697,1.558594,5.5,9.191406,0.244141,1.173828,0.066406,0.952698,0.300476,-0.023254,0.038513,up
75702,1.558594,5.578125,9.191406,0.253906,1.28125,-0.046875,0.952698,0.300476,-0.023254,0.038513,up
75707,1.558594,5.804687,9.1875,0.273438,1.34375,-0.080078,0.952515,0.301392,-0.017212,0.040283,up
75712,1.480469,5.882812,9.152344,0.273438,1.34375,-0.080078,0.952332,0.301941,-0.013916,0.041077,up
75718,1.480469,5.882812,9.152344,0.302734,1.414063,-0.105469,0.951965,0.303101,-0.007202,0.042603,up
75723,1.441406,6.035156,8.996094,0.302734,1.414063,-0.105469,0.951965,0.303101,-0.007202,0.042603,up
75728,1.289063,6.34375,8.953125,0.324219,1.515625,-0.136719,0.951782,0.303711,-0.00354,0.043396,up
75733,1.289063,6.34375,8.953125,0.326172,1.554688,-0.126953,0.951538,0.304382,0.000366,0.044189,up
75738,0.832031,6.765625,9.109375,0.326172,1.554688,-0.126953,0.951294,0.304932,0.004211,0.045105,up
75743,0.636719,6.878906,9.1875,0.246094,1.771484,-0.109375,0.951294,0.304932,0.004211,0.045105,up
75749,0.292969,6.992187,9.074219,0.246094,1.771484,-0.109375,0.951294,0.304932,0.004211,0.045105,up
75755,0.027344,6.957031,8.882813,0.138672,1.919922,-0.091797,0.951294,0.304932,0.004211,0.045105,up
75760,-0.164062,6.917969,8.769531,0.083984,1.947266,-0.068359,0.951294,0.304932,0.004211,0.045105,up
75766,-0.359375,6.878906,8.808594,0.083984,1.947266,-0.068359,0.951294,0.304932,0.004211,0.045105,up
75772,-0.394531,6.839844,8.917969,0.099609,1.876953,0.025391,0.951294,0.304932,0.004211,0.045105,up
75777,-0.433594,6.917969,9.035156,0.259766,1.84375,0.121094,0.951294,0.304932,0.004211,0.045105,up
75783,-0.511719,7.109375,9.152344,0.259766,1.84375,0.121094,0.948608,0.307312,0.04834,0.057922,up
75788,-0.625,7.222656,9.152344,0.572266,1.839844,0.185547,0.947937,0.30835,0.05304,0.059753,up
75794,-0.777344,7.53125,9.03125,0.572266,1.839844,0.185547,0.947205,0.30957,0.056946,0.06134,up
75800,-0.855469,7.835937,9.070313,0.572266,1.839844,0.185547,0.946167,0.311401,0.06134,0.063171,up
75806,-0.894531,7.914062,8.992188,1.042969,1.675781,0.261719,0.946167,0.311401,0.06134,0.063171,up
75811,-1.046875,7.988281,8.917969,1.121094,1.632813,0.287109,0.946167,0.311401,0.06134,0.063171,up
75817,-1.390625,8.335938,8.691406,1.117188,1.591797,0.318359,0.946167,0.311401,0.06134,0.063171,up
75822,-1.546875,8.449219,8.535156,1.117188,1.591797,0.318359,0.941528,0.320618,0.076355,0.070007,up
75827,-1.738281,8.566406,8.421875,0.738281,1.402344,0.445312,0.941528,0.320618,0.076355,0.070007,up
75832,-1.8125,8.640625,8.230469,0.738281,1.402344,0.445312,0.939209,0.324829,0.083191,0.073914,up
75837,-2.082031,8.527344,8.0,0.738281,1.402344,0.445312,0.938354,0.326111,0.085999,0.075806,up
75842,-2.082031,8.527344,8.0,0.251953,1.232422,0.501953,0.937683,0.326843,0.088501,0.077759,up
75847,-2.121094,8.449219,7.960937,0.251953,1.232422,0.501953,0.937256,0.327026,0.090942,0.079895,up
75852,-2.195313,8.0625,7.921875,-0.244141,1.046875,0.541016,0.936951,0.32666,0.093018,0.082031,up
75857,-2.195313,8.0625,7.921875,-0.433594,0.953125,0.558594,0.93689,0.325806,0.094788,0.084167,up
75862,-2.082031,7.683594,8.042969,-0.433594,0.953125,0.558594,0.93689,0.325806,0.094788,0.084167,up
75867,-2.042969,7.414062,8.042969,-0.433594,0.953125,0.558594,0.937439,0.321289,0.098755,0.090576,up
75872,-1.890625,6.957031,7.925781,-0.433594,0.953125,0.558594,0.937439,0.321289,0.098755,0.090576,up
75877,-1.851563,6.726562,7.847656,-0.828125,0.529297,0.507812,0.937744,0.319641,0.099548,0.092285,up
75882,-1.699219,6.535156,7.882812,-0.828125,0.529297,0.507812,0.938171,0.317627,0.100342,0.094177,up
75888,-1.546875,6.113281,7.84375,-0.900391,0.429687,0.445312,0.938599,0.315674,0.100891,0.095886,up
75893,-1.546875,6.113281,7.84375,-0.9375,0.382813,0.40625,0.939514,0.311646,0.101746,0.098877,up
75898,-1.429688,5.730469,7.765625,-0.978516,0.332031,0.373047,0.939514,0.311646,0.101746,0.098877,up
75903,-1.351563,5.578125,7.695312,-0.978516,0.332031,0.373047,0.940735,0.306946,0.102234,0.101624,up
75909,-1.160156,5.117187,7.621094,-0.978516,0.332031,0.373047,0.941345,0.304688,0.102295,0.102722,up
75914,-1.085938,5.039062,7.582031,-1.160156,0.224609,0.265625,0.942078,0.302063,0.102356,0.103821,up
75919,-1.085938,4.964844,7.578125,-1.230469,0.201172,0.240234,0.942078,0.302063,0.102356,0.103821,up
75925,-1.085938,4.734375,7.464844,-1.275391,0.166016,0.212891,0.942078,0.302063,0.102356,0.103821,up
75931,-1.085938,4.617187,7.464844,-1.330078,0.146484,0.191406,0.942078,0.302063,0.102356,0.103821,up
75937,-1.125,4.390625,7.464844,-1.345703,0.128906,0.171875,0.945435,0.290222,0.101929,0.107361,up
75943,-1.085938,4.234375,7.464844,-1.347656,0.09375,0.150391,0.945435,0.290222,0.101929,0.107361,up
75949,-1.046875,4.351562,7.304687,-1.347656,0.09375,0.150391,0.94812,0.280884,0.101074,0.109375,up
75954,-1.046875,4.351562,7.304687,-1.277344,-0.009766,0.048828,0.949036,0.277771,0.100708,0.109863,up
75959,-0.933594,4.3125,7.234375,-1.277344,-0.009766,0.048828,0.94989,0.274841,0.100281,0.110107,up
75965,-0.933594,4.121094,7.15625,-1.277344,-0.009766,0.048828,0.950806,0.27179,0.099731,0.110229,up
75971,-0.894531,4.082031,7.078125,-1.404297,-0.160156,-0.134766,0.950806,0.27179,0.099731,0.110229,up
75976,-0.894531,4.042969,7.078125,-1.484375,-0.201172,-0.1875,0.950806,0.27179,0.099731,0.110229,up
75982,-0.855469,3.851563,7.003906,-1.574219,-0.236328,-0.244141,0.950806,0.27179,0.099731,0.110229,up
75987,-0.855469,3.777344,6.964844,-1.802734,-0.283203,-0.351563,0.950806,0.27179,0.099731,0.110229,up
75993,-0.816406,3.660156,6.921875,-1.802734,-0.283203,-0.351563,0.957764,0.249023,0.094727,0.10791,up
75998,-0.777344,3.546875,7.003906,-1.802734,-0.283203,-0.351563,0.957764,0.249023,0.094727,0.10791,up
76003,-0.742187,3.394531,7.039062,-1.802734,-0.283203,-0.351563,0.957764,0.249023,0.094727,0.10791,up
76008,-0.664062,3.277344,6.855469,-2.023438,-0.328125,-0.427734,0.960632,0.239319,0.09259,0.106323,up
76013,-0.664062,3.277344,6.855469,-2.023438,-0.328125,-0.427734,0.962097,0.234253,0.091492,0.105408,up
76019,-0.703125,3.085938,6.816406,-2.191406,-0.337891,-0.548828,0.965088,0.223572,0.089294,0.103333,up
76024,-0.703125,3.125,6.734375,-2.191406,-0.337891,-0.548828,0.966553,0.218079,0.088257,0.102112,up
76029,-0.664062,3.164063,6.617187,-2.179688,-0.283203,-0.669922,0.966553,0.218079,0.088257,0.102112,up
76034,-0.703125,3.046875,6.660156,-2.179688,-0.283203,-0.669922,0.969299,0.207581,0.086487,0.099426,up
76040,-0.894531,3.007813,6.734375,-2.179688,-0.283203,-0.669922,0.970703,0.202087,0.085693,0.097839,up
76045,-1.046875,3.085938,6.695312,-2.175781,-0.228516,-0.835937,0.970703,0.202087,0.085693,0.097839,up
76050,-1.085938,3.085938,6.734375,-2.193359,-0.201172,-0.898437,0.970703,0.202087,0.085693,0.097839,up
76055,-1.046875,2.933594,6.8125,-2.244141,-0.201172,-0.96875,0.974609,0.185791,0.083801,0.092407,up
76061,-1.085938,2.855469,6.894531,-2.316406,-0.197266,-1.029297,0.974609,0.185791,0.083801,0.092407,up
76066,-1.085938,2.742188,6.925781,-2.398438,-0.195312,-1.083984,0.974609,0.185791,0.083801,0.092407,up
76072,-1.085938,2.972656,7.042969,-2.470703,-0.199219,-1.132813,0.974609,0.185791,0.083801,0.092407,up
76078,-1.085938,3.007813,7.199219,-2.572266,-0.236328,-1.216797,0.974609,0.185791,0.083801,0.092407,up
76083,-1.046875,2.933594,7.195312,-2.572266,-0.236328,-1.216797,0.982605,0.148254,0.080261,0.078003,up
76088,-1.085938,2.933594,7.273437,-2.572266,-0.236328,-1.216797,0.983765,0.142151,0.079651,0.0755,up
76094,-1.125,2.855469,7.421875,-2.724609,-0.283203,-1.275391,0.985046,0.134827,0.078857,0.072632,up
76099,-1.125,2.78125,7.34375,-2.724609,-0.283203,-1.275391,0.985046,0.134827,0.078857,0.072632,up
76104,-1.125,2.78125,7.34375,-2.8125,-0.306641,-1.300781,0.987305,0.121277,0.077271,0.067261,up
76109,-0.96875,2.703125,7.34375,-2.8125,-0.306641,-1.300781,0.987305,0.121277,0.077271,0.067261,up
76114,-0.96875,2.703125,7.34375,-2.8125,-0.306641,-1.300781,0.987305,0.121277,0.077271,0.067261,up
76120,-0.777344,2.207031,7.464844,-2.941406,-0.351563,-1.34375,0.99054,0.09906,0.074524,0.058716,up
76125,-0.625,2.050781,7.382812,-2.941406,-0.351563,-1.34375,0.991577,0.091064,0.073364,0.055603,up
76132,-0.585937,1.9375,7.304687,-3.21875,-0.427734,-1.457031,0.991577,0.091064,0.073364,0.055603,up
76137,-0.550781,1.628906,7.347656,-3.294922,-0.445312,-1.507813,0.993469,0.074585,0.070984,0.049255,up
76142,-0.433594,1.402344,7.582031,-3.359375,-0.460937,-1.568359,0.993469,0.074585,0.070984,0.049255,up
76147,-0.433594,1.285156,7.660156,-3.359375,-0.460937,-1.568359,0.995056,0.057739,0.068481,0.04248,up
76153,-0.472656,1.246094,7.699219,-3.482422,-0.488281,-1.679688,0.995056,0.057739,0.068481,0.04248,up
76158,-0.472656,1.132813,7.699219,-3.607422,-0.517578,-1.828125,0.995056,0.057739,0.068481,0.04248,up
76163,-0.472656,0.941406,7.765625,-3.607422,-0.517578,-1.828125,0.997498,0.020386,0.062744,0.02655,up
76168,-0.511719,0.941406,7.730469,-3.607422,-0.517578,-1.828125,0.997498,0.020386,0.062744,0.02655,up
76173,-0.550781,0.941406,7.808594,-3.708984,-0.474609,-2.035156,0.997498,0.020386,0.062744,0.02655,up
76178,-0.742187,0.902344,8.152344,-3.708984,-0.474609,-2.035156,0.998047,0.001709,0.060059,0.017883,up
76183,-0.664062,0.597656,7.84375,-3.746094,-0.451172,-2.089844,0.998169,-0.007019,0.058838,0.013611,up
76188,-0.664062,0.597656,7.84375,-3.746094,-0.451172,-2.089844,0.998169,-0.007019,0.058838,0.013611,up
76193,-0.511719,0.597656,7.160156,-3.904297,-0.273438,-2.220703,0.998169,-0.007019,0.058838,0.013611,up
76198,-0.511719,0.597656,7.160156,-3.917969,-0.212891,-2.269531,0.997742,-0.036804,0.055847,-0.001099,up
76203,-0.816406,0.710937,8.109375,-3.917969,-0.212891,-2.269531,0.997375,-0.046814,0.055237,-0.006165,up
76208,-0.777344,0.597656,8.109375,-3.917969,-0.212891,-2.269531,0.996765,-0.057251,0.054749,-0.011597,up
76214,-0.742187,0.40625,8.152344,-3.917969,-0.212891,-2.269531,0.995239,-0.077698,0.054443,-0.022461,up
76219,-0.742187,0.136719,8.148438,-3.947266,0.253906,-2.417969,0.994263,-0.087708,0.054687,-0.027954,up
76225,-0.855469,-0.324219,8.113281,-3.947266,0.253906,-2.417969,0.993103,-0.097656,0.055237,-0.033447,up
76230,-0.96875,-0.589844,8.269531,-3.876953,0.548828,-2.408203,0.993103,-0.097656,0.055237,-0.033447,up
76235,-1.160156,-1.242188,8.421875,-3.876953,0.548828,-2.408203,0.990417,-0.117432,0.057495,-0.044678,up
76242,-1.277344,-1.320313,8.425781,-3.642578,0.957031,-2.371094,0.990417,-0.117432,0.057495,-0.044678,up
76248,-1.429688,-1.394531,8.535156,-3.322266,1.384766,-2.230469,0.990417,-0.117432,0.057495,-0.044678,up
76253,-1.582031,-1.511719,8.917969,-3.322266,1.384766,-2.230469,0.985535,-0.144409,0.064453,-0.061401,up
76258,-1.582031,-1.511719,8.917969,-3.103516,1.542969,-2.123047,0.983765,-0.152344,0.067749,-0.066711,up
76263,-1.699219,-1.703125,9.296875,-3.103516,1.542969,-2.123047,0.981873,-0.159912,0.071472,-0.072083,up
76268,-1.964844,-2.316406,9.535156,-2.664063,1.785156,-1.914063,0.980103,-0.166687,0.075378,-0.077026,up
76273,-1.964844,-2.316406,9.535156,-2.664063,1.785156,-1.914063,0.980103,-0.166687,0.075378,-0.077026,up
76278,-2.15625,-2.238281,9.839844,-2.40625,1.896484,-1.818359,0.976501,-0.178467,0.084106,-0.08667,up
76284,-2.273438,-2.277344,9.957031,-1.90625,2.003906,-1.626953,0.973145,-0.187622,0.093262,-0.095642,up
76290,-2.578125,-2.160156,10.140625,-1.90625,2.003906,-1.626953,0.971558,-0.191162,0.097839,-0.099854,up
76295,-2.617188,-2.199219,10.183594,-1.179688,2.033203,-1.392578,0.970093,-0.194092,0.102417,-0.103943,up
76300,-2.769531,-2.316406,10.101563,-1.039063,2.037109,-1.310547,0.970093,-0.194092,0.102417,-0.103943,up
76305,-2.886719,-2.199219,9.917969,-1.039063,2.037109,-1.310547,0.967163,-0.198853,0.111816,-0.112,up
76310,-3.152344,-1.703125,10.035156,-1.039063,2.037109,-1.310547,0.967163,-0.198853,0.111816,-0.112,up
76315,-3.152344,-1.703125,10.035156,-0.767578,2.037109,-1.089844,0.964539,-0.202271,0.120911,-0.119141,up
76320,-3.152344,-1.703125,10.035156,-0.695312,2.015625,-0.994141,0.963196,-0.203674,0.125427,-0.122375,up
76325,-3.34375,-1.433594,10.179688,-0.695312,2.015625,-0.994141,0.963196,-0.203674,0.125427,-0.122375,up
76330,-3.882813,-1.433594,10.105469,-0.697266,2.009766,-0.886719,0.963196,-0.203674,0.125427,-0.122375,up
76335,-3.882813,-1.433594,10.105469,-0.824219,1.972656,-0.621094,0.959351,-0.207886,0.139343,-0.130676,up
76340,-4.496094,-1.625,10.417969,-0.824219,1.972656,-0.621094,0.959351,-0.207886,0.139343,-0.130676,up
76345,-4.914062,-2.160156,10.71875,-0.824219,1.972656,-0.621094,0.959351,-0.207886,0.139343,-0.130676,up
76351,-5.03125,-2.390625,10.796875,-1.037109,1.853516,-0.203125,0.959351,-0.207886,0.139343,-0.130676,up
76356,-5.144531,-2.429688,10.839844,-1.003906,1.792969,-0.070312,0.959351,-0.207886,0.139343,-0.130676,up
76361,-5.453125,-2.851563,10.988281,-1.003906,1.792969,-0.070312,0.959351,-0.207886,0.139343,-0.130676,up
76367,-5.644531,-3.195313,11.144531,-1.003906,1.792969,-0.070312,0.951538,-0.218323,0.167175,-0.137451,up
76373,-5.71875,-3.3125,11.183594,-0.8125,1.652344,0.191406,0.951538,-0.218323,0.167175,-0.137451,up
76378,-5.949219,-3.082031,11.140625,-0.708984,1.611328,0.228516,0.951538,-0.218323,0.167175,-0.137451,up
76383,-6.140625,-3.042969,11.105469,-0.708984,1.611328,0.228516,0.948486,-0.221619,0.17981,-0.137756,up
76388,-6.296875,-3.042969,11.066406,-0.244141,1.470703,0.287109,0.948486,-0.221619,0.17981,-0.137756,up
76393,-6.410156,-3.082031,10.945313,-0.244141,1.470703,0.287109,0.946777,-0.222168,0.187988,-0.137756,up
76399,-6.5625,-2.890625,10.878906,-0.244141,1.470703,0.287109,0.945496,-0.221497,0.195007,-0.137756,up
76404,-6.679687,-2.621094,10.839844,-0.052734,1.337891,0.365234,0.944885,-0.220886,0.19873,-0.137634,up
76410,-6.714844,-2.429688,10.605469,-0.130859,1.310547,0.408203,0.944275,-0.220398,0.202332,-0.13739,up
76415,-6.90625,-1.933594,10.640625,-0.130859,1.310547,0.408203,0.944275,-0.220398,0.202332,-0.13739,up
76420,-6.792969,-2.125,10.414063,-0.273438,1.277344,0.457031,0.943726,-0.220215,0.205139,-0.137085,up
76425,-6.792969,-2.125,10.414063,-0.273438,1.277344,0.457031,0.943054,-0.220398,0.208618,-0.136414,up
76431,-6.945312,-2.542969,10.414063,-0.691406,1.265625,0.59375,0.942261,-0.221008,0.212036,-0.135498,up
76436,-6.832031,-2.929688,10.222656,-1.044922,1.259766,0.779297,0.940369,-0.223572,0.21936,-0.13269,up
76441,-6.945312,-3.539063,10.070313,-1.044922,1.259766,0.779297,0.940369,-0.223572,0.21936,-0.13269,up
76447,-6.984375,-3.886719,10.105469,-1.208984,1.304688,1.013672,0.940369,-0.223572,0.21936,-0.13269,up
76452,-6.90625,-4.460937,9.800781,-1.208984,1.304688,1.013672,0.940369,-0.223572,0.21936,-0.13269,up
76457,-7.023437,-4.34375,9.453125,-1.208984,1.304688,1.013672,0.936157,-0.230042,0.235291,-0.123596,up
76462,-7.136719,-4.5,9.6875,-0.759766,1.330078,1.408203,0.936157,-0.230042,0.235291,-0.123596,up
76467,-7.0625,-4.5,9.878906,-0.759766,1.330078,1.408203,0.934631,-0.230957,0.24353,-0.117737,up
76472,-7.367187,-4.5,9.71875,-0.09375,1.242188,1.658203,0.934631,-0.230957,0.24353,-0.117737,up
76477,-7.519531,-4.382812,9.800781,0.271484,1.183594,1.794922,0.934631,-0.230957,0.24353,-0.117737,up
76482,-7.484375,-4.191406,9.917969,0.662109,1.054688,1.914063,0.934631,-0.230957,0.24353,-0.117737,up
76487,-7.675781,-4.078125,9.914063,0.662109,1.054688,1.914063,0.934326,-0.222412,0.258057,-0.104431,up
76493,-7.675781,-4.039062,9.800781,1.333984,0.822266,2.115234,0.934326,-0.222412,0.258057,-0.104431,up
76498,-7.558594,-3.960938,9.953125,1.699219,0.712891,2.267578,0.934326,-0.222412,0.258057,-0.104431,up
76503,-7.710937,-4.0,9.875,1.699219,0.712891,2.267578,0.936707,-0.207458,0.266174,-0.093445,up
76508,-7.828125,-4.078125,9.835938,1.699219,0.712891,2.267578,0.937683,-0.201416,0.268738,-0.089478,up
76514,-8.058594,-3.617188,9.796875,1.814453,0.78125,2.410156,0.937683,-0.201416,0.268738,-0.089478,up
76519,-8.058594,-3.617188,9.796875,1.876953,0.808594,2.542969,0.939453,-0.189087,0.274048,-0.08136,up
76524,-8.707031,-2.351563,9.691406,1.849609,0.847656,2.683594,0.940186,-0.182983,0.276733,-0.077087,up
76529,-8.707031,-2.351563,9.691406,1.724609,0.878906,2.826172,0.940918,-0.176758,0.279602,-0.072327,up
76534,-8.824219,-2.890625,9.53125,1.724609,0.878906,2.826172,0.941528,-0.170593,0.282776,-0.066895,up
76539,-8.824219,-2.890625,9.53125,1.318359,0.916016,3.099609,0.942261,-0.159607,0.289124,-0.055176,up
76544,-8.863281,-3.730469,9.53125,1.318359,0.916016,3.099609,0.942505,-0.154114,0.292542,-0.048645,up
76549,-8.824219,-3.425781,9.335938,1.351563,0.923828,3.378906,0.942505,-0.154114,0.292542,-0.048645,up
76554,-8.746094,-3.003906,9.230469,1.351563,0.923828,3.378906,0.942688,-0.147888,0.296143,-0.041504,up
76559,-8.59375,-2.316406,9.226563,1.441406,0.908203,3.455078,0.942688,-0.147888,0.296143,-0.041504,up
76564,-8.402344,-2.199219,9.1875,1.480469,0.820312,3.644531,0.942993,-0.136047,0.30249,-0.028503,up
76569,-8.402344,-2.238281,9.074219,1.480469,0.820312,3.644531,0.943054,-0.122803,0.308838,-0.01355,up
76574,-8.402344,-2.390625,9.035156,1.480469,0.820312,3.644531,0.942993,-0.117249,0.311279,-0.006836,up
76579,-8.480469,-2.199219,8.914063,1.480469,0.820312,3.644531,0.942993,-0.117249,0.311279,-0.006836,up
76584,-8.480469,-2.199219,8.914063,1.480469,0.820312,3.644531,0.942993,-0.117249,0.311279,-0.006836,up
76589,-8.515625,-1.933594,8.996094,1.257813,0.613281,3.941406,0.942993,-0.117249,0.311279,-0.006836,up
76594,-8.515625,-1.933594,8.996094,1.205078,0.410156,4.082031,0.942566,-0.098877,0.318542,0.017822,up
76600,-8.902344,-1.816406,8.613281,1.205078,0.410156,4.082031,0.942322,-0.092773,0.320435,0.026306,up
76606,-9.125,-1.433594,8.113281,1.205078,0.410156,4.082031,0.941772,-0.080505,0.323486,0.044373,up
76612,-9.207031,-1.320313,8.039063,0.998047,0.056641,4.447266,0.941772,-0.080505,0.323486,0.044373,up
76617,-9.167969,-0.9375,7.730469,0.998047,0.056641,4.447266,0.940857,-0.068298,0.325806,0.063599,up
76622,-9.203125,-0.746094,7.65625,0.900391,-0.001953,4.664062,0.940857,-0.068298,0.325806,0.063599,up
76627,-9.089844,-0.554687,7.617187,0.880859,-0.003906,4.783203,0.940857,-0.068298,0.325806,0.063599,up
76632,-9.015625,-0.324219,7.464844,0.861328,-0.007813,4.902344,0.940857,-0.068298,0.325806,0.063599,up
76638,-8.980469,0.023437,7.308594,0.861328,-0.007813,4.902344,0.937317,-0.043945,0.329285,0.105164,up
76643,-8.824219,0.289063,7.234375,0.761719,0.070312,5.117187,0.935974,-0.037659,0.330139,0.116577,up
76648,-8.824219,0.289063,7.234375,0.814453,0.146484,5.207031,0.934387,-0.031555,0.331055,0.127747,up
76653,-8.480469,0.75,7.117187,0.814453,0.146484,5.207031,0.934387,-0.031555,0.331055,0.127747,up
76658,-8.480469,0.75,7.117187,0.470703,0.230469,5.402344,0.930481,-0.019836,0.333008,0.151489,up
76664,-9.085938,0.902344,7.15625,0.470703,0.230469,5.402344,0.930481,-0.019836,0.333008,0.151489,up
76669,-9.203125,1.054688,7.195312,0.615234,0.326172,5.564453,0.922791,-0.001892,0.336304,0.18811,up
76674,-9.28125,1.246094,7.15625,0.615234,0.326172,5.564453,0.922791,-0.001892,0.336304,0.18811,up
76679,-9.28125,1.246094,7.15625,0.505859,0.34375,5.707031,0.919556,0.004517,0.337402,0.201477,up
76684,-9.472656,1.859375,7.117187,0.390625,0.333984,5.787109,0.916565,0.009949,0.338257,0.213074,up
76689,-9.472656,1.859375,7.117187,0.320313,0.298828,5.869141,0.913025,0.015808,0.338989,0.226257,up
76695,-9.664063,2.015625,7.082031,0.320313,0.298828,5.869141,0.909424,0.021362,0.339539,0.239258,up
76700,-9.664063,2.015625,7.082031,0.082031,0.212891,6.0,0.901428,0.031677,0.339783,0.266479,up
76705,-9.863281,2.320313,7.003906,-0.138672,0.113281,6.074219,0.897217,0.036621,0.339539,0.279907,up
76711,-9.820313,2.894531,6.699219,-0.138672,0.113281,6.074219,0.892761,0.041565,0.338989,0.293945,up
76716,-9.859375,3.007813,6.507812,-0.283203,0.021484,6.103516,0.888245,0.046265,0.338196,0.307434,up
76722,-9.890625,3.394531,6.199219,-0.361328,-0.007813,6.125,0.888245,0.046265,0.338196,0.307434,up
76727,-9.820313,3.546875,6.160156,-0.445312,-0.041016,6.123047,0.888245,0.046265,0.338196,0.307434,up
76732,-9.703125,3.621094,6.160156,-0.535156,-0.058594,6.117187,0.888245,0.046265,0.338196,0.307434,up
76737,-9.703125,3.621094,6.160156,-0.617187,-0.09375,6.101562,0.868347,0.063477,0.333008,0.362061,up
76742,-9.472656,3.890625,5.96875,-0.617187,-0.09375,6.101562,0.868347,0.063477,0.333008,0.362061,up
76748,-9.4375,3.929688,5.96875,-0.693359,-0.128906,6.078125,0.8573,0.070984,0.329041,0.389465,up
76753,-9.4375,3.929688,5.96875,-0.693359,-0.128906,6.078125,0.8573,0.070984,0.329041,0.389465,up
76758,-9.207031,4.003906,5.816406,-0.863281,-0.308594,5.955078,0.8573,0.070984,0.329041,0.389465,up
76764,-9.054688,4.003906,5.625,-0.917969,-0.390625,5.916016,0.834351,0.0849,0.317932,0.442261,up
76769,-8.941406,4.121094,5.625,-0.917969,-0.390625,5.916016,0.834351,0.0849,0.317932,0.442261,up
76774,-8.820313,3.96875,5.472656,-1.056641,-0.519531,5.816406,0.834351,0.0849,0.317932,0.442261,up
76779,-8.820313,3.96875,5.472656,-1.111328,-0.601562,5.78125,0.834351,0.0849,0.317932,0.442261,up
76784,-8.820313,3.96875,5.472656,-1.111328,-0.601562,5.78125,0.816528,0.094299,0.306702,0.47998,up
76789,-8.820313,3.96875,5.472656,-1.353516,-0.837891,5.755859,0.810425,0.097107,0.302368,0.49231,up
76794,-8.707031,3.46875,5.472656,-1.353516,-0.837891,5.755859,0.810425,0.097107,0.302368,0.49231,up
76799,-8.320313,3.085938,5.546875,-1.421875,-0.888672,5.767578,0.797852,0.1026,0.292664,0.516968,up
76805,-8.175781,2.855469,5.625,-1.464844,-0.921875,5.806641,0.783936,0.108154,0.281372,0.542725,up
76811,-8.015625,2.472656,5.855469,-1.464844,-0.921875,5.806641,0.777954,0.110596,0.276428,0.553284,up
76816,-7.980469,2.242188,5.929687,-1.464844,-0.921875,5.806641,0.770996,0.113281,0.270813,0.565186,up
76821,-7.980469,2.242188,5.929687,-1.503906,-1.029297,5.996094,0.763489,0.11615,0.264832,0.577454,up
76826,-7.941406,2.167969,6.007812,-1.503906,-1.029297,5.996094,0.763489,0.11615,0.264832,0.577454,up
76831,-7.871094,2.050781,6.316406,-1.5,-1.042969,6.064453,0.756042,0.118958,0.258911,0.589233,up
76836,-7.871094,2.050781,6.316406,-1.527344,-1.099609,6.201172,0.756042,0.118958,0.258911,0.589233,up
76841,-7.9375,1.785156,6.429687,-1.527344,-1.099609,6.201172,0.731628,0.127441,0.240234,0.625183,up
76847,-7.792969,1.628906,6.582031,-1.333984,-1.185547,6.316406,0.731628,0.127441,0.240234,0.625183,up
76853,-7.714844,1.402344,6.46875,-1.277344,-1.238281,6.376953,0.731628,0.127441,0.240234,0.625183,up
76858,-7.714844,1.402344,6.46875,-1.189453,-1.261719,6.408203,0.704773,0.137695,0.220947,0.659912,up
76863,-7.710937,1.019531,6.390625,-1.189453,-1.261719,6.408203,0.694946,0.141418,0.214355,0.671631,up
76868,-7.253906,0.75,6.621094,-1.025391,-1.394531,6.445312,0.685425,0.145386,0.207947,0.682495,up
76873,-7.253906,0.75,6.621094,-1.025391,-1.394531,6.445312,0.685425,0.145386,0.207947,0.682495,up
76878,-6.714844,0.828125,6.964844,-0.857422,-1.458984,6.447266,0.665222,0.154358,0.195129,0.703979,up
76884,-6.140625,0.902344,7.308594,-0.111328,-1.736328,6.443359,0.665222,0.154358,0.195129,0.703979,up
76889,-5.644531,1.09375,7.621094,-0.111328,-1.736328,6.443359,0.644653,0.165283,0.183289,0.723511,up
76894,-5.261719,1.285156,7.617187,0.140625,-1.869141,6.449219,0.644653,0.165283,0.183289,0.723511,up
76899,-5.261719,1.285156,7.617187,0.410156,-1.998047,6.5,0.62262,0.178772,0.172058,0.742126,up
76904,-4.878906,2.015625,7.660156,0.583984,-2.15625,6.583984,0.62262,0.178772,0.172058,0.742126,up
76909,-4.878906,2.015625,7.660156,0.728516,-2.314453,6.691406,0.599792,0.194275,0.161499,0.759216,up
76914,-4.609375,1.667969,7.421875,0.728516,-2.314453,6.691406,0.587341,0.203003,0.155884,0.767822,up
76919,-4.609375,1.667969,7.421875,0.871094,-2.423828,6.904297,0.574707,0.211365,0.150574,0.776123,up
76924,-3.039063,0.902344,6.816406,0.871094,-2.423828,6.904297,0.561462,0.220703,0.144836,0.784241,up
76930,-2.925781,0.789062,6.855469,1.515625,-3.087891,7.105469,0.561462,0.220703,0.144836,0.784241,up
76935,-2.65625,0.289063,6.960937,1.515625,-3.087891,7.105469,0.520752,0.251526,0.128479,0.805664,up
76940,-1.964844,-0.746094,7.347656,1.515625,-3.087891,7.105469,0.520752,0.251526,0.128479,0.805664,up
76945,-1.964844,-0.746094,7.347656,1.802734,-3.345703,7.083984,0.520752,0.251526,0.128479,0.805664,up
76950,-1.546875,-0.972656,7.578125,2.042969,-3.466797,7.103516,0.520752,0.251526,0.128479,0.805664,up
76955,-1.546875,-0.972656,7.578125,2.664063,-3.603516,7.025391,0.460999,0.298828,0.108948,0.82843,up
76960,-1.238281,-0.285156,6.964844,2.664063,-3.603516,7.025391,0.445679,0.31134,0.105164,0.832703,up
76965,-1.007813,-0.476562,6.695312,2.957031,-3.8125,6.900391,0.445679,0.31134,0.105164,0.832703,up
76970,-0.703125,-0.667969,6.507812,2.957031,-3.8125,6.900391,0.412964,0.33844,0.097595,0.839905,up
76976,0.101563,-0.898437,6.65625,2.957031,-3.8125,6.900391,0.412964,0.33844,0.097595,0.839905,up
76981,0.101563,-0.898437,6.65625,3.220703,-4.080078,6.640625,0.398621,0.350647,0.094543,0.842163,up
76986,0.410156,-1.320313,6.738281,3.220703,-4.080078,6.640625,0.382629,0.364563,0.091553,0.843994,up
76992,0.410156,-1.320313,6.738281,3.564453,-4.0625,6.089844,0.3526,0.390747,0.087524,0.845764,up
76997,1.671875,-2.390625,6.507812,3.564453,-4.0625,6.089844,0.3526,0.390747,0.087524,0.845764,up
77003,2.324219,0.058594,6.238281,3.804688,-3.912109,5.496094,0.323303,0.416443,0.085815,0.845398,up
77008,2.4375,0.632812,6.046875,4.330078,-3.769531,5.076172,0.323303,0.416443,0.085815,0.845398,up
77013,2.515625,0.25,5.894531,4.330078,-3.769531,5.076172,0.293823,0.441833,0.087219,0.84314,up
77018,2.476563,-0.4375,5.667969,4.330078,-3.769531,5.076172,0.293823,0.441833,0.087219,0.84314,up
77023,2.898438,-0.972656,5.28125,4.310547,-3.363281,4.498047,0.293823,0.441833,0.087219,0.84314,up
77028,2.898438,-0.972656,5.28125,3.775391,-3.029297,4.117187,0.254822,0.473816,0.091248,0.838013,up
77033,4.125,-0.820312,4.625,3.775391,-3.029297,4.117187,0.254822,0.473816,0.091248,0.838013,up
77038,4.125,-0.820312,4.625,3.419922,-2.923828,3.974609,0.231384,0.492187,0.092346,0.834106,up
77043,4.511719,0.75,3.710938,3.419922,-2.923828,3.974609,0.22113,0.500366,0.092285,0.832031,up
77049,4.660156,0.480469,4.285156,2.501953,-2.669922,3.160156,0.203003,0.515747,0.091614,0.827271,up
77054,4.851562,0.789062,4.398437,2.501953,-2.669922,3.160156,0.203003,0.515747,0.091614,0.827271,up
77059,5.15625,1.019531,4.4375,2.009766,-2.367188,2.640625,0.203003,0.515747,0.091614,0.827271,up
77065,6.121094,1.171875,4.972656,1.71875,-2.244141,2.421875,0.203003,0.515747,0.091614,0.827271,up
77070,6.613281,1.171875,5.28125,1.021484,-2.191406,2.001953,0.181946,0.534912,0.089417,0.820251,up
77075,7.109375,1.210938,5.394531,1.021484,-2.191406,2.001953,0.17627,0.540833,0.087891,0.817749,up
77080,7.109375,1.210938,5.394531,0.703125,-2.140625,1.779297,0.172241,0.545654,0.086243,0.815552,up
77085,7.648437,1.285156,5.433594,0.417969,-2.130859,1.550781,0.172241,0.545654,0.086243,0.815552,up
77090,7.648437,1.285156,5.433594,0.146484,-2.146484,1.320313,0.165771,0.555542,0.081726,0.810669,up
77095,8.917969,0.863281,5.433594,0.146484,-2.146484,1.320313,0.163879,0.560059,0.079224,0.808228,up
77100,8.605469,1.019531,5.777344,-0.333984,-2.013672,0.898437,0.162537,0.564453,0.076416,0.805664,up
77105,8.535156,0.902344,5.96875,-0.541016,-1.998047,0.810547,0.161682,0.572388,0.070312,0.800781,up
77110,8.339844,0.558594,5.96875,-0.925781,-2.080078,0.691406,0.161682,0.572388,0.070312,0.800781,up
77115,8.257813,-0.015625,5.625,-0.925781,-2.080078,0.691406,0.162354,0.580322,0.062805,0.795593,up
77120,7.6875,-0.476562,4.628906,-0.925781,-2.080078,0.691406,0.162354,0.580322,0.062805,0.795593,up
77125,7.652344,-0.589844,4.132812,-1.423828,-2.007813,0.671875,0.164551,0.587463,0.053406,0.790527,up
77130,7.726562,-0.589844,3.632813,-1.423828,-2.007813,0.671875,0.164551,0.587463,0.053406,0.790527,up
77135,7.992187,-0.78125,3.328125,-2.123047,-2.050781,0.761719,0.164551,0.587463,0.053406,0.790527,up
77140,8.492188,-1.011719,3.058594,-2.123047,-2.050781,0.761719,0.169739,0.597351,0.035706,0.78302,up
77145,8.875,-0.859375,3.097656,-2.123047,-2.050781,0.761719,0.169739,0.597351,0.035706,0.78302,up
77150,9.144531,-0.628906,2.867188,-1.203125,-1.931641,0.632812,0.169739,0.597351,0.035706,0.78302,up
77155,9.367188,-0.167969,2.597656,-1.203125,-1.931641,0.632812,0.172791,0.607178,0.021912,0.775208,up
77160,9.527344,0.75,2.023438,-1.203125,-1.931641,0.632812,0.172791,0.607178,0.021912,0.775208,up
77165,9.527344,0.75,2.023438,-0.224609,-1.501953,0.484375,0.172546,0.610229,0.01947,0.772949,up
77170,9.640625,1.09375,1.792969,-0.224609,-1.501953,0.484375,0.171753,0.612976,0.018311,0.770996,up
77175,9.984375,2.128906,2.253906,0.703125,-1.179688,0.242187,0.170471,0.615601,0.01825,0.769165,up
77180,9.984375,2.128906,2.253906,0.990234,-0.951172,0.103516,0.168823,0.618103,0.019226,0.767517,up
77186,9.789063,2.703125,2.558594,1.166016,-0.693359,-0.021484,0.165466,0.621704,0.023071,0.765259,up
77192,9.179688,3.085938,2.523438,1.166016,-0.693359,-0.021484,0.164001,0.622864,0.025574,0.764465,up
77197,8.914063,3.085938,2.332031,1.166016,-0.693359,-0.021484,0.163147,0.623718,0.02771,0.763977,up
77203,8.800781,2.972656,2.40625,0.339844,-0.173828,-0.443359,0.163147,0.623718,0.02771,0.763977,up
77208,8.761719,2.933594,2.558594,-0.181641,-0.203125,-0.523437,0.163147,0.623718,0.02771,0.763977,up
77214,8.601563,2.472656,2.828125,-0.181641,-0.203125,-0.523437,0.163147,0.623718,0.02771,0.763977,up
77220,8.761719,2.207031,2.753906,-1.619141,-0.353516,-0.667969,0.163147,0.623718,0.02771,0.763977,up
77225,8.988281,1.785156,2.675781,-1.619141,-0.353516,-0.667969,0.171814,0.624817,0.027344,0.761108,up
77230,8.988281,1.785156,2.675781,-1.921875,-0.394531,-0.708984,0.176025,0.624756,0.024902,0.760315,up
77235,8.953125,1.785156,2.675781,-1.921875,-0.394531,-0.708984,0.179871,0.624634,0.022522,0.759583,up
77240,8.988281,1.898438,2.714844,-1.835938,-0.400391,-0.728516,0.188599,0.62439,0.017517,0.757812,up
77245,9.023438,2.089844,2.753906,-1.835938,-0.400391,-0.728516,0.188599,0.62439,0.017517,0.757812,up
77250,9.0625,2.28125,2.714844,-0.734375,-0.392578,-0.779297,0.191956,0.624451,0.015991,0.756958,up
77255,8.878906,2.511719,2.714844,-0.734375,-0.392578,-0.779297,0.194946,0.624695,0.015198,0.755981,up
77261,8.722656,3.007813,2.828125,-0.248047,-0.398438,-0.816406,0.194946,0.624695,0.015198,0.755981,up
77267,8.839844,3.46875,2.789063,-0.248047,-0.398438,-0.816406,0.199524,0.626709,0.018433,0.753052,up
77273,8.875,3.660156,2.714844,0.875,-0.378906,-0.917969,0.199524,0.626709,0.018433,0.753052,up
77278,8.953125,3.8125,2.597656,1.0,-0.351563,-0.943359,0.199524,0.626709,0.018433,0.753052,up
77283,9.105469,4.042969,2.523438,1.019531,-0.328125,-0.966797,0.200378,0.629944,0.027649,0.749817,up
77288,9.066406,4.121094,2.523438,0.916016,-0.3125,-0.972656,0.200378,0.629944,0.027649,0.749817,up
77293,9.105469,4.160156,2.484375,0.716797,-0.304688,-0.992187,0.200378,0.629944,0.027649,0.749817,up
77298,9.066406,4.160156,2.40625,0.457031,-0.310547,-0.974609,0.200378,0.629944,0.027649,0.749817,up
77303,9.140625,4.195312,2.175781,0.457031,-0.310547,-0.974609,0.200378,0.629944,0.027649,0.749817,up
77308,9.066406,4.273437,2.101563,-0.115234,-0.347656,-0.960937,0.200378,0.629944,0.027649,0.749817,up
77313,9.027344,4.273437,1.984375,-0.326172,-0.367188,-0.958984,0.200378,0.629944,0.027649,0.749817,up
77318,8.917969,4.3125,1.949219,-0.466797,-0.386719,-0.947266,0.200378,0.629944,0.027649,0.749817,up
77324,8.917969,4.351562,1.984375,-0.466797,-0.386719,-0.947266,0.200378,0.629944,0.027649,0.749817,up
77329,8.914063,4.390625,2.023438,-0.466797,-0.386719,-0.947266,0.2146,0.635315,0.042786,0.740601,up
77334,8.957031,4.425781,2.101563,-0.414062,-0.384766,-0.941406,0.2146,0.635315,0.042786,0.740601,up
77339,8.835938,4.542969,2.253906,-0.310547,-0.367188,-0.957031,0.2146,0.635315,0.042786,0.740601,up
77344,8.796875,4.617187,2.292969,-0.310547,-0.367188,-0.957031,0.221008,0.636414,0.044922,0.737671,up
77349,8.679688,4.65625,2.292969,-0.076172,-0.292969,-0.962891,0.221008,0.636414,0.044922,0.737671,up
77354,8.601563,4.542969,2.332031,-0.005859,-0.261719,-0.958984,0.221008,0.636414,0.044922,0.737671,up
77360,8.835938,4.390625,2.40625,-0.005859,-0.261719,-0.958984,0.22821,0.637817,0.050354,0.733887,up
77365,8.957031,4.3125,2.40625,-0.005859,-0.261719,-0.958984,0.22821,0.637817,0.050354,0.733887,up
77370,9.023438,4.351562,2.40625,-0.095703,-0.251953,-0.894531,0.231689,0.638367,0.052734,0.732117,up
77375,9.257813,4.390625,2.367188,-0.095703,-0.251953,-0.894531,0.231689,0.638367,0.052734,0.732117,up
77381,9.296875,4.351562,2.175781,-0.443359,-0.275391,-0.828125,0.231689,0.638367,0.052734,0.732117,up
77386,9.179688,4.273437,2.0625,-0.443359,-0.275391,-0.828125,0.238037,0.638855,0.054565,0.729553,up
77392,9.222656,4.003906,2.023438,-0.443359,-0.275391,-0.828125,0.240051,0.638855,0.05481,0.728821,up
77397,9.222656,4.003906,2.023438,-0.443359,-0.275391,-0.828125,0.240051,0.638855,0.05481,0.728821,up
77402,9.222656,4.003906,2.023438,-0.376953,-0.310547,-0.763672,0.244263,0.63916,0.055481,0.727173,up
77407,9.222656,4.003906,2.023438,-0.269531,-0.310547,-0.763672,0.246216,0.639404,0.055908,0.726257,up
77412,9.257813,4.195312,1.757813,-0.269531,-0.310547,-0.763672,0.246216,0.639404,0.055908,0.726257,up
