timestamp,ax,ay,az,gx,gy,gz,qw,qx,qy,qz,label
211026,3.550781,3.164063,8.648438,0.107422,-0.263672,0.478516,0.967285,0.199524,-0.156555,-0.006348,up
211031,3.550781,3.125,8.691406,0.164062,-0.128906,0.466797,0.967285,0.199524,-0.156555,-0.006348,up
211036,3.550781,3.125,8.691406,0.164062,-0.128906,0.466797,0.967041,0.199768,-0.157898,-0.004272,up
211042,3.511719,3.125,8.652344,0.164062,-0.128906,0.466797,0.966736,0.200439,-0.158752,-0.002197,up
211047,3.472656,3.164063,8.652344,0.341797,0.0,0.429687,0.966614,0.20105,-0.158997,-0.000977,up
211052,3.472656,3.164063,8.652344,0.390625,0.035156,0.40625,0.966431,0.201782,-0.15918,0.000122,up
211057,3.28125,3.277344,8.53125,0.390625,0.035156,0.40625,0.966248,0.202576,-0.159302,0.001038,up
211062,3.28125,3.355469,8.535156,0.390625,0.035156,0.40625,0.966003,0.203552,-0.159302,0.002075,up
211067,3.207031,3.429688,8.53125,0.556641,0.072266,0.335938,0.965759,0.204895,-0.159302,0.003235,up
211072,3.167969,3.585938,8.5,0.556641,0.072266,0.335938,0.965515,0.205994,-0.159302,0.004028,up
211077,3.128906,3.8125,8.460938,0.556641,0.072266,0.335938,0.96521,0.207275,-0.159363,0.004944,up
211083,3.011719,3.96875,8.425781,0.556641,0.072266,0.335938,0.964905,0.208618,-0.159363,0.005859,up
211089,2.976563,4.042969,8.425781,0.580078,0.042969,0.287109,0.964905,0.208618,-0.159363,0.005859,up
211094,2.976563,4.082031,8.460938,0.548828,0.060547,0.287109,0.964905,0.208618,-0.159363,0.005859,up
211099,2.898438,4.082031,8.503906,0.548828,0.060547,0.287109,0.96405,0.212341,-0.159424,0.008362,up
211105,2.859375,4.082031,8.53125,0.464844,0.0625,0.292969,0.96405,0.212341,-0.159424,0.008362,up
211110,2.859375,4.082031,8.574219,0.396484,0.0625,0.308594,0.96405,0.212341,-0.159424,0.008362,up
211115,2.898438,3.96875,8.691406,0.396484,0.0625,0.308594,0.96405,0.212341,-0.159424,0.008362,up
211120,2.898438,3.96875,8.691406,0.396484,0.0625,0.308594,0.963257,0.215759,-0.159485,0.01178,up
211125,2.898438,3.96875,8.691406,0.291016,0.072266,0.369141,0.963135,0.216309,-0.159485,0.012634,up
211130,3.011719,3.890625,8.648438,0.291016,0.072266,0.369141,0.963013,0.216858,-0.159485,0.013611,up
211135,3.089844,3.851563,8.769531,0.291016,0.072266,0.369141,0.963013,0.216858,-0.159485,0.013611,up
211140,3.089844,3.851563,8.769531,0.326172,0.136719,0.410156,0.962708,0.218018,-0.159363,0.015869,up
211147,3.167969,3.777344,8.652344,0.388672,0.179687,0.419922,0.962708,0.218018,-0.159363,0.015869,up
211152,3.167969,3.738281,8.570313,0.388672,0.179687,0.419922,0.962219,0.220276,-0.158752,0.01947,up
211157,3.167969,3.8125,8.570313,0.46875,0.195312,0.423828,0.962036,0.22113,-0.158569,0.020508,up
211162,3.089844,3.777344,8.5,0.46875,0.195312,0.423828,0.961792,0.222229,-0.158264,0.021851,up
211167,3.050781,3.8125,8.503906,0.46875,0.195312,0.423828,0.961609,0.223206,-0.158081,0.022827,up
211172,3.011719,3.890625,8.464844,0.46875,0.195312,0.423828,0.961365,0.224365,-0.157837,0.023926,up
211178,2.9375,4.042969,8.34375,0.46875,0.195312,0.423828,0.96106,0.225586,-0.157715,0.025024,up
211183,2.898438,4.160156,8.304688,0.611328,0.105469,0.345703,0.96106,0.225586,-0.157715,0.025024,up
211188,2.898438,4.3125,8.347656,0.611328,0.105469,0.345703,0.96106,0.225586,-0.157715,0.025024,up
211193,2.898438,4.425781,8.269531,0.619141,0.039063,0.318359,0.96106,0.225586,-0.157715,0.025024,up
211198,2.898438,4.503906,8.191406,0.572266,0.027344,0.298828,0.96106,0.225586,-0.157715,0.025024,up
211204,2.9375,4.503906,8.078125,0.572266,0.027344,0.298828,0.959351,0.232056,-0.157715,0.029602,up
211210,2.976563,4.464844,8.078125,0.400391,0.013672,0.304688,0.959351,0.232056,-0.157715,0.029602,up
211215,3.050781,4.425781,8.039063,0.283203,0.019531,0.316406,0.959351,0.232056,-0.157715,0.029602,up
211220,3.050781,4.425781,8.039063,0.167969,0.035156,0.337891,0.959351,0.232056,-0.157715,0.029602,up
211225,3.167969,4.3125,8.0,0.167969,0.035156,0.337891,0.959351,0.232056,-0.157715,0.029602,up
211230,3.242188,4.234375,8.0,0.167969,0.035156,0.337891,0.958618,0.234192,-0.158264,0.033447,up
211235,3.207031,4.160156,8.113281,-0.080078,0.095703,0.367188,0.958618,0.234192,-0.158264,0.033447,up
211241,3.320313,4.003906,8.113281,-0.119141,0.119141,0.375,0.958862,0.233032,-0.158203,0.035767,up
211246,3.320313,3.929688,8.109375,-0.119141,0.119141,0.375,0.958862,0.233032,-0.158203,0.035767,up
211251,3.398438,3.890625,8.152344,-0.056641,0.193359,0.349609,0.958862,0.233032,-0.158203,0.035767,up
211256,3.359375,3.929688,8.078125,0.033203,0.214844,0.332031,0.959045,0.232239,-0.157837,0.037354,up
211261,3.359375,3.929688,8.1875,0.033203,0.214844,0.332031,0.959106,0.232056,-0.157593,0.038147,up
211267,3.398438,3.929688,8.308594,0.246094,0.232422,0.310547,0.959106,0.232056,-0.157593,0.038147,up
211272,3.320313,4.042969,8.226563,0.246094,0.232422,0.310547,0.958923,0.233032,-0.156494,0.040771,up
211277,3.28125,4.082031,8.191406,0.246094,0.232422,0.310547,0.958801,0.233765,-0.156067,0.041565,up
211282,3.28125,4.160156,8.191406,0.525391,0.240234,0.306641,0.958801,0.233765,-0.156067,0.041565,up
211287,3.28125,4.234375,8.152344,0.525391,0.240234,0.306641,0.958313,0.236023,-0.155151,0.043518,up
211292,3.28125,4.425781,8.1875,0.525391,0.240234,0.306641,0.958313,0.236023,-0.155151,0.043518,up
211297,3.242188,4.542969,8.148438,0.521484,0.216797,0.324219,0.958008,0.237244,-0.154724,0.044556,up
211302,3.207031,4.617187,8.148438,0.521484,0.216797,0.324219,0.957458,0.239502,-0.153992,0.046509,up
211307,3.242188,4.695312,8.148438,0.521484,0.216797,0.324219,0.957458,0.239502,-0.153992,0.046509,up
211312,3.242188,4.773437,8.152344,0.521484,0.216797,0.324219,0.957092,0.241211,-0.15332,0.048279,up
211317,3.242188,4.808594,8.152344,0.521484,0.216797,0.324219,0.957092,0.241211,-0.15332,0.048279,up
211322,3.320313,4.808594,8.148438,0.265625,0.189453,0.339844,0.956787,0.242187,-0.152832,0.05011,up
211327,3.398438,4.734375,8.1875,0.265625,0.189453,0.339844,0.956726,0.242432,-0.152527,0.051086,up
211332,3.433594,4.695312,8.191406,0.265625,0.189453,0.339844,0.956726,0.242432,-0.152344,0.05188,up
211337,3.472656,4.582031,8.226563,0.265625,0.189453,0.339844,0.956726,0.242432,-0.152344,0.05188,up
211342,3.511719,4.542969,8.226563,-0.021484,0.216797,0.388672,0.956726,0.242432,-0.152344,0.05188,up
211347,3.511719,4.390625,8.230469,-0.021484,0.216797,0.388672,0.956787,0.241943,-0.151611,0.054687,up
211352,3.550781,4.3125,8.304688,-0.029297,0.238281,0.417969,0.956787,0.241943,-0.151611,0.054687,up
211357,3.589844,4.3125,8.269531,-0.009766,0.255859,0.427734,0.956848,0.241638,-0.151306,0.055847,up
211363,3.589844,4.3125,8.269531,0.017578,0.265625,0.451172,0.95697,0.241272,-0.150696,0.0578,up
211369,3.472656,4.160156,8.269531,0.017578,0.265625,0.451172,0.95697,0.24115,-0.15033,0.058899,up
211375,3.433594,4.160156,8.265625,0.091797,0.292969,0.457031,0.95697,0.24115,-0.15033,0.058899,up
211380,3.472656,4.121094,8.308594,0.132812,0.296875,0.443359,0.95697,0.24115,-0.15033,0.058899,up
211386,3.472656,4.234375,8.265625,0.195312,0.302734,0.40625,0.95697,0.24115,-0.15033,0.058899,up
211391,3.511719,4.273437,8.304688,0.195312,0.302734,0.40625,0.956848,0.241577,-0.148499,0.063538,up
211397,3.511719,4.425781,8.304688,0.25,0.296875,0.378906,0.956848,0.241577,-0.148499,0.063538,up
211402,3.589844,4.503906,8.308594,0.25,0.296875,0.378906,0.956604,0.242676,-0.147034,0.066711,up
211407,3.589844,4.582031,8.269531,0.238281,0.304688,0.357422,0.956604,0.242676,-0.147034,0.066711,up
211412,3.550781,4.582031,8.230469,0.238281,0.304688,0.357422,0.956482,0.243103,-0.146423,0.06781,up
211417,3.625,4.582031,8.230469,0.15625,0.324219,0.361328,0.956482,0.243103,-0.146423,0.06781,up
211422,3.550781,4.773437,8.382813,0.15625,0.324219,0.361328,0.95636,0.243835,-0.144836,0.070801,up
211427,3.550781,4.808594,8.34375,0.15625,0.324219,0.361328,0.95636,0.243835,-0.144836,0.070801,up
211432,3.433594,4.886719,8.304688,0.001953,0.369141,0.443359,0.95636,0.243835,-0.144836,0.070801,up
211437,3.398438,4.847656,8.265625,0.001953,0.369141,0.443359,0.956421,0.243408,-0.143066,0.074219,up
211442,3.398438,4.695312,8.265625,0.001953,0.369141,0.443359,0.956543,0.24292,-0.142517,0.0755,up
211447,3.320313,4.464844,8.308594,0.001953,0.369141,0.443359,0.956543,0.24292,-0.142517,0.0755,up
211452,3.28125,4.503906,8.347656,-0.177734,0.390625,0.519531,0.956848,0.241638,-0.141418,0.078125,up
211457,3.207031,4.695312,8.6875,-0.177734,0.390625,0.519531,0.956848,0.241638,-0.141418,0.078125,up
211462,3.167969,4.617187,8.648438,-0.164062,0.423828,0.595703,0.956848,0.241638,-0.141418,0.078125,up
211467,3.089844,4.582031,8.652344,-0.164062,0.423828,0.595703,0.957153,0.240112,-0.140137,0.081177,up
211473,3.011719,4.464844,8.535156,-0.154297,0.423828,0.638672,0.957275,0.239441,-0.139587,0.082703,up
211478,3.011719,4.464844,8.535156,-0.146484,0.421875,0.654297,0.957458,0.238159,-0.138428,0.085754,up
211484,2.976563,4.160156,8.652344,-0.146484,0.421875,0.654297,0.957581,0.237549,-0.137878,0.087402,up
211490,2.9375,4.273437,8.730469,-0.123047,0.433594,0.666016,0.957581,0.237549,-0.137878,0.087402,up
211496,2.9375,4.160156,8.769531,-0.123047,0.433594,0.666016,0.957581,0.237549,-0.137878,0.087402,up
211502,2.9375,4.160156,8.769531,-0.066406,0.419922,0.691406,0.957764,0.235779,-0.136108,0.092529,up
211507,2.859375,4.121094,8.691406,-0.066406,0.419922,0.691406,0.957764,0.235352,-0.135559,0.094482,up
211512,2.859375,4.121094,8.691406,-0.007813,0.378906,0.720703,0.957764,0.234985,-0.135071,0.096252,up
211517,2.859375,4.003906,8.609375,-0.007813,0.378906,0.720703,0.957764,0.234985,-0.135071,0.096252,up
211522,2.785156,3.929688,8.609375,0.054687,0.335938,0.728516,0.957764,0.234985,-0.135071,0.096252,up
211527,2.785156,4.121094,8.652344,0.054687,0.335938,0.728516,0.957581,0.23407,-0.133789,0.101868,up
211532,2.820313,4.121094,8.652344,0.054687,0.335938,0.728516,0.957458,0.233948,-0.133423,0.10376,up
211537,2.820313,4.082031,8.570313,0.121094,0.320313,0.708984,0.957458,0.233948,-0.133423,0.10376,up
211543,2.859375,4.082031,8.421875,0.134766,0.328125,0.712891,0.957458,0.233948,-0.133423,0.10376,up
211549,2.9375,3.96875,8.34375,0.134766,0.328125,0.712891,0.956848,0.233887,-0.131897,0.110901,up
211554,3.011719,3.96875,8.34375,0.109375,0.314453,0.730469,0.956848,0.233887,-0.131897,0.110901,up
211559,2.976563,3.890625,8.265625,0.082031,0.332031,0.740234,0.956543,0.233765,-0.131226,0.114624,up
211564,3.011719,3.8125,8.152344,0.082031,0.332031,0.740234,0.956421,0.233582,-0.130798,0.116699,up
211569,2.9375,3.738281,8.039063,0.082031,0.332031,0.740234,0.956421,0.233582,-0.130798,0.116699,up
211574,2.9375,3.738281,8.039063,0.052734,0.353516,0.775391,0.956421,0.233582,-0.130798,0.116699,up
211579,2.859375,3.699219,7.964844,0.052734,0.353516,0.775391,0.956421,0.233582,-0.130798,0.116699,up
211585,2.976563,3.546875,8.148438,0.052734,0.353516,0.775391,0.955811,0.232849,-0.129272,0.124329,up
211591,2.9375,3.660156,8.226563,0.152344,0.34375,0.761719,0.955811,0.232849,-0.129272,0.124329,up
211596,2.9375,3.660156,8.113281,0.220703,0.345703,0.748047,0.955811,0.232849,-0.129272,0.124329,up
211602,2.976563,3.660156,8.078125,0.300781,0.359375,0.720703,0.955811,0.232849,-0.129272,0.124329,up
211608,2.976563,3.777344,8.078125,0.453125,0.339844,0.677734,0.954834,0.233643,-0.127441,0.132019,up
211613,2.976563,3.777344,8.078125,0.453125,0.339844,0.677734,0.954041,0.235229,-0.126282,0.135925,up
211618,2.9375,3.777344,8.078125,0.511719,0.339844,0.644531,0.953674,0.236084,-0.125732,0.137695,up
211623,2.9375,3.777344,8.0,0.511719,0.339844,0.644531,0.953308,0.236938,-0.125183,0.139343,up
211628,2.976563,3.777344,7.765625,0.511719,0.320313,0.638672,0.95282,0.237976,-0.124512,0.141357,up
211633,3.011719,3.699219,7.699219,0.511719,0.320313,0.638672,0.952393,0.238892,-0.124023,0.143127,up
211638,3.050781,3.660156,7.65625,0.511719,0.320313,0.638672,0.952026,0.239624,-0.123596,0.144714,up
211643,3.128906,3.546875,7.65625,0.402344,0.283203,0.683594,0.951599,0.240356,-0.123169,0.146606,up
211648,3.207031,3.46875,7.582031,0.414062,0.291016,0.707031,0.951172,0.241028,-0.122742,0.148499,up
211653,3.28125,3.277344,7.578125,0.414062,0.291016,0.707031,0.950745,0.24176,-0.122314,0.150513,up
211658,3.398438,3.203125,7.5,0.414062,0.291016,0.707031,0.950317,0.242493,-0.121887,0.152283,up
211663,3.398438,3.085938,7.5,0.617187,0.380859,0.800781,0.949768,0.243591,-0.121216,0.154663,up
211668,3.511719,3.046875,7.460937,0.728516,0.423828,0.847656,0.949158,0.244812,-0.120544,0.157043,up
211673,3.550781,3.007813,7.578125,0.728516,0.423828,0.847656,0.948547,0.246094,-0.119751,0.15918,up
211678,3.625,2.589844,7.660156,1.058594,0.566406,0.904297,0.947693,0.248047,-0.118591,0.161987,up
211683,3.589844,2.511719,7.617187,1.261719,0.638672,0.910156,0.946838,0.250183,-0.117371,0.164612,up
211688,3.550781,2.359375,7.5,1.261719,0.638672,0.910156,0.94574,0.253174,-0.115601,0.167786,up
211693,3.433594,2.359375,7.382812,1.261719,0.638672,0.910156,0.944641,0.256104,-0.113953,0.170532,up
211698,3.472656,2.359375,7.464844,1.261719,0.638672,0.910156,0.943298,0.259827,-0.111938,0.173523,up
211703,3.550781,2.511719,7.503906,2.242188,0.839844,0.828125,0.94165,0.264648,-0.109436,0.17688,up
211708,3.664063,2.933594,7.726562,2.242188,0.839844,0.828125,0.94165,0.264648,-0.109436,0.17688,up
211713,3.664063,3.164063,7.84375,2.757813,0.919922,0.720703,0.939941,0.269775,-0.106812,0.179932,up
211718,3.664063,3.316406,7.886719,2.947266,0.96875,0.667969,0.937988,0.275513,-0.104004,0.182983,up
211723,3.664063,3.316406,7.886719,3.099609,0.998047,0.615234,0.934021,0.28717,-0.098145,0.188354,up
211728,3.664063,3.507813,7.84375,3.099609,0.998047,0.615234,0.934021,0.28717,-0.098145,0.188354,up
211733,3.589844,4.082031,7.964844,3.099609,0.998047,0.615234,0.934021,0.28717,-0.098145,0.188354,up
211738,3.550781,4.160156,8.191406,3.306641,1.056641,0.511719,0.929199,0.301025,-0.091125,0.19397,up
211743,3.550781,4.160156,8.191406,3.306641,1.056641,0.511719,0.926758,0.308044,-0.087463,0.196533,up
211748,3.398438,4.925781,8.460938,3.376953,1.117188,0.443359,0.921387,0.32251,-0.07959,0.20166,up
211753,3.398438,5.078125,8.535156,3.376953,1.117188,0.443359,0.91864,0.329651,-0.075684,0.204102,up
211758,3.398438,5.117187,8.535156,3.482422,1.15625,0.474609,0.91864,0.329651,-0.075684,0.204102,up
211763,3.625,5.421875,8.503906,3.482422,1.15625,0.474609,0.912598,0.344666,-0.067444,0.209412,up
211768,3.625,5.578125,8.652344,3.53125,1.216797,0.546875,0.912598,0.344666,-0.067444,0.209412,up
211773,3.703125,5.804687,8.609375,3.53125,1.216797,0.546875,0.906006,0.35968,-0.05896,0.215149,up
211778,3.742188,6.152344,8.613281,3.53125,1.216797,0.546875,0.906006,0.35968,-0.05896,0.215149,up
211783,3.742188,6.417969,8.535156,3.630859,1.310547,0.625,0.902649,0.367004,-0.054749,0.218018,up
211788,3.816406,6.957031,8.503906,3.669922,1.347656,0.654297,0.899414,0.373779,-0.05072,0.220825,up
211793,3.816406,6.957031,8.503906,3.71875,1.386719,0.691406,0.89563,0.381409,-0.046204,0.22406,up
211798,3.816406,6.957031,8.503906,3.71875,1.386719,0.691406,0.887939,0.39624,-0.037109,0.230591,up
211803,3.855469,7.414062,8.0,3.71875,1.386719,0.691406,0.887939,0.39624,-0.037109,0.230591,up
211808,3.816406,7.414062,7.964844,3.746094,1.484375,0.753906,0.8797,0.411011,-0.027649,0.237488,up
211813,3.742188,7.453125,7.882812,3.597656,1.556641,0.783203,0.8797,0.411011,-0.027649,0.237488,up
211818,3.433594,7.917969,7.695312,3.597656,1.556641,0.783203,0.875366,0.418457,-0.022644,0.241089,up
211823,3.167969,8.410156,7.539062,3.511719,1.601563,0.771484,0.867371,0.431396,-0.013489,0.247742,up
211828,3.011719,8.789063,7.503906,3.511719,1.601563,0.771484,0.867371,0.431396,-0.013489,0.247742,up
211833,2.785156,9.253906,7.578125,3.25,1.623047,0.701172,0.867371,0.431396,-0.013489,0.247742,up
211838,2.402344,10.171875,7.539062,3.25,1.623047,0.701172,0.855225,0.449707,0.000793,0.257568,up
211843,2.210938,10.402344,7.464844,3.25,1.623047,0.701172,0.855225,0.449707,0.000793,0.257568,up
211848,2.09375,10.558594,7.386719,2.863281,1.560547,0.605469,0.855225,0.449707,0.000793,0.257568,up
211853,1.980469,10.78125,7.195312,2.720703,1.515625,0.585937,0.847412,0.460632,0.01001,0.263672,up
211858,1.902344,10.941406,7.15625,2.720703,1.515625,0.585937,0.840393,0.470093,0.018433,0.269165,up
211863,1.902344,10.941406,7.15625,2.720703,1.515625,0.585937,0.840393,0.470093,0.018433,0.269165,up
211868,1.789063,10.9375,7.003906,2.378906,1.443359,0.554687,0.840393,0.470093,0.018433,0.269165,up
211873,1.710938,10.898438,6.734375,2.195313,1.376953,0.546875,0.833801,0.47821,0.026245,0.274475,up
211878,1.710938,10.898438,6.734375,2.195313,1.376953,0.546875,0.833801,0.47821,0.026245,0.274475,up
211883,1.710938,10.898438,6.734375,1.759766,1.232422,0.589844,0.828186,0.48468,0.032959,0.27948,up
211888,1.75,10.742188,6.390625,1.759766,1.232422,0.589844,0.823303,0.489685,0.038269,0.284485,up
211894,1.980469,10.59375,6.429687,1.759766,1.232422,0.589844,0.820923,0.491943,0.040588,0.28717,up
211899,2.054688,10.253906,6.121094,1.759766,1.232422,0.589844,0.819214,0.493347,0.042053,0.289307,up
211904,2.171875,10.015625,6.085937,0.884766,0.8125,0.785156,0.817444,0.494751,0.043396,0.291626,up
211909,2.285156,9.910156,6.046875,0.884766,0.8125,0.785156,0.815613,0.496155,0.044678,0.294189,up
211914,2.285156,9.867188,5.96875,0.884766,0.8125,0.785156,0.814026,0.497375,0.045654,0.296509,up
211920,2.363281,9.753906,5.855469,0.882812,0.736328,0.826172,0.812256,0.498718,0.046692,0.298889,up
211925,2.4375,9.484375,5.738281,0.882812,0.736328,0.826172,0.810425,0.500122,0.047791,0.301331,up
211930,2.324219,9.328125,5.511719,0.882812,0.736328,0.826172,0.810425,0.500122,0.047791,0.301331,up
211935,2.246094,9.25,5.433594,0.886719,0.691406,0.826172,0.810425,0.500122,0.047791,0.301331,up
211940,2.171875,9.214844,5.28125,0.863281,0.667969,0.820312,0.810425,0.500122,0.047791,0.301331,up
211946,2.210938,9.027344,5.128906,0.863281,0.667969,0.820312,0.803223,0.505676,0.051636,0.310608,up
211952,2.171875,8.910156,5.050781,0.839844,0.613281,0.763672,0.803223,0.505676,0.051636,0.310608,up
211958,2.132813,8.832031,4.820312,0.771484,0.585937,0.744141,0.803223,0.505676,0.051636,0.310608,up
211963,2.054688,8.640625,4.589844,0.771484,0.585937,0.744141,0.796509,0.510681,0.054932,0.319031,up
211968,1.980469,8.601563,4.515625,0.617187,0.595703,0.751953,0.796509,0.510681,0.054932,0.319031,up
211973,1.902344,8.527344,4.4375,0.617187,0.595703,0.751953,0.794922,0.511658,0.055664,0.321228,up
211978,1.902344,8.40625,4.359375,0.484375,0.558594,0.75,0.794922,0.511658,0.055664,0.321228,up
211983,1.75,8.300781,4.246094,0.484375,0.558594,0.75,0.791016,0.513733,0.05719,0.327271,up
211988,1.710938,8.257813,4.246094,0.484375,0.558594,0.75,0.791016,0.513733,0.05719,0.327271,up
211993,1.632813,8.257813,4.246094,0.367188,0.3125,0.740234,0.791016,0.513733,0.05719,0.327271,up
211998,1.632813,8.21875,4.167969,0.367188,0.3125,0.740234,0.787537,0.515564,0.057251,0.332764,up
212003,1.632813,8.105469,4.054687,0.367188,0.3125,0.740234,0.786499,0.516174,0.056824,0.334229,up
212008,1.632813,7.914062,3.824219,0.367188,0.3125,0.740234,0.786499,0.516174,0.056824,0.334229,up
212013,1.632813,7.878906,3.785156,0.402344,-0.111328,0.705078,0.786499,0.516174,0.056824,0.334229,up
212018,1.632813,7.800781,3.554688,0.402344,-0.111328,0.705078,0.784424,0.517822,0.05542,0.336853,up
212023,1.632813,7.800781,3.554688,0.451172,-0.199219,0.683594,0.784424,0.517822,0.05542,0.336853,up
212028,1.671875,7.757812,3.402344,0.451172,-0.199219,0.683594,0.783386,0.51886,0.054565,0.33783,up
212033,1.863281,7.5625,3.136719,0.476562,-0.341797,0.644531,0.781067,0.521362,0.05249,0.339539,up
212038,1.863281,7.5625,3.136719,0.476562,-0.341797,0.644531,0.781067,0.521362,0.05249,0.339539,up
212043,1.941406,7.5625,2.90625,0.423828,-0.384766,0.613281,0.779053,0.523865,0.050049,0.34082,up
212049,1.941406,7.53125,2.828125,0.292969,-0.4375,0.587891,0.777405,0.526001,0.047119,0.341797,up
212055,1.980469,7.457031,2.753906,0.292969,-0.4375,0.587891,0.776794,0.526672,0.045776,0.342163,up
212061,2.019531,7.417969,2.675781,0.056641,-0.410156,0.505859,0.776306,0.527344,0.04425,0.342529,up
212067,2.019531,7.417969,2.675781,-0.025391,-0.400391,0.476562,0.776306,0.527344,0.04425,0.342529,up
212073,2.054688,7.417969,2.636719,-0.099609,-0.388672,0.449219,0.776306,0.527344,0.04425,0.342529,up
212078,2.054688,7.378906,2.636719,-0.160156,-0.376953,0.416016,0.776306,0.527344,0.04425,0.342529,up
212083,2.054688,7.339844,2.597656,-0.21875,-0.369141,0.363281,0.776306,0.527344,0.04425,0.342529,up
212088,2.054688,7.296875,2.597656,-0.21875,-0.369141,0.363281,0.775452,0.528137,0.036926,0.343933,up
212093,2.09375,7.222656,2.558594,-0.21875,-0.369141,0.363281,0.775513,0.528076,0.035461,0.344116,up
212099,2.210938,7.179687,2.558594,-0.232422,-0.371094,0.314453,0.775513,0.528076,0.035461,0.344116,up
212104,2.246094,7.179687,2.558594,-0.238281,-0.367188,0.28125,0.775513,0.528076,0.035461,0.344116,up
212110,2.210938,7.152344,2.558594,-0.238281,-0.367188,0.28125,0.775879,0.52771,0.030212,0.34436,up
212115,2.246094,7.152344,2.558594,-0.203125,-0.386719,0.285156,0.77594,0.527649,0.02887,0.344421,up
212121,2.324219,7.148437,2.558594,-0.175781,-0.414062,0.279297,0.77594,0.527649,0.02887,0.344421,up
212126,2.363281,7.074219,2.597656,-0.175781,-0.414062,0.279297,0.776062,0.52771,0.026001,0.34436,up
212132,2.4375,7.03125,2.597656,-0.142578,-0.431641,0.273438,0.776062,0.52771,0.026001,0.34436,up
212137,2.476563,6.992187,2.597656,-0.123047,-0.427734,0.246094,0.776062,0.52771,0.026001,0.34436,up
212142,2.476563,6.914062,2.636719,-0.099609,-0.427734,0.228516,0.776062,0.52771,0.026001,0.34436,up
212147,2.554688,6.917969,2.636719,-0.099609,-0.427734,0.228516,0.776062,0.52771,0.026001,0.34436,up
212152,2.554688,6.917969,2.636719,-0.042969,-0.390625,0.167969,0.776062,0.52771,0.026001,0.34436,up
212157,2.554688,6.957031,2.636719,-0.033203,-0.369141,0.146484,0.776062,0.52771,0.026001,0.34436,up
212163,2.628906,6.996094,2.675781,-0.029297,-0.335938,0.115234,0.775757,0.529297,0.017273,0.343079,up
212168,2.628906,6.953125,2.714844,-0.029297,-0.335938,0.115234,0.775757,0.529297,0.017273,0.343079,up
212174,2.707031,6.953125,2.714844,-0.091797,-0.210937,0.042969,0.775757,0.529297,0.017273,0.343079,up
212179,2.707031,6.953125,2.714844,-0.119141,-0.169922,0.017578,0.776001,0.52948,0.015442,0.342346,up
212184,2.746094,6.914062,2.636719,-0.119141,-0.169922,0.017578,0.776184,0.529358,0.015015,0.342163,up
212189,2.785156,6.835937,2.636719,-0.203125,-0.087891,-0.029297,0.776184,0.529358,0.015015,0.342163,up
212194,2.746094,6.765625,2.714844,-0.224609,-0.046875,-0.070312,0.776489,0.529114,0.014587,0.341919,up
212199,2.746094,6.730469,2.714844,-0.224609,-0.046875,-0.070312,0.777161,0.52832,0.014221,0.341492,up
212204,2.785156,6.730469,2.753906,-0.224609,-0.046875,-0.070312,0.777588,0.527893,0.014221,0.341309,up
212209,2.746094,6.691406,2.753906,-0.232422,0.103516,-0.197266,0.777588,0.527893,0.014221,0.341309,up
212214,2.667969,6.691406,2.753906,-0.230469,0.142578,-0.246094,0.778076,0.527344,0.014343,0.341003,up
212219,2.667969,6.6875,2.789063,-0.230469,0.191406,-0.298828,0.778564,0.526794,0.014709,0.340698,up
212224,2.628906,6.726562,2.828125,-0.230469,0.191406,-0.298828,0.779724,0.525513,0.015869,0.340027,up
212229,2.59375,6.917969,2.867188,-0.230469,0.191406,-0.298828,0.780273,0.524963,0.016541,0.339661,up
212234,2.515625,7.296875,2.714844,-0.230469,0.191406,-0.298828,0.780945,0.52417,0.017517,0.339172,up
212239,2.628906,7.339844,2.789063,-0.230469,0.191406,-0.298828,0.781738,0.523315,0.018555,0.338562,up
212244,2.707031,7.296875,2.90625,-0.439453,0.341797,-0.634766,0.781738,0.523315,0.018555,0.338562,up
212249,2.707031,7.335937,2.945313,-0.439453,0.341797,-0.634766,0.782837,0.522217,0.019714,0.337769,up
212255,2.707031,7.335937,2.945313,-0.744141,0.439453,-0.759766,0.7854,0.519287,0.021973,0.336182,up
212260,2.746094,7.496094,2.828125,-0.90625,0.462891,-0.792969,0.787231,0.51709,0.023254,0.335144,up
212265,2.820313,7.414062,3.097656,-0.90625,0.462891,-0.792969,0.789001,0.514893,0.024292,0.33429,up
212270,2.820313,7.339844,3.210938,-0.90625,0.462891,-0.792969,0.791382,0.51178,0.025513,0.333313,up
212275,2.820313,7.339844,3.328125,-0.90625,0.462891,-0.792969,0.791382,0.51178,0.025513,0.333313,up
212280,2.820313,7.339844,3.328125,-1.566406,0.650391,-0.773437,0.796021,0.505371,0.027466,0.331909,up
212286,2.859375,7.148437,3.746094,-1.566406,0.650391,-0.773437,0.798584,0.501587,0.028381,0.33136,up
212291,2.707031,7.070312,4.207031,-1.566406,0.650391,-0.773437,0.801331,0.497498,0.029419,0.330933,up
212297,2.667969,6.917969,4.246094,-1.697266,0.808594,-0.699219,0.801331,0.497498,0.029419,0.330933,up
212302,2.707031,6.769531,4.246094,-1.650391,0.851562,-0.701172,0.801331,0.497498,0.029419,0.330933,up
212308,2.707031,6.609375,4.515625,-1.574219,0.876953,-0.703125,0.801331,0.497498,0.029419,0.330933,up
212314,2.707031,6.570312,4.667969,-1.34375,0.869141,-0.708984,0.801331,0.497498,0.029419,0.330933,up
212319,2.707031,6.570312,4.820312,-1.34375,0.869141,-0.708984,0.813721,0.477478,0.035767,0.329529,up
212324,2.746094,6.570312,5.089844,-1.171875,0.867187,-0.722656,0.813721,0.477478,0.035767,0.329529,up
212330,2.746094,6.691406,5.164062,-0.767578,0.810547,-0.761719,0.817444,0.471252,0.039063,0.328857,up
212335,2.707031,6.835937,5.203125,-0.767578,0.810547,-0.761719,0.820496,0.466431,0.043091,0.327759,up
212340,2.707031,6.953125,5.242187,-0.429687,0.740234,-0.835937,0.821655,0.464661,0.045227,0.326965,up
212346,2.59375,7.300781,5.433594,-0.429687,0.740234,-0.835937,0.822571,0.46344,0.046997,0.326233,up
212352,2.554688,7.414062,5.355469,-0.314453,0.677734,-0.931641,0.822571,0.46344,0.046997,0.326233,up
212357,2.476563,7.644531,5.242187,-0.318359,0.65625,-0.986328,0.822571,0.46344,0.046997,0.326233,up
212362,2.285156,7.914062,5.28125,-0.382813,0.644531,-1.076172,0.822571,0.46344,0.046997,0.326233,up
212367,2.246094,8.0625,5.320312,-0.527344,0.623047,-1.160156,0.822571,0.46344,0.046997,0.326233,up
212372,2.09375,8.257813,5.320312,-0.722656,0.615234,-1.263672,0.822571,0.46344,0.046997,0.326233,up
212378,2.019531,8.40625,5.433594,-0.722656,0.615234,-1.263672,0.83075,0.453247,0.060303,0.317383,up
212384,1.863281,8.371094,5.546875,-0.722656,0.615234,-1.263672,0.83551,0.44696,0.064148,0.313049,up
212389,1.75,8.339844,5.625,-0.722656,0.615234,-1.263672,0.83551,0.44696,0.064148,0.313049,up
212394,1.710938,8.222656,5.738281,-1.742188,0.634766,-1.695313,0.841797,0.438171,0.067871,0.307922,up
212399,1.632813,7.988281,5.894531,-1.742188,0.634766,-1.695313,0.841797,0.438171,0.067871,0.307922,up
212405,1.632813,7.988281,5.894531,-2.210938,0.707031,-1.863281,0.845276,0.432983,0.069641,0.305237,up
212410,1.632813,7.917969,6.046875,-2.210938,0.707031,-1.863281,0.849182,0.427063,0.071533,0.302368,up
212415,1.558594,7.71875,6.851562,-2.59375,0.769531,-1.958984,0.849182,0.427063,0.071533,0.302368,up
212420,1.558594,7.71875,6.851562,-2.730469,0.800781,-1.974609,0.857178,0.414307,0.075012,0.296631,up
212425,1.328125,7.378906,7.15625,-2.820313,0.830078,-1.984375,0.86554,0.400146,0.078491,0.290833,up
212430,1.175781,7.222656,7.34375,-2.820313,0.830078,-1.984375,0.869568,0.393005,0.0802,0.288086,up
212436,0.714844,7.03125,7.84375,-2.820313,0.830078,-1.984375,0.873657,0.38562,0.082031,0.285217,up
212441,0.636719,6.992187,8.003906,-2.673828,0.904297,-1.904297,0.87738,0.378662,0.083862,0.282471,up
212447,0.5625,6.878906,8.1875,-2.507813,0.900391,-1.892578,0.87738,0.378662,0.083862,0.282471,up
212452,0.371094,6.800781,8.503906,-2.332031,0.892578,-1.882813,0.87738,0.378662,0.083862,0.282471,up
212457,0.332031,6.800781,8.53125,-2.167969,0.892578,-1.865234,0.87738,0.378662,0.083862,0.282471,up
212463,0.292969,6.765625,8.574219,-2.007813,0.908203,-1.855469,0.87738,0.378662,0.083862,0.282471,up
212468,0.101563,6.726562,8.613281,-2.007813,0.908203,-1.855469,0.893494,0.347717,0.094971,0.267883,up
212473,-0.011719,6.648437,8.652344,-1.736328,0.949219,-1.861328,0.893494,0.347717,0.094971,0.267883,up
212478,-0.089844,6.574219,8.726563,-1.640625,0.962891,-1.857422,0.893494,0.347717,0.094971,0.267883,up
212484,-0.089844,6.574219,8.726563,-1.580078,0.984375,-1.84375,0.900513,0.333618,0.102539,0.259399,up
212489,-0.320313,6.957031,8.804688,-1.548828,1.003906,-1.839844,0.90271,0.329041,0.105286,0.256531,up
212494,-0.320313,6.957031,8.804688,-1.548828,1.003906,-1.839844,0.90271,0.329041,0.105286,0.256531,up
212499,-0.359375,7.03125,8.914063,-1.509766,1.007813,-1.810547,0.90271,0.329041,0.105286,0.256531,up
212504,-0.359375,7.03125,8.914063,-1.509766,0.958984,-1.748047,0.908936,0.31543,0.113525,0.247986,up
212509,-0.664062,6.992187,8.992188,-1.509766,0.958984,-1.748047,0.910889,0.310974,0.116028,0.2453,up
212515,-0.742187,6.917969,9.070313,-1.498047,0.835937,-1.546875,0.910889,0.310974,0.116028,0.2453,up
212520,-0.816406,6.878906,9.148438,-1.498047,0.835937,-1.546875,0.916382,0.297729,0.122864,0.237732,up
212526,-0.855469,6.839844,9.230469,-1.498047,0.835937,-1.546875,0.91803,0.293579,0.124939,0.235413,up
212531,-0.855469,6.917969,9.109375,-1.244141,0.716797,-1.330078,0.91803,0.293579,0.124939,0.235413,up
212536,-0.933594,6.957031,9.152344,-1.15625,0.689453,-1.273438,0.91803,0.293579,0.124939,0.235413,up
212541,-0.894531,6.992187,9.148438,-1.076172,0.646484,-1.226563,0.91803,0.293579,0.124939,0.235413,up
212546,-0.933594,7.03125,8.992188,-1.076172,0.646484,-1.226563,0.91803,0.293579,0.124939,0.235413,up
212551,-1.085938,7.070312,8.882813,-0.958984,0.628906,-1.103516,0.91803,0.293579,0.124939,0.235413,up
212556,-1.199219,6.992187,8.808594,-0.925781,0.638672,-1.035156,0.91803,0.293579,0.124939,0.235413,up
212561,-1.238281,6.878906,8.769531,-0.925781,0.638672,-1.035156,0.926514,0.270996,0.137268,0.222107,up
212567,-1.351563,6.800781,8.609375,-0.925781,0.638672,-1.035156,0.927429,0.268005,0.138977,0.220703,up
212572,-1.429688,6.765625,8.535156,-1.013672,0.693359,-0.880859,0.927429,0.268005,0.138977,0.220703,up
212578,-1.546875,6.6875,8.574219,-1.087891,0.71875,-0.865234,0.927429,0.268005,0.138977,0.220703,up
212583,-1.546875,6.6875,8.574219,-1.144531,0.730469,-0.861328,0.930176,0.258606,0.143921,0.217163,up
212588,-1.546875,6.6875,8.574219,-1.1875,0.732422,-0.867187,0.931091,0.255249,0.145508,0.216064,up
212593,-1.738281,6.648437,8.765625,-1.1875,0.732422,-0.867187,0.932068,0.25177,0.147095,0.214966,up
212598,-1.929688,6.496094,8.953125,-1.1875,0.732422,-0.867187,0.932068,0.25177,0.147095,0.214966,up
212603,-1.929688,6.496094,8.953125,-1.242188,0.652344,-0.90625,0.934021,0.244629,0.150146,0.212585,up
212608,-2.15625,6.074219,8.996094,-1.242188,0.652344,-0.90625,0.934021,0.244629,0.150146,0.212585,up
212613,-2.234375,5.960937,8.847656,-1.242188,0.652344,-0.90625,0.936096,0.237366,0.15271,0.209961,up
212618,-2.273438,5.960937,8.804688,-1.277344,0.445312,-0.951172,0.936096,0.237366,0.15271,0.209961,up
212623,-2.234375,5.882812,8.765625,-1.292969,0.369141,-0.982422,0.936096,0.237366,0.15271,0.209961,up
212628,-2.195313,5.921875,8.648438,-1.320313,0.291016,-1.003906,0.936096,0.237366,0.15271,0.209961,up
212633,-2.347656,5.769531,8.652344,-1.320313,0.291016,-1.003906,0.940491,0.222961,0.155762,0.203674,up
212638,-2.3125,5.539062,8.535156,-1.320313,0.291016,-1.003906,0.940491,0.222961,0.155762,0.203674,up
212643,-2.15625,5.691406,8.308594,-1.427734,0.056641,-1.066406,0.940491,0.222961,0.155762,0.203674,up
212648,-2.121094,5.804687,8.148438,-1.478516,0.001953,-1.087891,0.940491,0.222961,0.155762,0.203674,up
212654,-2.15625,5.578125,8.347656,-1.478516,0.001953,-1.087891,0.946899,0.203613,0.155457,0.194214,up
212659,-2.273438,5.347656,8.1875,-1.478516,0.001953,-1.087891,0.946899,0.203613,0.155457,0.194214,up
212665,-2.273438,5.308594,7.960937,-1.736328,-0.150391,-1.082031,0.946899,0.203613,0.155457,0.194214,up
212671,-2.121094,5.730469,7.5,-1.736328,-0.150391,-1.082031,0.951355,0.189697,0.153381,0.188049,up
212676,-2.042969,5.730469,7.425781,-2.097656,-0.277344,-1.355469,0.951355,0.189697,0.153381,0.188049,up
212681,-1.929688,5.652344,7.382812,-2.294922,-0.322266,-1.482422,0.951355,0.189697,0.153381,0.188049,up
212686,-1.851563,5.460937,7.277344,-2.541016,-0.359375,-1.603516,0.956665,0.172668,0.150146,0.180115,up
212692,-1.890625,4.847656,6.8125,-2.541016,-0.359375,-1.603516,0.958618,0.165894,0.148804,0.177063,up
212698,-1.738281,4.695312,6.699219,-3.101563,-0.322266,-1.820313,0.958618,0.165894,0.148804,0.177063,up
212703,-1.738281,4.695312,6.699219,-3.34375,-0.273438,-1.914063,0.962891,0.149902,0.146057,0.170349,up
212708,-1.582031,4.464844,6.539062,-3.34375,-0.273438,-1.914063,0.962891,0.149902,0.146057,0.170349,up
212714,-1.582031,4.464844,6.539062,-3.587891,-0.185547,-1.970703,0.967102,0.131592,0.143616,0.163452,up
212719,-1.660156,3.699219,6.777344,-3.587891,-0.185547,-1.970703,0.969238,0.121338,0.142456,0.159912,up
212724,-1.582031,2.433594,8.003906,-4.027344,0.009766,-1.984375,0.97113,0.111084,0.141479,0.156555,up
212729,-1.699219,2.398438,8.0,-3.759766,0.009766,-1.994141,0.97113,0.111084,0.141479,0.156555,up
212734,-1.773438,2.472656,8.003906,-3.759766,0.009766,-1.994141,0.97467,0.090454,0.139587,0.149658,up
212740,-2.042969,2.664063,8.082031,-3.474609,-0.042969,-2.009766,0.97467,0.090454,0.139587,0.149658,up
212746,-2.042969,2.664063,8.082031,-2.818359,-0.263672,-2.082031,0.978821,0.06427,0.136414,0.138306,up
212751,-2.121094,2.742188,8.53125,-2.519531,-0.400391,-2.097656,0.980164,0.056458,0.134888,0.133667,up
212756,-2.195313,2.894531,8.53125,-2.294922,-0.507812,-2.140625,0.981384,0.049805,0.13324,0.12915,up
212761,-2.503906,3.238281,8.304688,-2.294922,-0.507812,-2.140625,0.981384,0.049805,0.13324,0.12915,up
212766,-2.503906,3.238281,8.304688,-2.128906,-0.638672,-2.154297,0.982361,0.044617,0.131592,0.125122,up
212771,-2.386719,3.316406,8.308594,-2.128906,-0.638672,-2.154297,0.983521,0.038757,0.129456,0.120361,up
212777,-2.578125,3.546875,8.347656,-2.179688,-0.804687,-2.142578,0.985596,0.027222,0.124634,0.111206,up
212782,-2.578125,3.546875,8.347656,-2.179688,-0.804687,-2.142578,0.985596,0.027222,0.124634,0.111206,up
212788,-2.734375,2.78125,8.6875,-2.464844,-0.869141,-2.072266,0.987488,0.014221,0.119263,0.102478,up
212793,-2.769531,2.511719,8.804688,-2.736328,-0.888672,-1.886719,0.987488,0.014221,0.119263,0.102478,up
212799,-2.808594,1.746094,9.03125,-2.736328,-0.888672,-1.886719,0.987488,0.014221,0.119263,0.102478,up
212804,-2.808594,1.363281,9.375,-2.710938,-0.873047,-1.605469,0.987488,0.014221,0.119263,0.102478,up
212809,-2.734375,1.019531,9.609375,-2.533203,-0.865234,-1.449219,0.987488,0.014221,0.119263,0.102478,up
212815,-2.808594,0.558594,9.800781,-2.533203,-0.865234,-1.449219,0.990601,-0.020386,0.10498,0.085449,up
212820,-2.734375,0.671875,9.796875,-2.533203,-0.865234,-1.449219,0.990906,-0.024902,0.102722,0.083435,up
212825,-2.65625,0.828125,9.800781,-0.824219,-0.886719,-0.746094,0.990906,-0.024902,0.102722,0.083435,up
212830,-2.617188,0.828125,9.800781,-0.824219,-0.886719,-0.746094,0.991577,-0.032166,0.097412,0.079468,up
212835,-2.617188,0.75,9.757813,-0.824219,-0.886719,-0.746094,0.991821,-0.033508,0.095093,0.078125,up
212840,-2.617188,0.828125,9.691406,0.054687,-0.990234,-0.453125,0.991821,-0.033508,0.095093,0.078125,up
212846,-2.464844,1.210938,9.496094,0.396484,-1.050781,-0.351563,0.991821,-0.033508,0.095093,0.078125,up
212852,-2.273438,2.207031,9.453125,0.396484,-1.050781,-0.351563,0.993164,-0.029907,0.085022,0.074585,up
212857,-2.3125,2.472656,9.378906,0.914062,-1.302734,-0.3125,0.993164,-0.029907,0.085022,0.074585,up
212862,-2.273438,2.625,9.226563,0.900391,-1.404297,-0.376953,0.993896,-0.025024,0.078796,0.072815,up
212867,-2.082031,2.816406,9.113281,0.900391,-1.404297,-0.376953,0.994385,-0.022339,0.07489,0.071655,up
212872,-1.851563,3.203125,8.847656,0.900391,-1.404297,-0.376953,0.994385,-0.022339,0.07489,0.071655,up
212877,-1.851563,3.203125,8.847656,0.482422,-1.673828,-0.537109,0.994385,-0.022339,0.07489,0.071655,up
212882,-1.699219,3.277344,8.808594,0.482422,-1.673828,-0.537109,0.995544,-0.017578,0.063293,0.067993,up
212887,-1.546875,2.894531,8.6875,0.482422,-1.673828,-0.537109,0.995544,-0.017578,0.063293,0.067993,up
212892,-1.546875,2.894531,8.6875,-0.28125,-1.792969,-0.556641,0.995544,-0.017578,0.063293,0.067993,up
212897,-1.46875,2.398438,8.464844,-0.28125,-1.792969,-0.556641,0.996216,-0.017395,0.054504,0.06543,up
212902,-1.351563,2.089844,8.535156,-0.423828,-1.716797,-0.513672,0.996765,-0.018921,0.045471,0.063049,up
212908,-1.046875,1.246094,8.648438,-0.423828,-1.716797,-0.513672,0.996765,-0.018921,0.045471,0.063049,up
212914,-0.664062,1.019531,8.917969,-0.373047,-1.554688,-0.378906,0.996765,-0.018921,0.045471,0.063049,up
212920,-0.472656,0.941406,9.035156,-0.126953,-1.443359,-0.306641,0.996765,-0.018921,0.045471,0.063049,up
212925,-0.320313,1.246094,8.953125,0.205078,-1.294922,-0.199219,0.997681,-0.019287,0.026917,0.059509,up
212930,-0.28125,1.019531,8.996094,0.205078,-1.294922,-0.199219,0.997681,-0.019287,0.026917,0.059509,up
212935,-0.203125,0.902344,9.035156,1.103516,-0.869141,0.121094,0.997681,-0.019287,0.026917,0.059509,up
212940,-0.128906,0.980469,9.070313,1.316406,-0.738281,0.220703,0.997864,-0.014954,0.022156,0.059631,up
212946,0.0625,1.402344,9.269531,1.462891,-0.617187,0.320313,0.997925,-0.011658,0.020264,0.060059,up
212951,0.101563,1.59375,9.296875,1.462891,-0.617187,0.320313,0.997925,-0.003784,0.017517,0.061646,up
212956,0.027344,2.128906,9.269531,1.462891,-0.617187,0.320313,0.997864,0.000549,0.016602,0.062744,up
212961,0.027344,2.28125,9.300781,1.462891,-0.617187,0.320313,0.997864,0.000549,0.016602,0.062744,up
212966,-0.050781,2.511719,9.378906,1.560547,-0.34375,0.523437,0.997864,0.000549,0.016602,0.062744,up
212971,-0.164062,2.703125,9.574219,1.478516,-0.285156,0.578125,0.99762,0.011902,0.015015,0.066711,up
212976,-0.320313,2.703125,9.878906,1.478516,-0.285156,0.578125,0.997437,0.015137,0.014771,0.068237,up
212982,-0.511719,2.550781,10.140625,1.478516,-0.285156,0.578125,0.997314,0.017883,0.014709,0.069763,up
212987,-0.472656,2.320313,10.257813,1.105469,-0.011719,0.761719,0.997131,0.020691,0.014771,0.071594,up
212993,-0.511719,2.28125,10.457031,1.101563,0.050781,0.810547,0.997131,0.020691,0.014771,0.071594,up
212999,-0.550781,2.28125,10.5625,1.101563,0.119141,0.882812,0.997131,0.020691,0.014771,0.071594,up
213004,-0.550781,2.28125,10.644531,1.109375,0.199219,0.958984,0.997131,0.020691,0.014771,0.071594,up
213009,-0.472656,2.320313,10.683594,1.162109,0.275391,1.041016,0.997131,0.020691,0.014771,0.071594,up
213015,-0.28125,2.511719,10.878906,1.236328,0.361328,1.117188,0.997131,0.020691,0.014771,0.071594,up
213020,-0.242187,2.589844,10.90625,1.341797,0.453125,1.210938,0.997131,0.020691,0.014771,0.071594,up
213025,-0.242187,2.589844,10.90625,1.458984,0.554687,1.296875,0.994934,0.041809,0.020264,0.08905,up
213030,-0.164062,2.855469,10.984375,1.591797,0.650391,1.396484,0.994934,0.041809,0.020264,0.08905,up
213035,-0.164062,2.855469,10.984375,1.669922,0.738281,1.498047,0.993835,0.049622,0.023926,0.096008,up
213040,-0.394531,3.660156,11.144531,1.669922,0.738281,1.498047,0.993225,0.053711,0.026062,0.099792,up
213045,-0.394531,3.660156,11.144531,1.685547,0.96875,1.783203,0.992493,0.057922,0.028503,0.104004,up
213051,-1.351563,4.273437,11.261719,1.685547,0.96875,1.783203,0.990845,0.065979,0.03363,0.112732,up
213056,-1.546875,4.351562,11.449219,1.628906,1.101563,1.941406,0.989807,0.070374,0.036682,0.117981,up
213061,-1.738281,4.425781,11.484375,1.628906,1.101563,1.941406,0.988892,0.073914,0.039368,0.122559,up
213066,-2.121094,4.617187,11.40625,1.628906,1.101563,1.941406,0.987793,0.077881,0.042603,0.128113,up
213072,-2.347656,4.808594,11.523438,1.628906,1.101563,1.941406,0.986755,0.081055,0.045349,0.133118,up
213077,-2.425781,5.039062,11.714844,1.226563,1.246094,2.351563,0.986755,0.081055,0.045349,0.133118,up
213082,-2.578125,5.15625,11.871094,1.085938,1.279297,2.488281,0.986755,0.081055,0.045349,0.133118,up
213087,-2.695313,5.230469,12.714844,1.085938,1.279297,2.488281,0.98291,0.089417,0.054321,0.151367,up
213097,-2.925781,4.695312,12.976563,0.957031,1.177734,3.0,0.979858,0.094177,0.059937,0.165588,up
213102,-2.925781,4.695312,12.976563,0.978516,1.101563,3.189453,0.978149,0.096619,0.062378,0.173157,up
213107,-3.269531,4.234375,13.28125,0.978516,1.101563,3.189453,0.978149,0.096619,0.062378,0.173157,up
213112,-3.269531,4.234375,13.28125,1.078125,0.896484,3.595703,0.974243,0.101868,0.066528,0.190002,up
213117,-3.382813,3.929688,13.324219,1.078125,0.896484,3.595703,0.974243,0.101868,0.066528,0.190002,up
213122,-3.613281,3.585938,13.4375,1.228516,0.791016,3.773438,0.971924,0.10498,0.068237,0.199219,up
213127,-3.726563,3.585938,13.25,1.4375,0.6875,3.955078,0.966797,0.112732,0.070923,0.217957,up
213132,-3.804688,3.777344,12.941406,1.4375,0.6875,3.955078,0.963745,0.117676,0.072205,0.22821,up
213137,-3.882813,4.503906,12.328125,1.4375,0.6875,3.955078,0.960571,0.123047,0.073364,0.238403,up
213143,-4.035156,4.964844,11.789063,1.4375,0.6875,3.955078,0.957031,0.128784,0.074524,0.248901,up
213148,-4.226562,5.078125,11.644531,2.283203,0.570312,4.763672,0.957031,0.128784,0.074524,0.248901,up
213153,-4.304687,5.15625,11.566406,2.279297,0.599609,4.886719,0.957031,0.128784,0.074524,0.248901,up
213158,-4.457031,5.386719,11.289063,2.279297,0.599609,4.886719,0.944092,0.147644,0.07843,0.28418,up
213163,-4.457031,5.386719,11.289063,2.146484,0.654297,5.068359,0.940063,0.15271,0.079468,0.294373,up
213168,-4.457031,5.386719,11.289063,1.974609,0.671875,5.144531,0.935364,0.158081,0.080627,0.30603,up
213173,-4.648437,5.347656,11.183594,1.974609,0.671875,5.144531,0.935364,0.158081,0.080627,0.30603,up
213178,-4.722656,5.0,11.0625,1.763672,0.675781,5.195312,0.930298,0.163147,0.081604,0.318237,up
213183,-4.722656,5.0,11.0625,1.314453,0.662109,5.306641,0.930298,0.163147,0.081604,0.318237,up
213189,-4.839844,4.273437,11.144531,1.314453,0.662109,5.306641,0.920166,0.171326,0.082825,0.342163,up
213195,-4.800781,4.195312,11.21875,1.019531,0.605469,5.425781,0.903687,0.180786,0.082886,0.37915,up
213200,-4.761719,4.082031,11.179688,1.019531,0.605469,5.425781,0.903687,0.180786,0.082886,0.37915,up
213205,-4.761719,4.042969,11.140625,1.025391,0.535156,5.574219,0.903687,0.180786,0.082886,0.37915,up
213211,-4.570312,3.96875,11.066406,1.072266,0.490234,5.65625,0.903687,0.180786,0.082886,0.37915,up
213216,-4.496094,3.929688,10.988281,1.191406,0.373047,5.792969,0.885132,0.190125,0.081604,0.416809,up
213221,-4.378906,3.929688,10.835938,1.191406,0.373047,5.792969,0.877625,0.193909,0.080872,0.430786,up
213226,-4.378906,3.929688,10.835938,1.248047,0.310547,5.841797,0.871216,0.197205,0.080139,0.442261,up
213231,-4.074219,3.929688,10.796875,1.292969,0.25,5.886719,0.871216,0.197205,0.080139,0.442261,up
213236,-4.074219,3.929688,10.796875,1.322266,0.191406,5.908203,0.856689,0.204712,0.078247,0.46698,up
213241,-3.691406,4.351562,10.21875,1.34375,0.134766,5.898437,0.856689,0.204712,0.078247,0.46698,up
213246,-3.691406,4.351562,10.21875,1.291016,0.089844,5.865234,0.832947,0.216187,0.074341,0.503906,up
213251,-3.421875,4.195312,9.953125,1.291016,0.089844,5.865234,0.825012,0.219727,0.072632,0.515564,up
213256,-3.230469,4.390625,9.761719,1.291016,0.089844,5.865234,0.815857,0.223572,0.070435,0.528625,up
213261,-3.230469,4.503906,9.53125,1.291016,0.089844,5.865234,0.808716,0.226379,0.06842,0.538574,up
213266,-3.191406,4.195312,9.453125,0.78125,-0.222656,5.736328,0.808716,0.226379,0.06842,0.538574,up
213272,-3.039063,4.160156,9.339844,0.78125,-0.222656,5.736328,0.791382,0.232544,0.062805,0.56189,up
213277,-2.925781,4.082031,9.457031,0.65625,-0.347656,5.824219,0.782898,0.235291,0.059753,0.572815,up
213283,-2.695313,3.851563,9.453125,0.65625,-0.347656,5.824219,0.774963,0.237793,0.056702,0.582825,up
213288,-2.539063,3.46875,9.339844,0.65625,-0.347656,5.824219,0.774963,0.237793,0.056702,0.582825,up
213293,-2.539063,3.46875,9.339844,0.673828,-0.460937,5.888672,0.766174,0.240601,0.053345,0.593567,up
213299,-2.3125,3.007813,9.265625,0.769531,-0.523437,5.921875,0.766174,0.240601,0.053345,0.593567,up
213304,-1.929688,2.664063,9.035156,0.769531,-0.523437,5.921875,0.766174,0.240601,0.053345,0.593567,up
213310,-1.738281,2.550781,8.992188,0.976562,-0.613281,5.988281,0.727478,0.253723,0.039612,0.63623,up
213316,-1.46875,2.433594,8.765625,0.976562,-0.613281,5.988281,0.706177,0.261597,0.033569,0.657043,up
213321,-1.046875,2.359375,8.769531,0.976562,-0.613281,5.988281,0.706177,0.261597,0.033569,0.657043,up
213326,-1.046875,2.359375,8.769531,1.546875,-0.568359,5.929687,0.696045,0.265564,0.031128,0.666382,up
213331,-0.777344,2.28125,8.765625,1.546875,-0.568359,5.929687,0.685303,0.269836,0.028931,0.675781,up
213336,-0.777344,2.28125,8.765625,1.826172,-0.517578,5.808594,0.673889,0.27417,0.026917,0.685547,up
213341,-0.625,2.359375,8.648438,1.826172,-0.517578,5.808594,0.673889,0.27417,0.026917,0.685547,up
213346,-0.625,2.359375,8.648438,1.839844,-0.548828,5.800781,0.651794,0.282776,0.023315,0.703308,up
213351,-0.242187,2.28125,8.914063,1.839844,-0.548828,5.800781,0.628662,0.291504,0.01947,0.720703,up
213356,-0.394531,2.015625,8.53125,1.839844,-0.548828,5.800781,0.628662,0.291504,0.01947,0.720703,up
213361,-0.550781,1.746094,8.613281,1.839844,-0.548828,5.800781,0.616455,0.296204,0.017151,0.72937,up
213366,-0.550781,1.746094,8.613281,1.638672,-0.822266,5.708984,0.605469,0.300354,0.014832,0.736877,up
213371,-0.472656,1.515625,8.808594,1.638672,-0.822266,5.708984,0.593994,0.304626,0.012207,0.744446,up
213377,-0.128906,0.75,8.503906,1.576172,-0.951172,5.640625,0.581909,0.309021,0.009399,0.752197,up
213382,-0.128906,0.75,8.503906,1.546875,-0.974609,5.568359,0.570374,0.313293,0.006531,0.759277,up
213387,-0.128906,0.75,8.503906,1.546875,-0.974609,5.568359,0.546997,0.321594,0.000977,0.772888,up
213392,0.332031,0.671875,8.042969,1.546875,-0.974609,5.568359,0.535583,0.325378,-0.001404,0.779297,up
213397,0.636719,0.980469,8.042969,1.646484,-0.685547,5.091797,0.522766,0.32959,-0.003845,0.786133,up
213402,0.792969,1.324219,8.109375,1.646484,-0.685547,5.091797,0.522766,0.32959,-0.003845,0.786133,up
213407,0.792969,1.324219,8.109375,1.697266,-0.546875,4.990234,0.513,0.332642,-0.005432,0.79126,up
213412,0.753906,1.667969,8.308594,1.8125,-0.419922,4.865234,0.513,0.332642,-0.005432,0.79126,up
213417,0.753906,1.667969,8.308594,1.851563,-0.324219,4.751953,0.491211,0.338867,-0.00769,0.802368,up
213422,0.714844,2.128906,8.5,1.851563,-0.324219,4.751953,0.480042,0.341858,-0.008545,0.807861,up
213428,1.097656,1.628906,9.152344,1.771484,-0.433594,4.664062,0.457825,0.347534,-0.010498,0.818237,up
213433,1.058594,0.480469,8.652344,1.771484,-0.433594,4.664062,0.447327,0.350403,-0.011963,0.822815,up
213439,1.367188,0.25,8.886719,1.322266,-0.779297,4.597656,0.447327,0.350403,-0.011963,0.822815,up
213445,1.671875,-0.132812,9.1875,1.132813,-1.023438,4.542969,0.447327,0.350403,-0.011963,0.822815,up
213451,2.171875,-1.011719,9.152344,1.132813,-1.023438,4.542969,0.447327,0.350403,-0.011963,0.822815,up
213456,2.363281,-0.972656,8.765625,0.650391,-1.490234,4.179687,0.447327,0.350403,-0.011963,0.822815,up
213461,2.554688,-0.898437,8.386719,0.650391,-1.490234,4.179687,0.396606,0.366943,-0.027222,0.841003,up
213466,2.976563,-1.050781,7.347656,0.541016,-1.525391,3.996094,0.38678,0.370728,-0.031616,0.84375,up
213472,2.976563,-1.050781,7.347656,0.451172,-1.503906,3.787109,0.378906,0.37384,-0.0354,0.845825,up
213477,3.28125,-1.28125,6.816406,0.451172,-1.503906,3.787109,0.370911,0.377014,-0.039429,0.847778,up
213482,3.933594,-1.703125,6.65625,0.240234,-1.365234,3.318359,0.356079,0.382629,-0.047241,0.851196,up
213487,4.316406,-1.664063,7.238281,0.240234,-1.365234,3.318359,0.356079,0.382629,-0.047241,0.851196,up
213492,4.507812,-1.433594,7.460937,0.261719,-1.140625,2.855469,0.34314,0.38739,-0.05365,0.854004,up
213497,4.585937,-1.394531,7.578125,0.570312,-0.888672,2.462891,0.336609,0.389709,-0.056213,0.855347,up
213502,4.585937,-1.355469,7.542969,0.570312,-0.888672,2.462891,0.331604,0.391541,-0.0578,0.856384,up
213508,4.546875,-1.433594,7.003906,0.570312,-0.888672,2.462891,0.325928,0.393677,-0.059265,0.857483,up
213513,4.507812,-1.472656,6.894531,0.714844,-0.830078,2.113281,0.325928,0.393677,-0.059265,0.857483,up
213518,4.585937,-1.472656,6.921875,0.650391,-0.90625,2.029297,0.31543,0.397949,-0.06189,0.859253,up
213524,4.851562,-1.585938,6.890625,0.650391,-0.90625,2.029297,0.310608,0.400146,-0.063293,0.859863,up
213531,5.042969,-1.703125,6.773437,0.564453,-1.048828,1.806641,0.310608,0.400146,-0.063293,0.859863,up
213537,5.351562,-1.742188,6.578125,0.529297,-1.115234,1.681641,0.310608,0.400146,-0.063293,0.859863,up
213543,5.351562,-1.742188,6.578125,0.429687,-1.203125,1.433594,0.29364,0.410217,-0.069092,0.860657,up
213548,5.351562,-1.742188,6.578125,0.429687,-1.203125,1.433594,0.29364,0.410217,-0.069092,0.860657,up
213553,5.617187,-1.777344,6.394531,0.375,-1.232422,1.316406,0.29364,0.410217,-0.069092,0.860657,up
213558,6.269531,-1.933594,6.085937,0.326172,-1.238281,1.201172,0.286926,0.415649,-0.072083,0.860046,up
213563,6.269531,-1.933594,6.085937,0.326172,-1.238281,1.201172,0.286926,0.415649,-0.072083,0.860046,up
213568,6.726562,-1.703125,5.664062,0.142578,-1.029297,0.839844,0.281372,0.420837,-0.075012,0.859131,up
213573,6.726562,-1.703125,5.738281,0.142578,-1.029297,0.839844,0.281372,0.420837,-0.075012,0.859131,up
213578,6.609375,-1.472656,5.738281,0.142578,-1.029297,0.839844,0.277039,0.425232,-0.077637,0.858093,up
213583,6.609375,-1.472656,5.738281,0.193359,-0.744141,0.576172,0.277039,0.425232,-0.077637,0.858093,up
213588,6.542969,-1.089844,5.894531,0.193359,-0.744141,0.576172,0.272217,0.43042,-0.0802,0.856873,up
213594,6.503906,-0.707031,5.96875,0.193359,-0.744141,0.576172,0.270935,0.431824,-0.080566,0.856506,up
213599,6.574219,-0.476562,6.007812,0.419922,-0.626953,0.380859,0.270935,0.431824,-0.080566,0.856506,up
213605,6.648437,-0.285156,6.160156,0.523437,-0.615234,0.298828,0.270935,0.431824,-0.080566,0.856506,up
213610,7.035156,-0.132812,6.199219,0.619141,-0.599609,0.207031,0.270935,0.431824,-0.080566,0.856506,up
213615,7.269531,-0.054687,6.160156,0.691406,-0.564453,0.111328,0.270935,0.431824,-0.080566,0.856506,up
213620,7.378906,0.136719,6.160156,0.722656,-0.53125,0.029297,0.270935,0.431824,-0.080566,0.856506,up
213625,7.414062,0.367188,6.238281,0.705078,-0.511719,-0.039063,0.270935,0.431824,-0.080566,0.856506,up
213631,7.304687,0.40625,6.121094,0.705078,-0.511719,-0.039063,0.262878,0.444641,-0.074768,0.852966,up
213636,7.191406,0.289063,6.085937,0.705078,-0.511719,-0.039063,0.262878,0.444641,-0.074768,0.852966,up
213641,7.070312,0.214844,5.96875,0.117188,-0.673828,-0.144531,0.262878,0.444641,-0.074768,0.852966,up
213646,7.148437,0.023437,5.703125,0.117188,-0.673828,-0.144531,0.262573,0.447754,-0.073914,0.851501,up
213651,7.152344,0.023437,5.546875,0.117188,-0.673828,-0.144531,0.262756,0.449341,-0.074158,0.850647,up
213657,7.191406,0.136719,5.511719,-0.367188,-0.652344,-0.152344,0.262756,0.449341,-0.074158,0.850647,up
213662,7.230469,0.25,5.585937,-0.367188,-0.652344,-0.152344,0.264343,0.453125,-0.076782,0.8479,up
213667,7.347656,0.328125,5.703125,-0.367188,-0.652344,-0.152344,0.265076,0.454041,-0.077881,0.847046,up
213672,7.613281,0.441406,5.703125,-0.367188,-0.652344,-0.152344,0.265076,0.454041,-0.077881,0.847046,up
213677,7.652344,0.480469,5.703125,-0.355469,-0.380859,-0.232422,0.265076,0.454041,-0.077881,0.847046,up
213682,7.730469,0.632812,5.625,-0.355469,-0.380859,-0.232422,0.267517,0.456116,-0.080383,0.84491,up
213687,7.769531,0.710937,5.546875,-0.355469,-0.380859,-0.232422,0.268188,0.456604,-0.080566,0.844421,up
213692,7.878906,0.828125,5.546875,-0.355469,-0.380859,-0.232422,0.268188,0.456604,-0.080566,0.844421,up
213697,7.917969,0.863281,5.546875,0.082031,-0.146484,-0.335938,0.269348,0.45752,-0.079651,0.843689,up
213702,7.953125,0.941406,5.472656,0.082031,-0.146484,-0.335938,0.269348,0.45752,-0.079651,0.843689,up
213707,7.957031,1.019531,5.320312,0.5,-0.023437,-0.396484,0.269348,0.45752,-0.079651,0.843689,up
