timestamp,ax,ay,az,gx,gy,gz,qw,qx,qy,qz,label
559966,-2.378906,7.742187,5.582031,0.1875,0.113281,0.263672,0.878174,0.410217,0.208618,0.130371,up
559972,-2.378906,7.859375,5.621094,0.171875,0.095703,0.234375,0.878174,0.410217,0.208618,0.130371,up
559977,-2.378906,7.859375,5.582031,0.171875,0.095703,0.234375,0.878174,0.410217,0.208618,0.130371,up
559982,-2.378906,7.859375,5.582031,0.085937,0.082031,0.21875,0.878174,0.410217,0.208618,0.130371,up
559987,-2.417969,7.824219,5.582031,0.033203,0.066406,0.214844,0.878174,0.410217,0.208618,0.130371,up
559993,-2.378906,7.742187,5.660156,0.033203,0.066406,0.214844,0.878174,0.410217,0.208618,0.130371,up
559998,-2.417969,7.703125,5.660156,-0.039063,0.058594,0.185547,0.878174,0.410217,0.208618,0.130371,up
560003,-2.417969,7.664062,5.621094,-0.087891,0.056641,0.162109,0.878174,0.410217,0.208618,0.130371,up
560008,-2.457031,7.625,5.660156,-0.087891,0.056641,0.162109,0.877014,0.411804,0.20813,0.133911,up
560013,-2.417969,7.628906,5.734375,-0.087891,0.056641,0.162109,0.877014,0.411682,0.208008,0.134338,up
560019,-2.417969,7.628906,5.734375,-0.087891,0.029297,0.142578,0.877014,0.411682,0.208008,0.134338,up
560024,-2.417969,7.628906,5.773437,-0.089844,0.025391,0.126953,0.877014,0.411682,0.208008,0.134338,up
560030,-2.457031,7.628906,5.773437,-0.089844,0.025391,0.126953,0.877136,0.411316,0.20752,0.135437,up
560035,-2.457031,7.664062,5.8125,0.0,0.009766,0.076172,0.877136,0.411316,0.20752,0.135437,up
560041,-2.496094,7.625,5.8125,0.039063,0.001953,0.066406,0.877136,0.411316,0.20752,0.135437,up
560047,-2.457031,7.589844,5.773437,0.039063,0.001953,0.066406,0.877014,0.411621,0.207336,0.135681,up
560053,-2.457031,7.558594,5.734375,0.125,0.003906,0.0625,0.877014,0.411621,0.207336,0.135681,up
560058,-2.417969,7.589844,5.734375,0.166016,0.001953,0.066406,0.877014,0.411621,0.207336,0.135681,up
560063,-2.417969,7.585937,5.660156,0.166016,0.001953,0.066406,0.876587,0.412598,0.207214,0.135742,up
560068,-2.457031,7.554687,5.621094,0.166016,0.001953,0.066406,0.876404,0.413025,0.207214,0.135742,up
560074,-2.457031,7.585937,5.582031,0.263672,0.03125,0.080078,0.876404,0.413025,0.207214,0.135742,up
560079,-2.417969,7.625,5.621094,0.263672,0.03125,0.080078,0.875549,0.414795,0.207275,0.135742,up
560084,-2.417969,7.625,5.542969,0.263672,0.03125,0.080078,0.875183,0.415527,0.207397,0.135742,up
560089,-2.378906,7.664062,5.542969,0.263672,0.03125,0.080078,0.875183,0.415527,0.207397,0.135742,up
560094,-2.378906,7.78125,5.46875,0.417969,0.101563,0.0625,0.875183,0.415527,0.207397,0.135742,up
560099,-2.378906,7.859375,5.46875,0.417969,0.101563,0.0625,0.873718,0.418213,0.20813,0.13562,up
560105,-2.457031,7.96875,5.351562,0.417969,0.101563,0.0625,0.873169,0.419128,0.208496,0.13562,up
560110,-2.457031,8.050781,5.316406,0.457031,0.162109,0.060547,0.873169,0.419128,0.208496,0.13562,up
560116,-2.457031,8.125,5.316406,0.443359,0.191406,0.052734,0.872009,0.421143,0.209351,0.13562,up
560121,-2.457031,8.207031,5.351562,0.443359,0.191406,0.052734,0.87146,0.422058,0.209839,0.13562,up
560126,-2.53125,8.207031,5.316406,0.396484,0.201172,0.060547,0.87146,0.422058,0.209839,0.13562,up
560131,-2.496094,8.242188,5.316406,0.34375,0.212891,0.068359,0.87146,0.422058,0.209839,0.13562,up
560136,-2.496094,8.203125,5.316406,0.34375,0.212891,0.068359,0.87146,0.422058,0.209839,0.13562,up
560141,-2.53125,8.242188,5.351562,0.277344,0.222656,0.087891,0.87146,0.422058,0.209839,0.13562,up
560147,-2.496094,8.246094,5.351562,0.244141,0.226562,0.095703,0.87146,0.422058,0.209839,0.13562,up
560152,-2.570313,8.128906,5.238281,0.216797,0.238281,0.099609,0.87146,0.422058,0.209839,0.13562,up
560157,-2.609375,8.203125,5.238281,0.201172,0.240234,0.111328,0.868225,0.426575,0.213135,0.136963,up
560163,-2.648438,8.242188,5.277344,0.193359,0.224609,0.117188,0.868225,0.426575,0.213135,0.136963,up
560169,-2.6875,8.285156,5.351562,0.179687,0.203125,0.132812,0.868225,0.426575,0.213135,0.136963,up
560174,-2.722656,8.28125,5.390625,0.179687,0.203125,0.132812,0.86676,0.428406,0.2146,0.138306,up
560179,-2.648438,8.320313,5.390625,0.226562,0.146484,0.142578,0.86676,0.428406,0.2146,0.138306,up
560184,-2.722656,8.324219,5.390625,0.226562,0.146484,0.142578,0.866455,0.428833,0.214783,0.13855,up
560189,-2.648438,8.324219,5.46875,0.236328,0.123047,0.144531,0.866455,0.428833,0.214783,0.13855,up
560194,-2.648438,8.320313,5.390625,0.265625,0.058594,0.164062,0.865723,0.429993,0.215088,0.139099,up
560199,-2.6875,8.324219,5.429687,0.265625,0.058594,0.164062,0.86499,0.431274,0.215149,0.139526,up
560204,-2.648438,8.324219,5.351562,0.265625,0.058594,0.164062,0.86499,0.431274,0.215149,0.139526,up
560209,-2.648438,8.320313,5.429687,0.265625,0.058594,0.164062,0.864319,0.432678,0.214966,0.139832,up
560214,-2.570313,8.324219,5.390625,0.265625,0.058594,0.164062,0.864319,0.432678,0.214966,0.139832,up
560219,-2.609375,8.359375,5.351562,0.226562,-0.035156,0.169922,0.864319,0.432678,0.214966,0.139832,up
560224,-2.609375,8.359375,5.351562,0.212891,-0.048828,0.171875,0.86377,0.433899,0.2146,0.140137,up
560229,-2.609375,8.359375,5.351562,0.212891,-0.048828,0.171875,0.86377,0.433899,0.2146,0.140137,up
560234,-2.609375,8.359375,5.351562,0.191406,-0.068359,0.175781,0.863281,0.434998,0.21405,0.140503,up
560239,-2.570313,8.359375,5.316406,0.191406,-0.068359,0.175781,0.863037,0.435608,0.213745,0.140625,up
560244,-2.496094,8.359375,5.316406,0.197266,-0.095703,0.1875,0.862793,0.436157,0.21344,0.140808,up
560249,-2.496094,8.359375,5.316406,0.208984,-0.09375,0.183594,0.862305,0.437317,0.212708,0.141052,up
560254,-2.457031,8.363281,5.277344,0.208984,-0.09375,0.183594,0.862305,0.437317,0.212708,0.141052,up
560259,-2.457031,8.363281,5.238281,0.257813,-0.101563,0.171875,0.862305,0.437317,0.212708,0.141052,up
560265,-2.457031,8.390625,5.238281,0.257813,-0.101563,0.171875,0.861511,0.439392,0.21167,0.141296,up
560270,-2.417969,8.390625,5.238281,0.267578,-0.101563,0.164062,0.861206,0.440125,0.211304,0.141357,up
560275,-2.417969,8.433594,5.199219,0.255859,-0.09375,0.15625,0.860901,0.440918,0.210937,0.141418,up
560281,-2.417969,8.429688,5.160156,0.255859,-0.09375,0.15625,0.860657,0.441467,0.210693,0.141418,up
560286,-2.457031,8.511719,5.160156,0.255859,-0.09375,0.15625,0.860413,0.442078,0.210388,0.141479,up
560293,-2.496094,8.550781,5.199219,0.197266,-0.087891,0.160156,0.860413,0.442078,0.210388,0.141479,up
560298,-2.457031,8.511719,5.125,0.171875,-0.085937,0.171875,0.860413,0.442078,0.210388,0.141479,up
560304,-2.496094,8.429688,5.160156,0.134766,-0.080078,0.169922,0.860413,0.442078,0.210388,0.141479,up
560309,-2.378906,8.429688,5.125,0.134766,-0.080078,0.169922,0.859558,0.444153,0.209045,0.141968,up
560314,-2.378906,8.390625,5.085937,0.119141,-0.072266,0.154297,0.859558,0.444153,0.209045,0.141968,up
560319,-2.378906,8.390625,5.085937,0.119141,-0.072266,0.154297,0.859253,0.444946,0.208374,0.142273,up
560324,-2.339844,8.359375,5.046875,0.119141,-0.072266,0.154297,0.859131,0.445312,0.20813,0.142395,up
560330,-2.304688,8.324219,4.96875,0.150391,-0.046875,0.132812,0.859131,0.445312,0.20813,0.142395,up
560335,-2.304688,8.324219,4.96875,0.167969,-0.041016,0.132812,0.858582,0.446533,0.207397,0.1427,up
560340,-2.226563,8.320313,4.933594,0.177734,-0.037109,0.123047,0.858398,0.447021,0.207214,0.142822,up
560345,-2.226563,8.320313,4.894531,0.177734,-0.037109,0.123047,0.858154,0.44751,0.207031,0.142883,up
560350,-2.226563,8.363281,4.894531,0.197266,-0.019531,0.123047,0.858154,0.44751,0.207031,0.142883,up
560356,-2.1875,8.433594,4.855469,0.197266,-0.019531,0.123047,0.857666,0.448547,0.206787,0.143066,up
560362,-2.1875,8.429688,4.894531,0.183594,-0.001953,0.115234,0.857422,0.449036,0.206665,0.143127,up
560367,-2.148438,8.433594,4.894531,0.15625,0.009766,0.113281,0.857422,0.449036,0.206665,0.143127,up
560372,-2.226563,8.390625,4.777344,0.15625,0.009766,0.113281,0.856995,0.44989,0.206543,0.143433,up
560377,-2.226563,8.390625,4.777344,0.119141,0.027344,0.128906,0.856995,0.44989,0.206543,0.143433,up
560382,-2.226563,8.390625,4.777344,0.105469,0.037109,0.144531,0.856567,0.450562,0.20636,0.143799,up
560388,-2.1875,8.359375,4.855469,0.105469,0.037109,0.144531,0.856384,0.450867,0.20636,0.144104,up
560394,-2.1875,8.324219,4.816406,0.083984,0.078125,0.158203,0.856384,0.450867,0.20636,0.144104,up
560399,-2.1875,8.324219,4.816406,0.083984,0.078125,0.158203,0.856018,0.451355,0.206299,0.144653,up
560405,-2.1875,8.324219,4.816406,0.097656,0.080078,0.154297,0.856018,0.451355,0.206299,0.144653,up
560411,-2.148438,8.246094,4.816406,0.097656,0.080078,0.154297,0.855408,0.452209,0.20636,0.14563,up
560416,-2.148438,8.203125,4.777344,0.136719,0.111328,0.138672,0.855164,0.452515,0.206421,0.145935,up
560421,-2.148438,8.203125,4.777344,0.144531,0.113281,0.126953,0.854919,0.452881,0.206543,0.14624,up
560427,-2.148438,8.242188,4.664062,0.144531,0.113281,0.126953,0.854614,0.453247,0.206726,0.146484,up
560432,-2.113281,8.320313,4.703125,0.195312,0.111328,0.115234,0.854614,0.453247,0.206726,0.146484,up
560437,-2.148438,8.394531,4.738281,0.222656,0.113281,0.105469,0.854004,0.454163,0.207031,0.146973,up
560442,-2.148438,8.46875,4.738281,0.255859,0.101563,0.097656,0.854004,0.454163,0.207031,0.146973,up
560447,-2.148438,8.46875,4.738281,0.285156,0.080078,0.09375,0.854004,0.454163,0.207031,0.146973,up
560452,-2.148438,8.507813,4.703125,0.298828,0.078125,0.080078,0.854004,0.454163,0.207031,0.146973,up
560458,-2.148438,8.507813,4.738281,0.322266,0.066406,0.080078,0.854004,0.454163,0.207031,0.146973,up
560463,-2.113281,8.511719,4.625,0.324219,0.054687,0.076172,0.854004,0.454163,0.207031,0.146973,up
560468,-2.113281,8.511719,4.585937,0.322266,0.046875,0.078125,0.854004,0.454163,0.207031,0.146973,up
560473,-2.035156,8.507813,4.546875,0.318359,0.035156,0.074219,0.854004,0.454163,0.207031,0.146973,up
560478,-2.035156,8.507813,4.546875,0.298828,0.037109,0.082031,0.854004,0.454163,0.207031,0.146973,up
560484,-2.035156,8.46875,4.511719,0.298828,0.037109,0.082031,0.849976,0.460815,0.208313,0.147461,up
560489,-2.035156,8.550781,4.511719,0.298828,0.037109,0.082031,0.849976,0.460815,0.208313,0.147461,up
560494,-2.074219,8.546875,4.511719,0.283203,0.072266,0.080078,0.849976,0.460815,0.208313,0.147461,up
560499,-1.996094,8.550781,4.546875,0.283203,0.072266,0.080078,0.849243,0.462097,0.208557,0.147583,up
560505,-1.996094,8.507813,4.511719,0.283203,0.072266,0.080078,0.84845,0.463318,0.208923,0.147644,up
560510,-1.957031,8.511719,4.585937,0.279297,0.111328,0.054687,0.84845,0.463318,0.208923,0.147644,up
560515,-1.957031,8.550781,4.472656,0.279297,0.111328,0.054687,0.847656,0.464539,0.209412,0.147766,up
560520,-1.957031,8.550781,4.472656,0.300781,0.126953,0.044922,0.847656,0.464539,0.209412,0.147766,up
560525,-1.996094,8.511719,4.433594,0.300781,0.126953,0.044922,0.847229,0.465149,0.209717,0.147827,up
560530,-2.035156,8.546875,4.433594,0.283203,0.144531,0.021484,0.847229,0.465149,0.209717,0.147827,up
560536,-2.035156,8.546875,4.433594,0.257813,0.148437,0.021484,0.846008,0.466919,0.210754,0.147888,up
560541,-1.996094,8.589844,4.433594,0.232422,0.146484,0.013672,0.845642,0.467407,0.211121,0.147949,up
560546,-1.996094,8.625,4.472656,0.203125,0.15625,0.001953,0.845215,0.467896,0.211548,0.14801,up
560552,-2.148438,8.628906,4.472656,0.203125,0.15625,0.001953,0.844971,0.468201,0.211853,0.14801,up
560557,-2.113281,8.664063,4.511719,0.142578,0.164062,-0.009766,0.844971,0.468201,0.211853,0.14801,up
560562,-2.113281,8.664063,4.511719,0.117188,0.164062,-0.011719,0.844482,0.46875,0.212646,0.148132,up
560568,-2.1875,8.703125,4.546875,0.087891,0.167969,-0.017578,0.844482,0.46875,0.212646,0.148132,up
560574,-2.226563,8.707031,4.664062,0.058594,0.166016,-0.015625,0.844482,0.46875,0.212646,0.148132,up
560579,-2.1875,8.707031,4.664062,0.039063,0.158203,-0.021484,0.844482,0.46875,0.212646,0.148132,up
560585,-2.1875,8.707031,4.664062,0.015625,0.146484,-0.015625,0.844482,0.46875,0.212646,0.148132,up
560590,-2.265625,8.664063,4.738281,0.009766,0.134766,-0.011719,0.84375,0.469055,0.214478,0.14856,up
560595,-2.265625,8.703125,4.738281,0.009766,0.134766,-0.011719,0.843567,0.469055,0.215088,0.148743,up
560600,-2.265625,8.667969,4.816406,0.009766,0.134766,-0.011719,0.843567,0.469055,0.215088,0.148743,up
560605,-2.226563,8.667969,4.933594,0.015625,0.107422,0.003906,0.843567,0.469055,0.215088,0.148743,up
560611,-2.226563,8.589844,4.933594,0.015625,0.107422,0.003906,0.843323,0.469116,0.215637,0.148987,up
560616,-2.1875,8.589844,4.933594,0.064453,0.070312,0.03125,0.843201,0.469238,0.215759,0.149048,up
560621,-2.148438,8.625,4.933594,0.087891,0.054687,0.039063,0.843079,0.469421,0.215881,0.149109,up
560628,-2.113281,8.546875,4.933594,0.087891,0.054687,0.039063,0.842896,0.469666,0.216003,0.14917,up
560633,-2.074219,8.585938,4.894531,0.142578,0.048828,0.037109,0.842896,0.469666,0.216003,0.14917,up
560638,-2.035156,8.546875,4.894531,0.175781,0.027344,0.042969,0.842896,0.469666,0.216003,0.14917,up
560643,-1.957031,8.585938,4.855469,0.212891,0.025391,0.050781,0.842896,0.469666,0.216003,0.14917,up
560648,-1.957031,8.625,4.855469,0.212891,0.025391,0.050781,0.841919,0.471313,0.216248,0.14917,up
560653,-1.917969,8.589844,4.777344,0.269531,0.005859,0.046875,0.841919,0.471313,0.216248,0.14917,up
560658,-1.882813,8.589844,4.738281,0.294922,-0.011719,0.050781,0.841919,0.471313,0.216248,0.14917,up
560663,-1.84375,8.589844,4.738281,0.294922,-0.011719,0.050781,0.840881,0.473206,0.216309,0.148926,up
560669,-1.804688,8.625,4.703125,0.294922,-0.011719,0.050781,0.840881,0.473206,0.216309,0.148926,up
560674,-1.804688,8.664063,4.664062,0.294922,-0.011719,0.050781,0.840088,0.474792,0.216309,0.148621,up
560679,-1.804688,8.664063,4.585937,0.328125,-0.054687,0.060547,0.840088,0.474792,0.216309,0.148621,up
560684,-1.804688,8.703125,4.585937,0.328125,-0.064453,0.056641,0.840088,0.474792,0.216309,0.148621,up
560690,-1.84375,8.746094,4.585937,0.324219,-0.097656,0.070312,0.840088,0.474792,0.216309,0.148621,up
560695,-1.84375,8.773438,4.625,0.324219,-0.097656,0.070312,0.838623,0.477722,0.215881,0.14801,up
560701,-1.84375,8.816406,4.585937,0.324219,-0.097656,0.070312,0.837952,0.479248,0.215454,0.147644,up
560706,-1.917969,8.851563,4.546875,0.324219,-0.097656,0.070312,0.837585,0.47998,0.215149,0.1474,up
560711,-1.957031,8.851563,4.511719,0.300781,-0.162109,0.074219,0.837585,0.47998,0.215149,0.1474,up
560716,-1.957031,8.777344,4.472656,0.300781,-0.162109,0.074219,0.836975,0.481506,0.214478,0.146912,up
560721,-2.035156,8.8125,4.472656,0.300781,-0.162109,0.074219,0.836731,0.482239,0.21405,0.146667,up
560726,-1.996094,8.8125,4.511719,0.279297,-0.212891,0.068359,0.836426,0.483032,0.213562,0.146362,up
560731,-1.957031,8.894531,4.472656,0.279297,-0.212891,0.068359,0.836182,0.483765,0.213135,0.146057,up
560736,-1.882813,8.855469,4.433594,0.279297,-0.212891,0.068359,0.835999,0.484375,0.212769,0.145752,up
560741,-1.84375,8.855469,4.433594,0.248047,-0.220703,0.048828,0.835754,0.485046,0.21228,0.145386,up
560747,-1.84375,8.855469,4.433594,0.248047,-0.220703,0.048828,0.835571,0.485657,0.211853,0.145081,up
560752,-1.882813,8.8125,4.472656,0.248047,-0.220703,0.048828,0.835388,0.486267,0.211426,0.144714,up
560758,-1.882813,8.890625,4.433594,0.248047,-0.220703,0.048828,0.835205,0.486816,0.21106,0.144348,up
560763,-1.882813,8.855469,4.433594,0.228516,-0.220703,0.009766,0.835205,0.486816,0.21106,0.144348,up
560768,-1.957031,8.855469,4.433594,0.214844,-0.216797,-0.001953,0.835205,0.486816,0.21106,0.144348,up
560774,-1.917969,8.855469,4.394531,0.210937,-0.230469,-0.007813,0.835205,0.486816,0.21106,0.144348,up
560780,-1.917969,8.855469,4.394531,0.201172,-0.240234,-0.001953,0.835205,0.486816,0.21106,0.144348,up
560785,-1.917969,8.816406,4.394531,0.207031,-0.25,-0.009766,0.835205,0.486816,0.21106,0.144348,up
560790,-1.917969,8.816406,4.394531,0.220703,-0.283203,-0.013672,0.834351,0.490173,0.208496,0.141724,up
560795,-1.917969,8.855469,4.433594,0.220703,-0.283203,-0.013672,0.83429,0.490662,0.208008,0.141235,up
560800,-1.917969,8.855469,4.433594,0.253906,-0.292969,-0.017578,0.83429,0.490662,0.208008,0.141235,up
560806,-1.957031,8.890625,4.433594,0.253906,-0.292969,-0.017578,0.833801,0.492554,0.206482,0.139648,up
560811,-1.957031,8.894531,4.355469,0.277344,-0.306641,-0.039063,0.833618,0.493286,0.205933,0.138977,up
560816,-1.957031,8.933594,4.355469,0.291016,-0.304688,-0.044922,0.833618,0.493286,0.205933,0.138977,up
560821,-1.996094,8.929688,4.394531,0.291016,-0.304688,-0.044922,0.833252,0.494629,0.204956,0.137695,up
560827,-2.035156,9.007813,4.320312,0.291016,-0.304688,-0.044922,0.83313,0.4953,0.204468,0.137024,up
560832,-2.074219,9.007813,4.28125,0.285156,-0.326172,-0.0625,0.83313,0.4953,0.204468,0.137024,up
560838,-2.113281,9.050781,4.320312,0.277344,-0.339844,-0.064453,0.83313,0.4953,0.204468,0.137024,up
560843,-2.1875,9.089844,4.242187,0.277344,-0.339844,-0.064453,0.832642,0.497375,0.202881,0.134888,up
560848,-2.148438,9.085938,4.242187,0.25,-0.351563,-0.076172,0.832642,0.497375,0.202881,0.134888,up
560854,-2.148438,9.050781,4.203125,0.238281,-0.367188,-0.058594,0.832642,0.497375,0.202881,0.134888,up
560859,-2.1875,9.046875,4.203125,0.210937,-0.371094,-0.0625,0.832642,0.497375,0.202881,0.134888,up
560865,-2.1875,9.007813,4.128906,0.210937,-0.371094,-0.0625,0.832275,0.499695,0.200439,0.131958,up
560870,-2.148438,8.929688,4.128906,0.166016,-0.384766,-0.03125,0.832275,0.499695,0.200439,0.131958,up
560875,-2.148438,8.890625,4.089844,0.166016,-0.384766,-0.03125,0.832275,0.500732,0.199036,0.130615,up
560880,-2.113281,8.8125,4.089844,0.166016,-0.384766,-0.03125,0.832275,0.500732,0.199036,0.130615,up
560886,-2.113281,8.773438,4.050781,0.169922,-0.382813,-0.027344,0.832275,0.500732,0.199036,0.130615,up
560891,-2.113281,8.777344,4.011719,0.205078,-0.369141,-0.009766,0.832275,0.500732,0.199036,0.130615,up
560896,-2.074219,8.707031,3.972656,0.205078,-0.369141,-0.009766,0.832031,0.503296,0.195435,0.12738,up
560901,-2.074219,8.667969,3.972656,0.205078,-0.369141,-0.009766,0.831909,0.503845,0.194824,0.126831,up
560906,-2.035156,8.667969,3.898438,0.259766,-0.34375,0.005859,0.831909,0.503845,0.194824,0.126831,up
560911,-2.074219,8.742188,3.898438,0.259766,-0.34375,0.005859,0.831787,0.504578,0.194092,0.126221,up
560916,-2.074219,8.742188,3.898438,0.279297,-0.322266,0.013672,0.831421,0.505859,0.192871,0.125183,up
560921,-2.074219,8.667969,3.820313,0.279297,-0.322266,0.013672,0.831421,0.505859,0.192871,0.125183,up
560926,-2.074219,8.667969,3.820313,0.287109,-0.302734,0.015625,0.831177,0.506653,0.1922,0.124573,up
560931,-2.113281,8.816406,3.859375,0.296875,-0.294922,0.013672,0.830933,0.507324,0.191711,0.124146,up
560936,-2.113281,8.816406,3.859375,0.289063,-0.283203,0.021484,0.830933,0.507324,0.191711,0.124146,up
560942,-2.148438,8.855469,3.9375,0.289063,-0.283203,0.021484,0.830688,0.507996,0.191162,0.123657,up
560947,-2.148438,8.855469,3.9375,0.263672,-0.261719,0.019531,0.830078,0.51001,0.189636,0.122314,up
560953,-2.148438,8.894531,3.898438,0.263672,-0.261719,0.019531,0.829834,0.510559,0.189209,0.121887,up
560959,-2.1875,8.894531,3.9375,0.210937,-0.222656,0.013672,0.829834,0.510559,0.189209,0.121887,up
560964,-2.226563,8.929688,3.898438,0.1875,-0.208984,0.013672,0.829834,0.510559,0.189209,0.121887,up
560969,-2.1875,8.894531,3.9375,0.175781,-0.193359,0.021484,0.829834,0.510559,0.189209,0.121887,up
560974,-2.148438,8.890625,3.972656,0.144531,-0.181641,0.029297,0.829834,0.510559,0.189209,0.121887,up
560979,-2.1875,8.8125,3.9375,0.132812,-0.158203,0.027344,0.829834,0.510559,0.189209,0.121887,up
560984,-2.1875,8.851563,4.011719,0.119141,-0.146484,0.037109,0.829834,0.510559,0.189209,0.121887,up
560989,-2.1875,8.890625,4.050781,0.119141,-0.146484,0.037109,0.829834,0.510559,0.189209,0.121887,up
560995,-2.1875,8.894531,3.972656,0.119141,-0.146484,0.037109,0.828796,0.513916,0.186279,0.11969,up
561001,-2.226563,9.007813,4.089844,0.171875,-0.076172,0.037109,0.828796,0.513916,0.186279,0.11969,up
561006,-2.1875,9.046875,4.050781,0.171875,-0.076172,0.037109,0.828247,0.515076,0.18573,0.119263,up
561011,-2.1875,9.050781,4.089844,0.201172,-0.023437,0.023437,0.828247,0.515076,0.18573,0.119263,up
561016,-2.1875,9.050781,4.128906,0.201172,-0.023437,0.023437,0.828003,0.515564,0.185669,0.119141,up
561021,-2.226563,9.128906,4.203125,0.208984,0.029297,0.013672,0.828003,0.515564,0.185669,0.119141,up
561026,-2.1875,9.125,4.089844,0.208984,0.029297,0.013672,0.827148,0.516846,0.185852,0.118958,up
561031,-2.148438,9.15625,4.128906,0.208984,0.029297,0.013672,0.827148,0.516846,0.185852,0.118958,up
561036,-2.113281,9.199219,4.164062,0.177734,0.111328,-0.017578,0.827148,0.516846,0.185852,0.118958,up
561041,-2.113281,9.199219,4.164062,0.177734,0.111328,-0.017578,0.826355,0.517883,0.186584,0.118896,up
561046,-2.113281,9.273438,4.164062,0.177734,0.111328,-0.017578,0.826111,0.518127,0.187012,0.118896,up
561051,-2.035156,9.234375,4.28125,0.177734,0.111328,-0.017578,0.826111,0.518127,0.187012,0.118896,up
561056,-1.996094,9.273438,4.28125,0.099609,0.181641,-0.064453,0.825684,0.518433,0.187927,0.118958,up
561061,-1.917969,9.234375,4.28125,0.099609,0.181641,-0.064453,0.8255,0.518494,0.188477,0.119019,up
561066,-1.917969,9.238281,4.320312,0.099609,0.181641,-0.064453,0.8255,0.518494,0.188477,0.119019,up
561071,-1.84375,9.234375,4.28125,0.011719,0.255859,-0.082031,0.8255,0.518494,0.188477,0.119019,up
561077,-1.804688,9.199219,4.320312,0.011719,0.255859,-0.082031,0.825134,0.518311,0.190308,0.119385,up
561083,-1.765625,9.15625,4.320312,0.011719,0.255859,-0.082031,0.825073,0.518188,0.190918,0.119568,up
561088,-1.726563,9.125,4.355469,-0.066406,0.285156,-0.070312,0.825012,0.517944,0.19165,0.119751,up
561093,-1.652344,9.085938,4.355469,-0.066406,0.285156,-0.070312,0.825012,0.517639,0.192322,0.120056,up
561098,-1.652344,9.007813,4.355469,-0.066406,0.285156,-0.070312,0.825012,0.517639,0.192322,0.120056,up
561103,-1.613281,9.011719,4.394531,-0.140625,0.306641,-0.066406,0.825012,0.517639,0.192322,0.120056,up
561108,-1.574219,8.96875,4.433594,-0.154297,0.326172,-0.0625,0.825012,0.517639,0.192322,0.120056,up
561114,-1.574219,8.972656,4.472656,-0.171875,0.339844,-0.060547,0.825012,0.517639,0.192322,0.120056,up
561119,-1.535156,8.933594,4.472656,-0.171875,0.339844,-0.060547,0.825256,0.515625,0.195679,0.121643,up
561125,-1.5,8.933594,4.472656,-0.183594,0.367188,-0.070312,0.825256,0.515625,0.195679,0.121643,up
561130,-1.535156,8.929688,4.433594,-0.181641,0.375,-0.058594,0.825256,0.515625,0.195679,0.121643,up
561135,-1.535156,8.972656,4.433594,-0.181641,0.375,-0.058594,0.825439,0.51416,0.197998,0.122864,up
561141,-1.535156,8.933594,4.472656,-0.1875,0.408203,-0.070312,0.825439,0.51416,0.197998,0.122864,up
561146,-1.535156,8.890625,4.433594,-0.214844,0.419922,-0.064453,0.825439,0.51416,0.197998,0.122864,up
561152,-1.574219,9.011719,4.472656,-0.214844,0.419922,-0.064453,0.825745,0.511902,0.201477,0.124695,up
561157,-1.574219,9.007813,4.433594,-0.253906,0.449219,-0.066406,0.825867,0.511169,0.202515,0.125305,up
561162,-1.574219,8.851563,4.394531,-0.253906,0.449219,-0.066406,0.825928,0.510559,0.203308,0.125793,up
561167,-1.574219,8.890625,4.511719,-0.253906,0.449219,-0.066406,0.826111,0.509705,0.204285,0.126404,up
561173,-1.574219,8.851563,4.394531,-0.253906,0.449219,-0.066406,0.826294,0.508972,0.205139,0.127014,up
561178,-1.613281,8.816406,4.433594,-0.341797,0.486328,-0.044922,0.826294,0.508972,0.205139,0.127014,up
561183,-1.574219,8.8125,4.394531,-0.351563,0.503906,-0.041016,0.82666,0.507263,0.207031,0.128357,up
561188,-1.574219,8.746094,4.472656,-0.351563,0.503906,-0.041016,0.82666,0.507263,0.207031,0.128357,up
561195,-1.652344,8.773438,4.433594,-0.357422,0.552734,-0.029297,0.82666,0.507263,0.207031,0.128357,up
561201,-1.574219,8.8125,4.433594,-0.351563,0.582031,-0.027344,0.82666,0.507263,0.207031,0.128357,up
561206,-1.726563,8.890625,4.433594,-0.341797,0.617187,-0.025391,0.82666,0.507263,0.207031,0.128357,up
561211,-1.726563,8.890625,4.433594,-0.322266,0.662109,-0.015625,0.827454,0.502686,0.212463,0.132446,up
561216,-1.765625,8.890625,4.472656,-0.322266,0.662109,-0.015625,0.827515,0.501709,0.213806,0.133423,up
561221,-1.804688,8.933594,4.433594,-0.292969,0.708984,-0.017578,0.827515,0.500854,0.215088,0.134399,up
561227,-1.882813,8.929688,4.394531,-0.292969,0.708984,-0.017578,0.827515,0.499207,0.217712,0.136292,up
561232,-1.882813,8.929688,4.433594,-0.277344,0.742187,-0.023437,0.827454,0.498352,0.219238,0.137329,up
561237,-1.957031,8.933594,4.320312,-0.277344,0.742187,-0.023437,0.827393,0.497498,0.220764,0.138367,up
561242,-1.996094,8.972656,4.242187,-0.277344,0.742187,-0.023437,0.827393,0.496704,0.222107,0.139343,up
561247,-2.113281,8.972656,4.28125,-0.3125,0.787109,-0.017578,0.827393,0.496704,0.222107,0.139343,up
561252,-2.148438,9.007813,4.164062,-0.3125,0.787109,-0.017578,0.827271,0.494812,0.225281,0.141602,up
561257,-2.304688,9.089844,4.128906,-0.3125,0.787109,-0.017578,0.827209,0.493774,0.226807,0.142822,up
561262,-2.378906,9.085938,4.128906,-0.3125,0.787109,-0.017578,0.827209,0.49292,0.228149,0.143799,up
561267,-2.417969,9.050781,4.128906,-0.388672,0.789062,0.027344,0.827209,0.49292,0.228149,0.143799,up
561272,-2.378906,9.011719,4.203125,-0.388672,0.789062,0.027344,0.827271,0.490723,0.23114,0.146362,up
561278,-2.265625,9.089844,4.320312,-0.388672,0.789062,0.027344,0.827209,0.489807,0.232483,0.147522,up
561283,-2.265625,9.089844,4.320312,-0.365234,0.783203,0.042969,0.827209,0.488708,0.233948,0.148804,up
561288,-2.304688,9.011719,4.355469,-0.365234,0.783203,0.042969,0.827148,0.487793,0.235291,0.149963,up
561293,-2.304688,9.046875,4.355469,-0.365234,0.783203,0.042969,0.827087,0.486694,0.236877,0.151306,up
561298,-2.339844,9.007813,4.355469,-0.365234,0.783203,0.042969,0.827087,0.486694,0.236877,0.151306,up
561303,-2.339844,9.007813,4.355469,-0.318359,0.777344,0.050781,0.827087,0.486694,0.236877,0.151306,up
561309,-2.378906,8.972656,4.433594,-0.318359,0.777344,0.050781,0.826843,0.48407,0.240967,0.154785,up
561314,-2.378906,9.050781,4.472656,-0.318359,0.777344,0.050781,0.826721,0.483215,0.242249,0.156006,up
561319,-2.378906,9.011719,4.433594,-0.310547,0.728516,0.070312,0.826721,0.483215,0.242249,0.156006,up
561325,-2.417969,8.972656,4.433594,-0.326172,0.710937,0.068359,0.826721,0.483215,0.242249,0.156006,up
561330,-2.417969,9.007813,4.472656,-0.330078,0.695312,0.082031,0.826721,0.483215,0.242249,0.156006,up
561335,-2.378906,8.972656,4.394531,-0.341797,0.675781,0.085937,0.826721,0.483215,0.242249,0.156006,up
561341,-2.417969,8.890625,4.394531,-0.345703,0.669922,0.085937,0.826721,0.483215,0.242249,0.156006,up
561347,-2.496094,8.929688,4.433594,-0.345703,0.65625,0.097656,0.826721,0.483215,0.242249,0.156006,up
561352,-2.496094,8.929688,4.433594,-0.316406,0.650391,0.078125,0.826294,0.476013,0.251648,0.165344,up
561357,-2.609375,8.972656,4.472656,-0.291016,0.638672,0.064453,0.826294,0.476013,0.251648,0.165344,up
561362,-2.648438,9.011719,4.511719,-0.291016,0.638672,0.064453,0.826111,0.474365,0.253845,0.167419,up
561367,-2.761719,9.050781,4.511719,-0.291016,0.638672,0.064453,0.825989,0.473572,0.255066,0.168457,up
561373,-2.800781,9.089844,4.546875,-0.261719,0.658203,0.011719,0.825867,0.472717,0.256409,0.169495,up
561378,-2.878906,9.085938,4.511719,-0.257813,0.667969,-0.015625,0.825745,0.471924,0.257629,0.17041,up
561384,-2.992188,9.125,4.585937,-0.257813,0.667969,-0.015625,0.825684,0.471191,0.258728,0.171143,up
561389,-3.070313,9.128906,4.585937,-0.257813,0.667969,-0.015625,0.825562,0.470337,0.260071,0.172058,up
561395,-3.070313,9.15625,4.664062,-0.294922,0.654297,-0.042969,0.825562,0.470337,0.260071,0.172058,up
561400,-3.070313,9.089844,4.664062,-0.320313,0.642578,-0.054687,0.825562,0.470337,0.260071,0.172058,up
561405,-3.070313,9.089844,4.625,-0.320313,0.642578,-0.054687,0.825562,0.470337,0.260071,0.172058,up
561410,-3.105469,9.046875,4.664062,-0.353516,0.628906,-0.0625,0.825562,0.470337,0.260071,0.172058,up
561415,-3.105469,9.046875,4.664062,-0.408203,0.583984,-0.050781,0.8255,0.466492,0.264954,0.175354,up
561421,-3.105469,8.972656,4.625,-0.408203,0.583984,-0.050781,0.825562,0.465393,0.266052,0.176208,up
561426,-2.992188,8.667969,4.546875,-0.445312,0.517578,-0.039063,0.825867,0.463074,0.268005,0.177856,up
561431,-2.953125,8.589844,4.546875,-0.447266,0.478516,-0.023437,0.825867,0.463074,0.268005,0.177856,up
561436,-2.914063,8.511719,4.546875,-0.447266,0.478516,-0.023437,0.826355,0.460632,0.269775,0.179504,up
561441,-2.878906,8.46875,4.511719,-0.398438,0.410156,-0.001953,0.826355,0.460632,0.269775,0.179504,up
561447,-2.878906,8.433594,4.546875,-0.314453,0.353516,0.015625,0.826355,0.460632,0.269775,0.179504,up
561452,-2.800781,8.320313,4.511719,-0.314453,0.353516,0.015625,0.826782,0.457947,0.271545,0.181458,up
561457,-2.761719,8.285156,4.433594,-0.265625,0.322266,0.023437,0.826782,0.457947,0.271545,0.181458,up
561462,-2.761719,8.324219,4.355469,-0.203125,0.283203,0.033203,0.826965,0.456543,0.272583,0.182617,up
561467,-2.761719,8.285156,4.394531,-0.203125,0.283203,0.033203,0.827026,0.455566,0.273438,0.183594,up
561472,-2.722656,8.28125,4.355469,-0.203125,0.283203,0.033203,0.827026,0.455566,0.273438,0.183594,up
561478,-2.722656,8.28125,4.355469,-0.144531,0.253906,0.041016,0.827026,0.454773,0.274231,0.18457,up
561483,-2.761719,8.28125,4.355469,-0.148437,0.25,0.052734,0.826965,0.454346,0.274658,0.185059,up
561489,-2.800781,8.28125,4.28125,-0.148437,0.25,0.052734,0.826965,0.453979,0.274963,0.185486,up
561495,-2.800781,8.207031,4.320312,-0.148437,0.25,0.052734,0.826965,0.453552,0.275391,0.186035,up
561500,-2.800781,8.203125,4.242187,-0.191406,0.248047,0.0625,0.826965,0.453552,0.275391,0.186035,up
561505,-2.878906,8.207031,4.28125,-0.207031,0.238281,0.060547,0.826965,0.453552,0.275391,0.186035,up
561510,-2.839844,8.246094,4.28125,-0.208984,0.238281,0.046875,0.826965,0.453552,0.275391,0.186035,up
561515,-2.878906,8.167969,4.28125,-0.208984,0.238281,0.046875,0.826965,0.453552,0.275391,0.186035,up
561520,-2.878906,8.207031,4.203125,-0.208984,0.238281,0.046875,0.827087,0.451294,0.276978,0.188416,up
561525,-2.914063,8.242188,4.203125,-0.167969,0.222656,0.033203,0.827087,0.451294,0.276978,0.188416,up
561530,-2.914063,8.324219,4.203125,-0.193359,0.214844,0.033203,0.827087,0.451294,0.276978,0.188416,up
561535,-2.953125,8.394531,4.203125,-0.193359,0.214844,0.033203,0.827087,0.451294,0.276978,0.188416,up
561540,-2.953125,8.433594,4.164062,-0.193359,0.214844,0.033203,0.827271,0.449463,0.278259,0.190125,up
561546,-2.992188,8.511719,4.089844,-0.138672,0.212891,0.017578,0.827271,0.449463,0.278259,0.190125,up
561552,-2.992188,8.550781,4.050781,-0.136719,0.216797,0.015625,0.827271,0.449463,0.278259,0.190125,up
561557,-2.992188,8.546875,4.128906,-0.136719,0.216797,0.015625,0.827271,0.448364,0.279297,0.191162,up
561562,-2.992188,8.585938,4.050781,-0.191406,0.21875,0.027344,0.827271,0.448364,0.279297,0.191162,up
561568,-2.992188,8.664063,4.050781,-0.191406,0.21875,0.027344,0.827393,0.447083,0.280273,0.192383,up
561573,-2.992188,8.667969,4.089844,-0.234375,0.236328,0.035156,0.827454,0.446533,0.28064,0.192871,up
561578,-2.992188,8.667969,4.089844,-0.253906,0.244141,0.046875,0.827515,0.445923,0.280945,0.19342,up
561584,-2.992188,8.707031,4.128906,-0.253906,0.244141,0.046875,0.827637,0.445374,0.28125,0.193909,up
561589,-2.992188,8.667969,4.128906,-0.253906,0.244141,0.046875,0.827698,0.444702,0.281555,0.194519,up
561594,-2.992188,8.703125,4.164062,-0.306641,0.275391,0.074219,0.827698,0.444702,0.281555,0.194519,up
561600,-2.992188,8.703125,4.203125,-0.310547,0.285156,0.085937,0.827698,0.444702,0.281555,0.194519,up
561606,-2.953125,8.625,4.242187,-0.310547,0.285156,0.085937,0.828064,0.442566,0.282593,0.196533,up
561611,-2.953125,8.585938,4.28125,-0.316406,0.296875,0.101563,0.828064,0.442566,0.282593,0.196533,up
561617,-2.992188,8.628906,4.320312,-0.302734,0.308594,0.123047,0.828064,0.442566,0.282593,0.196533,up
561622,-2.992188,8.664063,4.394531,-0.302734,0.308594,0.123047,0.828308,0.439758,0.283936,0.199646,up
561627,-2.992188,8.664063,4.433594,-0.302734,0.308594,0.123047,0.828369,0.439087,0.284302,0.200439,up
561632,-3.070313,8.773438,4.433594,-0.302734,0.308594,0.123047,0.828369,0.439087,0.284302,0.200439,up
561637,-3.070313,8.851563,4.546875,-0.296875,0.328125,0.142578,0.828369,0.439087,0.284302,0.200439,up
561642,-3.105469,8.890625,4.625,-0.306641,0.320313,0.160156,0.82843,0.437744,0.285034,0.202148,up
561648,-3.144531,8.894531,4.625,-0.318359,0.3125,0.181641,0.828491,0.437012,0.285339,0.203064,up
561653,-3.144531,8.894531,4.703125,-0.318359,0.3125,0.181641,0.828491,0.436401,0.285645,0.203918,up
561659,-3.183594,8.851563,4.738281,-0.318359,0.3125,0.181641,0.828613,0.434937,0.286072,0.205872,up
561664,-3.183594,8.816406,4.855469,-0.384766,0.263672,0.244141,0.828674,0.434204,0.286194,0.206909,up
561669,-3.105469,8.773438,4.894531,-0.396484,0.244141,0.263672,0.828674,0.434204,0.286194,0.206909,up
561674,-3.105469,8.746094,4.894531,-0.402344,0.220703,0.289063,0.828674,0.434204,0.286194,0.206909,up
561679,-3.070313,8.707031,4.96875,-0.402344,0.220703,0.289063,0.828674,0.434204,0.286194,0.206909,up
561684,-3.03125,8.664063,4.933594,-0.378906,0.183594,0.332031,0.828674,0.434204,0.286194,0.206909,up
561690,-2.953125,8.625,5.007812,-0.361328,0.175781,0.345703,0.828674,0.434204,0.286194,0.206909,up
561695,-2.953125,8.628906,5.046875,-0.361328,0.175781,0.345703,0.828674,0.434204,0.286194,0.206909,up
561701,-2.878906,8.625,5.046875,-0.361328,0.175781,0.345703,0.829407,0.429687,0.285278,0.214722,up
561707,-2.839844,8.625,5.046875,-0.234375,0.140625,0.416016,0.829407,0.429687,0.285278,0.214722,up
561713,-2.839844,8.625,5.046875,-0.234375,0.140625,0.416016,0.829224,0.428772,0.284424,0.218262,up
561718,-2.761719,8.703125,5.046875,-0.185547,0.138672,0.449219,0.829102,0.428589,0.284119,0.219543,up
561724,-2.722656,8.703125,5.046875,-0.185547,0.138672,0.449219,0.828979,0.428528,0.283813,0.220581,up
561729,-2.6875,8.773438,5.007812,-0.130859,0.121094,0.470703,0.828735,0.428467,0.283508,0.221802,up
561734,-2.722656,8.890625,5.007812,-0.130859,0.121094,0.470703,0.828552,0.428528,0.283142,0.222961,up
561739,-2.761719,9.007813,5.046875,-0.103516,0.119141,0.5,0.828552,0.428528,0.283142,0.222961,up
561745,-2.761719,9.085938,5.046875,-0.087891,0.107422,0.511719,0.828552,0.428528,0.283142,0.222961,up
561750,-2.878906,9.316406,5.085937,-0.087891,0.107422,0.511719,0.828552,0.428528,0.283142,0.222961,up
561756,-2.914063,9.394531,5.125,-0.095703,0.103516,0.507812,0.828552,0.428528,0.283142,0.222961,up
561761,-2.914063,9.46875,5.125,-0.107422,0.091797,0.515625,0.828552,0.428528,0.283142,0.222961,up
561766,-2.953125,9.507813,5.238281,-0.136719,0.078125,0.519531,0.828552,0.428528,0.283142,0.222961,up
561772,-2.953125,9.546875,5.199219,-0.195312,0.066406,0.509766,0.828552,0.428528,0.283142,0.222961,up
561777,-2.953125,9.550781,5.238281,-0.195312,0.066406,0.509766,0.826721,0.429077,0.279724,0.232788,up
561782,-2.914063,9.507813,5.277344,-0.259766,0.037109,0.515625,0.826721,0.429077,0.279724,0.232788,up
561787,-2.878906,9.394531,5.316406,-0.259766,0.037109,0.515625,0.826538,0.428833,0.278564,0.235291,up
561792,-2.839844,9.394531,5.316406,-0.259766,0.037109,0.515625,0.826477,0.428589,0.277893,0.236572,up
561798,-2.839844,9.390625,5.351562,-0.292969,-0.007813,0.519531,0.826477,0.428589,0.277893,0.236572,up
561803,-2.800781,9.355469,5.390625,-0.292969,-0.007813,0.519531,0.826477,0.427917,0.275635,0.240356,up
561809,-2.722656,9.316406,5.46875,-0.292969,-0.007813,0.519531,0.826477,0.427795,0.274841,0.241577,up
561814,-2.6875,9.316406,5.46875,-0.230469,-0.070312,0.550781,0.826477,0.427673,0.273987,0.242798,up
561820,-2.6875,9.3125,5.429687,-0.201172,-0.09375,0.564453,0.826477,0.427673,0.273987,0.242798,up
561825,-2.6875,9.3125,5.429687,-0.201172,-0.09375,0.564453,0.826477,0.427673,0.273987,0.242798,up
561831,-2.6875,9.3125,5.429687,-0.167969,-0.113281,0.568359,0.826294,0.427917,0.271118,0.246277,up
561837,-2.6875,9.3125,5.429687,-0.115234,-0.166016,0.607422,0.826111,0.428162,0.270081,0.247498,up
561842,-2.570313,9.351563,5.390625,-0.115234,-0.166016,0.607422,0.826111,0.428162,0.270081,0.247498,up
561847,-2.570313,9.351563,5.390625,-0.082031,-0.195312,0.623047,0.825806,0.428894,0.267822,0.249695,up
561853,-2.457031,9.273438,5.351562,-0.082031,-0.195312,0.623047,0.825439,0.429871,0.265198,0.252136,up
561858,-2.339844,9.199219,5.351562,-0.082031,-0.195312,0.623047,0.825195,0.430359,0.263855,0.253357,up
561863,-2.265625,9.007813,5.238281,-0.041016,-0.294922,0.775391,0.824951,0.430969,0.26239,0.254639,up
561869,-2.074219,8.894531,5.125,-0.041016,-0.294922,0.775391,0.824707,0.431641,0.260864,0.25592,up
561874,-2.035156,8.855469,5.125,0.0,-0.296875,0.804687,0.824341,0.432434,0.259216,0.257385,up
561880,-1.957031,8.773438,5.125,0.0,-0.296875,0.804687,0.824036,0.433105,0.257935,0.258545,up
561886,-1.882813,8.773438,5.160156,0.085937,-0.261719,0.822266,0.823608,0.434021,0.256409,0.26001,up
561892,-1.882813,8.773438,5.085937,0.130859,-0.240234,0.832031,0.823608,0.434021,0.256409,0.26001,up
561897,-1.84375,8.816406,5.085937,0.130859,-0.240234,0.832031,0.822571,0.435852,0.253845,0.262573,up
561903,-1.804688,8.816406,5.046875,0.214844,-0.189453,0.835937,0.822571,0.435852,0.253845,0.262573,up
561908,-1.765625,8.742188,4.96875,0.230469,-0.162109,0.835937,0.822571,0.435852,0.253845,0.262573,up
561914,-1.652344,8.667969,4.96875,0.230469,-0.162109,0.835937,0.819824,0.440308,0.249329,0.268127,up
561919,-1.613281,8.667969,4.96875,0.226562,-0.125,0.841797,0.819824,0.440308,0.249329,0.268127,up
561924,-1.613281,8.667969,4.96875,0.210937,-0.128906,0.849609,0.818359,0.442444,0.247192,0.270935,up
561930,-1.421875,8.433594,4.894531,0.210937,-0.128906,0.849609,0.817627,0.443481,0.246155,0.272461,up
561935,-1.34375,8.390625,4.894531,0.197266,-0.132812,0.835937,0.817627,0.443481,0.246155,0.272461,up
561940,-1.269531,8.324219,4.816406,0.191406,-0.132812,0.822266,0.817627,0.443481,0.246155,0.272461,up
561945,-1.230469,8.28125,4.777344,0.207031,-0.140625,0.820312,0.817627,0.443481,0.246155,0.272461,up
561950,-1.230469,8.28125,4.738281,0.207031,-0.140625,0.820312,0.814819,0.447571,0.241821,0.278015,up
561957,-1.152344,8.320313,4.777344,0.207031,-0.140625,0.820312,0.814819,0.447571,0.241821,0.278015,up
561963,-1.152344,8.363281,4.738281,0.367188,-0.197266,0.832031,0.814819,0.447571,0.241821,0.278015,up
561968,-1.117188,8.429688,4.777344,0.367188,-0.197266,0.832031,0.812378,0.451294,0.238586,0.28186,up
561973,-1.117188,8.472656,4.738281,0.410156,-0.236328,0.851562,0.812378,0.451294,0.238586,0.28186,up
561978,-1.117188,8.550781,4.816406,0.410156,-0.236328,0.851562,0.810486,0.454346,0.236206,0.284485,up
561983,-1.078125,8.585938,4.816406,0.427734,-0.263672,0.880859,0.809509,0.455872,0.235046,0.285645,up
561988,-1.078125,8.625,4.855469,0.427734,-0.263672,0.880859,0.807678,0.458862,0.232666,0.287964,up
561993,-1.078125,8.707031,4.894531,0.427734,-0.263672,0.880859,0.807678,0.458862,0.232666,0.287964,up
561998,-1.0,8.628906,4.933594,0.394531,-0.302734,0.919922,0.807678,0.458862,0.232666,0.287964,up
562004,-0.886719,8.46875,4.933594,0.394531,-0.302734,0.919922,0.804871,0.463501,0.228577,0.291748,up
562009,-0.847656,8.363281,4.855469,0.384766,-0.328125,0.943359,0.803772,0.465271,0.226929,0.293213,up
562015,-0.730469,8.128906,4.855469,0.384766,-0.328125,0.943359,0.802917,0.466675,0.225586,0.294312,up
562020,-0.65625,8.050781,4.855469,0.384766,-0.328125,0.943359,0.801819,0.468445,0.223999,0.295715,up
562025,-0.539062,8.011719,4.933594,0.384766,-0.328125,0.943359,0.800842,0.470093,0.222656,0.296814,up
562031,-0.503906,8.007813,4.96875,0.585937,-0.355469,0.917969,0.800842,0.470093,0.222656,0.296814,up
562036,-0.503906,8.085938,4.96875,0.658203,-0.386719,0.896484,0.800842,0.470093,0.222656,0.296814,up
562042,-0.539062,8.089844,4.96875,0.742187,-0.416016,0.871094,0.800842,0.470093,0.222656,0.296814,up
562047,-0.539062,8.089844,4.96875,0.802734,-0.472656,0.833984,0.795898,0.478516,0.217224,0.300598,up
562053,-0.578125,8.089844,4.933594,0.876953,-0.525391,0.810547,0.795898,0.478516,0.217224,0.300598,up
562058,-0.65625,8.28125,4.855469,0.935547,-0.583984,0.783203,0.793152,0.483643,0.214478,0.301575,up
562063,-0.65625,8.28125,4.855469,0.935547,-0.583984,0.783203,0.793152,0.483643,0.214478,0.301575,up
562068,-0.65625,8.285156,4.894531,0.988281,-0.792969,0.716797,0.793152,0.483643,0.214478,0.301575,up
562074,-0.617187,8.167969,5.007812,0.988281,-0.792969,0.716797,0.787659,0.495239,0.208069,0.301758,up
562079,-0.578125,8.207031,4.933594,0.970703,-0.966797,0.701172,0.786255,0.498535,0.205933,0.301453,up
562085,-0.617187,7.898437,4.933594,0.970703,-0.966797,0.701172,0.785217,0.50116,0.204041,0.301147,up
562090,-0.617187,7.664062,4.894531,0.931641,-1.138672,0.726562,0.784058,0.50415,0.20166,0.30072,up
562095,-0.578125,7.480469,4.703125,0.931641,-1.138672,0.726562,0.782837,0.507324,0.199097,0.300171,up
562101,-0.617187,7.324219,4.585937,0.988281,-1.25,0.773437,0.782837,0.507324,0.199097,0.300171,up
562107,-0.578125,7.246094,4.511719,1.054688,-1.298828,0.787109,0.780457,0.513794,0.193787,0.299011,up
562113,-0.539062,7.246094,4.472656,1.054688,-1.298828,0.787109,0.77887,0.517761,0.190613,0.298218,up
562118,-0.539062,7.246094,4.472656,1.4375,-1.421875,0.769531,0.777527,0.521118,0.188171,0.297485,up
562123,-0.503906,7.203125,4.472656,1.4375,-1.421875,0.769531,0.775635,0.525513,0.185181,0.296448,up
562129,-0.539062,7.28125,4.28125,1.744141,-1.482422,0.65625,0.773926,0.52948,0.1828,0.29541,up
562134,-0.539062,7.324219,4.164062,1.744141,-1.482422,0.65625,0.769348,0.539612,0.177551,0.292175,up
562139,-0.617187,7.4375,3.972656,2.041016,-1.558594,0.519531,0.766907,0.544861,0.175232,0.290222,up
562145,-0.617187,7.820312,3.707031,2.041016,-1.558594,0.519531,0.764648,0.549622,0.17334,0.28833,up
562150,-0.503906,8.167969,3.167969,2.041016,-1.558594,0.519531,0.762024,0.555176,0.171204,0.285889,up
562155,-0.425781,8.28125,3.132813,2.298828,-1.738281,0.300781,0.762024,0.555176,0.171204,0.285889,up
562160,-0.273438,8.242188,3.167969,2.271484,-1.810547,0.25,0.762024,0.555176,0.171204,0.285889,up
562165,-0.15625,8.242188,3.167969,2.271484,-1.810547,0.25,0.762024,0.555176,0.171204,0.285889,up
562170,-0.15625,8.242188,3.167969,2.232422,-1.839844,0.212891,0.754028,0.572266,0.164734,0.2771,up
562175,-0.003906,8.394531,3.015625,2.232422,-1.839844,0.212891,0.751404,0.577942,0.162476,0.273865,up
562181,0.109375,8.511719,2.75,2.230469,-1.798828,0.142578,0.746216,0.588623,0.158447,0.267456,up
562186,0.109375,8.511719,2.75,2.230469,-1.798828,0.142578,0.746216,0.588623,0.158447,0.267456,up
562192,0.261719,7.9375,2.402344,2.064453,-1.685547,0.089844,0.741272,0.598694,0.154541,0.261169,up
562197,0.378906,7.402344,2.632813,2.064453,-1.685547,0.089844,0.741272,0.598694,0.154541,0.261169,up
562203,0.492187,7.28125,2.632813,1.835938,-1.488281,0.148437,0.741272,0.598694,0.154541,0.261169,up
562208,0.492187,7.363281,2.441406,2.080078,-1.142578,0.166016,0.741272,0.598694,0.154541,0.261169,up
562213,0.492187,7.441406,2.058594,2.080078,-1.142578,0.166016,0.731445,0.616821,0.147766,0.250427,up
562218,0.609375,7.628906,1.5625,2.298828,-0.966797,0.166016,0.731445,0.616821,0.147766,0.250427,up
562223,0.648437,7.78125,1.367188,2.298828,-0.966797,0.166016,0.724731,0.626587,0.146545,0.246277,up
562229,0.648437,8.007813,1.214844,3.015625,-0.566406,0.103516,0.724731,0.626587,0.146545,0.246277,up
562235,0.648437,8.472656,0.949219,3.015625,-0.566406,0.103516,0.711182,0.64386,0.147888,0.24054,up
562240,0.53125,8.851563,0.792969,3.015625,-0.566406,0.103516,0.706299,0.649536,0.149048,0.23877,up
562246,0.53125,8.851563,0.792969,3.650391,-0.306641,-0.111328,0.700684,0.655945,0.150635,0.236755,up
562251,0.53125,8.851563,0.792969,3.75,-0.267578,-0.191406,0.694885,0.662415,0.152588,0.23468,up
562256,0.300781,9.3125,0.21875,3.75,-0.267578,-0.191406,0.694885,0.662415,0.152588,0.23468,up
562261,0.339844,9.390625,0.144531,3.724609,-0.277344,-0.255859,0.682922,0.675415,0.156738,0.229919,up
562266,0.339844,9.390625,0.144531,3.724609,-0.277344,-0.255859,0.682922,0.675415,0.156738,0.229919,up
562271,0.492187,9.511719,-0.046875,3.382813,-0.361328,-0.353516,0.672119,0.686951,0.160583,0.224854,up
562276,0.722656,9.390625,-0.46875,3.382813,-0.361328,-0.353516,0.667664,0.69165,0.162231,0.222473,up
562281,0.800781,9.46875,-0.585937,2.152344,-0.271484,-0.40625,0.667664,0.69165,0.162231,0.222473,up
562287,0.839844,9.546875,-0.660156,1.712891,-0.173828,-0.400391,0.667664,0.69165,0.162231,0.222473,up
562293,0.800781,9.777344,-0.8125,1.328125,-0.025391,-0.400391,0.667664,0.69165,0.162231,0.222473,up
562298,0.761719,9.890625,-0.8125,0.726562,0.279297,-0.402344,0.667664,0.69165,0.162231,0.222473,up
562303,0.800781,10.003906,-0.851562,0.726562,0.279297,-0.402344,0.65509,0.704163,0.169434,0.21521,up
562308,0.800781,10.082031,-0.660156,0.404297,0.457031,-0.40625,0.65509,0.704163,0.169434,0.21521,up
562313,0.761719,10.15625,-0.507812,0.404297,0.457031,-0.40625,0.653687,0.704651,0.172729,0.215088,up
562319,0.722656,10.277344,-0.355469,-0.150391,0.818359,-0.455078,0.653687,0.704651,0.172729,0.215088,up
562324,0.648437,10.234375,-0.316406,-0.150391,0.818359,-0.455078,0.65387,0.702515,0.178589,0.21698,up
562329,0.53125,10.039063,-0.355469,-0.150391,0.818359,-0.455078,0.653992,0.701477,0.180969,0.217834,up
562335,0.300781,9.855469,-0.429687,-0.199219,1.033203,-0.654297,0.654236,0.700256,0.183777,0.21875,up
562340,0.148437,9.8125,-0.394531,-0.269531,1.035156,-0.740234,0.654541,0.698975,0.186584,0.219543,up
562345,0.035156,9.734375,-0.203125,-0.269531,1.035156,-0.740234,0.655029,0.697632,0.189209,0.220093,up
562351,-0.003906,9.964844,-0.203125,-0.269531,1.035156,-0.740234,0.655762,0.695984,0.192139,0.220581,up
562358,-0.042969,10.082031,-0.203125,-0.638672,0.96875,-1.033203,0.655762,0.695984,0.192139,0.220581,up
562363,0.035156,10.15625,-0.164062,-0.929687,0.919922,-1.195313,0.655762,0.695984,0.192139,0.220581,up
562368,0.1875,10.273438,-0.164062,-0.929687,0.919922,-1.195313,0.659851,0.689331,0.201172,0.221313,up
562373,0.226562,10.382813,-0.238281,-1.103516,0.912109,-1.257813,0.659851,0.689331,0.201172,0.221313,up
562378,0.1875,10.621094,-0.355469,-1.103516,0.912109,-1.257813,0.664185,0.683167,0.20752,0.221436,up
562384,0.226562,10.734375,-0.507812,-1.451172,0.929687,-1.369141,0.66687,0.679626,0.210632,0.221436,up
562389,0.148437,10.964844,-0.585937,-1.654297,0.917969,-1.382813,0.66687,0.679626,0.210632,0.221436,up
562394,0.148437,10.964844,-0.585937,-1.892578,0.912109,-1.394531,0.676514,0.667114,0.219055,0.221985,up
562399,0.035156,10.882813,-0.738281,-1.892578,0.912109,-1.394531,0.676514,0.667114,0.219055,0.221985,up
562404,-0.042969,9.773438,-1.234375,-1.892578,0.912109,-1.394531,0.676514,0.667114,0.219055,0.221985,up
562409,-0.042969,9.773438,-1.234375,-2.757813,1.025391,-1.429688,0.685242,0.655945,0.224365,0.223328,up
562414,-0.003906,10.542969,-0.164062,-2.857422,0.919922,-1.460938,0.695129,0.643311,0.229248,0.224548,up
562419,0.148437,10.199219,0.105469,-2.857422,0.919922,-1.460938,0.700073,0.636902,0.231689,0.224915,up
562424,0.148437,9.8125,0.257813,-2.876953,0.919922,-1.671875,0.7052,0.630188,0.234314,0.225159,up
562429,0.1875,10.316406,0.335938,-2.876953,0.919922,-1.671875,0.7052,0.630188,0.234314,0.225159,up
562434,0.109375,10.042969,0.144531,-2.892578,0.923828,-1.728516,0.7052,0.630188,0.234314,0.225159,up
562440,-0.003906,9.964844,0.257813,-2.892578,0.923828,-1.728516,0.720764,0.608887,0.243225,0.224915,up
562445,0.070312,10.0,0.335938,-2.988281,0.951172,-2.035156,0.724976,0.602966,0.245728,0.224548,up
562450,-0.003906,9.964844,0.410156,-3.041016,1.023438,-2.109375,0.730774,0.594666,0.24939,0.22406,up
562456,-0.464844,10.277344,0.410156,-3.041016,1.023438,-2.109375,0.735229,0.588013,0.252319,0.223633,up
562461,-0.578125,10.34375,0.488281,-3.248047,1.048828,-2.228516,0.735229,0.588013,0.252319,0.223633,up
562466,-0.578125,10.34375,0.488281,-3.248047,1.048828,-2.228516,0.735229,0.588013,0.252319,0.223633,up
562471,-0.65625,10.464844,0.679687,-3.400391,1.035156,-2.251953,0.751404,0.563416,0.262146,0.221985,up
562476,-0.886719,10.5,0.949219,-3.400391,1.035156,-2.251953,0.751404,0.563416,0.262146,0.221985,up
562481,-0.886719,10.5,0.949219,-3.830078,0.941406,-2.261719,0.762939,0.545227,0.268066,0.221008,up
562486,-1.34375,10.539063,1.445313,-3.830078,0.941406,-2.261719,0.762939,0.545227,0.268066,0.221008,up
562492,-1.382813,10.238281,1.828125,-3.830078,0.941406,-2.261719,0.762939,0.545227,0.268066,0.221008,up
562498,-1.5,10.121094,2.25,-4.019531,0.693359,-2.171875,0.762939,0.545227,0.268066,0.221008,up
562504,-1.5,9.699219,2.480469,-4.015625,0.46875,-2.105469,0.762939,0.545227,0.268066,0.221008,up
562509,-1.574219,9.273438,2.785156,-3.978516,0.351563,-2.056641,0.792419,0.496948,0.278442,0.218018,up
562514,-1.574219,9.160156,2.941406,-3.978516,0.351563,-2.056641,0.798157,0.487488,0.279602,0.217102,up
562519,-1.535156,8.933594,3.132813,-3.816406,0.158203,-1.974609,0.804199,0.477417,0.280518,0.216064,up
562524,-1.574219,8.746094,3.207031,-3.816406,0.158203,-1.974609,0.809814,0.467957,0.281189,0.214905,up
562529,-1.535156,8.394531,3.285156,-3.816406,0.158203,-1.974609,0.815063,0.458984,0.281677,0.213684,up
562534,-1.535156,8.394531,3.285156,-3.564453,0.027344,-1.912109,0.819946,0.450623,0.282043,0.212402,up
562539,-1.613281,8.246094,3.324219,-3.564453,0.027344,-1.912109,0.824829,0.442139,0.282288,0.210937,up
562544,-1.613281,8.246094,3.324219,-3.320313,-0.03125,-1.919922,0.829468,0.43396,0.282593,0.209351,up
562549,-1.574219,7.703125,3.628906,-3.320313,-0.03125,-1.919922,0.829468,0.43396,0.282593,0.209351,up
562555,-1.765625,7.746094,3.78125,-3.185547,-0.025391,-1.945313,0.84259,0.409973,0.283875,0.20343,up
562560,-1.882813,7.667969,3.746094,-2.818359,0.099609,-2.035156,0.84668,0.402039,0.284668,0.201111,up
562565,-2.226563,8.011719,3.859375,-2.712891,0.148437,-2.068359,0.84668,0.402039,0.284668,0.201111,up
562571,-2.378906,7.9375,4.089844,-2.712891,0.148437,-2.068359,0.853699,0.387817,0.28656,0.196533,up
562576,-2.53125,7.898437,4.128906,-2.578125,0.222656,-2.083984,0.853699,0.387817,0.28656,0.196533,up
562581,-2.6875,8.011719,4.164062,-2.533203,0.265625,-2.082031,0.853699,0.387817,0.28656,0.196533,up
562587,-3.03125,8.390625,4.511719,-2.533203,0.265625,-2.082031,0.863525,0.366516,0.290222,0.189209,up
562593,-3.183594,8.359375,4.585937,-2.490234,0.28125,-2.052734,0.863525,0.366516,0.290222,0.189209,up
562599,-3.527344,8.394531,4.738281,-2.480469,0.261719,-2.021484,0.863525,0.366516,0.290222,0.189209,up
562604,-3.644531,8.429688,4.855469,-2.480469,0.261719,-2.021484,0.872498,0.345459,0.293823,0.181946,up
562609,-3.644531,8.429688,4.855469,-2.488281,0.152344,-1.960938,0.875305,0.338623,0.2948,0.179565,up
562614,-3.757813,8.394531,5.085937,-2.490234,0.078125,-1.935547,0.875305,0.338623,0.2948,0.179565,up
562619,-3.949219,8.324219,5.199219,-2.5,-0.001953,-1.917969,0.875305,0.338623,0.2948,0.179565,up
562624,-3.949219,8.324219,5.199219,-2.478516,-0.105469,-1.900391,0.875305,0.338623,0.2948,0.179565,up
562630,-4.140625,8.089844,5.542969,-2.478516,-0.105469,-1.900391,0.889771,0.30426,0.296326,0.166992,up
562635,-4.257812,8.242188,5.660156,-2.478516,-0.105469,-1.900391,0.893005,0.296936,0.295959,0.163757,up
562640,-4.292969,8.167969,5.699219,-2.478516,-0.105469,-1.900391,0.895752,0.290771,0.29541,0.160828,up
562645,-4.257812,8.007813,5.660156,-2.539063,-0.621094,-2.126953,0.898987,0.283386,0.294556,0.157288,up
562650,-4.257812,8.007813,5.660156,-2.654297,-0.681641,-2.162109,0.901855,0.276855,0.29364,0.154114,up
562656,-4.140625,7.859375,5.621094,-2.763672,-0.726562,-2.183594,0.905151,0.269226,0.29248,0.150574,up
562661,-4.101562,7.285156,5.851562,-2.763672,-0.726562,-2.183594,0.908325,0.261658,0.291199,0.147156,up
562666,-4.101562,7.207031,6.003906,-2.947266,-0.769531,-2.177734,0.911682,0.253479,0.289795,0.143677,up
562671,-4.179687,7.167969,6.15625,-2.957031,-0.783203,-2.138672,0.911682,0.253479,0.289795,0.143677,up
562676,-4.257812,6.671875,6.425781,-2.957031,-0.783203,-2.138672,0.917847,0.237671,0.286743,0.137207,up
562681,-4.410156,6.480469,6.5,-2.902344,-0.820312,-2.003906,0.917847,0.237671,0.286743,0.137207,up
562686,-4.410156,6.480469,6.5,-2.822266,-0.859375,-1.9375,0.923767,0.221985,0.283264,0.130981,up
562691,-4.523437,5.867187,6.882812,-2.822266,-0.859375,-1.9375,0.923767,0.221985,0.283264,0.130981,up
562696,-4.523437,5.867187,6.882812,-2.714844,-0.912109,-1.871094,0.926514,0.2146,0.281372,0.128052,up
562701,-4.601562,5.714844,7.226562,-2.527344,-0.988281,-1.816406,0.926514,0.2146,0.281372,0.128052,up
562706,-4.601562,5.714844,7.226562,-2.302734,-1.072266,-1.759766,0.934082,0.194824,0.274597,0.118774,up
562711,-4.945312,5.445312,8.148438,-2.302734,-1.072266,-1.759766,0.93634,0.189819,0.272034,0.115356,up
562716,-5.023437,5.371094,8.226563,-1.435547,-1.449219,-1.839844,0.93634,0.189819,0.272034,0.115356,up
562721,-4.90625,5.292969,8.226563,-1.251953,-1.589844,-1.886719,0.93634,0.189819,0.272034,0.115356,up
562727,-4.90625,5.292969,8.226563,-1.080078,-1.726563,-1.929688,0.942749,0.177795,0.262756,0.102722,up
562732,-4.449219,5.484375,8.265625,-1.080078,-1.726563,-1.929688,0.944885,0.1745,0.259155,0.098083,up
562738,-4.488281,5.5625,8.03125,-1.052734,-1.914063,-1.994141,0.944885,0.1745,0.259155,0.098083,up
562743,-4.523437,5.445312,7.953125,-1.070313,-2.001953,-2.041016,0.944885,0.1745,0.259155,0.098083,up
562749,-4.523437,5.714844,7.953125,-1.070313,-2.001953,-2.041016,0.944885,0.1745,0.259155,0.098083,up
562755,-4.488281,5.789062,7.914062,-1.115234,-2.177734,-2.242188,0.944885,0.1745,0.259155,0.098083,up
562760,-4.257812,5.636719,8.148438,-1.201172,-2.203125,-2.242188,0.955811,0.157043,0.237854,0.071838,up
562766,-4.257812,5.636719,8.148438,-1.322266,-2.193359,-2.193359,0.9599,0.149719,0.229004,0.061218,up
562771,-4.257812,5.636719,8.148438,-1.322266,-2.193359,-2.193359,0.9599,0.149719,0.229004,0.061218,up
562776,-4.179687,5.371094,8.417969,-1.4375,-2.185547,-2.128906,0.9599,0.149719,0.229004,0.061218,up
562782,-3.910156,4.335937,8.609375,-1.517578,-2.142578,-2.023438,0.963989,0.141052,0.219604,0.050903,up
562787,-3.910156,4.335937,8.609375,-1.484375,-2.044922,-1.734375,0.963989,0.141052,0.219604,0.050903,up
562793,-3.71875,3.339844,8.878906,-1.484375,-2.044922,-1.734375,0.967773,0.13208,0.210327,0.041931,up
562799,-3.949219,3.300781,9.378906,-1.074219,-1.951172,-1.427734,0.967773,0.13208,0.210327,0.041931,up
562804,-3.988281,3.222656,9.339844,-0.933594,-1.878906,-1.298828,0.967773,0.13208,0.210327,0.041931,up
562809,-3.949219,3.378906,9.453125,-0.25,-1.820313,-1.132813,0.967773,0.13208,0.210327,0.041931,up
562814,-3.988281,3.414063,9.488281,-0.25,-1.820313,-1.132813,0.974609,0.118225,0.188721,0.02417,up
562820,-3.949219,3.605469,9.414063,-0.25,-1.820313,-1.132813,0.976318,0.117859,0.180542,0.017761,up
562825,-3.949219,4.066406,9.375,0.708984,-1.808594,-0.964844,0.976318,0.117859,0.180542,0.017761,up
562830,-4.101562,4.257812,9.414063,0.708984,-1.808594,-0.964844,0.977051,0.118958,0.176208,0.014404,up
562835,-4.292969,4.757812,9.21875,0.880859,-1.804688,-0.947266,0.977051,0.118958,0.176208,0.014404,up
562840,-4.332031,4.871094,9.300781,0.986328,-1.902344,-0.949219,0.978088,0.122375,0.168213,0.008057,up
562845,-4.449219,5.0625,9.339844,0.986328,-1.902344,-0.949219,0.979065,0.126465,0.159485,0.001282,up
562850,-4.523437,5.292969,9.296875,0.986328,-1.902344,-0.949219,0.979065,0.126465,0.159485,0.001282,up
562855,-4.488281,5.371094,9.453125,0.986328,-1.902344,-0.949219,0.980103,0.129639,0.150085,-0.005493,up
562860,-4.292969,5.5625,9.453125,0.363281,-2.21875,-1.025391,0.980103,0.129639,0.150085,-0.005493,up
562865,-4.179687,5.484375,9.488281,0.363281,-2.21875,-1.025391,0.980774,0.130432,0.144775,-0.009094,up
562870,-4.179687,5.484375,9.488281,0.103516,-2.292969,-1.025391,0.981445,0.130615,0.140015,-0.012207,up
562875,-3.796875,4.910156,9.566406,0.103516,-2.292969,-1.025391,0.981445,0.130615,0.140015,-0.012207,up
562880,-3.492188,4.71875,9.71875,-0.119141,-2.347656,-0.970703,0.981445,0.130615,0.140015,-0.012207,up
562885,-3.492188,4.71875,9.71875,-0.388672,-2.396484,-0.802734,0.983826,0.128052,0.123535,-0.02124,up
562891,-2.417969,3.875,9.878906,-0.388672,-2.396484,-0.802734,0.985413,0.125305,0.112366,-0.026001,up
562896,-2.417969,3.683594,9.722656,-0.320313,-2.130859,-0.494141,0.986145,0.123962,0.106445,-0.028198,up
562902,-2.1875,3.453125,9.457031,-0.320313,-2.130859,-0.494141,0.986694,0.123169,0.102112,-0.029724,up
562907,-1.726563,3.378906,10.21875,-0.121094,-1.888672,-0.294922,0.986694,0.123169,0.102112,-0.029724,up
562913,-1.460938,3.300781,9.984375,-0.121094,-1.888672,-0.294922,0.98761,0.122253,0.093018,-0.032349,up
562918,-1.382813,3.300781,10.222656,0.214844,-1.40625,-0.140625,0.98761,0.122253,0.093018,-0.032349,up
562923,-1.269531,3.339844,10.410156,0.396484,-1.214844,-0.074219,0.98761,0.122253,0.093018,-0.032349,up
562928,-1.191406,3.53125,10.144531,0.396484,-1.214844,-0.074219,0.98761,0.122253,0.093018,-0.032349,up
562934,-1.269531,3.492188,10.179688,0.396484,-1.214844,-0.074219,0.988159,0.125671,0.080994,-0.035095,up
562940,-1.230469,3.492188,10.144531,0.835937,-0.513672,0.080078,0.988159,0.125671,0.080994,-0.035095,up
562945,-1.308594,3.453125,10.105469,0.835937,-0.513672,0.080078,0.987732,0.131531,0.076233,-0.035706,up
562950,-1.460938,3.53125,10.179688,0.835937,-0.513672,0.080078,0.987732,0.131531,0.076233,-0.035706,up
562955,-1.535156,3.570313,10.257813,0.943359,-0.224609,0.169922,0.987488,0.133972,0.075134,-0.035706,up
562960,-1.613281,3.722656,10.332031,0.943359,-0.224609,0.169922,0.987244,0.136108,0.074463,-0.035583,up
562965,-1.613281,3.835938,10.40625,0.943359,-0.224609,0.169922,0.986694,0.14093,0.073181,-0.035217,up
562970,-1.613281,3.875,10.640625,0.943359,-0.224609,0.169922,0.986694,0.14093,0.073181,-0.035217,up
562975,-1.613281,4.027344,10.710938,1.035156,-0.166016,0.251953,0.986023,0.14624,0.072021,-0.034485,up
562980,-1.691406,4.21875,10.527344,1.035156,-0.166016,0.251953,0.986023,0.14624,0.072021,-0.034485,up
562985,-1.652344,4.335937,10.523438,1.103516,-0.111328,0.421875,0.985657,0.148926,0.071411,-0.033997,up
562990,-1.726563,4.449219,10.488281,1.103516,-0.111328,0.421875,0.985291,0.151672,0.070923,-0.033264,up
562995,-1.765625,4.601562,10.410156,1.091797,-0.083984,0.494141,0.985291,0.151672,0.070923,-0.033264,up
563000,-1.765625,4.601562,10.410156,1.091797,-0.083984,0.494141,0.984192,0.159973,0.069519,-0.030151,up
563005,-1.804688,4.757812,10.488281,1.091797,-0.083984,0.494141,0.984192,0.159973,0.069519,-0.030151,up
563010,-1.804688,4.757812,10.488281,0.982422,0.015625,0.726562,0.983826,0.162842,0.069092,-0.028564,up
563015,-1.726563,4.757812,10.484375,0.867187,0.056641,0.8125,0.983521,0.165161,0.068848,-0.026978,up
563020,-1.726563,4.757812,10.484375,0.867187,0.056641,0.8125,0.983521,0.165161,0.068848,-0.026978,up
563025,-1.574219,4.527344,10.371094,0.759766,0.078125,0.886719,0.982971,0.169128,0.06842,-0.022888,up
563030,-1.574219,4.527344,10.371094,0.759766,0.078125,0.886719,0.982971,0.169128,0.06842,-0.022888,up
563035,-1.421875,4.335937,10.488281,0.501953,0.265625,1.154297,0.982971,0.169128,0.06842,-0.022888,up
563040,-1.269531,4.21875,10.449219,0.501953,0.265625,1.154297,0.982239,0.17395,0.06842,-0.015137,up
563045,-1.191406,4.105469,10.449219,0.501953,0.265625,1.154297,0.981995,0.175537,0.068542,-0.012024,up
563051,-1.191406,3.835938,10.371094,0.482422,0.363281,1.273438,0.981995,0.175537,0.068542,-0.012024,up
563057,-1.34375,3.570313,10.527344,0.482422,0.363281,1.273438,0.981262,0.179749,0.069641,-0.002625,up
563063,-1.269531,3.492188,10.605469,0.595703,0.490234,1.361328,0.981262,0.179749,0.069641,-0.002625,up
563068,-1.308594,3.492188,10.523438,0.673828,0.53125,1.365234,0.981262,0.179749,0.069641,-0.002625,up
563073,-1.269531,3.53125,10.640625,0.673828,0.53125,1.365234,0.97998,0.185486,0.071594,0.007996,up
563079,-1.269531,3.605469,10.5625,0.863281,0.574219,1.365234,0.97998,0.185486,0.071594,0.007996,up
563084,-1.191406,3.605469,10.484375,0.941406,0.585937,1.367188,0.97998,0.185486,0.071594,0.007996,up
563089,-1.191406,3.605469,10.484375,1.013672,0.597656,1.378906,0.978333,0.192688,0.073914,0.018005,up
563094,-1.191406,3.835938,10.410156,1.013672,0.597656,1.378906,0.978333,0.192688,0.073914,0.018005,up
563100,-1.191406,3.953125,10.332031,1.080078,0.664062,1.408203,0.978333,0.192688,0.073914,0.018005,up
563105,-1.191406,4.183594,10.332031,1.074219,0.697266,1.412109,0.978333,0.192688,0.073914,0.018005,up
563111,-1.230469,4.257812,10.292969,1.042969,0.724609,1.4375,0.974548,0.206787,0.078979,0.035583,up
563116,-1.230469,4.257812,10.21875,0.953125,0.789062,1.472656,0.974548,0.206787,0.078979,0.035583,up
563121,-1.269531,4.375,10.222656,0.904297,0.837891,1.474609,0.973694,0.209656,0.080261,0.039673,up
563126,-1.308594,4.375,10.179688,0.904297,0.837891,1.474609,0.972046,0.214478,0.082886,0.04718,up
563132,-1.34375,4.296875,10.21875,0.904297,0.837891,1.474609,0.971252,0.216736,0.08429,0.050842,up
563137,-1.382813,4.335937,10.179688,0.861328,0.943359,1.498047,0.971252,0.216736,0.08429,0.050842,up
563142,-1.460938,4.335937,10.222656,0.865234,0.966797,1.521484,0.971252,0.216736,0.08429,0.050842,up
563148,-1.535156,4.375,10.179688,0.865234,0.966797,1.521484,0.968567,0.223755,0.08905,0.062683,up
563153,-1.535156,4.375,10.179688,0.873047,0.998047,1.556641,0.96759,0.226074,0.090698,0.06665,up
563158,-1.613281,4.375,10.179688,0.873047,0.998047,1.556641,0.96759,0.226074,0.090698,0.06665,up
563163,-1.84375,4.449219,10.101563,0.900391,0.998047,1.580078,0.966553,0.228455,0.092407,0.070862,up
563168,-1.84375,4.449219,10.101563,0.900391,0.998047,1.580078,0.966553,0.228455,0.092407,0.070862,up
563174,-1.996094,4.640625,10.027344,0.955078,0.990234,1.613281,0.963257,0.235901,0.09729,0.083435,up
563180,-2.148438,4.757812,9.945313,0.982422,0.966797,1.630859,0.960937,0.241028,0.100403,0.091797,up
563185,-2.1875,4.832031,9.878906,0.982422,0.966797,1.630859,0.960937,0.241028,0.100403,0.091797,up
563190,-2.1875,4.910156,9.839844,1.011719,0.943359,1.632813,0.960937,0.241028,0.100403,0.091797,up
563195,-2.1875,4.949219,9.800781,1.015625,0.933594,1.628906,0.957092,0.249084,0.104919,0.104431,up
563200,-2.113281,5.179687,9.757813,1.015625,0.933594,1.628906,0.957092,0.249084,0.104919,0.104431,up
563205,-2.113281,5.332031,9.679688,1.015625,0.933594,1.628906,0.955688,0.251953,0.106445,0.108948,up
563210,-2.113281,5.484375,9.5625,0.988281,0.861328,1.628906,0.954468,0.254395,0.107666,0.112732,up
563215,-2.148438,5.597656,9.375,0.988281,0.861328,1.628906,0.953186,0.256897,0.108887,0.11676,up
563221,-2.113281,5.675781,9.257813,0.822266,0.800781,1.642578,0.953186,0.256897,0.108887,0.11676,up
563226,-2.113281,5.714844,9.222656,0.732422,0.783203,1.654297,0.9505,0.26178,0.111206,0.125305,up
563232,-2.113281,5.714844,9.222656,0.640625,0.771484,1.648438,0.948059,0.265625,0.113159,0.133362,up
563237,-2.113281,5.753906,9.070313,0.640625,0.771484,1.648438,0.946899,0.267273,0.114014,0.137512,up
563242,-2.074219,5.789062,9.105469,0.451172,0.730469,1.65625,0.946899,0.267273,0.114014,0.137512,up
563247,-2.074219,5.753906,9.074219,0.353516,0.707031,1.65625,0.946899,0.267273,0.114014,0.137512,up
563252,-2.074219,5.753906,9.03125,0.353516,0.707031,1.65625,0.943726,0.270874,0.11615,0.150146,up
563257,-1.957031,5.675781,8.992188,0.353516,0.707031,1.65625,0.943726,0.270874,0.11615,0.150146,up
563262,-1.957031,5.675781,8.992188,0.09375,0.605469,1.617188,0.941833,0.272217,0.117004,0.158508,up
563267,-1.917969,5.714844,8.917969,0.09375,0.605469,1.617188,0.940979,0.272644,0.11731,0.162598,up
563272,-1.957031,5.636719,8.996094,0.09375,0.605469,1.617188,0.940979,0.272644,0.11731,0.162598,up
563277,-1.957031,5.636719,8.996094,-0.015625,0.521484,1.589844,0.940186,0.272949,0.117432,0.166626,up
563282,-1.957031,5.636719,8.996094,-0.015625,0.521484,1.589844,0.938599,0.273193,0.117493,0.174744,up
563287,-1.957031,5.636719,8.996094,-0.015625,0.521484,1.589844,0.938599,0.273193,0.117493,0.174744,up
563293,-1.882813,5.523437,8.914063,-0.083984,0.396484,1.556641,0.937134,0.273376,0.117126,0.182617,up
563298,-1.804688,5.445312,8.914063,-0.083984,0.396484,1.556641,0.936401,0.273499,0.116821,0.186401,up
563304,-1.765625,5.40625,8.996094,-0.091797,0.279297,1.554688,0.936401,0.273499,0.116821,0.186401,up
563310,-1.652344,5.292969,8.996094,-0.091797,0.279297,1.554688,0.934875,0.273804,0.115845,0.194031,up
563316,-1.574219,5.214844,8.953125,-0.033203,0.224609,1.5625,0.934875,0.273804,0.115845,0.194031,up
563321,-1.535156,5.253906,8.917969,-0.033203,0.224609,1.5625,0.933289,0.274292,0.114685,0.201599,up
563326,-1.421875,5.253906,8.875,0.0,0.226562,1.568359,0.933289,0.274292,0.114685,0.201599,up
563331,-1.382813,5.292969,8.796875,0.029297,0.228516,1.560547,0.933289,0.274292,0.114685,0.201599,up
563336,-1.34375,5.332031,8.796875,0.046875,0.242187,1.542969,0.929626,0.27594,0.112488,0.216736,up
563341,-1.230469,5.445312,8.757813,0.046875,0.242187,1.542969,0.929626,0.27594,0.112488,0.216736,up
563346,-1.117188,5.523437,8.648438,0.089844,0.265625,1.472656,0.92865,0.276428,0.112061,0.220459,up
563351,-1.117188,5.597656,8.652344,0.089844,0.265625,1.472656,0.92688,0.277405,0.111328,0.227112,up
563356,-1.117188,5.714844,8.570313,0.089844,0.265625,1.472656,0.92688,0.277405,0.111328,0.227112,up
563361,-1.230469,5.828125,8.570313,0.080078,0.283203,1.408203,0.92688,0.277405,0.111328,0.227112,up
563366,-1.269531,5.867187,8.492188,0.041016,0.279297,1.365234,0.924988,0.27832,0.110718,0.233948,up
563371,-1.34375,5.90625,8.492188,0.041016,0.279297,1.365234,0.923157,0.278992,0.110107,0.24054,up
563376,-1.421875,5.867187,8.535156,0.041016,0.279297,1.365234,0.923157,0.278992,0.110107,0.24054,up
563381,-1.421875,5.828125,8.535156,0.041016,0.279297,1.365234,0.921265,0.27948,0.109253,0.247375,up
563386,-1.421875,5.789062,8.535156,0.041016,0.279297,1.365234,0.921265,0.27948,0.109253,0.247375,up
563391,-1.421875,5.789062,8.535156,-0.107422,0.1875,1.337891,0.920532,0.279541,0.108887,0.250122,up
563396,-1.421875,5.714844,8.648438,-0.107422,0.1875,1.337891,0.919739,0.279602,0.108337,0.253357,up
563401,-1.421875,5.714844,8.648438,-0.103516,0.160156,1.332031,0.918884,0.279602,0.107727,0.256592,up
563406,-1.152344,5.332031,8.878906,-0.103516,0.160156,1.332031,0.918884,0.279602,0.107727,0.256592,up
563411,-0.925781,5.332031,8.957031,0.005859,0.117188,1.341797,0.917175,0.279907,0.106384,0.262817,up
563416,-0.847656,5.371094,8.953125,0.21875,0.087891,1.330078,0.917175,0.279907,0.106384,0.262817,up
563421,-0.730469,5.5625,8.835938,0.21875,0.087891,1.330078,0.915222,0.281067,0.105103,0.268982,up
563426,-0.769531,5.636719,8.761719,0.435547,0.076172,1.320313,0.915222,0.281067,0.105103,0.268982,up
563431,-0.808594,5.945312,8.613281,0.435547,0.076172,1.320313,0.912903,0.283203,0.104004,0.274963,up
563436,-0.808594,5.945312,8.613281,0.578125,0.083984,1.310547,0.911499,0.284729,0.103516,0.278076,up
563441,-0.886719,6.25,8.417969,0.578125,0.083984,1.310547,0.910339,0.286194,0.103149,0.280701,up
563446,-0.886719,6.367187,8.339844,0.583984,0.109375,1.3125,0.910339,0.286194,0.103149,0.280701,up
563451,-0.925781,6.59375,8.148438,0.583984,0.109375,1.3125,0.907532,0.28949,0.102478,0.286438,up
563456,-0.886719,6.710937,8.070313,0.583984,0.109375,1.3125,0.906128,0.291077,0.102173,0.289368,up
563461,-0.886719,6.710937,8.035156,0.349609,0.117188,1.302734,0.906128,0.291077,0.102173,0.289368,up
563466,-0.847656,6.785156,8.070313,0.349609,0.117188,1.302734,0.903442,0.293762,0.101379,0.295288,up
563471,-0.695312,6.710937,7.953125,0.349609,0.117188,1.302734,0.902222,0.294678,0.100891,0.298218,up
563476,-0.695312,6.671875,7.917969,0.078125,0.113281,1.273438,0.902222,0.294678,0.100891,0.298218,up
563481,-0.695312,6.671875,7.996094,0.078125,0.113281,1.273438,0.900085,0.295898,0.099731,0.303894,up
563486,-0.617187,6.59375,8.074219,-0.027344,0.066406,1.259766,0.899048,0.296265,0.098999,0.306885,up
563491,-0.65625,6.558594,8.074219,-0.027344,0.066406,1.259766,0.898071,0.29657,0.098267,0.30957,up
563496,-0.617187,6.480469,8.152344,-0.027344,0.066406,1.259766,0.897156,0.296753,0.097473,0.312256,up
563501,-0.503906,6.402344,8.152344,-0.037109,0.009766,1.220703,0.897156,0.296753,0.097473,0.312256,up
563506,-0.503906,6.328125,8.269531,-0.037109,0.009766,1.220703,0.895264,0.297119,0.095581,0.317993,up
563511,-0.617187,6.25,8.375,-0.037109,0.009766,1.220703,0.894348,0.297424,0.094666,0.320557,up
563517,-0.578125,6.289062,8.335938,0.076172,-0.03125,1.234375,0.892212,0.298462,0.092712,0.326111,up
563522,-0.539062,6.402344,8.300781,0.076172,-0.03125,1.234375,0.890991,0.299255,0.091736,0.328796,up
563528,-0.503906,6.558594,8.152344,0.076172,-0.03125,1.234375,0.889893,0.300171,0.09082,0.331238,up
563533,-0.464844,6.59375,8.035156,0.314453,-0.142578,1.298828,0.888672,0.301208,0.089783,0.333862,up
563538,-0.503906,6.710937,7.992187,0.347656,-0.152344,1.326172,0.88739,0.302368,0.088745,0.336548,up
563544,-0.425781,6.785156,7.84375,0.347656,-0.152344,1.326172,0.885986,0.30365,0.087585,0.339355,up
563549,-0.425781,6.785156,7.84375,0.347656,-0.152344,1.326172,0.885986,0.30365,0.087585,0.339355,up
563555,-0.425781,6.863281,7.726562,0.306641,-0.179687,1.388672,0.885986,0.30365,0.087585,0.339355,up
563561,-0.425781,6.863281,7.726562,0.236328,-0.179687,1.412109,0.881836,0.307129,0.084045,0.347778,up
563566,-0.195312,7.015625,7.570312,0.236328,-0.179687,1.412109,0.881836,0.307129,0.084045,0.347778,up
563571,-0.121094,7.054687,7.535156,0.080078,-0.162109,1.419922,0.881836,0.307129,0.084045,0.347778,up
563576,0.070312,7.015625,7.574219,0.005859,-0.146484,1.408203,0.876709,0.309692,0.078491,0.359558,up
563581,0.339844,6.976562,7.535156,0.005859,-0.146484,1.408203,0.876709,0.309692,0.078491,0.359558,up
563586,0.457031,6.976562,7.535156,0.005859,-0.146484,1.408203,0.875488,0.309875,0.076843,0.362793,up
563592,0.648437,7.015625,7.535156,-0.201172,-0.117188,1.363281,0.873352,0.309814,0.073914,0.368469,up
563597,1.066406,6.941406,7.648437,-0.201172,-0.117188,1.363281,0.872375,0.30957,0.072449,0.371277,up
563602,1.453125,6.710937,7.847656,-0.201172,-0.117188,1.363281,0.872375,0.30957,0.072449,0.371277,up
563607,1.644531,6.558594,7.992187,-0.267578,-0.013672,1.285156,0.872375,0.30957,0.072449,0.371277,up
563612,1.679688,6.59375,8.109375,-0.201172,0.064453,1.269531,0.869324,0.308838,0.069031,0.379639,up
563618,1.488281,6.671875,8.53125,-0.201172,0.064453,1.269531,0.868103,0.308899,0.06842,0.382446,up
563623,1.296875,6.671875,8.613281,0.228516,0.265625,1.292969,0.86676,0.309265,0.068054,0.385315,up
563629,1.03125,6.671875,8.71875,0.382813,0.296875,1.324219,0.86676,0.309265,0.068054,0.385315,up
563634,0.609375,6.824219,8.574219,0.382813,0.296875,1.324219,0.863281,0.310974,0.068054,0.391663,up
563640,0.417969,6.863281,8.648438,0.708984,0.357422,1.412109,0.863281,0.310974,0.068054,0.391663,up
563645,0.1875,6.941406,8.613281,0.832031,0.375,1.451172,0.863281,0.310974,0.068054,0.391663,up
563650,-0.15625,7.132812,8.574219,0.9375,0.376953,1.507813,0.863281,0.310974,0.068054,0.391663,up
563655,-0.273438,7.207031,8.453125,0.990234,0.382813,1.560547,0.863281,0.310974,0.068054,0.391663,up
563661,-0.347656,7.246094,8.378906,1.007813,0.367188,1.611328,0.863281,0.310974,0.068054,0.391663,up
563666,-0.347656,7.363281,8.226563,0.912109,0.337891,1.705078,0.863281,0.310974,0.068054,0.391663,up
563671,-0.386719,7.398437,8.074219,0.912109,0.337891,1.705078,0.84729,0.323608,0.071106,0.415161,up
563676,-0.3125,7.476562,7.804687,0.8125,0.314453,1.734375,0.844727,0.325439,0.071289,0.418823,up
563681,-0.3125,7.476562,7.804687,0.8125,0.314453,1.734375,0.844727,0.325439,0.071289,0.418823,up
563686,-0.3125,7.476562,7.804687,0.707031,0.283203,1.75,0.839783,0.328491,0.071106,0.426392,up
563691,-0.042969,7.585937,7.460937,0.707031,0.283203,1.75,0.839783,0.328491,0.071106,0.426392,up
563696,0.300781,7.707031,7.191406,0.464844,0.214844,1.75,0.835205,0.330627,0.070068,0.433777,up
563701,0.457031,7.707031,7.113281,0.464844,0.214844,1.75,0.833008,0.331421,0.069275,0.437561,up
563707,0.457031,7.589844,6.960937,0.126953,0.074219,1.724609,0.833008,0.331421,0.069275,0.437561,up
563712,0.457031,7.519531,6.960937,0.041016,0.029297,1.716797,0.827026,0.332703,0.065552,0.448364,up
563717,0.492187,7.441406,7.0,-0.125,-0.0625,1.722656,0.827026,0.332703,0.065552,0.448364,up
563722,0.53125,7.28125,6.960937,-0.125,-0.0625,1.722656,0.825073,0.332886,0.063782,0.452087,up
563727,0.648437,7.136719,6.960937,-0.216797,-0.097656,1.726563,0.823242,0.332947,0.062012,0.455566,up
563732,0.722656,6.941406,6.964844,-0.314453,-0.138672,1.742188,0.819946,0.33252,0.057922,0.462341,up
563737,0.683594,6.75,7.042969,-0.314453,-0.138672,1.742188,0.819946,0.33252,0.057922,0.462341,up
563742,1.105469,6.519531,7.152344,-0.486328,-0.195312,1.771484,0.819946,0.33252,0.057922,0.462341,up
563747,1.144531,6.441406,7.0,-0.599609,-0.234375,1.779297,0.81665,0.331543,0.05304,0.46936,up
563752,1.222656,6.210937,7.039062,-0.599609,-0.234375,1.779297,0.813538,0.3302,0.047729,0.476257,up
563757,1.527344,5.867187,7.148437,-0.599609,-0.234375,1.779297,0.813538,0.3302,0.047729,0.476257,up
563762,1.605469,5.714844,7.304687,-0.599609,-0.234375,1.779297,0.810425,0.328491,0.042236,0.483276,up
563767,1.71875,5.636719,7.308594,-0.599609,-0.234375,1.779297,0.810425,0.328491,0.042236,0.483276,up
563772,1.796875,5.597656,7.265625,-0.603516,-0.201172,1.787109,0.806946,0.326843,0.036804,0.49054,up
563777,1.835938,5.484375,7.347656,-0.603516,-0.201172,1.787109,0.806946,0.326843,0.036804,0.49054,up
563783,1.835938,5.484375,7.347656,-0.382813,-0.091797,1.779297,0.803528,0.325745,0.032349,0.497131,up
563788,1.796875,5.445312,7.191406,-0.314453,-0.039063,1.761719,0.801514,0.325256,0.030212,0.500854,up
563793,1.796875,5.445312,7.191406,-0.240234,-0.003906,1.763672,0.799622,0.32489,0.028503,0.504211,up
563798,1.796875,5.332031,7.304687,-0.240234,-0.003906,1.763672,0.799622,0.32489,0.028503,0.504211,up
563803,1.796875,5.332031,7.304687,-0.240234,-0.003906,1.763672,0.799622,0.32489,0.028503,0.504211,up
563808,1.796875,5.332031,7.265625,-0.162109,0.087891,1.779297,0.79541,0.324219,0.025269,0.511414,up
563813,1.796875,5.332031,7.265625,-0.125,0.121094,1.78125,0.791077,0.323669,0.022522,0.518555,up
563819,1.871094,5.371094,7.269531,-0.125,0.121094,1.78125,0.788818,0.323364,0.02124,0.522278,up
563824,1.871094,5.332031,7.308594,-0.089844,0.201172,1.789063,0.788818,0.323364,0.02124,0.522278,up
563830,1.871094,5.253906,7.382812,-0.095703,0.21875,1.800781,0.788818,0.323364,0.02124,0.522278,up
563836,1.796875,5.140625,7.460937,-0.095703,0.21875,1.800781,0.788818,0.323364,0.02124,0.522278,up
563841,1.796875,5.101562,7.53125,-0.089844,0.224609,1.849609,0.788818,0.323364,0.02124,0.522278,up
563846,1.796875,4.988281,7.648437,-0.074219,0.214844,1.871094,0.788818,0.323364,0.02124,0.522278,up
563851,1.796875,4.871094,7.503906,-0.068359,0.201172,1.894531,0.788818,0.323364,0.02124,0.522278,up
563857,1.757813,4.757812,7.535156,-0.072266,0.173828,1.921875,0.788818,0.323364,0.02124,0.522278,up
563862,1.757813,4.640625,7.609375,-0.072266,0.173828,1.921875,0.769409,0.320679,0.011597,0.552307,up
563867,1.757813,4.527344,7.652344,-0.095703,0.152344,1.941406,0.769409,0.320679,0.011597,0.552307,up
563873,1.871094,4.335937,7.652344,-0.095703,0.152344,1.941406,0.761536,0.319641,0.007446,0.563782,up
563878,2.0625,4.335937,7.570312,-0.119141,0.148437,1.935547,0.758667,0.319275,0.00592,0.56781,up
563883,2.371094,4.105469,7.503906,-0.119141,0.148437,1.935547,0.75592,0.318787,0.004395,0.571777,up
563888,2.445313,4.066406,7.503906,-0.119141,0.148437,1.935547,0.753601,0.318359,0.003113,0.575073,up
563893,2.523438,3.992188,7.53125,-0.164062,0.201172,1.886719,0.750732,0.31781,0.001587,0.579102,up
563898,2.601563,3.914063,7.570312,-0.150391,0.21875,1.867188,0.748108,0.3172,0.000244,0.582886,up
563903,2.601563,3.761719,7.609375,-0.150391,0.21875,1.867188,0.745422,0.316589,-0.001038,0.586609,up
563908,2.484375,3.761719,7.613281,-0.150391,0.21875,1.867188,0.745422,0.316589,-0.001038,0.586609,up
563913,2.484375,3.761719,7.613281,-0.101563,0.253906,1.822266,0.743225,0.316162,-0.002014,0.5896,up
563918,2.410156,3.761719,7.691406,-0.072266,0.255859,1.804688,0.743225,0.316162,-0.002014,0.5896,up
563923,2.179688,3.644531,7.914062,-0.03125,0.230469,1.794922,0.737976,0.315125,-0.00415,0.596741,up
563928,2.179688,3.644531,7.914062,-0.03125,0.230469,1.794922,0.737976,0.315125,-0.00415,0.596741,up
563933,2.101563,3.53125,7.84375,0.103516,0.160156,1.828125,0.729553,0.314697,-0.007202,0.607178,up
563938,2.140625,3.53125,7.847656,0.103516,0.160156,1.828125,0.726624,0.314819,-0.008179,0.610596,up
563944,2.523438,3.605469,7.84375,0.103516,0.160156,1.828125,0.723511,0.315063,-0.009216,0.614136,up
563949,2.640625,3.644531,7.804687,0.228516,0.021484,1.917969,0.720398,0.31543,-0.010315,0.617615,up
563954,2.753906,3.605469,7.765625,0.230469,-0.001953,1.929688,0.720398,0.31543,-0.010315,0.617615,up
563959,2.832031,3.570313,7.804687,0.224609,-0.005859,1.927734,0.720398,0.31543,-0.010315,0.617615,up
563964,2.753906,3.414063,7.957031,0.224609,-0.005859,1.927734,0.720398,0.31543,-0.010315,0.617615,up
563969,2.753906,3.414063,7.957031,0.205078,-0.013672,1.925781,0.707764,0.316895,-0.015076,0.631226,up
563974,2.753906,3.1875,8.070313,0.205078,-0.013672,1.925781,0.704468,0.3172,-0.016357,0.634705,up
563979,2.753906,3.148438,8.148438,0.205078,-0.013672,1.925781,0.70105,0.317505,-0.017639,0.638306,up
563984,2.867188,3.070313,8.191406,0.205078,-0.013672,1.925781,0.70105,0.317505,-0.017639,0.638306,up
563989,2.90625,2.996094,8.265625,0.128906,0.042969,1.894531,0.70105,0.317505,-0.017639,0.638306,up
563996,3.023438,2.917969,8.453125,0.091797,0.048828,1.869141,0.70105,0.317505,-0.017639,0.638306,up
564002,3.097656,2.917969,8.535156,0.082031,0.009766,1.832031,0.70105,0.317505,-0.017639,0.638306,up
564007,3.175781,2.917969,8.53125,0.082031,0.009766,1.832031,0.685608,0.317871,-0.023804,0.654419,up
564013,3.40625,2.917969,8.414063,0.09375,-0.021484,1.808594,0.685608,0.317871,-0.023804,0.654419,up
564019,3.632813,2.765625,8.339844,0.09375,-0.021484,1.808594,0.676453,0.318298,-0.027771,0.663574,up
564024,3.75,2.765625,8.378906,0.169922,-0.09375,1.802734,0.676453,0.318298,-0.027771,0.663574,up
564029,3.75,2.765625,8.378906,0.21875,-0.101563,1.796875,0.670166,0.31897,-0.030396,0.669495,up
564034,4.019531,2.839844,8.375,0.21875,-0.101563,1.796875,0.670166,0.31897,-0.030396,0.669495,up
564039,4.019531,2.839844,8.375,0.289063,-0.097656,1.779297,0.670166,0.31897,-0.030396,0.669495,up
564044,4.019531,2.839844,8.375,0.289063,-0.097656,1.779297,0.663696,0.319885,-0.032715,0.675354,up
564050,4.019531,2.839844,8.375,0.341797,-0.123047,1.771484,0.657104,0.321167,-0.03479,0.681091,up
564055,3.941406,2.648438,8.574219,0.341797,-0.123047,1.771484,0.653748,0.322083,-0.035767,0.683838,up
564060,3.941406,2.574219,8.453125,0.548828,-0.253906,1.792969,0.653748,0.322083,-0.035767,0.683838,up
564065,4.054687,2.457031,8.457031,0.611328,-0.287109,1.820313,0.653748,0.322083,-0.035767,0.683838,up
564070,4.09375,2.496094,8.453125,0.611328,-0.287109,1.820313,0.642944,0.325806,-0.038513,0.692078,up
564075,4.171875,2.574219,8.414063,0.726562,-0.353516,1.869141,0.642944,0.325806,-0.038513,0.692078,up
564080,4.324219,2.613281,8.296875,0.787109,-0.367188,1.880859,0.642944,0.325806,-0.038513,0.692078,up
564085,4.4375,2.613281,8.335938,0.822266,-0.378906,1.876953,0.642944,0.325806,-0.038513,0.692078,up
564090,4.402344,2.574219,8.269531,0.851562,-0.378906,1.863281,0.627136,0.332642,-0.041565,0.703064,up
564096,4.554687,2.535156,8.113281,0.851562,-0.378906,1.863281,0.627136,0.332642,-0.041565,0.703064,up
564101,4.667969,2.496094,8.109375,0.904297,-0.341797,1.841797,0.627136,0.332642,-0.041565,0.703064,up
564106,4.898437,2.574219,8.074219,0.943359,-0.310547,1.820313,0.627136,0.332642,-0.041565,0.703064,up
564111,4.9375,2.6875,7.996094,0.990234,-0.285156,1.804688,0.627136,0.332642,-0.041565,0.703064,up
564116,4.976562,2.6875,7.957031,1.023438,-0.253906,1.78125,0.627136,0.332642,-0.041565,0.703064,up
564121,5.015625,2.726563,7.914062,1.042969,-0.240234,1.751953,0.627136,0.332642,-0.041565,0.703064,up
564126,5.015625,2.878906,7.765625,1.042969,-0.240234,1.751953,0.627136,0.332642,-0.041565,0.703064,up
564131,5.015625,2.878906,7.765625,1.042969,-0.240234,1.751953,0.594666,0.34729,-0.043396,0.723755,up
564136,5.015625,2.878906,7.765625,1.072266,-0.255859,1.666016,0.590759,0.349182,-0.043274,0.726135,up
564141,5.050781,2.996094,7.648437,1.072266,-0.255859,1.666016,0.586792,0.351074,-0.043152,0.728394,up
564146,5.050781,3.070313,7.648437,1.072266,-0.255859,1.666016,0.586792,0.351074,-0.043152,0.728394,up
564151,5.050781,3.070313,7.648437,1.158203,-0.34375,1.611328,0.578735,0.355164,-0.042786,0.732849,up
564157,5.015625,3.1875,7.609375,1.158203,-0.34375,1.611328,0.578735,0.355164,-0.042786,0.732849,up
564162,5.050781,3.222656,7.691406,1.162109,-0.451172,1.585938,0.578735,0.355164,-0.042786,0.732849,up
564167,5.167969,3.1875,7.726562,1.162109,-0.451172,1.585938,0.566711,0.361816,-0.042358,0.739014,up
564172,5.28125,3.109375,7.613281,1.162109,-0.451172,1.585938,0.562561,0.364258,-0.042297,0.740967,up
564178,5.242187,3.070313,7.230469,1.152344,-0.498047,1.591797,0.562561,0.364258,-0.042297,0.740967,up
564183,5.242187,3.070313,7.148437,1.078125,-0.582031,1.582031,0.554504,0.368958,-0.042358,0.74469,up
564188,5.207031,3.070313,7.078125,1.078125,-0.582031,1.582031,0.55011,0.371643,-0.04248,0.746643,up
564193,5.207031,3.070313,7.152344,1.044922,-0.658203,1.556641,0.55011,0.371643,-0.04248,0.746643,up
564198,5.207031,3.070313,7.152344,1.044922,-0.658203,1.556641,0.538574,0.379211,-0.04364,0.75116,up
564203,5.359375,2.804688,7.113281,1.044922,-0.658203,1.556641,0.538574,0.379211,-0.04364,0.75116,up
564208,5.398437,2.839844,7.109375,1.228516,-0.908203,1.390625,0.538574,0.379211,-0.04364,0.75116,up
564213,5.664062,3.1875,7.042969,1.228516,-0.908203,1.390625,0.530823,0.385132,-0.044312,0.753601,up
564218,5.703125,3.339844,7.042969,1.462891,-0.978516,1.322266,0.526794,0.38855,-0.044434,0.754639,up
564223,5.703125,3.339844,7.042969,1.462891,-0.978516,1.322266,0.518799,0.395752,-0.044128,0.75647,up
564228,5.625,3.570313,7.304687,1.462891,-0.978516,1.322266,0.518799,0.395752,-0.044128,0.75647,up
564233,5.511719,3.53125,7.265625,1.691406,-1.132813,1.330078,0.514221,0.400085,-0.043762,0.757324,up
564238,5.472656,3.570313,7.078125,1.808594,-1.179688,1.371094,0.510193,0.404053,-0.043274,0.757996,up
564243,5.472656,3.570313,7.078125,1.808594,-1.179688,1.371094,0.510193,0.404053,-0.043274,0.757996,up
564248,5.472656,3.570313,7.078125,1.962891,-1.302734,1.582031,0.500549,0.413269,-0.042114,0.759521,up
564253,5.472656,3.570313,7.078125,1.962891,-1.302734,1.582031,0.495483,0.417969,-0.041565,0.760315,up
564258,5.550781,3.875,6.5,1.935547,-1.316406,1.736328,0.490051,0.422791,-0.041138,0.761169,up
564263,5.78125,3.953125,6.5,1.935547,-1.316406,1.736328,0.48468,0.42749,-0.040833,0.762024,up
564268,5.972656,3.992188,6.503906,1.882813,-1.240234,1.791016,0.478638,0.432556,-0.040649,0.763,up
564274,6.355469,3.875,6.347656,1.865234,-1.183594,1.783203,0.473511,0.436707,-0.040466,0.763855,up
564279,6.351562,3.722656,6.3125,1.865234,-1.183594,1.783203,0.461426,0.445984,-0.039978,0.765869,up
564285,6.433594,3.414063,6.273437,1.865234,-1.183594,1.783203,0.456787,0.449463,-0.039795,0.766663,up
564290,6.433594,3.339844,6.195312,1.865234,-1.183594,1.783203,0.451355,0.453491,-0.039551,0.767517,up
564295,6.234375,3.222656,6.234375,1.865234,-1.183594,1.783203,0.445679,0.457642,-0.039246,0.768372,up
564300,6.238281,3.222656,6.3125,1.832031,-1.136719,1.751953,0.445679,0.457642,-0.039246,0.768372,up
564306,6.238281,3.109375,6.539062,1.832031,-1.136719,1.751953,0.445679,0.457642,-0.039246,0.768372,up
564311,6.238281,2.957031,6.582031,1.824219,-1.222656,1.830078,0.445679,0.457642,-0.039246,0.768372,up
564316,6.277344,2.765625,6.5,1.820313,-1.273438,1.884766,0.445679,0.457642,-0.039246,0.768372,up
564322,6.429687,2.535156,6.425781,1.820313,-1.273438,1.884766,0.41687,0.478333,-0.038696,0.771973,up
564328,6.816406,2.304688,5.964844,1.820313,-1.273438,1.884766,0.41687,0.478333,-0.038696,0.771973,up
564333,6.816406,2.304688,5.964844,1.908203,-1.375,2.052734,0.404358,0.487061,-0.039124,0.773132,up
564338,7.082031,2.226563,5.46875,1.955078,-1.345703,2.09375,0.397949,0.491394,-0.039246,0.773682,up
564343,7.082031,2.226563,5.46875,1.955078,-1.345703,2.09375,0.391357,0.495728,-0.039368,0.774292,up
564348,7.460937,2.496094,5.199219,1.955078,-1.345703,2.09375,0.391357,0.495728,-0.039368,0.774292,up
564353,7.460937,2.496094,5.199219,2.072266,-1.228516,2.162109,0.377625,0.504272,-0.039307,0.775635,up
564358,7.882812,2.765625,5.007812,2.048828,-0.982422,2.101563,0.377625,0.504272,-0.039307,0.775635,up
564363,8.003906,2.574219,4.777344,2.048828,-0.982422,2.101563,0.36377,0.512085,-0.038757,0.777161,up
564368,7.964844,2.457031,4.738281,2.048828,-0.982422,2.101563,0.356384,0.515808,-0.03833,0.778076,up
564374,7.882812,2.191406,4.625,1.871094,-0.740234,2.005859,0.356384,0.515808,-0.03833,0.778076,up
564380,7.738281,1.730469,4.855469,1.871094,-0.740234,2.005859,0.338074,0.523926,-0.037292,0.780884,up
564385,7.738281,1.425781,4.933594,1.433594,-0.648437,1.876953,0.338074,0.523926,-0.037292,0.780884,up
564390,7.808594,1.230469,4.894531,1.259766,-0.673828,1.861328,0.326965,0.528503,-0.03772,0.782532,up
564395,7.84375,1.039063,4.855469,1.259766,-0.673828,1.861328,0.32135,0.530762,-0.038452,0.783264,up
564402,8.082031,0.695312,4.738281,1.259766,-0.673828,1.861328,0.32135,0.530762,-0.038452,0.783264,up
564408,8.078125,0.542969,4.855469,0.865234,-0.777344,1.898438,0.32135,0.530762,-0.038452,0.783264,up
564413,8.078125,0.542969,4.855469,0.830078,-0.845703,1.933594,0.306458,0.536865,-0.042236,0.784912,up
564418,8.34375,0.429687,5.085937,0.830078,-0.845703,1.933594,0.306458,0.536865,-0.042236,0.784912,up
564423,8.386719,0.390625,5.046875,0.943359,-0.847656,1.921875,0.306458,0.536865,-0.042236,0.784912,up
564428,8.386719,0.390625,5.046875,1.089844,-0.785156,1.865234,0.291077,0.543335,-0.046448,0.786072,up
564433,8.964844,0.964844,4.203125,1.089844,-0.785156,1.865234,0.285889,0.54541,-0.04718,0.786499,up
564438,8.992188,1.039063,4.089844,1.089844,-0.785156,1.865234,0.280457,0.547546,-0.047424,0.786987,up
564444,9.070313,1.078125,4.050781,1.595703,-0.525391,1.46875,0.280457,0.547546,-0.047424,0.786987,up
564449,9.109375,1.195313,3.898438,1.595703,-0.525391,1.46875,0.264587,0.553589,-0.045776,0.78833,up
564455,9.113281,1.425781,3.515625,1.595703,-0.525391,1.46875,0.260071,0.555176,-0.044739,0.788757,up
564460,9.074219,1.347656,3.515625,1.355469,-0.300781,1.064453,0.260071,0.555176,-0.044739,0.788757,up
564466,9.070313,1.230469,3.476563,1.113281,-0.291016,0.935547,0.260071,0.555176,-0.044739,0.788757,up
564471,8.964844,1.078125,3.4375,1.113281,-0.291016,0.935547,0.248901,0.559021,-0.042236,0.789795,up
564477,8.964844,0.773437,3.628906,1.113281,-0.291016,0.935547,0.24646,0.559998,-0.042114,0.789856,up
564482,8.960938,0.542969,3.707031,0.240234,-0.390625,0.615234,0.24646,0.559998,-0.042114,0.789856,up
564487,8.964844,0.273438,3.628906,-0.001953,-0.425781,0.523437,0.24646,0.559998,-0.042114,0.789856,up
564492,8.847656,0.199219,3.707031,-0.183594,-0.445312,0.445312,0.24646,0.559998,-0.042114,0.789856,up
564497,8.847656,0.082031,3.859375,-0.308594,-0.482422,0.394531,0.24646,0.559998,-0.042114,0.789856,up
564503,8.804688,-0.070312,3.9375,-0.361328,-0.5,0.339844,0.24646,0.559998,-0.042114,0.789856,up
564508,8.84375,-0.148437,3.820313,-0.175781,-0.486328,0.269531,0.24115,0.564697,-0.048584,0.787781,up
564513,8.996094,-0.148437,3.589844,-0.175781,-0.486328,0.269531,0.240845,0.565552,-0.049744,0.787231,up
564519,9.191406,-0.03125,3.398438,0.310547,-0.453125,0.208984,0.240356,0.566345,-0.050476,0.786682,up
564524,9.453125,0.390625,3.132813,0.310547,-0.453125,0.208984,0.238342,0.568665,-0.050293,0.785645,up
564529,9.492188,0.695312,3.054688,0.841797,-0.429687,0.158203,0.237122,0.569763,-0.049438,0.785278,up
564534,9.496094,1.003906,2.902344,1.0,-0.386719,0.132812,0.237122,0.569763,-0.049438,0.785278,up
564539,9.414063,1.347656,2.824219,1.0,-0.386719,0.132812,0.235291,0.571228,-0.047913,0.784851,up
564544,9.414063,1.5,2.785156,1.0,-0.386719,0.132812,0.231689,0.573792,-0.044373,0.784302,up
564549,9.378906,1.691406,2.75,0.949219,-0.216797,0.027344,0.231689,0.573792,-0.044373,0.784302,up
564554,9.347656,1.769531,2.75,0.794922,-0.212891,-0.017578,0.230286,0.574707,-0.042786,0.784119,up
564559,9.34375,1.882813,2.824219,0.794922,-0.212891,-0.017578,0.228027,0.576416,-0.039795,0.783691,up
564564,9.304688,1.882813,2.863281,0.357422,-0.119141,-0.115234,0.228027,0.576416,-0.039795,0.783691,up
564569,9.269531,1.84375,2.824219,0.130859,-0.105469,-0.169922,0.227417,0.577026,-0.038696,0.783447,up
564574,9.113281,1.730469,2.902344,0.130859,-0.105469,-0.169922,0.227295,0.577393,-0.038086,0.783264,up
564580,8.886719,1.617188,3.246094,0.130859,-0.105469,-0.169922,0.228271,0.57782,-0.037781,0.782715,up
564585,8.804688,1.460938,3.207031,-0.353516,-0.132812,-0.332031,0.228271,0.57782,-0.037781,0.782715,up
564590,8.808594,1.386719,3.167969,-0.396484,-0.140625,-0.353516,0.228271,0.57782,-0.037781,0.782715,up
564595,8.84375,1.386719,3.132813,-0.396484,-0.140625,-0.353516,0.231689,0.578064,-0.038513,0.781433,up
564601,8.964844,1.578125,3.09375,-0.396484,-0.140625,-0.353516,0.232849,0.578247,-0.038696,0.780945,up
564606,9.148438,1.578125,3.09375,-0.232422,-0.1875,-0.404297,0.232849,0.578247,-0.038696,0.780945,up
564612,9.230469,1.960938,3.246094,-0.083984,-0.203125,-0.410156,0.232849,0.578247,-0.038696,0.780945,up
564617,9.1875,2.074219,3.285156,0.097656,-0.189453,-0.419922,0.232849,0.578247,-0.038696,0.780945,up
564623,9.152344,2.152344,3.359375,0.289063,-0.175781,-0.435547,0.232849,0.578247,-0.038696,0.780945,up
564628,9.113281,2.417969,3.398438,0.433594,-0.181641,-0.449219,0.232849,0.578247,-0.038696,0.780945,up
564633,9.070313,2.496094,3.324219,0.525391,-0.1875,-0.453125,0.232849,0.578247,-0.038696,0.780945,up
564638,9.070313,2.648438,3.246094,0.554687,-0.203125,-0.455078,0.232849,0.578247,-0.038696,0.780945,up
564644,9.074219,2.726563,3.246094,0.435547,-0.212891,-0.455078,0.232849,0.578247,-0.038696,0.780945,up
564649,9.152344,2.765625,3.207031,0.435547,-0.212891,-0.455078,0.237061,0.583923,-0.028076,0.775879,up
564654,9.1875,2.804688,3.132813,0.435547,-0.212891,-0.455078,0.237366,0.584595,-0.026917,0.77533,up
564659,9.191406,2.957031,2.976563,0.435547,-0.212891,-0.455078,0.237366,0.584595,-0.026917,0.77533,up
564664,9.265625,2.996094,2.902344,0.123047,-0.240234,-0.449219,0.237366,0.584595,-0.026917,0.77533,up
564669,9.347656,2.996094,2.785156,0.123047,-0.240234,-0.449219,0.239075,0.586365,-0.02417,0.77356,up
564674,9.347656,3.070313,2.785156,0.035156,-0.240234,-0.449219,0.239075,0.586365,-0.02417,0.77356,up
564679,9.347656,3.070313,2.785156,0.035156,-0.240234,-0.449219,0.239807,0.586914,-0.023437,0.772949,up
564684,9.34375,3.03125,2.785156,0.019531,-0.25,-0.451172,0.239807,0.586914,-0.023437,0.772949,up
564689,9.265625,2.957031,2.785156,0.072266,-0.265625,-0.449219,0.241333,0.587952,-0.022217,0.771729,up
564694,9.148438,2.878906,2.785156,0.072266,-0.265625,-0.449219,0.242004,0.588501,-0.021606,0.771118,up
564699,9.113281,2.765625,2.75,0.207031,-0.332031,-0.451172,0.242737,0.589172,-0.020752,0.770386,up
564705,9.113281,2.765625,2.75,0.28125,-0.396484,-0.445312,0.243713,0.590698,-0.019043,0.768982,up
564710,8.804688,2.765625,2.671875,0.365234,-0.476562,-0.433594,0.244019,0.591858,-0.017883,0.768005,up
564715,8.804688,2.765625,2.671875,0.449219,-0.537109,-0.4375,0.244141,0.592957,-0.016846,0.767151,up
564720,8.769531,2.804688,2.632813,0.449219,-0.537109,-0.4375,0.244141,0.592957,-0.016846,0.767151,up
564725,8.691406,2.996094,2.632813,0.550781,-0.587891,-0.441406,0.244141,0.592957,-0.016846,0.767151,up
564730,8.691406,2.996094,2.632813,0.664062,-0.632812,-0.429687,0.244019,0.595947,-0.013977,0.764893,up
564735,8.925781,3.261719,2.554688,0.664062,-0.632812,-0.429687,0.243774,0.597595,-0.01239,0.763733,up
564740,8.925781,3.261719,2.554688,0.814453,-0.587891,-0.425781,0.243347,0.599243,-0.010559,0.762634,up
564745,8.992188,3.761719,2.363281,0.814453,-0.587891,-0.425781,0.242249,0.602356,-0.006653,0.760559,up
564750,8.960938,3.875,2.328125,0.814453,-0.587891,-0.425781,0.241699,0.603821,-0.0047,0.759583,up
564755,8.960938,3.953125,2.363281,0.814453,-0.587891,-0.425781,0.241089,0.605347,-0.002686,0.758606,up
564760,8.925781,4.027344,2.328125,0.814453,-0.587891,-0.425781,0.240662,0.606384,-0.001404,0.757874,up
564765,8.804688,4.066406,2.328125,0.511719,-0.392578,-0.251953,0.240173,0.607605,0.000122,0.75708,up
564771,8.652344,3.992188,2.363281,0.511719,-0.392578,-0.251953,0.239868,0.608521,0.001038,0.756409,up
564776,8.652344,3.953125,2.328125,0.511719,-0.392578,-0.251953,0.239624,0.609497,0.001953,0.755737,up
564783,8.652344,3.875,2.402344,0.511719,-0.392578,-0.251953,0.239624,0.609497,0.001953,0.755737,up
564788,8.582031,3.875,2.441406,0.296875,-0.378906,-0.158203,0.239624,0.609497,0.001953,0.755737,up
564794,8.464844,3.800781,2.671875,0.306641,-0.375,-0.134766,0.239624,0.609497,0.001953,0.755737,up
564799,8.5,3.644531,2.710938,0.306641,-0.375,-0.134766,0.238647,0.613098,0.004639,0.753052,up
564804,8.503906,3.644531,2.671875,0.410156,-0.375,-0.082031,0.238647,0.613098,0.004639,0.753052,up
564809,8.425781,3.644531,2.632813,0.410156,-0.375,-0.082031,0.237732,0.615051,0.006104,0.75177,up
564815,8.347656,3.722656,2.75,0.410156,-0.375,-0.082031,0.236572,0.616943,0.007507,0.750549,up
564820,8.34375,3.644531,2.785156,0.390625,-0.431641,-0.033203,0.235962,0.618103,0.008179,0.749817,up
564825,8.386719,3.722656,2.785156,0.367188,-0.439453,-0.029297,0.235352,0.619141,0.008789,0.749146,up
564831,8.382813,3.683594,2.785156,0.353516,-0.4375,-0.029297,0.234802,0.620056,0.009216,0.748535,up
564836,8.34375,3.644531,2.785156,0.353516,-0.4375,-0.029297,0.234314,0.621033,0.009766,0.747864,up
564841,8.386719,3.605469,2.785156,0.318359,-0.453125,-0.044922,0.234314,0.621033,0.009766,0.747864,up
564846,8.460938,3.53125,2.785156,0.294922,-0.443359,-0.050781,0.234314,0.621033,0.009766,0.747864,up
564851,8.5,3.453125,2.785156,0.294922,-0.443359,-0.050781,0.232971,0.624084,0.011108,0.745728,up
564856,8.464844,3.378906,2.75,0.294922,-0.443359,-0.050781,0.232666,0.625061,0.011536,0.745056,up
564861,8.539063,3.300781,2.75,0.236328,-0.40625,-0.089844,0.232666,0.625061,0.011536,0.745056,up
564866,8.609375,3.1875,2.785156,0.236328,-0.40625,-0.089844,0.232117,0.626831,0.01239,0.743713,up
564871,8.730469,3.070313,2.785156,0.236328,-0.40625,-0.089844,0.231934,0.627625,0.012878,0.743042,up
564876,8.648438,2.996094,2.75,0.236328,-0.40625,-0.089844,0.23175,0.628418,0.013489,0.742432,up
564881,8.582031,2.957031,2.785156,0.322266,-0.277344,-0.203125,0.23175,0.628418,0.013489,0.742432,up
564886,8.613281,2.996094,2.824219,0.322266,-0.277344,-0.203125,0.23175,0.628418,0.013489,0.742432,up
564891,8.613281,2.996094,2.824219,0.429687,-0.244141,-0.259766,0.23175,0.628418,0.013489,0.742432,up
564897,8.730469,3.03125,2.824219,0.429687,-0.244141,-0.259766,0.23175,0.628418,0.013489,0.742432,up
564902,8.84375,3.109375,2.75,0.529297,-0.1875,-0.306641,0.23175,0.628418,0.013489,0.742432,up
564908,9.035156,3.261719,2.671875,0.570312,-0.183594,-0.310547,0.23175,0.628418,0.013489,0.742432,up
564913,9.113281,3.339844,2.554688,0.589844,-0.193359,-0.318359,0.23175,0.628418,0.013489,0.742432,up
564918,9.304688,3.570313,2.289063,0.583984,-0.193359,-0.324219,0.23175,0.628418,0.013489,0.742432,up
564924,9.535156,3.683594,2.210938,0.566406,-0.189453,-0.318359,0.229004,0.63446,0.024841,0.737854,up
564929,9.648438,3.800781,2.097656,0.566406,-0.189453,-0.318359,0.228638,0.635071,0.026367,0.737366,up
564934,9.796875,3.875,2.058594,0.492187,-0.185547,-0.333984,0.22821,0.636292,0.029175,0.736389,up
564939,9.996094,3.953125,2.058594,0.492187,-0.185547,-0.333984,0.22821,0.636292,0.029175,0.736389,up
564944,10.070313,3.992188,2.058594,0.492187,-0.185547,-0.333984,0.228088,0.63678,0.030457,0.735901,up
564949,10.074219,3.992188,2.136719,0.320313,-0.113281,-0.332031,0.228088,0.63678,0.030457,0.735901,up
564955,10.179688,3.953125,2.25,0.236328,-0.09375,-0.330078,0.228088,0.63678,0.030457,0.735901,up
564960,10.152344,3.953125,2.289063,0.236328,-0.09375,-0.330078,0.228699,0.637817,0.034485,0.734619,up
564965,10.035156,3.953125,2.328125,0.052734,0.011719,-0.277344,0.228699,0.637817,0.034485,0.734619,up
564970,9.957031,3.953125,2.402344,0.052734,0.011719,-0.277344,0.229309,0.637817,0.035645,0.734375,up
564975,9.914063,3.914063,2.441406,0.052734,0.011719,-0.277344,0.229675,0.637695,0.036133,0.734375,up
564980,9.914063,3.875,2.441406,-0.054687,0.048828,-0.234375,0.229675,0.637695,0.036133,0.734375,up
564985,9.953125,3.914063,2.441406,-0.054687,0.048828,-0.234375,0.230164,0.637573,0.036621,0.734314,up
564990,9.996094,3.992188,2.402344,-0.09375,0.042969,-0.216797,0.230164,0.637573,0.036621,0.734314,up
564995,10.074219,3.914063,2.441406,-0.09375,0.042969,-0.216797,0.231506,0.637085,0.037476,0.734253,up
565000,10.074219,3.953125,2.554688,-0.09375,0.042969,-0.216797,0.231506,0.637085,0.037476,0.734253,up
565005,10.152344,3.914063,2.59375,-0.048828,0.019531,-0.201172,0.231506,0.637085,0.037476,0.734253,up
565010,10.113281,3.875,2.59375,-0.048828,0.019531,-0.201172,0.232788,0.63678,0.03833,0.73407,up
565016,9.957031,3.953125,2.632813,-0.048828,0.019531,-0.201172,0.233032,0.636719,0.038757,0.734009,up
565021,9.878906,3.953125,2.59375,0.050781,0.019531,-0.197266,0.233276,0.636658,0.039246,0.733948,up
565026,9.796875,3.992188,2.632813,0.074219,-0.001953,-0.195312,0.233276,0.636658,0.039246,0.733948,up
565031,9.769531,4.027344,2.59375,0.074219,-0.001953,-0.195312,0.233582,0.636719,0.040222,0.733765,up
565036,9.730469,4.144531,2.554688,0.074219,-0.001953,-0.195312,0.233765,0.636841,0.040771,0.733582,up
565041,9.609375,4.21875,2.554688,0.117188,-0.078125,-0.197266,0.233765,0.636841,0.040771,0.733582,up
565046,9.574219,4.21875,2.554688,0.132812,-0.095703,-0.208984,0.233765,0.636841,0.040771,0.733582,up
565051,9.574219,4.335937,2.554688,0.132812,-0.095703,-0.208984,0.234192,0.637451,0.04248,0.732849,up
565057,9.414063,4.335937,2.554688,0.132812,-0.095703,-0.208984,0.234314,0.637695,0.043091,0.732544,up
565064,9.265625,4.375,2.554688,0.136719,-0.089844,-0.201172,0.234314,0.637695,0.043091,0.732544,up
565070,9.191406,4.335937,2.480469,0.058594,-0.080078,-0.183594,0.234314,0.637695,0.043091,0.732544,up
565075,9.113281,4.335937,2.519531,0.058594,-0.080078,-0.183594,0.234863,0.638428,0.045105,0.731567,up
565080,9.109375,4.296875,2.519531,0.058594,-0.080078,-0.183594,0.234863,0.638428,0.045105,0.731567,up
565086,9.269531,4.21875,2.328125,-0.054687,-0.058594,-0.146484,0.235474,0.638489,0.04541,0.731262,up
565091,9.230469,4.144531,2.171875,-0.054687,-0.058594,-0.146484,0.235901,0.638489,0.04541,0.731201,up
565096,9.1875,4.105469,2.171875,-0.212891,-0.044922,-0.125,0.235901,0.638489,0.04541,0.731201,up
565101,9.148438,3.992188,2.171875,-0.234375,-0.048828,-0.132812,0.235901,0.638489,0.04541,0.731201,up
565106,9.03125,3.875,2.097656,-0.234375,-0.048828,-0.132812,0.235901,0.638489,0.04541,0.731201,up
565111,9.03125,3.875,2.097656,-0.189453,-0.048828,-0.136719,0.237976,0.638184,0.0448,0.730774,up
565116,9.03125,3.835938,1.945313,-0.142578,-0.052734,-0.140625,0.238464,0.638184,0.044739,0.730652,up
565122,8.964844,3.875,1.980469,-0.142578,-0.052734,-0.140625,0.238831,0.638184,0.044861,0.73053,up
565128,8.921875,3.835938,1.945313,-0.021484,-0.058594,-0.177734,0.238831,0.638184,0.044861,0.73053,up
565134,8.960938,3.835938,1.789063,0.052734,-0.0625,-0.1875,0.238831,0.638184,0.044861,0.73053,up
565139,8.964844,3.914063,1.5625,0.082031,-0.046875,-0.205078,0.238831,0.638184,0.044861,0.73053,up
565145,8.964844,3.953125,1.597656,0.097656,-0.048828,-0.193359,0.238831,0.638184,0.044861,0.73053,up
565150,9.070313,3.992188,1.484375,0.074219,-0.054687,-0.193359,0.239929,0.638611,0.046936,0.729614,up
565155,9.230469,4.066406,1.484375,0.074219,-0.054687,-0.193359,0.240112,0.638733,0.047424,0.729431,up
565160,9.230469,4.066406,1.484375,-0.001953,-0.005859,-0.183594,0.240356,0.638855,0.047913,0.729248,up
565165,9.1875,4.21875,1.484375,-0.001953,-0.005859,-0.183594,0.240601,0.638855,0.048218,0.729126,up
565170,9.113281,4.183594,1.523438,-0.080078,0.023437,-0.175781,0.240601,0.638855,0.048218,0.729126,up
565175,9.03125,4.183594,1.636719,-0.080078,0.023437,-0.175781,0.241699,0.63855,0.04895,0.729004,up
565180,8.921875,4.144531,1.714844,-0.154297,0.048828,-0.167969,0.241699,0.63855,0.04895,0.729004,up
565185,8.960938,4.105469,1.714844,-0.154297,0.048828,-0.167969,0.242187,0.638367,0.049072,0.729004,up
565190,8.960938,4.105469,1.714844,-0.169922,0.060547,-0.166016,0.242187,0.638367,0.049072,0.729004,up
565195,8.925781,4.066406,1.753906,-0.164062,0.052734,-0.166016,0.242187,0.638367,0.049072,0.729004,up
565200,8.84375,3.992188,1.867188,-0.164062,0.052734,-0.166016,0.243713,0.637634,0.049255,0.729126,up
565205,8.882813,3.992188,1.828125,-0.117188,0.03125,-0.154297,0.244202,0.63739,0.049316,0.729126,up
565210,8.882813,3.992188,1.867188,-0.117188,0.03125,-0.154297,0.244629,0.637207,0.049438,0.729126,up
565215,8.804688,4.105469,1.867188,-0.117188,0.03125,-0.154297,0.244995,0.637085,0.049561,0.729126,up
565220,8.847656,4.066406,1.867188,-0.025391,-0.003906,-0.146484,0.245361,0.636963,0.049744,0.729065,up
565225,8.882813,4.144531,1.90625,-0.025391,-0.003906,-0.146484,0.245667,0.636902,0.049988,0.729065,up
565230,8.925781,4.257812,1.867188,-0.025391,-0.003906,-0.146484,0.245911,0.636902,0.050232,0.728943,up
565235,8.925781,4.257812,1.867188,-0.005859,-0.015625,-0.136719,0.245911,0.636902,0.050232,0.728943,up
565240,8.960938,4.257812,1.828125,-0.005859,-0.015625,-0.136719,0.246094,0.636902,0.050476,0.728882,up
565245,8.960938,4.257812,1.828125,-0.037109,-0.015625,-0.121094,0.246582,0.636902,0.050903,0.728699,up
565250,9.070313,4.257812,1.828125,-0.037109,-0.015625,-0.121094,0.246582,0.636902,0.050903,0.728699,up
565255,9.109375,4.296875,1.867188,-0.085937,-0.009766,-0.121094,0.247131,0.63678,0.051086,0.728577,up
565261,9.113281,4.21875,1.90625,-0.128906,-0.005859,-0.111328,0.247131,0.63678,0.051086,0.728577,up
565266,9.113281,4.21875,1.90625,-0.138672,0.007813,-0.117188,0.24823,0.636536,0.051147,0.728394,up
565272,9.035156,4.296875,1.945313,-0.138672,0.007813,-0.117188,0.248596,0.636414,0.051147,0.728394,up
565277,9.070313,4.296875,1.980469,-0.150391,0.025391,-0.109375,0.248596,0.636414,0.051147,0.728394,up
565282,9.070313,4.335937,2.058594,-0.144531,0.03125,-0.115234,0.24939,0.636047,0.051147,0.728455,up
565288,9.113281,4.21875,2.058594,-0.144531,0.03125,-0.115234,0.249756,0.635864,0.051147,0.728455,up
565293,9.070313,4.183594,2.058594,-0.125,0.052734,-0.132812,0.250122,0.635681,0.051208,0.728516,up
565299,8.992188,4.183594,2.136719,-0.115234,0.058594,-0.140625,0.250122,0.635681,0.051208,0.728516,up
565304,8.925781,4.183594,2.058594,-0.115234,0.058594,-0.140625,0.250122,0.635681,0.051208,0.728516,up
