timestamp,ax,ay,az,gx,gy,gz,qw,qx,qy,qz,label
55845,-7.449219,4.886719,4.324219,0.613281,0.09375,0.177734,0.845398,0.334229,0.392639,-0.139343,up
55850,-7.484375,4.886719,4.324219,0.498047,0.044922,0.195312,0.845398,0.334229,0.392639,-0.139343,up
55855,-7.40625,4.925781,4.246094,0.498047,0.044922,0.195312,0.844177,0.338135,0.391907,-0.139465,up
55860,-7.445312,4.964844,4.207031,0.498047,0.044922,0.195312,0.843872,0.339233,0.391663,-0.139465,up
55865,-7.410156,4.964844,4.246094,0.498047,0.044922,0.195312,0.843872,0.339233,0.391663,-0.139465,up
55870,-7.371094,4.886719,4.207031,0.300781,0.003906,0.222656,0.843872,0.339233,0.391663,-0.139465,up
55875,-7.449219,4.734375,4.246094,0.300781,0.003906,0.222656,0.843201,0.34198,0.390808,-0.138977,up
55880,-7.40625,4.773437,4.246094,0.300781,0.003906,0.222656,0.843079,0.342712,0.390503,-0.138794,up
55885,-7.328125,4.773437,4.285156,0.300781,0.003906,0.222656,0.843079,0.342712,0.390503,-0.138794,up
55890,-7.332031,4.617187,4.324219,0.220703,-0.017578,0.214844,0.843079,0.342712,0.390503,-0.138794,up
55895,-7.328125,4.542969,4.359375,0.220703,-0.017578,0.214844,0.842773,0.344727,0.389587,-0.138062,up
55900,-7.292969,4.503906,4.285156,0.220703,-0.007813,0.199219,0.842773,0.344727,0.389587,-0.138062,up
55905,-7.25,4.425781,4.132812,0.240234,0.0,0.185547,0.842712,0.345398,0.389343,-0.137878,up
55911,-7.132812,4.425781,4.132812,0.240234,0.0,0.185547,0.842407,0.346741,0.388855,-0.137573,up
55916,-7.09375,4.425781,4.132812,0.314453,0.048828,0.169922,0.842163,0.347534,0.388672,-0.137451,up
55922,-7.136719,4.351562,4.132812,0.314453,0.048828,0.169922,0.841858,0.348389,0.38855,-0.13739,up
55927,-7.136719,4.351562,4.246094,0.398438,0.091797,0.162109,0.841858,0.348389,0.38855,-0.13739,up
55932,-7.097656,4.351562,4.207031,0.425781,0.121094,0.160156,0.841858,0.348389,0.38855,-0.13739,up
55937,-7.097656,4.351562,4.207031,0.425781,0.121094,0.160156,0.841858,0.348389,0.38855,-0.13739,up
55942,-7.132812,4.425781,4.207031,0.441406,0.142578,0.142578,0.840149,0.352722,0.388489,-0.137329,up
55947,-7.136719,4.425781,4.054687,0.441406,0.142578,0.142578,0.840149,0.352722,0.388489,-0.137329,up
55952,-7.136719,4.425781,4.054687,0.494141,0.212891,0.113281,0.840149,0.352722,0.388489,-0.137329,up
55958,-7.136719,4.542969,4.09375,0.494141,0.212891,0.113281,0.838989,0.355103,0.388733,-0.13739,up
55963,-7.175781,4.582031,4.054687,0.511719,0.246094,0.113281,0.838989,0.355103,0.388733,-0.13739,up
55969,-7.210937,4.734375,4.132812,0.511719,0.246094,0.113281,0.838989,0.355103,0.388733,-0.13739,up
55974,-7.25,4.773437,4.132812,0.494141,0.25,0.113281,0.838989,0.355103,0.388733,-0.13739,up
55979,-7.289062,4.808594,4.132812,0.46875,0.244141,0.109375,0.838989,0.355103,0.388733,-0.13739,up
55984,-7.410156,4.808594,4.015625,0.46875,0.244141,0.109375,0.838989,0.355103,0.388733,-0.13739,up
55989,-7.445312,4.808594,4.015625,0.46875,0.244141,0.109375,0.834473,0.363708,0.390442,-0.137634,up
55994,-7.449219,4.773437,3.976563,0.392578,0.205078,0.121094,0.834473,0.363708,0.390442,-0.137634,up
56000,-7.445312,4.847656,3.976563,0.375,0.183594,0.123047,0.834473,0.363708,0.390442,-0.137634,up
56005,-7.488281,4.808594,4.015625,0.375,0.183594,0.123047,0.833008,0.366577,0.39093,-0.137451,up
56010,-7.484375,4.734375,4.09375,0.328125,0.115234,0.123047,0.833008,0.366577,0.39093,-0.137451,up
56015,-7.558594,4.734375,4.09375,0.328125,0.115234,0.123047,0.832153,0.368347,0.391052,-0.137329,up
56020,-7.558594,4.886719,4.054687,0.328125,0.115234,0.123047,0.831543,0.369934,0.390991,-0.137329,up
56025,-7.519531,4.847656,4.054687,0.328125,0.115234,0.123047,0.831543,0.369934,0.390991,-0.137329,up
56030,-7.558594,4.808594,4.09375,0.234375,-0.009766,0.070312,0.831543,0.369934,0.390991,-0.137329,up
56035,-7.558594,4.847656,4.054687,0.234375,-0.009766,0.070312,0.830872,0.371704,0.390564,-0.137573,up
56040,-7.449219,4.808594,3.976563,0.234375,-0.009766,0.070312,0.83075,0.372131,0.390381,-0.137756,up
56045,-7.40625,4.886719,3.941406,0.234375,-0.009766,0.070312,0.83075,0.372131,0.390381,-0.137756,up
56050,-7.332031,4.847656,3.976563,0.121094,-0.074219,0.025391,0.83075,0.372131,0.390381,-0.137756,up
56055,-7.332031,4.773437,4.015625,0.121094,-0.074219,0.025391,0.830566,0.372742,0.390015,-0.138062,up
56061,-7.332031,4.773437,4.015625,0.103516,-0.078125,0.025391,0.830566,0.37323,0.389526,-0.138306,up
56066,-7.328125,4.695312,4.054687,0.087891,-0.089844,0.017578,0.830566,0.373413,0.389282,-0.138489,up
56071,-7.328125,4.582031,4.015625,0.087891,-0.089844,0.017578,0.830566,0.373596,0.389099,-0.138611,up
56076,-7.328125,4.582031,3.941406,0.087891,-0.089844,0.017578,0.830566,0.373718,0.388916,-0.138733,up
56081,-7.253906,4.582031,3.902344,0.140625,-0.058594,-0.015625,0.830505,0.373962,0.388733,-0.138977,up
56086,-7.175781,4.582031,3.941406,0.140625,-0.058594,-0.015625,0.830383,0.374268,0.388611,-0.139221,up
56091,-7.171875,4.582031,3.863281,0.140625,-0.058594,-0.015625,0.8302,0.374695,0.38855,-0.139465,up
56097,-7.171875,4.542969,3.863281,0.140625,-0.058594,-0.015625,0.829956,0.375183,0.388489,-0.139709,up
56102,-7.132812,4.542969,3.824219,0.326172,0.056641,-0.009766,0.829956,0.375183,0.388489,-0.139709,up
56108,-7.175781,4.582031,3.824219,0.373047,0.082031,-0.009766,0.829956,0.375183,0.388489,-0.139709,up
56114,-7.210937,4.582031,3.824219,0.414062,0.115234,-0.003906,0.829956,0.375183,0.388489,-0.139709,up
56119,-7.210937,4.65625,3.863281,0.453125,0.142578,-0.005859,0.829956,0.375183,0.388489,-0.139709,up
56124,-7.253906,4.695312,3.785156,0.480469,0.173828,0.009766,0.829956,0.375183,0.388489,-0.139709,up
56129,-7.175781,4.65625,3.902344,0.480469,0.173828,0.009766,0.829956,0.375183,0.388489,-0.139709,up
56135,-7.132812,4.695312,3.941406,0.53125,0.224609,0.0,0.829956,0.375183,0.388489,-0.139709,up
56140,-7.132812,4.695312,3.941406,0.570312,0.292969,0.0,0.829956,0.375183,0.388489,-0.139709,up
56146,-7.210937,4.847656,4.054687,0.570312,0.292969,0.0,0.82373,0.385437,0.390503,-0.142761,up
56151,-7.210937,4.886719,4.054687,0.605469,0.3125,-0.003906,0.822754,0.386902,0.39093,-0.143066,up
56157,-7.289062,4.925781,4.09375,0.605469,0.3125,-0.003906,0.82196,0.388184,0.391357,-0.143372,up
56162,-7.328125,4.925781,4.132812,0.603516,0.310547,-0.025391,0.821045,0.389465,0.391846,-0.143738,up
56167,-7.367187,5.039062,4.167969,0.603516,0.310547,-0.025391,0.820129,0.390808,0.392273,-0.144104,up
56172,-7.328125,5.15625,4.09375,0.583984,0.292969,-0.044922,0.820129,0.390808,0.392273,-0.144104,up
56177,-7.328125,5.15625,4.09375,0.580078,0.277344,-0.050781,0.818359,0.393372,0.393127,-0.144836,up
56183,-7.410156,5.230469,4.132812,0.580078,0.277344,-0.050781,0.817505,0.394592,0.393555,-0.145264,up
56188,-7.367187,5.269531,4.132812,0.570312,0.253906,-0.039063,0.817505,0.394592,0.393555,-0.145264,up
56194,-7.445312,5.347656,4.09375,0.570312,0.242187,-0.029297,0.817505,0.394592,0.393555,-0.145264,up
56199,-7.484375,5.460937,3.976563,0.570312,0.228516,-0.007813,0.817505,0.394592,0.393555,-0.145264,up
56204,-7.554687,5.5,3.941406,0.5625,0.205078,0.003906,0.817505,0.394592,0.393555,-0.145264,up
56209,-7.558594,5.5,3.863281,0.554687,0.189453,0.017578,0.817505,0.394592,0.393555,-0.145264,up
56214,-7.59375,5.539062,3.785156,0.558594,0.152344,0.052734,0.817505,0.394592,0.393555,-0.145264,up
56219,-7.632812,5.613281,3.710938,0.546875,0.126953,0.072266,0.817505,0.394592,0.393555,-0.145264,up
56224,-7.675781,5.652344,3.632813,0.546875,0.126953,0.072266,0.811401,0.40448,0.395081,-0.148071,up
56229,-7.636719,5.730469,3.519531,0.533203,0.044922,0.123047,0.811401,0.40448,0.395081,-0.148071,up
56234,-7.636719,5.769531,3.441406,0.511719,0.019531,0.15625,0.811401,0.40448,0.395081,-0.148071,up
56240,-7.675781,5.882812,3.289063,0.511719,0.019531,0.15625,0.809387,0.409363,0.39386,-0.148865,up
56245,-7.597656,5.921875,3.289063,0.511719,0.019531,0.15625,0.809387,0.409363,0.39386,-0.148865,up
56250,-7.59375,6.035156,3.289063,0.535156,-0.091797,0.257813,0.809387,0.409363,0.39386,-0.148865,up
56255,-7.597656,6.074219,3.363281,0.535156,-0.091797,0.257813,0.808594,0.411865,0.392761,-0.149048,up
56261,-7.410156,5.960937,3.824219,0.535156,-0.091797,0.257813,0.807922,0.414734,0.390991,-0.149414,up
56266,-7.40625,5.960937,3.785156,0.597656,-0.193359,0.371094,0.807617,0.41626,0.390015,-0.149536,up
56271,-7.40625,6.035156,3.363281,0.597656,-0.193359,0.371094,0.807617,0.41626,0.390015,-0.149536,up
56276,-7.410156,6.074219,3.210938,0.521484,-0.177734,0.460937,0.807312,0.417847,0.388977,-0.149475,up
56281,-7.484375,6.035156,3.25,0.521484,-0.177734,0.460937,0.806946,0.420654,0.386902,-0.149048,up
56286,-7.714844,5.882812,3.136719,0.521484,-0.177734,0.460937,0.806946,0.420654,0.386902,-0.149048,up
56291,-7.714844,5.730469,3.058594,0.521484,-0.177734,0.460937,0.806763,0.423157,0.384766,-0.148132,up
56296,-7.671875,5.730469,3.058594,0.337891,-0.257813,0.550781,0.806763,0.423157,0.384766,-0.148132,up
56301,-7.675781,5.691406,2.980469,0.337891,-0.257813,0.550781,0.806946,0.425415,0.382385,-0.147156,up
56306,-7.636719,5.691406,2.90625,0.337891,-0.257813,0.550781,0.807068,0.426575,0.380981,-0.146667,up
56311,-7.636719,5.691406,2.90625,0.337891,-0.257813,0.550781,0.80719,0.427551,0.379761,-0.146362,up
56316,-7.59375,5.769531,2.789063,0.408203,-0.351563,0.433594,0.80719,0.427551,0.379761,-0.146362,up
56321,-7.558594,5.882812,2.867188,0.408203,-0.351563,0.433594,0.807251,0.42865,0.378418,-0.14624,up
56326,-7.445312,5.921875,2.867188,0.474609,-0.359375,0.382813,0.807251,0.42865,0.378418,-0.14624,up
56331,-7.40625,5.921875,2.945313,0.636719,-0.371094,0.287109,0.80719,0.43103,0.375793,-0.146362,up
56336,-7.332031,5.996094,2.945313,0.636719,-0.371094,0.287109,0.806946,0.432556,0.37439,-0.146729,up
56341,-7.332031,5.996094,2.945313,0.689453,-0.347656,0.242187,0.806702,0.433899,0.37323,-0.147217,up
56346,-7.253906,6.1875,2.980469,0.728516,-0.341797,0.207031,0.806335,0.435425,0.37207,-0.147766,up
56351,-7.253906,6.1875,2.980469,0.769531,-0.345703,0.181641,0.805908,0.436951,0.370911,-0.148437,up
56356,-7.175781,6.378906,3.328125,0.757812,-0.345703,0.162109,0.805908,0.436951,0.370911,-0.148437,up
56361,-7.175781,6.378906,3.328125,0.691406,-0.34375,0.150391,0.804993,0.440002,0.368591,-0.149963,up
56366,-6.910156,6.839844,3.480469,0.691406,-0.34375,0.150391,0.804626,0.441406,0.367432,-0.150635,up
56371,-6.871094,6.957031,3.554688,0.378906,-0.279297,0.220703,0.804626,0.441406,0.367432,-0.150635,up
56376,-6.871094,6.996094,3.554688,0.378906,-0.279297,0.220703,0.804199,0.444336,0.364502,-0.151672,up
56381,-6.792969,6.953125,3.519531,0.378906,-0.279297,0.220703,0.80426,0.444824,0.363708,-0.151489,up
56386,-6.792969,6.765625,3.25,0.378906,-0.279297,0.220703,0.80426,0.444824,0.363708,-0.151489,up
56391,-6.90625,6.648437,3.136719,-0.191406,-0.150391,0.404297,0.80426,0.444824,0.363708,-0.151489,up
56396,-6.90625,6.535156,3.210938,-0.191406,-0.150391,0.404297,0.805481,0.445068,0.361633,-0.149475,up
56401,-6.90625,6.457031,3.328125,-0.191406,-0.150391,0.404297,0.806152,0.444763,0.360962,-0.148437,up
56406,-7.023437,5.996094,3.402344,-0.191406,-0.150391,0.404297,0.806152,0.444763,0.360962,-0.148437,up
56411,-7.027344,5.804687,3.328125,-0.396484,-0.136719,0.462891,0.806152,0.444763,0.360962,-0.148437,up
56416,-7.09375,5.578125,3.363281,-0.396484,-0.136719,0.462891,0.808289,0.443542,0.359009,-0.14502,up
56421,-7.132812,5.386719,3.441406,-0.396484,-0.136719,0.462891,0.80896,0.443176,0.358337,-0.144165,up
56426,-6.90625,5.5,3.632813,-0.396484,-0.136719,0.462891,0.80896,0.443176,0.358337,-0.144165,up
56431,-6.867187,5.613281,3.746094,-0.005859,-0.238281,0.230469,0.80896,0.443176,0.358337,-0.144165,up
56436,-6.871094,5.882812,3.824219,-0.005859,-0.238281,0.230469,0.809875,0.443054,0.356873,-0.14325,up
56442,-6.945312,6.074219,3.710938,0.125,-0.246094,0.152344,0.81012,0.443604,0.355408,-0.143372,up
56447,-6.984375,6.226562,3.632813,0.287109,-0.341797,0.015625,0.81012,0.444153,0.354553,-0.143921,up
56452,-7.027344,6.574219,3.59375,0.287109,-0.341797,0.015625,0.81012,0.44458,0.353699,-0.144653,up
56457,-6.988281,6.648437,3.59375,0.287109,-0.341797,0.015625,0.810181,0.444763,0.353027,-0.145325,up
56462,-6.949219,6.765625,3.554688,0.054687,-0.453125,-0.136719,0.810425,0.444763,0.352173,-0.146301,up
56468,-6.832031,6.917969,3.441406,0.054687,-0.453125,-0.136719,0.810791,0.444397,0.351501,-0.147034,up
56474,-6.714844,6.878906,3.441406,0.054687,-0.453125,-0.136719,0.81134,0.443665,0.350769,-0.147705,up
56481,-6.640625,6.800781,3.441406,-0.566406,-0.529297,-0.148437,0.81134,0.443665,0.350769,-0.147705,up
56486,-6.5625,6.648437,3.363281,-0.816406,-0.546875,-0.121094,0.81488,0.438538,0.348694,-0.14856,up
56491,-6.488281,6.304687,3.289063,-0.816406,-0.546875,-0.121094,0.81488,0.438538,0.348694,-0.14856,up
56496,-6.523437,6.1875,3.289063,-0.816406,-0.546875,-0.121094,0.816711,0.435669,0.348022,-0.148315,up
56501,-6.484375,6.035156,3.402344,-1.363281,-0.554687,-0.076172,0.820496,0.429687,0.346924,-0.147522,up
56506,-6.367187,5.84375,3.59375,-1.363281,-0.554687,-0.076172,0.820496,0.429687,0.346924,-0.147522,up
56511,-6.40625,5.804687,3.554688,-1.375,-0.539062,-0.125,0.822449,0.426575,0.346436,-0.147095,up
56516,-6.328125,5.652344,3.519531,-1.375,-0.539062,-0.125,0.824402,0.423279,0.345947,-0.146729,up
56522,-6.367187,5.578125,3.59375,-1.294922,-0.533203,-0.15625,0.824402,0.423279,0.345947,-0.146729,up
56528,-6.328125,5.578125,3.59375,-1.294922,-0.533203,-0.15625,0.829285,0.414856,0.344604,-0.146301,up
56533,-6.328125,5.578125,3.59375,-1.019531,-0.509766,-0.263672,0.83075,0.412231,0.344177,-0.146423,up
56538,-6.367187,5.578125,3.632813,-0.958984,-0.496094,-0.283203,0.832092,0.40979,0.343811,-0.146667,up
56543,-6.371094,5.578125,3.671875,-0.958984,-0.496094,-0.283203,0.832092,0.40979,0.343811,-0.146667,up
56548,-6.371094,5.578125,3.671875,-0.917969,-0.470703,-0.3125,0.832092,0.40979,0.343811,-0.146667,up
56553,-6.449219,5.613281,3.632813,-0.927734,-0.443359,-0.324219,0.832092,0.40979,0.343811,-0.146667,up
56558,-6.445312,5.578125,3.671875,-0.960937,-0.417969,-0.328125,0.832092,0.40979,0.343811,-0.146667,up
56564,-6.449219,5.539062,3.746094,-0.960937,-0.417969,-0.328125,0.838196,0.397705,0.342407,-0.148254,up
56570,-6.484375,5.5,3.785156,-1.046875,-0.357422,-0.326172,0.838196,0.397705,0.342407,-0.148254,up
56576,-6.566406,5.5,3.746094,-1.066406,-0.330078,-0.320313,0.838196,0.397705,0.342407,-0.148254,up
56581,-6.679687,5.460937,3.902344,-1.083984,-0.298828,-0.322266,0.838196,0.397705,0.342407,-0.148254,up
56587,-6.710937,5.386719,3.941406,-1.050781,-0.21875,-0.324219,0.843018,0.387207,0.342529,-0.148682,up
56592,-6.753906,5.269531,4.054687,-1.050781,-0.21875,-0.324219,0.845215,0.381836,0.343018,-0.148682,up
56597,-6.792969,5.230469,4.132812,-0.992187,-0.132812,-0.326172,0.846191,0.379395,0.343384,-0.148682,up
56602,-6.828125,5.15625,4.132812,-0.992187,-0.132812,-0.326172,0.847046,0.377197,0.34375,-0.148682,up
56607,-6.988281,5.117187,4.324219,-0.890625,-0.066406,-0.330078,0.8479,0.374756,0.344299,-0.148682,up
56613,-7.027344,5.039062,4.550781,-0.890625,-0.066406,-0.330078,0.848633,0.372559,0.344849,-0.148682,up
56618,-7.097656,5.078125,4.550781,-0.890625,-0.066406,-0.330078,0.848633,0.372559,0.344849,-0.148682,up
56623,-7.132812,5.039062,4.667969,-0.740234,-0.021484,-0.322266,0.849182,0.37085,0.345276,-0.148743,up
56628,-7.132812,5.039062,4.667969,-0.740234,-0.021484,-0.322266,0.849731,0.36908,0.345825,-0.148865,up
56634,-7.132812,5.039062,4.667969,-0.589844,0.0,-0.302734,0.850525,0.36615,0.346802,-0.149109,up
56639,-7.132812,5.039062,4.667969,-0.427734,-0.007813,-0.263672,0.850891,0.364868,0.347229,-0.149292,up
56644,-7.097656,4.925781,4.898437,-0.427734,-0.007813,-0.263672,0.850891,0.364868,0.347229,-0.149292,up
56650,-7.136719,4.925781,4.933594,-0.291016,0.0,-0.230469,0.850891,0.364868,0.347229,-0.149292,up
56656,-7.09375,4.964844,4.933594,-0.142578,-0.009766,-0.197266,0.850891,0.364868,0.347229,-0.149292,up
56661,-7.097656,5.0,4.933594,-0.142578,-0.009766,-0.197266,0.851562,0.361694,0.348511,-0.150269,up
56667,-7.097656,5.078125,4.933594,-0.072266,-0.021484,-0.185547,0.851562,0.361023,0.348816,-0.151062,up
56672,-7.175781,5.078125,4.820312,-0.072266,-0.021484,-0.185547,0.851501,0.360901,0.348938,-0.15155,up
56677,-7.132812,5.117187,4.820312,0.125,-0.058594,-0.191406,0.851501,0.360901,0.348938,-0.15155,up
56682,-7.175781,5.191406,4.742187,0.125,-0.058594,-0.191406,0.851196,0.361084,0.348938,-0.152649,up
56688,-7.171875,5.269531,4.859375,0.125,-0.058594,-0.191406,0.851074,0.361267,0.348816,-0.153381,up
56693,-7.09375,5.308594,4.972656,0.125,-0.058594,-0.191406,0.850891,0.361389,0.348694,-0.154114,up
56699,-7.097656,5.386719,4.972656,0.179687,-0.205078,-0.275391,0.850769,0.361511,0.34845,-0.155029,up
56704,-7.023437,5.5,4.972656,0.117188,-0.228516,-0.310547,0.850769,0.361511,0.34845,-0.155029,up
56709,-6.984375,5.539062,4.972656,0.046875,-0.257813,-0.339844,0.850769,0.361511,0.34845,-0.155029,up
56715,-6.984375,5.5,4.972656,-0.056641,-0.269531,-0.378906,0.850769,0.361511,0.34845,-0.155029,up
56720,-6.984375,5.460937,4.972656,-0.177734,-0.302734,-0.394531,0.850769,0.361511,0.34845,-0.155029,up
56725,-6.832031,5.386719,5.011719,-0.300781,-0.328125,-0.412109,0.850769,0.361511,0.34845,-0.155029,up
56730,-6.792969,5.269531,5.050781,-0.429687,-0.353516,-0.419922,0.850769,0.361511,0.34845,-0.155029,up
56735,-6.792969,5.117187,5.050781,-0.544922,-0.361328,-0.423828,0.850769,0.361511,0.34845,-0.155029,up
56740,-6.714844,4.964844,5.089844,-0.65625,-0.376953,-0.427734,0.850769,0.361511,0.34845,-0.155029,up
56746,-6.640625,4.65625,5.128906,-0.65625,-0.376953,-0.427734,0.854614,0.350586,0.346313,-0.163757,up
56751,-6.605469,4.464844,5.203125,-0.65625,-0.376953,-0.427734,0.854614,0.350586,0.346313,-0.163757,up
56756,-6.5625,4.3125,5.089844,-0.751953,-0.435547,-0.505859,0.854614,0.350586,0.346313,-0.163757,up
56761,-6.449219,4.3125,5.164062,-0.751953,-0.435547,-0.505859,0.856323,0.346069,0.345886,-0.165222,up
56766,-6.488281,4.273437,5.28125,-0.751953,-0.435547,-0.505859,0.857056,0.343933,0.345703,-0.166138,up
56772,-6.449219,4.273437,5.355469,-0.451172,-0.423828,-0.578125,0.857056,0.343933,0.345703,-0.166138,up
56777,-6.445312,4.273437,5.242187,-0.451172,-0.423828,-0.578125,0.858826,0.338623,0.344971,-0.169678,up
56782,-6.445312,4.273437,5.164062,-0.451172,-0.423828,-0.578125,0.859192,0.33728,0.344727,-0.170959,up
56787,-6.40625,4.3125,5.164062,-0.451172,-0.423828,-0.578125,0.859192,0.33728,0.344727,-0.170959,up
56792,-6.445312,4.234375,5.203125,-0.289063,-0.457031,-0.638672,0.859192,0.33728,0.344727,-0.170959,up
56797,-6.367187,4.351562,5.203125,-0.289063,-0.457031,-0.638672,0.859863,0.334595,0.344055,-0.174011,up
56802,-6.328125,4.351562,5.28125,-0.294922,-0.453125,-0.662109,0.859863,0.334595,0.344055,-0.174011,up
56807,-6.257812,4.390625,5.242187,-0.294922,-0.453125,-0.662109,0.860535,0.331909,0.343384,-0.177063,up
56812,-6.296875,4.3125,5.050781,-0.351563,-0.390625,-0.677734,0.860901,0.330261,0.34314,-0.178772,up
56817,-6.257812,4.3125,5.128906,-0.351563,-0.390625,-0.677734,0.861206,0.328857,0.342957,-0.180237,up
56822,-6.222656,4.3125,5.164062,-0.427734,-0.333984,-0.671875,0.861511,0.327454,0.342896,-0.18158,up
56827,-6.257812,4.3125,5.128906,-0.427734,-0.333984,-0.671875,0.861877,0.325684,0.342834,-0.183167,up
56832,-6.300781,4.3125,5.089844,-0.496094,-0.259766,-0.648437,0.862183,0.324036,0.342957,-0.184448,up
56837,-6.332031,4.3125,5.128906,-0.496094,-0.259766,-0.648437,0.862793,0.32074,0.343323,-0.186707,up
56842,-6.371094,4.273437,5.164062,-0.525391,-0.1875,-0.619141,0.862793,0.32074,0.343323,-0.186707,up
56848,-6.371094,4.273437,5.203125,-0.525391,-0.1875,-0.619141,0.863403,0.317139,0.343994,-0.188904,up
56854,-6.5625,4.082031,5.472656,-0.525391,-0.1875,-0.619141,0.863586,0.315613,0.34436,-0.189819,up
56859,-6.644531,4.121094,5.472656,-0.494141,-0.099609,-0.613281,0.86377,0.313904,0.344849,-0.190857,up
56864,-6.527344,4.121094,5.472656,-0.503906,-0.111328,-0.621094,0.86377,0.313904,0.344849,-0.190857,up
56869,-6.527344,4.195312,5.355469,-0.544922,-0.097656,-0.623047,0.86377,0.313904,0.344849,-0.190857,up
56876,-6.644531,4.234375,5.242187,-0.605469,-0.048828,-0.619141,0.86377,0.313904,0.344849,-0.190857,up
56881,-6.714844,4.234375,5.242187,-0.681641,-0.001953,-0.607422,0.86377,0.313904,0.344849,-0.190857,up
56887,-6.789062,4.160156,5.433594,-0.734375,0.015625,-0.587891,0.86377,0.313904,0.344849,-0.190857,up
56892,-6.832031,4.121094,5.511719,-0.734375,0.015625,-0.587891,0.86499,0.302734,0.348938,-0.195862,up
56897,-6.867187,4.042969,5.625,-0.878906,0.035156,-0.464844,0.86499,0.302734,0.348938,-0.195862,up
56902,-6.949219,3.929688,5.855469,-0.878906,0.035156,-0.464844,0.865662,0.29834,0.350647,-0.196594,up
56907,-6.949219,3.929688,5.855469,-0.867187,0.042969,-0.396484,0.866089,0.295837,0.351624,-0.196777,up
56912,-6.984375,3.699219,5.855469,-0.867187,0.042969,-0.396484,0.866455,0.293823,0.352356,-0.196899,up
56917,-7.023437,3.699219,5.816406,-0.732422,0.007813,-0.333984,0.866455,0.293823,0.352356,-0.196899,up
56922,-7.023437,3.699219,5.816406,-0.732422,0.007813,-0.333984,0.867249,0.289673,0.353821,-0.197021,up
56927,-7.0625,3.546875,6.007812,-0.732422,0.007813,-0.333984,0.867249,0.289673,0.353821,-0.197021,up
56932,-7.066406,3.621094,6.007812,-0.644531,-0.023437,-0.314453,0.867249,0.289673,0.353821,-0.197021,up
56937,-7.066406,3.621094,6.007812,-0.480469,-0.091797,-0.294922,0.868164,0.284912,0.355103,-0.197571,up
56943,-7.027344,3.738281,5.816406,-0.480469,-0.091797,-0.294922,0.868713,0.282349,0.355347,-0.198242,up
56948,-6.871094,3.738281,5.816406,-0.480469,-0.091797,-0.294922,0.869019,0.281128,0.355347,-0.19873,up
56953,-6.867187,3.777344,5.777344,-0.466797,-0.251953,-0.314453,0.869446,0.279602,0.355286,-0.199219,up
56959,-6.910156,3.929688,5.585937,-0.466797,-0.251953,-0.314453,0.869812,0.278259,0.355164,-0.199646,up
56964,-6.753906,3.851563,5.546875,-0.466797,-0.251953,-0.314453,0.870239,0.276611,0.355042,-0.200134,up
56969,-6.683594,3.777344,5.472656,-0.703125,-0.351563,-0.369141,0.870239,0.276611,0.355042,-0.200134,up
56974,-6.601562,3.660156,5.472656,-0.804687,-0.375,-0.402344,0.870239,0.276611,0.355042,-0.200134,up
56979,-6.488281,3.585938,5.472656,-0.804687,-0.375,-0.402344,0.872131,0.270264,0.354614,-0.201416,up
56985,-6.371094,3.316406,5.625,-0.804687,-0.375,-0.402344,0.872131,0.270264,0.354614,-0.201416,up
56990,-6.367187,3.238281,5.585937,-0.972656,-0.367188,-0.476562,0.872131,0.270264,0.354614,-0.201416,up
56995,-6.449219,3.164063,5.738281,-0.992187,-0.34375,-0.505859,0.872131,0.270264,0.354614,-0.201416,up
57000,-6.410156,3.164063,5.855469,-0.990234,-0.333984,-0.527344,0.872131,0.270264,0.354614,-0.201416,up
57006,-6.449219,3.125,5.777344,-0.978516,-0.304688,-0.554687,0.872131,0.270264,0.354614,-0.201416,up
57011,-6.523437,3.164063,5.703125,-0.992187,-0.269531,-0.583984,0.872131,0.270264,0.354614,-0.201416,up
57017,-6.5625,3.007813,5.816406,-1.025391,-0.240234,-0.634766,0.872131,0.270264,0.354614,-0.201416,up
57022,-6.644531,3.046875,5.894531,-1.025391,-0.240234,-0.634766,0.877258,0.248169,0.355713,-0.205627,up
57028,-6.714844,3.125,5.855469,-1.091797,-0.265625,-0.699219,0.877258,0.248169,0.355713,-0.205627,up
57033,-6.714844,3.125,5.855469,-1.160156,-0.322266,-0.740234,0.878845,0.238892,0.356934,-0.207703,up
57038,-6.792969,3.546875,5.96875,-1.160156,-0.322266,-0.740234,0.878845,0.238892,0.356934,-0.207703,up
57043,-6.832031,3.621094,5.929687,-1.378906,-0.445312,-0.818359,0.878845,0.238892,0.356934,-0.207703,up
57048,-6.90625,3.660156,5.894531,-1.378906,-0.445312,-0.818359,0.881104,0.227051,0.357666,-0.210266,up
57053,-6.90625,3.8125,5.738281,-1.378906,-0.445312,-0.818359,0.881897,0.222778,0.35791,-0.210876,up
57058,-6.867187,3.621094,5.894531,-1.880859,-0.576172,-0.871094,0.882996,0.217468,0.358154,-0.211548,up
57064,-6.871094,3.585938,5.855469,-1.880859,-0.576172,-0.871094,0.884033,0.212341,0.358337,-0.212036,up
57069,-6.90625,3.621094,5.703125,-1.880859,-0.576172,-0.871094,0.885254,0.20636,0.358582,-0.212463,up
57075,-6.710937,3.507813,5.738281,-1.880859,-0.576172,-0.871094,0.885254,0.20636,0.358582,-0.212463,up
57081,-6.789062,3.46875,5.738281,-2.556641,-0.724609,-0.910156,0.887878,0.193604,0.358948,-0.212952,up
57087,-6.75,2.855469,5.929687,-2.556641,-0.724609,-0.910156,0.889465,0.185852,0.359131,-0.212952,up
57092,-6.867187,2.816406,5.929687,-2.556641,-0.724609,-0.910156,0.890808,0.179077,0.359314,-0.212891,up
57097,-6.984375,2.933594,5.894531,-2.896484,-0.808594,-0.910156,0.890808,0.179077,0.359314,-0.212891,up
57102,-6.984375,2.933594,5.894531,-2.896484,-0.808594,-0.910156,0.893738,0.163696,0.359558,-0.212463,up
57107,-6.984375,2.816406,5.855469,-2.896484,-0.808594,-0.910156,0.893738,0.163696,0.359558,-0.212463,up
57112,-7.210937,2.511719,5.472656,-2.955078,-0.759766,-0.908203,0.896423,0.148193,0.360046,-0.211792,up
57117,-7.210937,2.511719,5.472656,-2.955078,-0.759766,-0.908203,0.896423,0.148193,0.360046,-0.211792,up
57122,-7.214844,1.707031,5.050781,-3.162109,-0.537109,-0.882812,0.898682,0.131714,0.361633,-0.210388,up
57128,-7.253906,1.820313,4.859375,-3.472656,0.033203,-0.820312,0.898682,0.131714,0.361633,-0.210388,up
57133,-7.289062,1.859375,4.933594,-3.472656,0.033203,-0.820312,0.900635,0.105713,0.36731,-0.206665,up
57138,-7.328125,1.859375,5.164062,-3.515625,0.388672,-0.740234,0.900879,0.097046,0.370056,-0.205017,up
57143,-7.253906,1.746094,5.664062,-3.515625,0.388672,-0.740234,0.900879,0.097046,0.370056,-0.205017,up
57148,-7.214844,1.402344,6.085937,-3.515625,0.388672,-0.740234,0.900757,0.08075,0.376282,-0.201355,up
57153,-6.988281,1.132813,6.46875,-3.267578,0.794922,-0.480469,0.900757,0.08075,0.376282,-0.201355,up
57158,-7.0625,0.902344,6.621094,-3.267578,0.794922,-0.480469,0.899963,0.066162,0.383118,-0.197144,up
57163,-7.027344,0.789062,6.8125,-3.267578,0.794922,-0.480469,0.899414,0.059753,0.386597,-0.194824,up
57168,-7.292969,0.328125,7.542969,-2.777344,1.076172,-0.132812,0.899414,0.059753,0.386597,-0.194824,up
57173,-7.40625,-0.054687,7.695312,-2.777344,1.076172,-0.132812,0.897888,0.047668,0.39447,-0.189514,up
57178,-7.75,-0.589844,7.769531,-2.777344,1.076172,-0.132812,0.897888,0.047668,0.39447,-0.189514,up
57183,-7.75,-0.589844,7.769531,-2.304688,1.285156,0.117188,0.897034,0.043274,0.398071,-0.187134,up
57188,-7.9375,-0.589844,7.808594,-2.304688,1.285156,0.117188,0.895996,0.039246,0.401978,-0.184448,up
57193,-7.9375,-0.589844,7.808594,-1.794922,1.421875,0.330078,0.893738,0.033081,0.410034,-0.179016,up
57198,-7.9375,-0.589844,7.808594,-1.794922,1.421875,0.330078,0.893738,0.033081,0.410034,-0.179016,up
57203,-8.671875,-1.511719,7.65625,-1.794922,1.421875,0.330078,0.890991,0.029907,0.418152,-0.174255,up
57208,-8.671875,-1.089844,7.65625,-1.794922,1.421875,0.330078,0.889526,0.029724,0.422058,-0.172363,up
57213,-8.898438,-0.589844,7.425781,-1.794922,1.421875,0.330078,0.887878,0.030457,0.426086,-0.170715,up
57218,-9.085938,-0.285156,7.234375,-1.794922,1.421875,0.330078,0.88623,0.031982,0.429993,-0.169373,up
57223,-9.28125,0.023437,7.117187,-1.794922,1.421875,0.330078,0.88623,0.031982,0.429993,-0.169373,up
57228,-9.402344,0.367188,6.964844,0.546875,1.861328,0.662109,0.882629,0.037415,0.437744,-0.167297,up
57233,-9.933594,0.863281,6.773437,0.546875,1.861328,0.662109,0.880493,0.04126,0.441956,-0.166382,up
57238,-10.203125,1.246094,6.699219,0.546875,1.861328,0.662109,0.880493,0.04126,0.441956,-0.166382,up
57243,-10.433594,1.785156,6.773437,1.117188,2.003906,0.767578,0.880493,0.04126,0.441956,-0.166382,up
57249,-10.851563,2.433594,6.621094,1.117188,2.003906,0.767578,0.874512,0.053101,0.453247,-0.164368,up
57254,-11.195313,2.894531,6.660156,1.117188,2.003906,0.767578,0.872559,0.05658,0.456909,-0.163452,up
57260,-11.394531,2.933594,6.851562,0.458984,1.816406,0.775391,0.870667,0.05957,0.460571,-0.162231,up
57266,-11.503906,2.703125,6.964844,0.458984,1.816406,0.775391,0.868652,0.062073,0.4646,-0.160461,up
57272,-11.578125,2.625,6.925781,-0.267578,1.490234,0.746094,0.868652,0.062073,0.4646,-0.160461,up
57277,-11.582031,2.511719,6.925781,-0.591797,1.304688,0.726562,0.868652,0.062073,0.4646,-0.160461,up
57282,-11.542969,2.359375,6.964844,-0.8125,1.117188,0.705078,0.868652,0.062073,0.4646,-0.160461,up
57287,-11.429688,2.089844,7.003906,-0.8125,1.117188,0.705078,0.868652,0.062073,0.4646,-0.160461,up
57292,-11.355469,1.9375,6.964844,-0.8125,1.117188,0.705078,0.863464,0.061768,0.478333,-0.147888,up
57298,-11.199219,1.859375,6.925781,-1.099609,0.505859,0.740234,0.863464,0.061768,0.478333,-0.147888,up
57303,-10.894531,1.476563,6.734375,-1.099609,0.505859,0.740234,0.862793,0.059387,0.481445,-0.142273,up
57308,-10.660156,1.363281,6.429687,-1.066406,0.408203,0.773437,0.862671,0.058228,0.482666,-0.139404,up
57313,-10.660156,1.363281,6.429687,-1.066406,0.408203,0.773437,0.862671,0.058228,0.482666,-0.139404,up
57318,-10.46875,1.210938,6.429687,-0.830078,0.302734,0.892578,0.862671,0.058228,0.482666,-0.139404,up
57323,-10.46875,1.210938,6.429687,-0.640625,0.322266,0.960937,0.862671,0.055969,0.485413,-0.130493,up
57328,-9.933594,1.324219,5.738281,-0.640625,0.322266,0.960937,0.862671,0.056213,0.486145,-0.127686,up
57333,-10.011719,1.324219,5.546875,-0.078125,0.554687,1.263672,0.862549,0.057007,0.487061,-0.124817,up
57339,-10.085938,1.515625,5.242187,-0.078125,0.554687,1.263672,0.861938,0.06012,0.489136,-0.118958,up
57345,-10.167969,1.59375,5.203125,-0.078125,0.554687,1.263672,0.861511,0.062439,0.490417,-0.115845,up
57351,-10.246094,1.667969,5.203125,0.291016,0.876953,1.710938,0.861511,0.062439,0.490417,-0.115845,up
57356,-10.3125,1.707031,5.320312,0.412109,0.976562,1.876953,0.861511,0.062439,0.490417,-0.115845,up
57361,-10.429688,1.976563,5.28125,0.412109,0.976562,1.876953,0.859375,0.072266,0.495117,-0.105164,up
57366,-10.628906,1.9375,5.164062,0.638672,1.136719,2.177734,0.859375,0.072266,0.495117,-0.105164,up
57372,-10.625,1.9375,5.011719,0.742187,1.195313,2.304688,0.859375,0.072266,0.495117,-0.105164,up
57378,-10.628906,2.207031,4.898437,0.966797,1.308594,2.525391,0.859375,0.072266,0.495117,-0.105164,up
57383,-10.660156,2.050781,4.859375,0.966797,1.308594,2.525391,0.855042,0.091553,0.502747,-0.088196,up
57388,-10.65625,2.050781,4.628906,1.085938,1.371094,2.619141,0.852051,0.103638,0.506958,-0.078857,up
57393,-10.472656,2.050781,4.167969,1.085938,1.371094,2.619141,0.852051,0.103638,0.506958,-0.078857,up
57398,-10.277344,2.128906,4.09375,1.394531,1.554688,2.748047,0.850464,0.110046,0.509033,-0.074402,up
57403,-10.242188,2.089844,3.976563,1.394531,1.554688,2.748047,0.84668,0.12323,0.513428,-0.065674,up
57408,-10.207031,1.628906,3.671875,1.394531,1.554688,2.748047,0.84668,0.12323,0.513428,-0.065674,up
57413,-10.277344,1.476563,3.328125,1.611328,1.798828,2.724609,0.84668,0.12323,0.513428,-0.065674,up
57418,-10.3125,1.820313,3.058594,2.042969,2.132813,2.599609,0.841797,0.137878,0.518738,-0.057251,up
57423,-10.3125,1.820313,3.058594,2.042969,2.132813,2.599609,0.838623,0.146179,0.522034,-0.053223,up
57428,-10.3125,1.820313,3.058594,2.333984,2.361328,2.492188,0.835327,0.153992,0.52533,-0.05011,up
57433,-11.007813,3.164063,2.332031,2.333984,2.361328,2.492188,0.831482,0.162476,0.529175,-0.04718,up
57438,-11.007813,3.164063,2.332031,2.333984,2.361328,2.492188,0.831482,0.162476,0.529175,-0.04718,up
57443,-11.117188,4.042969,2.175781,2.453125,3.001953,2.332031,0.831482,0.162476,0.529175,-0.04718,up
57448,-11.539063,5.5,2.101563,2.125,3.21875,2.556641,0.831482,0.162476,0.529175,-0.04718,up
57453,-11.5,6.726562,1.71875,2.125,3.21875,2.556641,0.812073,0.196716,0.54834,-0.034973,up
57458,-11.542969,6.878906,1.449219,2.125,3.21875,2.556641,0.806335,0.205444,0.553772,-0.030396,up
57464,-11.542969,6.609375,0.953125,1.519531,3.298828,2.974609,0.806335,0.205444,0.553772,-0.030396,up
57470,-11.617188,6.34375,0.835937,1.519531,3.298828,2.974609,0.791138,0.226562,0.567993,-0.012634,up
57477,-11.582031,6.574219,0.988281,0.496094,3.345703,3.457031,0.791138,0.226562,0.567993,-0.012634,up
57482,-11.582031,6.574219,0.988281,0.298828,3.263672,3.617188,0.781189,0.238586,0.576904,0.003113,up
57487,-11.316406,6.917969,1.144531,0.298828,3.263672,3.617188,0.781189,0.238586,0.576904,0.003113,up
57492,-11.316406,6.917969,1.144531,0.173828,3.142578,3.759766,0.771484,0.250305,0.584534,0.021118,up
57497,-11.351563,6.265625,0.835937,0.173828,3.142578,3.759766,0.771484,0.250305,0.584534,0.021118,up
57502,-11.273438,6.113281,0.644531,0.076172,2.798828,3.974609,0.762146,0.261963,0.590637,0.039734,up
57508,-10.816406,6.152344,0.300781,0.076172,2.798828,3.974609,0.762146,0.261963,0.590637,0.039734,up
57513,-10.8125,6.265625,0.109375,0.134766,2.505859,3.962891,0.762146,0.261963,0.590637,0.039734,up
57518,-10.699219,6.417969,-0.160156,0.134766,2.505859,3.962891,0.748413,0.279968,0.597534,0.067139,up
57523,-10.738281,6.417969,-0.617187,0.154297,2.421875,3.929688,0.748413,0.279968,0.597534,0.067139,up
57528,-10.738281,6.417969,-0.617187,0.064453,2.337891,3.882813,0.739441,0.291565,0.60083,0.084717,up
57533,-10.699219,6.457031,-0.847656,0.064453,2.337891,3.882813,0.734985,0.297119,0.602234,0.09375,up
57538,-10.390625,6.648437,-0.925781,-0.214844,2.148438,3.753906,0.730896,0.302002,0.603394,0.102417,up
57543,-10.390625,6.648437,-0.925781,-0.365234,2.025391,3.681641,0.730896,0.302002,0.603394,0.102417,up
57548,-10.203125,6.574219,-1.195313,-0.365234,2.025391,3.681641,0.72699,0.306641,0.604248,0.111145,up
57553,-9.890625,6.265625,-1.5,-0.365234,2.025391,3.681641,0.719299,0.315491,0.605103,0.130066,up
57558,-9.890625,6.265625,-1.5,-0.917969,1.585938,3.431641,0.716248,0.31897,0.605042,0.138428,up
57564,-9.664063,6.304687,-1.730469,-1.035156,1.566406,3.349609,0.71344,0.322021,0.604858,0.146484,up
57569,-9.550781,6.152344,-1.769531,-1.035156,1.566406,3.349609,0.707581,0.327759,0.604004,0.164551,up
57574,-9.324219,6.152344,-1.652344,-1.035156,1.566406,3.349609,0.707581,0.327759,0.604004,0.164551,up
57579,-9.246094,6.304687,-1.652344,-1.035156,1.566406,3.349609,0.704651,0.330322,0.603455,0.173767,up
57584,-9.246094,6.1875,-1.691406,-1.34375,1.449219,3.089844,0.704651,0.330322,0.603455,0.173767,up
57590,-9.058594,5.996094,-1.421875,-1.34375,1.449219,3.089844,0.696899,0.335938,0.601318,0.199707,up
57596,-8.941406,6.1875,-1.15625,-1.34375,1.449219,3.089844,0.694763,0.337158,0.600586,0.207336,up
57601,-8.941406,6.1875,-1.15625,-1.546875,1.423828,2.935547,0.692322,0.338318,0.59967,0.215881,up
57606,-8.941406,6.1875,-1.15625,-1.583984,1.398438,2.884766,0.68988,0.339355,0.598755,0.224609,up
57611,-8.863281,6.496094,-1.003906,-1.583984,1.398438,2.884766,0.6875,0.34021,0.597717,0.233032,up
57616,-8.902344,6.457031,-0.886719,-1.583984,1.398438,2.884766,0.6875,0.34021,0.597717,0.233032,up
57621,-8.902344,6.457031,-0.886719,-1.679688,1.333984,2.826172,0.682922,0.341309,0.595459,0.250122,up
57627,-8.742188,6.992187,-0.503906,-1.679688,1.333984,2.826172,0.682922,0.341309,0.595459,0.250122,up
57632,-8.632813,7.300781,-0.199219,-1.679688,1.333984,2.826172,0.678406,0.34259,0.59259,0.266907,up
57637,-8.597656,7.414062,-0.082031,-1.679688,1.333984,2.826172,0.676147,0.343506,0.590881,0.275085,up
57643,-8.519531,7.566406,-0.042969,-1.474609,0.925781,3.142578,0.676147,0.343506,0.590881,0.275085,up
57648,-8.324219,7.644531,0.109375,-1.474609,0.925781,3.142578,0.671448,0.346191,0.586731,0.291687,up
57653,-8.09375,7.761719,0.183594,-1.474609,0.925781,3.142578,0.669006,0.347961,0.58429,0.299988,up
57659,-8.015625,7.914062,0.183594,-1.357422,0.777344,3.333984,0.669006,0.347961,0.58429,0.299988,up
57664,-8.015625,7.914062,0.183594,-1.298828,0.707031,3.417969,0.66394,0.352112,0.578918,0.316345,up
57669,-7.902344,8.027344,0.339844,-1.298828,0.707031,3.417969,0.66394,0.352112,0.578918,0.316345,up
57674,-7.710937,8.066406,0.492187,-1.207031,0.511719,3.574219,0.66394,0.352112,0.578918,0.316345,up
57679,-7.710937,8.066406,0.492187,-1.195313,0.271484,3.679688,0.66394,0.352112,0.578918,0.316345,up
57684,-7.40625,8.339844,0.300781,-1.195313,0.271484,3.679688,0.651001,0.366211,0.561096,0.356689,up
57689,-7.328125,8.410156,0.222656,-1.240234,0.033203,3.798828,0.651001,0.366211,0.561096,0.356689,up
57694,-7.292969,8.527344,0.148437,-1.240234,0.033203,3.798828,0.646057,0.373169,0.551453,0.373169,up
57699,-7.175781,8.449219,0.148437,-1.263672,-0.175781,3.890625,0.646057,0.373169,0.551453,0.373169,up
57704,-6.984375,8.339844,0.03125,-1.279297,-0.261719,3.951172,0.643799,0.376648,0.546448,0.38092,up
57709,-6.832031,8.371094,0.03125,-1.279297,-0.261719,3.951172,0.641663,0.380005,0.541565,0.388062,up
57714,-6.679687,8.523438,0.109375,-1.330078,-0.373047,4.044922,0.639099,0.384094,0.535217,0.396973,up
57719,-6.488281,8.523438,0.222656,-1.330078,-0.373047,4.044922,0.634583,0.391357,0.523743,0.412109,up
57724,-6.371094,8.339844,0.339844,-1.330078,-0.373047,4.044922,0.632324,0.394958,0.517883,0.419556,up
57729,-6.371094,8.140625,0.261719,-1.330078,-0.373047,4.044922,0.632324,0.394958,0.517883,0.419556,up
57734,-6.257812,8.222656,0.222656,-1.3125,-0.486328,4.189453,0.632324,0.394958,0.517883,0.419556,up
57739,-5.757812,8.179688,0.339844,-1.3125,-0.486328,4.189453,0.627197,0.40271,0.505066,0.435181,up
57744,-5.757812,8.179688,0.339844,-1.287109,-0.482422,4.21875,0.624512,0.406555,0.498657,0.44281,up
57749,-5.414062,8.21875,0.453125,-1.287109,-0.482422,4.21875,0.621704,0.410278,0.492187,0.450378,up
57754,-5.414062,8.21875,0.453125,-1.304688,-0.466797,4.271484,0.615662,0.417847,0.478882,0.46582,up
57759,-4.953125,8.140625,0.761719,-1.304688,-0.466797,4.271484,0.615662,0.417847,0.478882,0.46582,up
57764,-4.953125,8.140625,0.761719,-1.113281,-0.423828,4.300781,0.612427,0.421753,0.472412,0.473206,up
57769,-4.148437,8.371094,0.988281,-1.113281,-0.423828,4.300781,0.605103,0.429749,0.459045,0.488342,up
57774,-3.921875,8.300781,1.027344,-1.113281,-0.423828,4.300781,0.601562,0.433472,0.452759,0.495178,up
57779,-3.652344,8.449219,1.027344,-1.060547,-0.416016,4.328125,0.601562,0.433472,0.452759,0.495178,up
57784,-3.652344,8.449219,1.027344,-1.060547,-0.416016,4.328125,0.597534,0.437561,0.445679,0.502869,up
57789,-3.574219,8.410156,1.144531,-1.099609,-0.449219,4.320312,0.597534,0.437561,0.445679,0.502869,up
57794,-3.574219,8.410156,1.144531,-1.117188,-0.453125,4.302734,0.590088,0.444885,0.432373,0.516602,up
57799,-3.460938,8.21875,1.105469,-1.117188,-0.453125,4.302734,0.590088,0.444885,0.432373,0.516602,up
57804,-3.460938,8.21875,1.105469,-1.195313,-0.542969,4.28125,0.582458,0.452087,0.418152,0.53064,up
57809,-3.152344,8.296875,1.527344,-1.216797,-0.722656,4.222656,0.582458,0.452087,0.418152,0.53064,up
57814,-2.847656,8.179688,1.679688,-1.216797,-0.722656,4.222656,0.575012,0.459167,0.403137,0.544067,up
57819,-2.808594,7.953125,1.601563,-1.216797,-0.722656,4.222656,0.571045,0.463135,0.394775,0.550964,up
57824,-2.808594,7.953125,1.601563,-1.140625,-0.818359,4.142578,0.567688,0.466492,0.387756,0.55658,up
57830,-2.195313,8.027344,1.527344,-1.09375,-0.875,4.091797,0.564087,0.470032,0.380249,0.562378,up
57835,-2.195313,8.027344,1.527344,-1.037109,-0.957031,4.041016,0.560486,0.473694,0.372681,0.567932,up
57840,-1.429688,7.757812,1.910156,-1.037109,-0.957031,4.041016,0.556946,0.477417,0.365234,0.573181,up
57845,-1.429688,7.757812,1.910156,-0.814453,-1.068359,3.914063,0.549438,0.485352,0.350281,0.582947,up
57851,-0.855469,7.757812,1.871094,-0.501953,-1.255859,3.875,0.54541,0.489807,0.342834,0.587402,up
57857,-0.203125,7.535156,2.332031,-0.501953,-1.255859,3.875,0.54541,0.489807,0.342834,0.587402,up
57862,-0.128906,7.53125,2.332031,0.009766,-1.523438,3.853516,0.54541,0.489807,0.342834,0.587402,up
57867,0.027344,7.5625,2.175781,0.009766,-1.523438,3.853516,0.54541,0.489807,0.342834,0.587402,up
57873,0.027344,7.566406,2.253906,0.009766,-1.523438,3.853516,0.527405,0.511841,0.315247,0.600403,up
57879,0.0625,7.5625,2.140625,0.845703,-1.966797,4.044922,0.527405,0.511841,0.315247,0.600403,up
57884,0.101563,7.761719,1.910156,0.845703,-1.966797,4.044922,0.516602,0.525513,0.301941,0.604797,up
57889,0.484375,7.796875,1.449219,0.957031,-1.976563,4.109375,0.510559,0.532959,0.295166,0.60675,up
57894,0.484375,7.796875,1.449219,0.957031,-1.976563,4.109375,0.510559,0.532959,0.295166,0.60675,up
57899,0.792969,7.953125,1.449219,1.005859,-1.972656,4.244141,0.510559,0.532959,0.295166,0.60675,up
57904,1.480469,8.222656,1.566406,1.005859,-1.972656,4.244141,0.491455,0.554871,0.275085,0.612305,up
57909,1.710938,8.21875,2.023438,1.005859,-1.972656,4.244141,0.484741,0.561951,0.268311,0.614197,up
57914,1.863281,7.800781,2.253906,1.039063,-1.707031,4.509766,0.477539,0.569275,0.26123,0.61615,up
57919,2.019531,6.992187,1.488281,1.039063,-1.707031,4.509766,0.469849,0.576721,0.253784,0.618286,up
57925,2.054688,6.726562,0.835937,0.664062,-1.167969,4.785156,0.469849,0.576721,0.253784,0.618286,up
57930,2.09375,6.691406,0.414062,0.664062,-1.167969,4.785156,0.446594,0.594543,0.231628,0.627197,up
57936,2.210938,6.53125,0.53125,0.664062,-1.167969,4.785156,0.439697,0.598877,0.224365,0.630615,up
57941,2.476563,6.34375,1.066406,0.664062,-1.167969,4.785156,0.431641,0.603821,0.215088,0.634705,up
57946,2.476563,6.34375,1.066406,-0.123047,-1.203125,5.556641,0.423767,0.608521,0.205505,0.638672,up
57951,2.746094,6.191406,1.792969,-0.123047,-1.203125,5.556641,0.423767,0.608521,0.205505,0.638672,up
57956,3.167969,4.421875,2.253906,-0.058594,-1.052734,5.675781,0.423767,0.608521,0.205505,0.638672,up
57961,3.167969,4.421875,2.253906,-0.087891,-0.845703,5.775391,0.406738,0.617371,0.185486,0.647278,up
57967,3.78125,2.167969,2.0625,-0.087891,-0.845703,5.775391,0.388611,0.624756,0.165344,0.656738,up
57972,4.3125,1.019531,2.0625,0.056641,-0.59375,5.835937,0.388611,0.624756,0.165344,0.656738,up
57977,4.695312,1.019531,2.101563,0.056641,-0.59375,5.835937,0.369751,0.631348,0.146362,0.665771,up
57982,4.695312,1.019531,2.101563,0.056641,-0.59375,5.835937,0.369751,0.631348,0.146362,0.665771,up
57987,5.0,0.941406,2.292969,0.728516,-0.384766,5.658203,0.348633,0.638,0.130127,0.674194,up
57992,5.84375,0.863281,2.523438,0.728516,-0.384766,5.658203,0.348633,0.638,0.130127,0.674194,up
57997,5.84375,0.863281,2.523438,1.738281,-0.164062,5.291016,0.325134,0.644775,0.118713,0.681519,up
58003,6.078125,1.09375,2.558594,1.738281,-0.164062,5.291016,0.325134,0.644775,0.118713,0.681519,up
58008,6.042969,1.171875,2.523438,3.101563,0.609375,4.611328,0.325134,0.644775,0.118713,0.681519,up
58013,5.882812,1.476563,2.523438,3.101563,0.609375,4.611328,0.325134,0.644775,0.118713,0.681519,up
58018,5.660156,2.015625,2.523438,3.101563,0.609375,4.611328,0.272949,0.65509,0.111145,0.695679,up
58024,5.355469,2.433594,2.636719,3.576172,1.101563,3.701172,0.272949,0.65509,0.111145,0.695679,up
58029,5.160156,2.167969,3.136719,3.486328,1.091797,3.541016,0.247498,0.658142,0.112122,0.702148,up
58034,5.199219,2.050781,3.480469,3.486328,1.091797,3.541016,0.234741,0.659485,0.113037,0.705139,up
58040,5.3125,2.207031,3.671875,3.140625,1.023438,3.320313,0.234741,0.659485,0.113037,0.705139,up
58045,5.738281,2.28125,4.167969,3.140625,1.023438,3.320313,0.210876,0.661499,0.114685,0.71051,up
58050,5.847656,2.398438,4.476562,2.818359,0.976562,3.207031,0.200012,0.662231,0.115112,0.712891,up
58055,5.847656,2.398438,4.476562,2.818359,0.976562,3.207031,0.200012,0.662231,0.115112,0.712891,up
58060,5.964844,2.703125,4.628906,1.992188,0.869141,3.068359,0.200012,0.662231,0.115112,0.712891,up
58065,5.964844,2.703125,4.628906,1.478516,0.802734,2.990234,0.171814,0.663208,0.11261,0.719666,up
58070,6.039062,1.132813,4.09375,1.478516,0.802734,2.990234,0.157776,0.663208,0.106995,0.723755,up
58075,6.1875,0.863281,4.09375,1.478516,0.802734,2.990234,0.152527,0.663147,0.103088,0.725464,up
58080,6.386719,0.597656,4.09375,-0.449219,0.226562,2.410156,0.148254,0.663147,0.09845,0.72699,up
58085,6.464844,0.136719,3.976563,-0.449219,0.226562,2.410156,0.14502,0.663208,0.093628,0.72821,up
58090,6.347656,0.367188,3.941406,-0.917969,-0.007813,2.076172,0.14502,0.663208,0.093628,0.72821,up
58095,6.308594,0.480469,4.015625,-0.919922,-0.119141,1.945313,0.142273,0.663391,0.088013,0.72937,up
58100,6.5,0.058594,4.167969,-0.919922,-0.119141,1.945313,0.138428,0.66394,0.07843,0.730652,up
58105,6.6875,-0.359375,4.054687,-0.919922,-0.119141,1.945313,0.136719,0.664307,0.074219,0.731079,up
58110,7.113281,-0.667969,3.863281,-0.339844,-0.255859,1.580078,0.136719,0.664307,0.074219,0.731079,up
58115,7.570312,-0.324219,4.054687,0.074219,-0.341797,1.4375,0.13446,0.664856,0.07019,0.731384,up
58121,7.570312,-0.324219,4.054687,0.4375,-0.400391,1.269531,0.129395,0.666565,0.065613,0.731201,up
58126,7.726562,0.097656,3.480469,0.720703,-0.482422,1.105469,0.125916,0.667969,0.064392,0.730652,up
58131,7.875,0.519531,2.945313,0.720703,-0.482422,1.105469,0.123169,0.669189,0.064087,0.72998,up
58138,8.113281,0.902344,2.753906,0.720703,-0.482422,1.105469,0.120117,0.670837,0.064453,0.729004,up
58143,8.113281,0.902344,2.753906,0.720703,-0.482422,1.105469,0.120117,0.670837,0.064453,0.729004,up
58148,8.21875,1.019531,2.558594,1.25,-0.771484,0.527344,0.120117,0.670837,0.064453,0.729004,up
58153,8.21875,1.019531,2.558594,1.259766,-0.921875,0.21875,0.111633,0.676636,0.068298,0.724609,up
58158,8.457031,1.898438,2.175781,1.259766,-0.921875,0.21875,0.111633,0.676636,0.068298,0.724609,up
58163,8.5625,2.128906,2.023438,1.136719,-0.998047,0.119141,0.107849,0.680847,0.07135,0.720886,up
58168,8.875,2.511719,1.566406,0.628906,-1.154297,-0.015625,0.107849,0.680847,0.07135,0.720886,up
58173,9.300781,2.625,1.371094,0.628906,-1.154297,-0.015625,0.106201,0.685425,0.072998,0.716614,up
58178,9.40625,2.589844,1.144531,0.628906,-1.154297,-0.015625,0.106384,0.687744,0.072937,0.714417,up
58184,9.605469,2.511719,0.875,-0.433594,-1.335938,-0.089844,0.106384,0.687744,0.072937,0.714417,up
58190,9.722656,2.207031,0.300781,-0.710937,-1.298828,-0.111328,0.106384,0.687744,0.072937,0.714417,up
58195,9.828125,2.167969,-0.007813,-1.085938,-1.091797,-0.1875,0.110596,0.694275,0.069458,0.707764,up
58200,9.910156,2.089844,-0.234375,-1.085938,-1.091797,-0.1875,0.115417,0.697571,0.065796,0.704102,up
58205,9.945313,1.898438,-0.582031,-1.085938,-1.091797,-0.1875,0.115417,0.697571,0.065796,0.704102,up
58210,9.949219,1.707031,-0.695312,-1.085938,-1.091797,-0.1875,0.120789,0.699707,0.062378,0.701355,up
58215,9.945313,1.707031,-0.734375,-0.921875,-0.583984,-0.480469,0.120789,0.699707,0.062378,0.701355,up
58220,10.066406,1.820313,-0.847656,-0.732422,-0.439453,-0.564453,0.123718,0.700562,0.061096,0.700134,up
58226,10.023438,1.785156,-1.003906,-0.541016,-0.300781,-0.634766,0.125916,0.701111,0.060486,0.699219,up
58231,9.867188,2.207031,-0.964844,-0.541016,-0.300781,-0.634766,0.130188,0.70166,0.060608,0.697876,up
58236,9.910156,2.511719,-0.773437,-0.101563,-0.080078,-0.791016,0.130188,0.70166,0.060608,0.697876,up
58241,9.75,2.855469,-0.695312,0.089844,0.003906,-0.873047,0.133362,0.70166,0.062988,0.697083,up
58248,9.566406,3.316406,-0.503906,0.089844,0.003906,-0.873047,0.134644,0.701538,0.064941,0.696777,up
58253,9.367188,3.585938,-0.390625,0.365234,0.115234,-0.972656,0.134644,0.701538,0.064941,0.696777,up
58258,9.296875,3.96875,-0.199219,0.412109,0.111328,-0.966797,0.134644,0.701538,0.064941,0.696777,up
58263,9.21875,4.160156,-0.042969,0.447266,0.072266,-0.945312,0.134644,0.701538,0.064941,0.696777,up
58269,9.140625,4.273437,0.148437,0.447266,0.072266,-0.945312,0.134644,0.701538,0.064941,0.696777,up
58274,9.101563,4.3125,0.148437,0.447266,0.072266,-0.945312,0.139526,0.700806,0.076904,0.695312,up
58279,9.0625,4.3125,0.109375,0.128906,-0.107422,-0.767578,0.139526,0.700806,0.076904,0.695312,up
58285,9.445313,4.195312,0.03125,-0.041016,-0.208984,-0.671875,0.143066,0.701294,0.080627,0.693726,up
58290,9.5625,4.121094,0.109375,-0.041016,-0.208984,-0.671875,0.143066,0.701294,0.080627,0.693726,up
58295,9.71875,4.121094,0.109375,-0.472656,-0.400391,-0.457031,0.143066,0.701294,0.080627,0.693726,up
58300,9.988281,4.003906,0.03125,-0.472656,-0.400391,-0.457031,0.14624,0.702087,0.081055,0.6922,up
58305,9.988281,4.042969,-0.007813,-0.472656,-0.400391,-0.457031,0.147949,0.702515,0.080811,0.691406,up
58310,10.027344,4.121094,-0.082031,-0.625,-0.380859,-0.341797,0.147949,0.702515,0.080811,0.691406,up
58315,9.984375,4.082031,-0.234375,-0.625,-0.380859,-0.341797,0.151672,0.703308,0.079712,0.689941,up
58320,9.90625,4.082031,-0.234375,-0.449219,-0.320313,-0.384766,0.15332,0.703674,0.079163,0.68927,up
58325,9.75,4.160156,-0.273438,-0.449219,-0.320313,-0.384766,0.154968,0.703979,0.078796,0.688599,up
58330,9.683594,4.121094,-0.3125,-0.160156,-0.271484,-0.464844,0.156311,0.704224,0.078796,0.688049,up
58336,9.683594,4.121094,-0.3125,-0.029297,-0.263672,-0.494141,0.158569,0.704895,0.079651,0.686768,up
58342,9.527344,4.121094,-0.042969,-0.029297,-0.263672,-0.494141,0.159424,0.7052,0.080505,0.686096,up
58347,9.601563,4.121094,-0.042969,0.189453,-0.251953,-0.521484,0.160156,0.705627,0.081543,0.685425,up
58352,9.601563,4.121094,0.03125,0.189453,-0.251953,-0.521484,0.160767,0.706055,0.082886,0.684692,up
58358,9.527344,4.121094,-0.082031,0.189453,-0.251953,-0.521484,0.161255,0.70636,0.084045,0.684082,up
58363,9.445313,4.003906,-0.121094,0.232422,-0.167969,-0.527344,0.161743,0.706665,0.085388,0.683472,up
58369,9.296875,3.890625,-0.160156,0.191406,-0.154297,-0.505859,0.161743,0.706665,0.085388,0.683472,up
58374,9.261719,3.890625,-0.007813,0.191406,-0.154297,-0.505859,0.161743,0.706665,0.085388,0.683472,up
58379,9.339844,3.929688,0.03125,0.191406,-0.154297,-0.505859,0.163574,0.707397,0.088684,0.681885,up
58385,9.339844,3.929688,0.03125,-0.003906,-0.208984,-0.390625,0.164246,0.707642,0.089355,0.681335,up
58390,9.339844,3.929688,0.03125,-0.042969,-0.181641,-0.361328,0.164917,0.707886,0.089905,0.680847,up
58395,9.339844,4.121094,0.070312,-0.082031,-0.166016,-0.330078,0.164917,0.707886,0.089905,0.680847,up
58401,9.371094,4.195312,-0.007813,-0.082031,-0.166016,-0.330078,0.16571,0.708069,0.090393,0.68042,up
58407,9.371094,4.195312,-0.007813,-0.140625,-0.125,-0.300781,0.16803,0.708374,0.091309,0.679382,up
58412,9.21875,4.082031,-0.007813,-0.140625,-0.125,-0.300781,0.168762,0.708435,0.091614,0.679138,up
58417,9.21875,4.003906,-0.007813,-0.064453,-0.060547,-0.308594,0.169434,0.708435,0.092041,0.678955,up
58423,9.21875,4.042969,0.03125,-0.017578,-0.056641,-0.314453,0.169434,0.708435,0.092041,0.678955,up
58430,9.261719,4.082031,0.070312,-0.017578,-0.056641,-0.314453,0.169434,0.708435,0.092041,0.678955,up
58435,9.367188,4.082031,0.070312,0.041016,-0.048828,-0.289063,0.169434,0.708435,0.092041,0.678955,up
58440,9.339844,4.121094,0.070312,0.041016,-0.048828,-0.289063,0.17157,0.708557,0.094238,0.677979,up
58445,9.410156,4.121094,0.03125,0.029297,-0.033203,-0.287109,0.17157,0.708557,0.094238,0.677979,up
58450,9.371094,4.121094,0.109375,0.029297,-0.033203,-0.287109,0.172424,0.708496,0.095398,0.677612,up
58455,9.339844,4.042969,0.070312,-0.021484,0.0,-0.318359,0.172424,0.708496,0.095398,0.677612,up
