timestamp,ax,ay,az,gx,gy,gz,qw,qx,qy,qz,label
176234,-0.011719,9.253906,2.140625,0.207031,-0.160156,-0.1875,0.789124,0.580139,-0.101318,-0.1745,up
176239,-0.050781,9.25,2.175781,0.207031,-0.160156,-0.1875,0.788147,0.581055,-0.101563,-0.175659,up
176244,-0.128906,9.292969,2.140625,0.207031,-0.160156,-0.1875,0.787781,0.581421,-0.101624,-0.176208,up
176249,-0.164062,9.328125,2.175781,0.207031,-0.160156,-0.1875,0.787415,0.581787,-0.101624,-0.176636,up
176255,-0.128906,9.328125,2.253906,0.125,-0.148437,-0.175781,0.787415,0.581787,-0.101624,-0.176636,up
176260,-0.050781,9.371094,2.332031,0.125,-0.148437,-0.175781,0.786438,0.582581,-0.101685,-0.178223,up
176266,-0.050781,9.289063,2.367188,0.125,-0.148437,-0.175781,0.786255,0.582764,-0.101624,-0.17865,up
176271,-0.050781,9.289063,2.40625,0.056641,-0.070312,-0.193359,0.786255,0.582764,-0.101624,-0.17865,up
176277,-0.011719,9.289063,2.445313,0.058594,-0.046875,-0.195312,0.786255,0.582764,-0.101624,-0.17865,up
176283,-0.050781,9.25,2.484375,0.058594,-0.046875,-0.195312,0.785645,0.583252,-0.101013,-0.179932,up
176288,-0.089844,9.144531,2.484375,0.027344,0.011719,-0.207031,0.785645,0.583252,-0.101013,-0.179932,up
176293,-0.089844,9.144531,2.484375,-0.013672,0.048828,-0.220703,0.785645,0.583252,-0.101013,-0.179932,up
176298,-0.128906,9.101563,2.523438,-0.013672,0.048828,-0.220703,0.785645,0.583252,-0.101013,-0.179932,up
176304,-0.203125,9.105469,2.523438,-0.013672,0.048828,-0.220703,0.785278,0.583618,-0.099121,-0.181396,up
176309,-0.242187,9.140625,2.523438,-0.013672,0.048828,-0.220703,0.785278,0.583618,-0.098511,-0.181702,up
176314,-0.28125,9.066406,2.523438,-0.023437,0.152344,-0.255859,0.785278,0.583618,-0.098511,-0.181702,up
176319,-0.320313,9.101563,2.523438,-0.023437,0.152344,-0.255859,0.785156,0.583862,-0.097107,-0.182251,up
176325,-0.359375,9.140625,2.523438,0.029297,0.177734,-0.277344,0.785156,0.583862,-0.097107,-0.182251,up
176331,-0.433594,9.210938,2.558594,0.029297,0.177734,-0.277344,0.78479,0.584473,-0.094666,-0.183044,up
176336,-0.550781,9.289063,2.558594,0.029297,0.177734,-0.277344,0.784607,0.584778,-0.093933,-0.183289,up
176341,-0.550781,9.289063,2.558594,0.117188,0.205078,-0.302734,0.784363,0.585205,-0.093018,-0.183533,up
176348,-0.550781,9.367188,2.558594,0.117188,0.205078,-0.302734,0.784363,0.585205,-0.093018,-0.183533,up
176354,-0.472656,9.289063,2.597656,0.117188,0.205078,-0.302734,0.784363,0.585205,-0.093018,-0.183533,up
176359,-0.433594,9.332031,2.597656,0.113281,0.199219,-0.302734,0.784363,0.585205,-0.093018,-0.183533,up
176364,-0.472656,9.328125,2.597656,0.097656,0.25,-0.304688,0.784363,0.585205,-0.093018,-0.183533,up
176369,-0.511719,9.332031,2.558594,0.097656,0.25,-0.304688,0.78302,0.587219,-0.088867,-0.184753,up
176374,-0.550781,9.371094,2.636719,0.097656,0.25,-0.304688,0.782776,0.587646,-0.087891,-0.184875,up
176379,-0.585937,9.371094,2.636719,0.060547,0.3125,-0.283203,0.782776,0.587646,-0.087891,-0.184875,up
176384,-0.625,9.410156,2.636719,0.060547,0.3125,-0.283203,0.78241,0.588379,-0.085815,-0.18512,up
176390,-0.664062,9.488281,2.714844,0.060547,0.3125,-0.283203,0.782166,0.588989,-0.083618,-0.18512,up
176396,-0.664062,9.527344,2.714844,0.015625,0.376953,-0.230469,0.782104,0.589294,-0.08252,-0.184998,up
176401,-0.664062,9.558594,2.789063,0.015625,0.376953,-0.230469,0.782043,0.589539,-0.081482,-0.184875,up
176407,-0.664062,9.558594,2.789063,0.015625,0.376953,-0.230469,0.782043,0.589783,-0.080322,-0.184631,up
176412,-0.664062,9.523438,2.828125,-0.013672,0.474609,-0.189453,0.782043,0.589783,-0.080322,-0.184631,up
176418,-0.625,9.523438,2.828125,-0.011719,0.501953,-0.179687,0.782043,0.589783,-0.080322,-0.184631,up
176424,-0.550781,9.449219,2.90625,-0.025391,0.533203,-0.169922,0.782043,0.589783,-0.080322,-0.184631,up
176429,-0.550781,9.367188,2.867188,-0.060547,0.566406,-0.164062,0.782043,0.589783,-0.080322,-0.184631,up
176435,-0.625,9.367188,2.828125,-0.152344,0.664062,-0.146484,0.782043,0.589783,-0.080322,-0.184631,up
176440,-0.933594,9.40625,2.828125,-0.152344,0.664062,-0.146484,0.782898,0.591064,-0.070312,-0.18103,up
176445,-1.007813,9.332031,2.753906,-0.152344,0.664062,-0.146484,0.783264,0.591064,-0.068604,-0.180176,up
176450,-1.160156,9.292969,2.753906,-0.152344,0.664062,-0.146484,0.783264,0.591064,-0.068604,-0.180176,up
176455,-1.238281,9.25,2.675781,-0.25,0.699219,-0.068359,0.783264,0.591064,-0.068604,-0.180176,up
176460,-1.277344,9.253906,2.714844,-0.25,0.699219,-0.068359,0.784546,0.590698,-0.063599,-0.17749,up
176465,-1.316406,9.332031,2.789063,-0.25,0.699219,-0.068359,0.784973,0.590576,-0.062134,-0.176697,up
176470,-1.199219,9.328125,2.945313,-0.25,0.699219,-0.068359,0.784973,0.590576,-0.062134,-0.176697,up
176475,-1.160156,9.332031,3.097656,-0.224609,0.570312,-0.019531,0.784973,0.590576,-0.062134,-0.176697,up
176480,-1.125,9.328125,3.058594,-0.224609,0.570312,-0.019531,0.786072,0.590149,-0.058289,-0.174316,up
176485,-1.125,9.332031,2.980469,-0.097656,0.546875,-0.035156,0.786072,0.590149,-0.058289,-0.174316,up
176490,-1.046875,9.253906,3.019531,-0.097656,0.546875,-0.035156,0.786499,0.590271,-0.055786,-0.172791,up
176495,-0.933594,9.253906,2.980469,-0.097656,0.546875,-0.035156,0.786682,0.590393,-0.054687,-0.172119,up
176500,-0.855469,9.25,2.980469,-0.107422,0.558594,-0.052734,0.786682,0.590393,-0.054687,-0.172119,up
176505,-0.777344,9.292969,2.945313,-0.107422,0.558594,-0.052734,0.786865,0.590454,-0.053345,-0.171326,up
176510,-0.703125,9.253906,2.945313,-0.136719,0.59375,-0.058594,0.786865,0.590454,-0.053345,-0.171326,up
176515,-0.703125,9.253906,2.945313,-0.136719,0.59375,-0.058594,0.787659,0.590393,-0.049255,-0.169006,up
176520,-0.703125,9.175781,3.019531,-0.136719,0.59375,-0.058594,0.787659,0.590393,-0.049255,-0.169006,up
176525,-0.777344,9.214844,2.980469,-0.242187,0.765625,-0.072266,0.788452,0.59021,-0.045715,-0.166992,up
176530,-1.085938,9.214844,2.945313,-0.285156,0.886719,-0.074219,0.788452,0.59021,-0.045715,-0.166992,up
176535,-1.160156,9.210938,2.90625,-0.285156,0.886719,-0.074219,0.78894,0.590027,-0.043701,-0.165833,up
176540,-1.238281,9.140625,2.867188,-0.285156,0.886719,-0.074219,0.78949,0.589844,-0.041443,-0.164551,up
176545,-1.351563,9.140625,2.867188,-0.302734,0.919922,-0.083984,0.78949,0.589844,-0.041443,-0.164551,up
176550,-1.351563,9.140625,2.867188,-0.302734,0.919922,-0.083984,0.790894,0.589294,-0.035583,-0.161255,up
176555,-1.390625,9.171875,2.90625,-0.269531,0.800781,-0.080078,0.790894,0.589294,-0.035583,-0.161255,up
176560,-1.429688,9.171875,2.867188,-0.269531,0.800781,-0.080078,0.791382,0.58905,-0.033508,-0.160095,up
176565,-1.46875,9.140625,2.867188,-0.240234,0.757812,-0.082031,0.791382,0.58905,-0.033508,-0.160095,up
176570,-1.46875,9.140625,2.867188,-0.240234,0.757812,-0.082031,0.792297,0.588806,-0.028564,-0.157349,up
176575,-1.351563,9.210938,3.019531,-0.240234,0.757812,-0.082031,0.792297,0.588806,-0.028564,-0.157349,up
176580,-1.277344,9.289063,3.058594,-0.101563,0.630859,-0.076172,0.792297,0.588806,-0.028564,-0.157349,up
176585,-1.125,9.253906,3.097656,-0.087891,0.613281,-0.074219,0.792297,0.588806,-0.028564,-0.157349,up
176590,-1.046875,9.292969,3.019531,-0.107422,0.650391,-0.066406,0.792786,0.588989,-0.024231,-0.154968,up
176595,-1.007813,9.328125,3.058594,-0.107422,0.650391,-0.066406,0.792908,0.589111,-0.022644,-0.154053,up
176600,-1.007813,9.328125,3.019531,-0.107422,0.650391,-0.066406,0.793091,0.589111,-0.021118,-0.153198,up
176605,-0.96875,9.328125,3.019531,-0.189453,0.755859,-0.052734,0.793091,0.589111,-0.021118,-0.153198,up
176610,-0.894531,9.410156,2.980469,-0.189453,0.755859,-0.052734,0.793579,0.58905,-0.018127,-0.151367,up
176615,-0.933594,9.410156,2.980469,-0.248047,0.890625,-0.027344,0.793945,0.588989,-0.016235,-0.150208,up
176620,-0.933594,9.449219,2.90625,-0.248047,0.890625,-0.027344,0.79425,0.588867,-0.014343,-0.148926,up
176625,-0.96875,9.40625,2.867188,-0.248047,0.890625,-0.027344,0.795105,0.58844,-0.010498,-0.146301,up
176630,-1.046875,9.410156,2.867188,-0.248047,0.890625,-0.027344,0.795105,0.58844,-0.010498,-0.146301,up
176635,-1.160156,9.449219,2.828125,-0.351563,1.066406,0.068359,0.795105,0.58844,-0.010498,-0.146301,up
176640,-1.238281,9.484375,2.789063,-0.351563,1.066406,0.068359,0.796692,0.587646,-0.004028,-0.141296,up
176645,-1.46875,9.59375,2.789063,-0.351563,1.066406,0.068359,0.796692,0.587646,-0.004028,-0.141296,up
176650,-1.582031,9.632813,2.90625,-0.355469,0.943359,0.158203,0.797302,0.58728,-0.001709,-0.139282,up
176655,-1.851563,9.867188,3.363281,-0.355469,0.943359,0.158203,0.797852,0.586914,0.000122,-0.137573,up
176660,-1.964844,9.9375,3.632813,-0.431641,0.691406,0.150391,0.798462,0.586548,0.001831,-0.135925,up
176665,-2.121094,9.980469,3.824219,-0.431641,0.691406,0.150391,0.799072,0.585999,0.003357,-0.13446,up
176670,-2.121094,9.980469,3.824219,-0.511719,0.582031,0.119141,0.799744,0.585388,0.004517,-0.133301,up
176675,-2.273438,10.054688,3.976563,-0.611328,0.443359,0.080078,0.799744,0.585388,0.004517,-0.133301,up
176680,-2.347656,10.214844,3.941406,-0.611328,0.443359,0.080078,0.799744,0.585388,0.004517,-0.133301,up
176685,-2.347656,10.214844,3.941406,-0.814453,0.150391,0.011719,0.802673,0.581726,0.007141,-0.131226,up
176690,-2.195313,9.976563,4.207031,-0.814453,0.150391,0.011719,0.805237,0.578186,0.007874,-0.131104,up
176695,-1.890625,9.675781,4.324219,-0.814453,0.150391,0.011719,0.805237,0.578186,0.007874,-0.131104,up
176700,-1.699219,9.597656,4.285156,-0.814453,0.150391,0.011719,0.806824,0.575928,0.007996,-0.131226,up
176705,-1.621094,9.59375,4.207031,-1.134766,-0.175781,0.105469,0.808167,0.574097,0.007996,-0.131348,up
176710,-1.390625,9.410156,4.285156,-1.134766,-0.175781,0.105469,0.809875,0.571655,0.007935,-0.131348,up
176715,-1.238281,9.367188,4.246094,-1.134766,-0.175781,0.105469,0.811584,0.569214,0.007813,-0.131287,up
176720,-1.160156,9.289063,4.246094,-1.134766,-0.175781,0.105469,0.813477,0.566589,0.007629,-0.130981,up
176726,-1.160156,9.175781,4.207031,-1.333984,-0.080078,0.359375,0.813477,0.566589,0.007629,-0.130981,up
176731,-1.160156,9.175781,4.207031,-1.271484,-0.029297,0.388672,0.819153,0.558777,0.007019,-0.129272,up
176736,-1.046875,8.792969,4.167969,-1.15625,0.023437,0.396484,0.819153,0.558777,0.007019,-0.129272,up
176741,-0.96875,8.679688,4.09375,-1.15625,0.023437,0.396484,0.822632,0.554077,0.006836,-0.127502,up
176746,-1.007813,8.683594,4.054687,-1.15625,0.023437,0.396484,0.824097,0.552124,0.006836,-0.126465,up
176751,-1.007813,8.722656,4.132812,-1.15625,0.023437,0.396484,0.825134,0.550781,0.006897,-0.12561,up
176756,-1.046875,8.71875,4.167969,-0.46875,0.185547,0.277344,0.825134,0.550781,0.006897,-0.12561,up
176761,-1.125,8.679688,4.132812,-0.46875,0.185547,0.277344,0.82605,0.549622,0.00708,-0.124634,up
176766,-1.199219,8.722656,4.054687,-0.279297,0.21875,0.214844,0.82605,0.549622,0.00708,-0.124634,up
176771,-1.238281,8.71875,4.054687,0.019531,0.224609,0.109375,0.826904,0.548645,0.007629,-0.123108,up
176777,-1.199219,8.945313,4.285156,0.019531,0.224609,0.109375,0.826965,0.548828,0.00824,-0.121948,up
176782,-1.199219,8.945313,4.285156,0.144531,0.166016,0.058594,0.826782,0.549133,0.008484,-0.121582,up
176788,-1.316406,9.25,4.324219,0.144531,0.166016,0.058594,0.826599,0.549561,0.008789,-0.121155,up
176794,-1.351563,9.25,4.285156,0.123047,0.212891,0.052734,0.826599,0.549561,0.008789,-0.121155,up
176799,-1.390625,9.253906,4.207031,0.087891,0.228516,0.054687,0.826599,0.549561,0.008789,-0.121155,up
176804,-1.46875,9.367188,4.09375,0.064453,0.234375,0.066406,0.826599,0.549561,0.008789,-0.121155,up
176809,-1.507813,9.410156,4.054687,0.064453,0.234375,0.066406,0.82605,0.550659,0.010315,-0.119324,up
176814,-1.507813,9.445313,4.054687,0.03125,0.210937,0.095703,0.82605,0.550659,0.010315,-0.119324,up
176819,-1.582031,9.449219,3.976563,0.050781,0.197266,0.109375,0.82605,0.550659,0.010315,-0.119324,up
176826,-1.507813,9.484375,3.976563,0.050781,0.197266,0.109375,0.825806,0.551514,0.011414,-0.117249,up
176831,-1.546875,9.488281,3.902344,0.173828,0.173828,0.119141,0.825806,0.551514,0.011414,-0.117249,up
176836,-1.546875,9.523438,3.824219,0.173828,0.173828,0.119141,0.825562,0.551941,0.011597,-0.116699,up
176841,-1.507813,9.523438,3.863281,0.173828,0.173828,0.119141,0.825073,0.552979,0.011841,-0.115723,up
176846,-1.507813,9.527344,3.824219,0.173828,0.173828,0.119141,0.824707,0.553589,0.011963,-0.115173,up
176851,-1.507813,9.527344,3.824219,0.259766,0.193359,0.154297,0.824707,0.553589,0.011963,-0.115173,up
176856,-1.582031,9.523438,3.746094,0.259766,0.193359,0.154297,0.824036,0.55481,0.012207,-0.113953,up
176861,-1.582031,9.523438,3.746094,0.259766,0.193359,0.154297,0.823792,0.555359,0.012329,-0.113281,up
176866,-1.582031,9.449219,3.785156,0.179687,0.226562,0.197266,0.823792,0.555359,0.012329,-0.113281,up
176871,-1.621094,9.484375,3.710938,0.179687,0.226562,0.197266,0.823364,0.556274,0.012695,-0.111755,up
176876,-1.621094,9.445313,3.671875,0.179687,0.226562,0.197266,0.823242,0.55658,0.012878,-0.111023,up
176881,-1.621094,9.328125,3.632813,0.027344,0.253906,0.222656,0.823181,0.556824,0.013123,-0.110168,up
176886,-1.660156,9.289063,3.59375,0.027344,0.253906,0.222656,0.823242,0.556946,0.013367,-0.109314,up
176891,-1.699219,9.175781,3.554688,-0.007813,0.240234,0.222656,0.823242,0.556946,0.013367,-0.109314,up
176897,-1.660156,9.027344,3.554688,-0.007813,0.240234,0.222656,0.823364,0.557068,0.013794,-0.107666,up
176902,-1.660156,9.027344,3.554688,-0.017578,0.210937,0.210937,0.823425,0.557129,0.013977,-0.106934,up
176907,-1.660156,8.949219,3.59375,-0.017578,0.210937,0.210937,0.823486,0.55719,0.014099,-0.10614,up
176912,-1.738281,8.871094,3.554688,-0.017578,0.210937,0.210937,0.823547,0.55719,0.014282,-0.105347,up
176917,-1.660156,8.75,3.59375,-0.017578,0.210937,0.210937,0.823547,0.55719,0.014282,-0.105347,up
176922,-1.660156,8.75,3.59375,-0.007813,0.167969,0.171875,0.823608,0.557312,0.014526,-0.104065,up
176927,-1.621094,8.71875,3.554688,-0.007813,0.167969,0.171875,0.823669,0.557373,0.014709,-0.103455,up
176933,-1.621094,8.679688,3.632813,-0.007813,0.167969,0.171875,0.823669,0.557434,0.014832,-0.102905,up
176939,-1.660156,8.640625,3.59375,-0.025391,0.171875,0.140625,0.823669,0.557434,0.014832,-0.102905,up
176944,-1.699219,8.640625,3.480469,-0.025391,0.177734,0.136719,0.823669,0.557434,0.014832,-0.102905,up
176949,-1.8125,8.527344,3.441406,-0.025391,0.177734,0.136719,0.823853,0.557434,0.015381,-0.101257,up
176954,-1.8125,8.527344,3.480469,-0.029297,0.146484,0.121094,0.823853,0.557434,0.015381,-0.101257,up
176959,-1.8125,8.5625,3.480469,-0.027344,0.125,0.111328,0.823853,0.557434,0.015381,-0.101257,up
176964,-1.773438,8.523438,3.441406,-0.007813,0.09375,0.111328,0.823853,0.557434,0.015381,-0.101257,up
176969,-1.738281,8.566406,3.519531,-0.007813,0.09375,0.111328,0.823853,0.557434,0.015381,-0.101257,up
176975,-1.738281,8.601563,3.554688,-0.007813,0.09375,0.111328,0.824036,0.557556,0.015869,-0.099121,up
176981,-1.738281,8.601563,3.554688,0.001953,0.019531,0.085937,0.824036,0.557556,0.015869,-0.099121,up
176986,-1.621094,8.640625,3.402344,0.001953,0.019531,0.085937,0.824097,0.557617,0.015686,-0.098389,up
176991,-1.660156,8.601563,3.480469,0.001953,0.019531,0.085937,0.824097,0.557617,0.015686,-0.098389,up
176996,-1.621094,8.640625,3.519531,-0.041016,0.007813,0.068359,0.824097,0.557617,0.015686,-0.098389,up
177001,-1.582031,8.601563,3.480469,-0.041016,0.007813,0.068359,0.82428,0.557495,0.015503,-0.097778,up
177006,-1.546875,8.640625,3.441406,-0.041016,0.007813,0.068359,0.824402,0.557312,0.015564,-0.097595,up
177011,-1.546875,8.644531,3.519531,-0.041016,0.007813,0.068359,0.824402,0.557312,0.015564,-0.097595,up
177016,-1.582031,8.644531,3.480469,-0.140625,0.042969,0.048828,0.824768,0.556824,0.015686,-0.097168,up
177021,-1.621094,8.601563,3.441406,-0.140625,0.042969,0.048828,0.825073,0.556458,0.015808,-0.096985,up
177026,-1.621094,8.601563,3.554688,-0.140625,0.042969,0.048828,0.825073,0.556458,0.015808,-0.096985,up
177031,-1.582031,8.601563,3.554688,-0.255859,0.042969,0.037109,0.825073,0.556458,0.015808,-0.096985,up
177037,-1.582031,8.527344,3.480469,-0.283203,0.046875,0.029297,0.825684,0.555542,0.015991,-0.096619,up
177042,-1.546875,8.523438,3.441406,-0.283203,0.046875,0.029297,0.826477,0.554443,0.016235,-0.096313,up
177048,-1.46875,8.410156,3.554688,-0.283203,0.046875,0.029297,0.826904,0.553833,0.016357,-0.096191,up
177053,-1.429688,8.449219,3.480469,-0.318359,0.021484,-0.001953,0.827332,0.553223,0.016541,-0.09613,up
177058,-1.429688,8.339844,3.441406,-0.318359,0.021484,-0.001953,0.827759,0.552551,0.016663,-0.096069,up
177063,-1.429688,8.261719,3.441406,-0.337891,0.025391,-0.017578,0.828186,0.55188,0.016846,-0.096008,up
177069,-1.390625,8.257813,3.402344,-0.330078,0.011719,-0.021484,0.828186,0.55188,0.016846,-0.096008,up
177074,-1.316406,8.222656,3.441406,-0.310547,0.0,-0.033203,0.828186,0.55188,0.016846,-0.096008,up
177079,-1.238281,8.222656,3.402344,-0.291016,-0.005859,-0.044922,0.828186,0.55188,0.016846,-0.096008,up
177085,-1.238281,8.261719,3.402344,-0.251953,-0.007813,-0.0625,0.828186,0.55188,0.016846,-0.096008,up
177090,-1.238281,8.335938,3.441406,-0.207031,-0.003906,-0.085937,0.828186,0.55188,0.016846,-0.096008,up
177095,-1.199219,8.449219,3.480469,-0.207031,-0.003906,-0.085937,0.828186,0.55188,0.016846,-0.096008,up
177100,-1.238281,8.527344,3.480469,-0.207031,-0.003906,-0.085937,0.830566,0.548218,0.018066,-0.096558,up
177106,-1.277344,8.601563,3.441406,-0.091797,0.056641,-0.148437,0.830566,0.548218,0.018066,-0.096558,up
177112,-1.316406,8.722656,3.554688,-0.091797,0.056641,-0.148437,0.830811,0.547668,0.019043,-0.097168,up
177117,-1.316406,8.792969,3.59375,-0.033203,0.066406,-0.167969,0.830872,0.547546,0.01947,-0.097412,up
177123,-1.351563,8.910156,3.554688,-0.033203,0.066406,-0.167969,0.830811,0.547546,0.019836,-0.097595,up
177128,-1.351563,9.027344,3.554688,-0.007813,0.105469,-0.150391,0.830811,0.547546,0.020264,-0.097778,up
177133,-1.351563,9.140625,3.519531,-0.007813,0.105469,-0.150391,0.83075,0.547546,0.020691,-0.097839,up
177138,-1.316406,9.210938,3.554688,-0.015625,0.125,-0.132812,0.83075,0.547546,0.020691,-0.097839,up
177144,-1.316406,9.253906,3.59375,-0.029297,0.150391,-0.136719,0.83075,0.547546,0.020691,-0.097839,up
177150,-1.316406,9.292969,3.519531,-0.029297,0.150391,-0.136719,0.83075,0.547546,0.020691,-0.097839,up
177155,-1.316406,9.371094,3.519531,-0.037109,0.162109,-0.126953,0.83075,0.547546,0.020691,-0.097839,up
177160,-1.277344,9.367188,3.519531,-0.041016,0.166016,-0.128906,0.83075,0.547546,0.020691,-0.097839,up
177166,-1.316406,9.367188,3.554688,-0.041016,0.175781,-0.134766,0.83075,0.547424,0.024414,-0.098083,up
177171,-1.277344,9.40625,3.59375,-0.041016,0.175781,-0.134766,0.83075,0.547424,0.024414,-0.098083,up
177176,-1.316406,9.445313,3.59375,-0.042969,0.212891,-0.142578,0.83075,0.547424,0.024414,-0.098083,up
177181,-1.316406,9.445313,3.59375,-0.042969,0.212891,-0.142578,0.83075,0.547363,0.025696,-0.098022,up
177186,-1.316406,9.484375,3.554688,-0.054687,0.224609,-0.142578,0.83075,0.547302,0.0271,-0.097961,up
177191,-1.277344,9.484375,3.59375,-0.054687,0.224609,-0.142578,0.83075,0.547302,0.0271,-0.097961,up
177196,-1.277344,9.488281,3.671875,-0.068359,0.224609,-0.126953,0.83075,0.547302,0.0271,-0.097961,up
177201,-1.238281,9.449219,3.632813,-0.068359,0.224609,-0.126953,0.830811,0.547119,0.028442,-0.097839,up
177207,-1.238281,9.449219,3.59375,-0.064453,0.222656,-0.111328,0.830933,0.546997,0.029724,-0.097595,up
177212,-1.199219,9.410156,3.59375,-0.064453,0.214844,-0.085937,0.830933,0.546875,0.030457,-0.097473,up
177217,-1.125,9.484375,3.59375,-0.064453,0.214844,-0.085937,0.830933,0.546875,0.030457,-0.097473,up
177222,-1.007813,9.523438,3.59375,-0.064453,0.214844,-0.085937,0.830994,0.546814,0.031555,-0.097168,up
177228,-1.007813,9.523438,3.59375,-0.064453,0.214844,-0.085937,0.831055,0.546753,0.032166,-0.096985,up
177233,-0.96875,9.488281,3.554688,-0.035156,0.244141,-0.076172,0.831055,0.546753,0.032166,-0.096985,up
177239,-0.933594,9.558594,3.519531,-0.035156,0.244141,-0.076172,0.831055,0.546692,0.033447,-0.096619,up
177245,-0.933594,9.554688,3.554688,-0.041016,0.279297,-0.076172,0.831055,0.546692,0.033447,-0.096619,up
177250,-0.96875,9.59375,3.519531,-0.042969,0.304688,-0.064453,0.831055,0.546692,0.033447,-0.096619,up
177255,-0.933594,9.59375,3.59375,-0.052734,0.328125,-0.050781,0.831055,0.546692,0.033447,-0.096619,up
177260,-0.933594,9.636719,3.554688,-0.058594,0.357422,-0.039063,0.831055,0.546692,0.033447,-0.096619,up
177265,-0.933594,9.636719,3.554688,-0.056641,0.375,-0.035156,0.831055,0.546692,0.033447,-0.096619,up
177270,-0.96875,9.671875,3.554688,-0.056641,0.402344,-0.015625,0.831055,0.546692,0.033447,-0.096619,up
177276,-0.96875,9.710938,3.519531,-0.056641,0.402344,-0.015625,0.831055,0.546692,0.033447,-0.096619,up
177281,-0.933594,9.714844,3.441406,-0.052734,0.433594,-0.001953,0.831055,0.546692,0.033447,-0.096619,up
177286,-0.96875,9.753906,3.441406,-0.052734,0.455078,0.005859,0.831055,0.546692,0.033447,-0.096619,up
177291,-1.007813,9.871094,3.441406,-0.052734,0.455078,0.005859,0.831299,0.546631,0.04187,-0.091858,up
177296,-0.96875,9.828125,3.519531,-0.052734,0.455078,0.005859,0.831299,0.546631,0.042847,-0.091187,up
177301,-1.007813,9.871094,3.480469,-0.039063,0.476562,0.029297,0.831299,0.546631,0.042847,-0.091187,up
177306,-1.007813,9.871094,3.480469,-0.042969,0.490234,0.03125,0.831299,0.546692,0.0448,-0.089722,up
177311,-1.046875,9.90625,3.480469,-0.054687,0.5,0.058594,0.831299,0.546692,0.0448,-0.089722,up
177316,-1.046875,9.90625,3.480469,-0.080078,0.509766,0.070312,0.83136,0.546753,0.046814,-0.088013,up
177321,-1.085938,9.980469,3.554688,-0.080078,0.509766,0.070312,0.831421,0.546692,0.047791,-0.087097,up
177326,-1.085938,9.980469,3.554688,-0.134766,0.541016,0.103516,0.831543,0.54657,0.048828,-0.086121,up
177331,-1.125,9.941406,3.480469,-0.193359,0.546875,0.150391,0.831726,0.546387,0.049805,-0.085144,up
177336,-1.046875,9.9375,3.554688,-0.193359,0.546875,0.150391,0.831909,0.546143,0.050842,-0.084045,up
177342,-1.007813,9.9375,3.59375,-0.220703,0.5625,0.173828,0.831909,0.546143,0.050842,-0.084045,up
177347,-0.96875,9.832031,3.554688,-0.248047,0.576172,0.197266,0.832703,0.545166,0.053894,-0.080322,up
177352,-0.96875,9.871094,3.554688,-0.25,0.634766,0.226562,0.832703,0.545166,0.053894,-0.080322,up
177357,-0.933594,9.90625,3.519531,-0.25,0.634766,0.226562,0.833374,0.544434,0.056091,-0.077454,up
177362,-0.894531,9.90625,3.59375,-0.25,0.634766,0.226562,0.833374,0.544434,0.056091,-0.077454,up
177367,-0.855469,9.871094,3.59375,-0.25,0.757812,0.248047,0.833618,0.544067,0.05719,-0.07605,up
177372,-0.855469,9.910156,3.519531,-0.25,0.757812,0.248047,0.834167,0.543396,0.059937,-0.072632,up
177377,-0.855469,9.980469,3.519531,-0.232422,0.861328,0.246094,0.834167,0.543396,0.059937,-0.072632,up
177382,-0.816406,9.980469,3.59375,-0.232422,0.861328,0.246094,0.834595,0.542847,0.062927,-0.069275,up
177387,-0.855469,10.058594,3.671875,-0.232422,0.861328,0.246094,0.834778,0.542603,0.064514,-0.067444,up
177392,-0.933594,10.09375,3.863281,-0.232422,0.861328,0.246094,0.834778,0.542603,0.064514,-0.067444,up
177397,-1.125,10.136719,3.824219,-0.246094,1.080078,0.246094,0.834778,0.542603,0.064514,-0.067444,up
177402,-1.199219,10.175781,3.824219,-0.246094,1.080078,0.246094,0.835388,0.541626,0.070618,-0.061157,up
177407,-1.238281,10.171875,3.824219,-0.246094,1.080078,0.246094,0.835388,0.541626,0.070618,-0.061157,up
177412,-1.316406,10.25,4.015625,-0.318359,1.222656,0.263672,0.835876,0.540771,0.075317,-0.056396,up
177418,-1.238281,10.09375,4.132812,-0.318359,1.222656,0.263672,0.836243,0.540161,0.077637,-0.054077,up
177423,-1.316406,10.015625,4.207031,-0.318359,1.222656,0.263672,0.836609,0.53949,0.079834,-0.051819,up
177428,-1.429688,9.910156,4.132812,-0.318359,1.222656,0.263672,0.837097,0.538574,0.082397,-0.049194,up
177433,-1.46875,9.90625,4.132812,-0.626953,1.375,0.300781,0.837097,0.538574,0.082397,-0.049194,up
177439,-1.507813,9.867188,4.207031,-0.626953,1.375,0.300781,0.838257,0.536438,0.087524,-0.043884,up
177445,-1.429688,9.9375,4.324219,-0.626953,1.375,0.300781,0.838867,0.535278,0.090027,-0.04126,up
177450,-1.429688,9.941406,4.476562,-0.693359,1.349609,0.351563,0.838867,0.535278,0.090027,-0.04126,up
177455,-1.351563,9.9375,4.707031,-0.697266,1.382813,0.353516,0.838867,0.535278,0.090027,-0.04126,up
177460,-1.390625,9.941406,4.820312,-0.697266,1.382813,0.353516,0.840759,0.531555,0.097473,-0.032959,up
177466,-1.351563,9.941406,4.78125,-0.685547,1.507813,0.369141,0.840759,0.531555,0.097473,-0.032959,up
177472,-1.429688,9.871094,4.820312,-0.675781,1.585938,0.376953,0.840759,0.531555,0.097473,-0.032959,up
177477,-1.46875,9.832031,4.898437,-0.675781,1.585938,0.376953,0.842346,0.527832,0.10614,-0.023682,up
177482,-1.546875,9.792969,4.972656,-0.662109,1.714844,0.380859,0.842346,0.527832,0.10614,-0.023682,up
177487,-1.546875,9.792969,4.972656,-0.664062,1.789063,0.384766,0.843201,0.525452,0.112488,-0.01709,up
177492,-1.851563,9.632813,5.089844,-0.699219,1.919922,0.363281,0.843567,0.524231,0.115784,-0.013794,up
177497,-1.851563,9.632813,5.089844,-0.728516,2.023438,0.367188,0.843872,0.522949,0.119446,-0.010254,up
177502,-2.082031,9.636719,5.050781,-0.728516,2.023438,0.367188,0.844238,0.521545,0.123291,-0.006592,up
177507,-2.082031,9.636719,5.050781,-0.783203,2.115234,0.347656,0.844604,0.52002,0.127441,-0.002747,up
177512,-2.3125,9.832031,5.433594,-0.783203,2.115234,0.347656,0.84491,0.518494,0.131409,0.000977,up
177518,-2.347656,9.941406,5.625,-0.775391,2.097656,0.361328,0.845459,0.515442,0.139404,0.008606,up
177524,-2.425781,10.054688,6.046875,-0.775391,2.097656,0.361328,0.845642,0.513977,0.143311,0.012329,up
177529,-2.425781,10.09375,6.160156,-0.775391,2.097656,0.361328,0.845642,0.513977,0.143311,0.012329,up
177535,-2.503906,10.09375,6.199219,-0.681641,2.212891,0.349609,0.845642,0.513977,0.143311,0.012329,up
177541,-2.578125,10.132813,6.160156,-0.697266,2.257813,0.34375,0.845642,0.513977,0.143311,0.012329,up
177546,-2.65625,9.9375,5.96875,-0.679687,2.271484,0.333984,0.845703,0.50824,0.160217,0.027893,up
177551,-2.65625,9.789063,5.96875,-0.734375,2.255859,0.328125,0.845703,0.50824,0.160217,0.027893,up
177556,-2.617188,9.675781,5.894531,-0.820312,2.240234,0.314453,0.845703,0.50824,0.160217,0.027893,up
177561,-2.695313,9.484375,5.816406,-0.923828,2.240234,0.306641,0.845703,0.50824,0.160217,0.027893,up
177567,-2.925781,9.292969,5.472656,-1.052734,2.240234,0.28125,0.846313,0.498535,0.181458,0.047241,up
177572,-3.117188,9.171875,5.511719,-1.052734,2.240234,0.28125,0.846313,0.498535,0.181458,0.047241,up
177578,-3.191406,9.101563,5.242187,-1.261719,2.152344,0.197266,0.846313,0.498535,0.181458,0.047241,up
177583,-3.191406,9.101563,5.242187,-1.626953,1.982422,0.152344,0.848267,0.48938,0.193787,0.058411,up
177588,-3.230469,8.753906,5.394531,-1.626953,1.982422,0.152344,0.849243,0.48584,0.197449,0.061829,up
177593,-3.34375,8.949219,5.394531,-1.462891,1.742188,0.097656,0.85022,0.482117,0.201172,0.065308,up
177598,-3.421875,9.554688,6.121094,-1.462891,1.742188,0.097656,0.851013,0.47876,0.20459,0.06842,up
177603,-3.5,9.792969,6.316406,-1.462891,1.742188,0.097656,0.851013,0.47876,0.20459,0.06842,up
177608,-3.5,9.792969,6.316406,-1.087891,1.509766,0.074219,0.85199,0.473999,0.210022,0.073181,up
177613,-3.613281,9.867188,6.507812,-1.087891,1.509766,0.074219,0.85199,0.473999,0.210022,0.073181,up
177618,-3.957031,9.828125,6.46875,-0.763672,1.267578,0.085937,0.852234,0.472046,0.212585,0.075378,up
177623,-3.957031,9.828125,6.46875,-0.654297,1.115234,0.123047,0.852234,0.472046,0.212585,0.075378,up
177628,-3.957031,9.9375,6.238281,-0.654297,1.115234,0.123047,0.852722,0.467651,0.218262,0.081055,up
177633,-3.921875,9.867188,6.316406,-0.654297,1.115234,0.123047,0.852905,0.466431,0.21936,0.082886,up
177638,-3.84375,9.675781,6.277344,-0.654297,1.115234,0.123047,0.85321,0.465088,0.220215,0.0849,up
177643,-3.804688,9.488281,6.085937,-0.710937,0.435547,0.460937,0.853577,0.463989,0.22052,0.086548,up
177648,-3.726563,9.328125,6.007812,-0.822266,0.320313,0.517578,0.854187,0.462463,0.220581,0.088562,up
177653,-3.535156,8.945313,6.046875,-0.822266,0.320313,0.517578,0.854919,0.460815,0.220337,0.090637,up
177658,-3.460938,8.789063,6.085937,-0.822266,0.320313,0.517578,0.855713,0.459229,0.219788,0.092468,up
177663,-3.382813,8.5625,6.046875,-1.041016,0.066406,0.642578,0.85675,0.457275,0.218994,0.094604,up
177668,-3.382813,8.488281,5.929687,-1.041016,0.066406,0.642578,0.857666,0.455505,0.21814,0.096497,up
177674,-3.382813,8.335938,5.816406,-1.041016,0.066406,0.642578,0.858704,0.453613,0.217102,0.098511,up
177679,-3.34375,8.339844,5.664062,-0.990234,-0.039063,0.59375,0.858704,0.453613,0.217102,0.098511,up
177684,-3.34375,8.339844,5.664062,-0.921875,-0.029297,0.533203,0.860657,0.450073,0.215149,0.102051,up
177690,-3.34375,8.445313,5.355469,-0.921875,-0.029297,0.533203,0.861511,0.448425,0.214294,0.103638,up
177696,-3.34375,8.488281,5.355469,-0.787109,0.035156,0.431641,0.861511,0.448425,0.214294,0.103638,up
177701,-3.382813,8.523438,5.28125,-0.757812,0.089844,0.380859,0.861511,0.448425,0.214294,0.103638,up
177706,-3.34375,8.410156,5.320312,-0.775391,0.148437,0.333984,0.861511,0.448425,0.214294,0.103638,up
177711,-3.421875,8.335938,5.394531,-0.841797,0.212891,0.300781,0.861511,0.448425,0.214294,0.103638,up
177716,-3.382813,8.21875,5.320312,-0.841797,0.212891,0.300781,0.865234,0.440491,0.212402,0.110535,up
177722,-3.382813,8.0625,5.355469,-1.351563,0.371094,0.222656,0.865234,0.440491,0.212402,0.110535,up
177727,-3.34375,7.71875,5.28125,-1.351563,0.371094,0.222656,0.86731,0.435486,0.212646,0.113647,up
177732,-3.308594,7.535156,5.355469,-1.351563,0.371094,0.222656,0.868591,0.432434,0.21283,0.115295,up
177738,-3.191406,7.417969,5.394531,-1.779297,0.462891,0.150391,0.868591,0.432434,0.21283,0.115295,up
177743,-3.152344,7.183594,5.394531,-1.779297,0.462891,0.150391,0.87323,0.420959,0.213684,0.120605,up
177749,-3.039063,6.6875,5.320312,-1.779297,0.462891,0.150391,0.874878,0.416931,0.21405,0.122253,up
177754,-3.039063,6.492187,5.242187,-1.953125,0.513672,0.003906,0.874878,0.416931,0.21405,0.122253,up
177759,-3.039063,6.304687,5.242187,-1.9375,0.537109,-0.054687,0.874878,0.416931,0.21405,0.122253,up
177765,-2.960938,6.230469,5.203125,-1.9375,0.537109,-0.054687,0.880005,0.403687,0.215698,0.126892,up
177770,-2.960938,6.230469,5.203125,-1.783203,0.625,-0.197266,0.881592,0.399292,0.216614,0.128113,up
177775,-2.925781,6.230469,5.203125,-1.783203,0.625,-0.197266,0.881592,0.399292,0.216614,0.128113,up
177780,-3.078125,6.226562,5.128906,-1.6875,0.679687,-0.267578,0.884338,0.391174,0.219055,0.130127,up
177785,-3.078125,6.226562,5.128906,-1.525391,0.828125,-0.412109,0.884338,0.391174,0.219055,0.130127,up
177791,-3.613281,6.953125,5.050781,-1.525391,0.828125,-0.412109,0.886658,0.383362,0.222473,0.131653,up
177796,-3.765625,7.074219,5.011719,-1.527344,0.914062,-0.476562,0.886658,0.383362,0.222473,0.131653,up
177801,-3.996094,7.074219,5.050781,-1.527344,0.914062,-0.476562,0.886658,0.383362,0.222473,0.131653,up
177806,-4.113281,6.996094,5.011719,-1.667969,0.919922,-0.488281,0.886658,0.383362,0.222473,0.131653,up
177811,-4.1875,6.878906,4.972656,-1.792969,0.912109,-0.46875,0.886658,0.383362,0.222473,0.131653,up
177817,-4.1875,6.691406,5.242187,-1.792969,0.912109,-0.46875,0.886658,0.383362,0.222473,0.131653,up
177822,-4.226562,6.574219,5.164062,-1.792969,0.912109,-0.46875,0.894165,0.356628,0.233704,0.136414,up
177827,-4.226562,6.574219,5.164062,-2.039063,0.707031,-0.419922,0.89563,0.351807,0.235046,0.137268,up
177833,-4.035156,6.152344,5.511719,-2.255859,0.578125,-0.384766,0.89563,0.351807,0.235046,0.137268,up
177838,-3.957031,5.804687,5.625,-2.255859,0.578125,-0.384766,0.900757,0.335388,0.237671,0.140198,up
177843,-3.804688,5.769531,5.738281,-2.255859,0.578125,-0.384766,0.902344,0.330444,0.23822,0.14093,up
177848,-3.726563,5.613281,5.707031,-2.255859,0.578125,-0.384766,0.902344,0.330444,0.23822,0.14093,up
177853,-3.652344,5.5,5.628906,-2.201172,0.369141,-0.417969,0.902344,0.330444,0.23822,0.14093,up
177858,-3.613281,5.460937,5.667969,-2.072266,0.248047,-0.458984,0.905762,0.319824,0.238953,0.142273,up
177863,-3.574219,5.5,5.703125,-2.072266,0.248047,-0.458984,0.908997,0.309753,0.239319,0.143066,up
177868,-3.574219,5.5,5.664062,-2.072266,0.248047,-0.458984,0.908997,0.309753,0.239319,0.143066,up
177873,-3.613281,5.5,5.667969,-2.072266,0.248047,-0.458984,0.912354,0.299683,0.239319,0.143311,up
177878,-3.613281,5.5,5.546875,-2.072266,0.248047,-0.458984,0.912354,0.299683,0.239319,0.143311,up
177883,-3.652344,5.460937,5.628906,-1.886719,0.035156,-0.585937,0.912354,0.299683,0.239319,0.143311,up
177888,-3.726563,5.191406,5.46875,-1.886719,0.035156,-0.585937,0.915344,0.29071,0.239014,0.143127,up
177893,-3.691406,5.039062,5.394531,-1.894531,0.023437,-0.611328,0.916931,0.286072,0.238831,0.142883,up
177898,-3.691406,5.039062,5.394531,-1.894531,0.023437,-0.611328,0.916931,0.286072,0.238831,0.142883,up
177903,-3.613281,5.0,5.390625,-1.962891,0.023437,-0.654297,0.916931,0.286072,0.238831,0.142883,up
177908,-3.613281,5.0,5.390625,-1.992188,0.03125,-0.671875,0.921631,0.271484,0.23822,0.141968,up
177913,-3.574219,4.542969,5.511719,-1.992188,0.03125,-0.671875,0.923157,0.266541,0.238037,0.141602,up
177918,-3.535156,4.390625,5.546875,-2.015625,0.085937,-0.695312,0.924744,0.261292,0.237854,0.141296,up
177924,-3.421875,4.195312,5.628906,-2.015625,0.085937,-0.695312,0.927734,0.251221,0.237671,0.140564,up
177929,-3.460938,4.121094,5.738281,-1.935547,0.097656,-0.677734,0.929321,0.245544,0.23761,0.140137,up
177934,-3.460938,4.003906,5.703125,-1.894531,0.09375,-0.658203,0.930664,0.24054,0.237549,0.139771,up
177939,-3.5,4.003906,5.738281,-1.894531,0.09375,-0.658203,0.931763,0.236572,0.237488,0.139465,up
177944,-3.574219,3.96875,5.855469,-1.894531,0.09375,-0.658203,0.931763,0.236572,0.237488,0.139465,up
177949,-3.574219,3.96875,5.890625,-1.732422,0.074219,-0.628906,0.934204,0.2276,0.237305,0.138611,up
177954,-3.613281,4.042969,5.933594,-1.552734,0.007813,-0.609375,0.935425,0.222961,0.237061,0.138062,up
177960,-3.652344,4.195312,6.050781,-1.552734,0.007813,-0.609375,0.93634,0.219482,0.236877,0.137573,up
177965,-3.726563,4.234375,6.199219,-1.552734,0.007813,-0.609375,0.937378,0.215759,0.236511,0.137024,up
177970,-3.726563,4.160156,6.277344,-1.429688,-0.164062,-0.597656,0.937378,0.215759,0.236511,0.137024,up
177976,-3.613281,4.195312,6.351562,-1.404297,-0.238281,-0.601562,0.937378,0.215759,0.236511,0.137024,up
177981,-3.421875,4.121094,6.117187,-1.404297,-0.238281,-0.601562,0.937378,0.215759,0.236511,0.137024,up
177987,-3.34375,4.003906,6.050781,-1.441406,-0.382813,-0.634766,0.937378,0.215759,0.236511,0.137024,up
177993,-3.269531,3.8125,6.050781,-1.560547,-0.492187,-0.673828,0.937378,0.215759,0.236511,0.137024,up
177998,-3.117188,3.585938,6.050781,-1.595703,-0.537109,-0.693359,0.944214,0.193787,0.23114,0.132263,up
178003,-3.078125,3.46875,6.121094,-1.595703,-0.537109,-0.693359,0.945557,0.189697,0.229675,0.131287,up
178008,-3.078125,3.46875,6.121094,-1.617188,-0.582031,-0.712891,0.94812,0.181763,0.226562,0.129211,up
178013,-3.039063,3.394531,6.121094,-1.617188,-0.582031,-0.712891,0.94812,0.181763,0.226562,0.129211,up
178018,-3.0,3.125,6.238281,-1.617188,-0.582031,-0.712891,0.94812,0.181763,0.226562,0.129211,up
178023,-3.0,3.125,6.238281,-1.576172,-0.662109,-0.744141,0.950745,0.173828,0.223022,0.126831,up
178029,-2.960938,2.816406,6.234375,-1.576172,-0.662109,-0.744141,0.953369,0.166199,0.219238,0.124084,up
178034,-2.847656,2.816406,6.277344,-1.576172,-0.662109,-0.744141,0.954651,0.162659,0.217224,0.122498,up
178040,-2.65625,2.972656,6.234375,-1.576172,-0.662109,-0.744141,0.955811,0.159546,0.215393,0.120911,up
178045,-2.65625,2.972656,6.234375,-1.154297,-0.816406,-0.908203,0.95697,0.156372,0.213379,0.11908,up
178051,-2.347656,3.007813,6.15625,-1.154297,-0.816406,-0.908203,0.95697,0.156372,0.213379,0.11908,up
178057,-2.273438,3.007813,6.121094,-1.085938,-0.837891,-1.013672,0.95697,0.156372,0.213379,0.11908,up
178063,-2.234375,2.933594,6.160156,-1.089844,-0.837891,-1.060547,0.95697,0.156372,0.213379,0.11908,up
178068,-2.195313,2.933594,6.046875,-1.130859,-0.839844,-1.125,0.95697,0.156372,0.213379,0.11908,up
178073,-2.121094,2.933594,6.046875,-1.236328,-0.796875,-1.226563,0.962708,0.141541,0.203674,0.107849,up
178078,-2.082031,2.894531,6.15625,-1.236328,-0.796875,-1.226563,0.963989,0.138,0.20166,0.105103,up
178083,-2.003906,2.894531,6.316406,-1.236328,-0.796875,-1.226563,0.965088,0.134583,0.19989,0.102417,up
178088,-1.964844,2.894531,6.390625,-1.439453,-0.716797,-1.359375,0.965088,0.134583,0.19989,0.102417,up
178093,-1.890625,2.933594,6.8125,-1.439453,-0.716797,-1.359375,0.967346,0.127197,0.196533,0.096985,up
178098,-1.890625,2.855469,6.734375,-1.439453,-0.716797,-1.359375,0.968628,0.122803,0.194763,0.093872,up
178103,-1.890625,2.511719,6.773437,-1.486328,-0.675781,-1.337891,0.968628,0.122803,0.194763,0.093872,up
178108,-1.890625,2.050781,7.160156,-1.486328,-0.675781,-1.337891,0.970703,0.114807,0.191589,0.08844,up
178113,-1.851563,1.707031,7.304687,-1.486328,-0.675781,-1.337891,0.97168,0.111023,0.190063,0.085815,up
178119,-1.890625,1.246094,7.382812,-1.166016,-0.607422,-1.255859,0.97168,0.111023,0.190063,0.085815,up
178124,-1.890625,1.054688,7.464844,-1.166016,-0.607422,-1.255859,0.974365,0.100586,0.185669,0.077637,up
178130,-1.964844,1.363281,7.730469,-1.166016,-0.607422,-1.255859,0.975037,0.098389,0.184448,0.074707,up
178135,-2.082031,1.667969,7.804687,-0.267578,-0.580078,-1.341797,0.975037,0.098389,0.184448,0.074707,up
178141,-2.15625,1.9375,7.84375,-0.003906,-0.607422,-1.386719,0.975037,0.098389,0.184448,0.074707,up
178146,-2.234375,2.207031,8.042969,-0.003906,-0.607422,-1.386719,0.975037,0.098389,0.184448,0.074707,up
178152,-2.234375,2.207031,8.042969,0.208984,-0.644531,-1.429688,0.977173,0.095947,0.179626,0.060608,up
178157,-2.234375,2.207031,8.042969,0.474609,-0.763672,-1.431641,0.9776,0.096436,0.178223,0.056641,up
178162,-2.503906,3.238281,7.882812,0.474609,-0.763672,-1.431641,0.9776,0.096436,0.178223,0.056641,up
178168,-2.65625,3.277344,7.730469,0.490234,-0.8125,-1.384766,0.978455,0.097717,0.175049,0.049072,up
178174,-2.617188,3.125,7.464844,0.091797,-0.861328,-1.212891,0.978455,0.097717,0.175049,0.049072,up
178179,-2.65625,3.585938,7.160156,0.091797,-0.861328,-1.212891,0.979858,0.097778,0.169617,0.038879,up
178185,-2.617188,3.585938,7.621094,0.091797,-0.861328,-1.212891,0.980347,0.09729,0.167786,0.035889,up
178190,-2.734375,3.46875,7.730469,-0.080078,-0.837891,-1.052734,0.980347,0.09729,0.167786,0.035889,up
178195,-2.65625,3.507813,7.730469,-0.109375,-0.863281,-1.001953,0.981262,0.09613,0.164124,0.030273,up
178201,-2.617188,3.46875,8.0,-0.109375,-0.863281,-1.001953,0.98175,0.09552,0.16217,0.02771,up
178206,-2.695313,3.394531,8.042969,-0.162109,-0.958984,-0.945312,0.982178,0.094849,0.160156,0.025208,up
178212,-2.808594,3.277344,8.152344,-0.142578,-1.021484,-0.943359,0.982178,0.094849,0.160156,0.025208,up
178217,-2.808594,2.894531,8.308594,-0.142578,-1.021484,-0.943359,0.982178,0.094849,0.160156,0.025208,up
178222,-2.769531,2.742188,8.34375,-0.142578,-1.021484,-0.943359,0.983704,0.093018,0.152832,0.017334,up
178227,-2.65625,2.703125,8.308594,0.0,-1.185547,-0.988281,0.983704,0.093018,0.152832,0.017334,up
178232,-2.65625,2.664063,8.269531,0.0,-1.185547,-0.988281,0.98468,0.092346,0.147278,0.011719,up
178237,-2.65625,2.78125,8.308594,0.0,-1.185547,-0.988281,0.98468,0.092346,0.147278,0.011719,up
178242,-2.65625,2.855469,8.347656,0.0,-1.185547,-0.988281,0.985596,0.091858,0.141785,0.006104,up
178247,-2.578125,2.816406,8.386719,-0.039063,-1.300781,-1.103516,0.985596,0.091858,0.141785,0.006104,up
178252,-2.464844,2.816406,8.269531,-0.039063,-1.300781,-1.103516,0.986572,0.090942,0.135803,0.0,up
178257,-2.347656,2.816406,8.535156,-0.039063,-1.300781,-1.103516,0.986572,0.090942,0.135803,0.0,up
178262,-2.347656,2.664063,8.574219,-0.039063,-1.300781,-1.103516,0.987427,0.089417,0.130066,-0.005981,up
178267,-2.347656,2.664063,8.574219,-0.291016,-1.224609,-1.085938,0.987915,0.088379,0.127197,-0.008972,up
178272,-2.3125,2.128906,8.570313,-0.291016,-1.224609,-1.085938,0.987915,0.088379,0.127197,-0.008972,up
178277,-2.3125,2.128906,8.570313,-0.330078,-1.138672,-1.082031,0.988708,0.085999,0.121826,-0.014709,up
178282,-2.3125,2.089844,8.652344,-0.330078,-1.138672,-1.082031,0.989075,0.0849,0.119263,-0.017517,up
178287,-2.3125,2.089844,8.652344,-0.273438,-1.117188,-1.097656,0.98938,0.083801,0.11676,-0.020325,up
178292,-2.3125,2.167969,9.457031,-0.273438,-1.117188,-1.097656,0.989746,0.082825,0.114197,-0.023315,up
178298,-2.347656,2.089844,9.535156,-0.134766,-1.171875,-1.113281,0.989746,0.082825,0.114197,-0.023315,up
178303,-2.3125,1.9375,9.722656,-0.03125,-1.201172,-1.119141,0.989746,0.082825,0.114197,-0.023315,up
178308,-2.347656,1.785156,9.613281,0.091797,-1.224609,-1.121094,0.989746,0.082825,0.114197,-0.023315,up
178314,-2.503906,1.628906,9.339844,0.363281,-1.275391,-1.162109,0.989746,0.082825,0.114197,-0.023315,up
178319,-2.503906,1.554688,9.453125,0.363281,-1.275391,-1.162109,0.990967,0.082092,0.096985,-0.042297,up
178324,-2.617188,2.089844,9.375,0.363281,-1.275391,-1.162109,0.990967,0.082092,0.096985,-0.042297,up
178329,-2.695313,2.242188,9.335938,0.630859,-1.394531,-1.224609,0.991089,0.084229,0.090759,-0.04895,up
178334,-2.695313,2.359375,9.230469,0.785156,-1.455078,-1.287109,0.991089,0.084229,0.090759,-0.04895,up
178339,-2.695313,2.433594,9.335938,0.785156,-1.455078,-1.287109,0.991089,0.085693,0.087158,-0.052795,up
178344,-2.617188,2.664063,9.339844,0.785156,-1.455078,-1.287109,0.990967,0.088867,0.080383,-0.060181,up
178349,-2.695313,2.933594,9.300781,0.785156,-1.455078,-1.287109,0.990967,0.088867,0.080383,-0.060181,up
178354,-2.808594,2.972656,9.335938,0.984375,-1.527344,-1.369141,0.990662,0.092834,0.072815,-0.06842,up
178360,-2.808594,3.046875,9.492188,0.984375,-1.527344,-1.369141,0.990417,0.094788,0.069153,-0.072388,up
178365,-2.539063,2.550781,9.339844,0.984375,-1.527344,-1.369141,0.990234,0.096619,0.065613,-0.076416,up
178371,-2.082031,3.203125,9.230469,0.949219,-1.505859,-1.568359,0.989929,0.09845,0.062012,-0.08075,up
178378,-1.851563,3.277344,9.300781,0.949219,-1.505859,-1.568359,0.989563,0.100403,0.058289,-0.085632,up
178384,-1.738281,3.238281,9.230469,0.667969,-1.146484,-1.609375,0.989563,0.100403,0.058289,-0.085632,up
178389,-1.738281,3.238281,9.230469,0.667969,-1.146484,-1.609375,0.988831,0.103027,0.052673,-0.094116,up
178394,-1.238281,3.203125,9.648438,0.595703,-1.003906,-1.574219,0.988403,0.104187,0.050171,-0.098511,up
178399,-1.238281,3.203125,9.648438,0.443359,-0.84375,-1.529297,0.987976,0.105042,0.048218,-0.102661,up
178405,-1.046875,3.394531,9.613281,0.443359,-0.84375,-1.529297,0.987549,0.105652,0.04657,-0.10675,up
178410,-1.046875,3.394531,9.613281,0.263672,-0.570312,-1.378906,0.986816,0.106323,0.044312,-0.113831,up
178416,-0.777344,2.894531,10.03125,0.263672,-0.570312,-1.378906,0.986389,0.106506,0.043579,-0.117188,up
178421,-0.742187,2.855469,10.070313,0.203125,-0.285156,-1.113281,0.986389,0.106506,0.043579,-0.117188,up
178427,-0.742187,2.816406,10.261719,0.287109,-0.212891,-1.009766,0.986389,0.106506,0.043579,-0.117188,up
178432,-0.703125,3.085938,10.257813,0.375,-0.169922,-0.884766,0.986389,0.106506,0.043579,-0.117188,up
178438,-0.894531,3.238281,10.414063,0.472656,-0.134766,-0.742187,0.986389,0.106506,0.043579,-0.117188,up
178443,-0.96875,3.277344,10.601563,0.589844,-0.146484,-0.615234,0.986389,0.106506,0.043579,-0.117188,up
178449,-1.085938,3.164063,10.757813,0.701172,-0.193359,-0.5,0.986389,0.106506,0.043579,-0.117188,up
178454,-1.007813,3.238281,10.5625,0.794922,-0.28125,-0.28125,0.983887,0.11322,0.040466,-0.132141,up
178459,-1.046875,3.507813,10.484375,0.794922,-0.28125,-0.28125,0.983582,0.115234,0.039612,-0.13324,up
178464,-1.085938,3.621094,10.683594,0.794922,-0.28125,-0.28125,0.983276,0.117065,0.038635,-0.133972,up
178469,-1.277344,3.621094,10.644531,0.78125,-0.417969,-0.052734,0.983032,0.118835,0.037476,-0.13446,up
178474,-1.277344,3.585938,10.414063,0.636719,-0.525391,0.109375,0.983032,0.118835,0.037476,-0.13446,up
178479,-1.160156,3.585938,10.335938,0.636719,-0.525391,0.109375,0.982727,0.122131,0.034607,-0.134766,up
178484,-1.046875,3.546875,10.144531,0.419922,-0.521484,0.193359,0.982605,0.123413,0.03302,-0.134705,up
178490,-0.742187,3.46875,10.101563,0.419922,-0.521484,0.193359,0.982544,0.125183,0.030151,-0.134216,up
178495,-0.585937,3.394531,10.101563,0.277344,-0.435547,0.224609,0.982544,0.125916,0.028687,-0.13385,up
178500,-0.550781,3.085938,10.074219,0.277344,-0.435547,0.224609,0.982544,0.126465,0.027466,-0.133484,up
178505,-0.433594,2.933594,10.074219,0.277344,-0.435547,0.224609,0.982605,0.126831,0.026611,-0.133118,up
178510,-0.433594,2.972656,10.105469,0.207031,-0.246094,0.222656,0.982605,0.12738,0.025696,-0.132629,up
178515,-0.511719,2.894531,10.140625,0.195312,-0.162109,0.230469,0.982605,0.127808,0.025024,-0.132202,up
178520,-0.511719,2.703125,10.222656,0.195312,-0.162109,0.230469,0.982605,0.128296,0.024658,-0.131775,up
178525,-0.550781,2.742188,10.21875,0.195312,-0.162109,0.230469,0.982605,0.129089,0.024292,-0.131165,up
178530,-0.550781,2.742188,10.257813,0.195312,-0.162109,0.230469,0.982605,0.129822,0.02417,-0.130615,up
178535,-0.625,2.742188,10.257813,0.478516,0.130859,0.3125,0.982544,0.131042,0.02417,-0.129822,up
178541,-0.777344,2.816406,10.457031,0.478516,0.130859,0.3125,0.982483,0.132385,0.024292,-0.12915,up
178546,-0.742187,2.972656,10.417969,0.707031,0.238281,0.365234,0.982361,0.134094,0.024475,-0.128235,up
178552,-0.777344,3.125,10.300781,0.789062,0.271484,0.375,0.982361,0.134094,0.024475,-0.128235,up
178558,-0.855469,3.164063,10.296875,0.835937,0.298828,0.396484,0.982361,0.134094,0.024475,-0.128235,up
178563,-0.96875,3.394531,10.144531,0.835937,0.298828,0.396484,0.982361,0.134094,0.024475,-0.128235,up
178568,-0.933594,3.546875,10.140625,0.857422,0.34375,0.419922,0.982361,0.134094,0.024475,-0.128235,up
178573,-0.933594,3.699219,10.105469,0.826172,0.363281,0.435547,0.982361,0.134094,0.024475,-0.128235,up
178579,-1.085938,3.929688,10.070313,0.826172,0.363281,0.435547,0.981201,0.147217,0.026794,-0.122009,up
178585,-1.085938,3.890625,10.070313,0.826172,0.363281,0.435547,0.981018,0.14917,0.027344,-0.12085,up
178590,-1.046875,3.738281,10.035156,0.662109,0.419922,0.5,0.980713,0.152893,0.028687,-0.118103,up
178596,-1.007813,3.355469,9.839844,0.662109,0.419922,0.5,0.980652,0.154297,0.029419,-0.116821,up
178601,-0.933594,3.203125,9.992188,0.480469,0.484375,0.554687,0.980591,0.155701,0.030212,-0.115356,up
178606,-0.894531,3.277344,9.953125,0.509766,0.494141,0.570312,0.98053,0.157166,0.031067,-0.113831,up
178612,-0.933594,3.203125,9.914063,0.558594,0.5,0.580078,0.98053,0.157166,0.031067,-0.113831,up
178618,-0.855469,3.164063,9.878906,0.619141,0.507812,0.599609,0.98053,0.157166,0.031067,-0.113831,up
178623,-0.933594,3.203125,9.800781,0.683594,0.507812,0.611328,0.98053,0.157166,0.031067,-0.113831,up
178629,-0.933594,3.203125,9.800781,0.738281,0.496094,0.648437,0.97998,0.164062,0.034302,-0.107483,up
178634,-0.894531,3.394531,9.875,0.738281,0.496094,0.648437,0.97998,0.164062,0.034302,-0.107483,up
178639,-0.933594,3.546875,9.917969,0.84375,0.470703,0.699219,0.979553,0.168396,0.035706,-0.103943,up
178644,-0.933594,3.546875,9.917969,0.884766,0.435547,0.736328,0.979553,0.168396,0.035706,-0.103943,up
178649,-0.96875,3.777344,9.800781,0.884766,0.435547,0.736328,0.979126,0.173157,0.036743,-0.100159,up
178654,-1.007813,3.8125,9.835938,0.884766,0.435547,0.736328,0.978882,0.175476,0.037109,-0.098267,up
178660,-1.007813,3.8125,9.800781,0.755859,0.306641,0.830078,0.978882,0.175476,0.037109,-0.098267,up
178665,-0.96875,3.777344,9.691406,0.755859,0.306641,0.830078,0.978271,0.181885,0.037842,-0.092041,up
178671,-1.007813,3.585938,9.71875,0.755859,0.306641,0.830078,0.978149,0.183655,0.038025,-0.090027,up
178676,-0.96875,3.507813,9.71875,0.568359,0.304688,0.828125,0.978027,0.185242,0.038208,-0.087952,up
178681,-0.96875,3.394531,9.71875,0.525391,0.322266,0.824219,0.978027,0.185242,0.038208,-0.087952,up
178686,-0.933594,3.355469,9.6875,0.525391,0.322266,0.824219,0.978027,0.185242,0.038208,-0.087952,up
178691,-0.933594,3.355469,9.6875,0.480469,0.373047,0.808594,0.977661,0.189758,0.039246,-0.081421,up
178697,-0.855469,3.355469,9.648438,0.480469,0.373047,0.808594,0.9776,0.190857,0.039612,-0.079651,up
178702,-0.855469,3.394531,9.652344,0.505859,0.453125,0.800781,0.9776,0.190857,0.039612,-0.079651,up
178707,-0.855469,3.394531,9.652344,0.529297,0.486328,0.802734,0.977295,0.193726,0.040894,-0.0755,up
178712,-0.96875,3.394531,9.71875,0.529297,0.486328,0.802734,0.977295,0.193726,0.040894,-0.0755,up
178718,-1.007813,3.507813,9.757813,0.609375,0.529297,0.818359,0.977295,0.193726,0.040894,-0.0755,up
178723,-1.007813,3.585938,9.835938,0.609375,0.529297,0.818359,0.976685,0.19873,0.043152,-0.069031,up
178728,-1.199219,3.777344,9.878906,0.609375,0.529297,0.818359,0.976379,0.200623,0.043884,-0.066772,up
178733,-1.238281,3.929688,9.917969,0.734375,0.505859,0.875,0.976379,0.200623,0.043884,-0.066772,up
178739,-1.351563,4.121094,9.875,0.734375,0.505859,0.875,0.975769,0.204834,0.045288,-0.062012,up
178744,-1.390625,4.195312,9.878906,0.734375,0.505859,0.875,0.975464,0.206726,0.045715,-0.059937,up
178750,-1.429688,4.273437,9.914063,0.765625,0.355469,0.916016,0.975464,0.206726,0.045715,-0.059937,up
178756,-1.582031,4.425781,9.957031,0.765625,0.355469,0.916016,0.974487,0.213135,0.046753,-0.052856,up
178762,-1.660156,4.425781,9.917969,0.765625,0.355469,0.916016,0.974182,0.214844,0.046875,-0.050781,up
178768,-1.699219,4.3125,9.839844,0.623047,0.232422,0.925781,0.973877,0.216736,0.046936,-0.04834,up
178773,-1.660156,4.195312,9.757813,0.552734,0.201172,0.919922,0.973877,0.216736,0.046936,-0.04834,up
178778,-1.507813,4.160156,9.800781,0.552734,0.201172,0.919922,0.973877,0.216736,0.046936,-0.04834,up
178784,-1.46875,4.082031,9.691406,0.552734,0.201172,0.919922,0.973267,0.221008,0.04657,-0.041626,up
178789,-1.46875,4.082031,9.691406,0.390625,0.144531,0.904297,0.973083,0.222168,0.046387,-0.03949,up
178794,-1.46875,4.082031,9.691406,0.369141,0.140625,0.892578,0.972961,0.223145,0.046143,-0.037415,up
178799,-1.199219,4.003906,9.570313,0.369141,0.140625,0.892578,0.972961,0.223145,0.046143,-0.037415,up
178804,-1.085938,4.042969,9.53125,0.355469,0.142578,0.890625,0.972961,0.223145,0.046143,-0.037415,up
178809,-1.085938,4.042969,9.53125,0.371094,0.167969,0.873047,0.972534,0.226196,0.045654,-0.030884,up
178814,-0.777344,4.390625,9.269531,0.371094,0.167969,0.873047,0.972351,0.227295,0.045532,-0.028748,up
178819,-0.664062,4.464844,9.230469,0.416016,0.191406,0.851562,0.972351,0.227295,0.045532,-0.028748,up
178825,-0.585937,4.503906,9.191406,0.462891,0.208984,0.849609,0.972351,0.227295,0.045532,-0.028748,up
178830,-0.664062,4.503906,9.230469,0.462891,0.208984,0.849609,0.971436,0.232117,0.04541,-0.020325,up
178835,-0.703125,4.464844,9.265625,0.523437,0.222656,0.882812,0.971436,0.232117,0.04541,-0.020325,up
178840,-0.742187,4.503906,9.265625,0.523437,0.222656,0.882812,0.97113,0.233582,0.04541,-0.017944,up
178845,-0.816406,4.503906,9.226563,0.59375,0.226562,0.9375,0.97113,0.233582,0.04541,-0.017944,up
178851,-0.855469,4.464844,9.152344,0.59375,0.226562,0.9375,0.970093,0.238098,0.045349,-0.011292,up
178856,-0.855469,4.425781,9.148438,0.636719,0.253906,0.980469,0.969727,0.239868,0.045288,-0.008728,up
178861,-0.855469,4.425781,9.03125,0.650391,0.273438,0.996094,0.969299,0.241638,0.045349,-0.006165,up
178866,-0.855469,4.425781,8.953125,0.650391,0.273438,0.996094,0.968933,0.243164,0.04541,-0.004028,up
178871,-0.855469,4.503906,8.917969,0.650391,0.273438,0.996094,0.968506,0.244873,0.045471,-0.001587,up
178876,-0.933594,4.617187,8.84375,0.650391,0.320313,0.966797,0.968018,0.246765,0.045654,0.001099,up
178882,-0.933594,4.847656,8.730469,0.650391,0.320313,0.966797,0.96759,0.248291,0.045837,0.003296,up
178887,-0.96875,4.925781,8.613281,0.558594,0.351563,0.931641,0.967163,0.249817,0.046082,0.005676,up
178892,-0.96875,4.964844,8.730469,0.558594,0.351563,0.931641,0.967163,0.249817,0.046082,0.005676,up
178897,-1.007813,5.0,8.726563,0.464844,0.367188,0.914062,0.967163,0.249817,0.046082,0.005676,up
178903,-0.96875,4.964844,8.804688,0.439453,0.351563,0.898437,0.967163,0.249817,0.046082,0.005676,up
178910,-0.96875,4.886719,8.804688,0.439453,0.351563,0.898437,0.967163,0.249817,0.046082,0.005676,up
178915,-0.96875,4.886719,8.886719,0.367188,0.298828,0.941406,0.967163,0.249817,0.046082,0.005676,up
178921,-0.96875,4.925781,8.917969,0.367188,0.298828,0.941406,0.964722,0.258057,0.047668,0.022217,up
178926,-0.96875,4.925781,8.917969,0.410156,0.261719,1.0,0.964355,0.259155,0.047729,0.024597,up
178931,-0.96875,4.925781,8.996094,0.447266,0.248047,1.025391,0.963928,0.260437,0.047668,0.027466,up
178936,-0.96875,4.964844,8.953125,0.447266,0.248047,1.025391,0.963562,0.261536,0.047607,0.029724,up
178942,-1.085938,5.230469,8.992188,0.447266,0.248047,1.025391,0.963135,0.262878,0.047485,0.032349,up
178947,-1.125,5.308594,8.957031,0.505859,0.185547,1.082031,0.962646,0.264221,0.047241,0.035034,up
178952,-1.199219,5.347656,8.882813,0.498047,0.166016,1.080078,0.962646,0.264221,0.047241,0.035034,up
178957,-1.199219,5.386719,8.882813,0.498047,0.166016,1.080078,0.961792,0.266846,0.046692,0.040161,up
178963,-1.160156,5.421875,8.847656,0.498047,0.166016,1.080078,0.961792,0.266846,0.046692,0.040161,up
178968,-1.160156,5.421875,8.847656,0.425781,0.103516,1.083984,0.960876,0.269348,0.045898,0.04541,up
178973,-1.160156,5.421875,8.847656,0.380859,0.087891,1.091797,0.960449,0.270508,0.04541,0.048035,up
178978,-1.046875,5.421875,8.808594,0.380859,0.087891,1.091797,0.960449,0.270508,0.04541,0.048035,up
178983,-0.96875,5.308594,8.769531,0.333984,0.080078,1.115234,0.960449,0.270508,0.04541,0.048035,up
178988,-0.96875,5.308594,8.769531,0.267578,0.082031,1.150391,0.959351,0.273132,0.043823,0.056091,up
178993,-0.933594,5.117187,8.84375,0.267578,0.082031,1.150391,0.959351,0.273132,0.043823,0.056091,up
178998,-0.816406,5.078125,8.847656,0.261719,0.115234,1.189453,0.959351,0.273132,0.043823,0.056091,up
179003,-0.855469,5.078125,8.804688,0.275391,0.130859,1.197266,0.959351,0.273132,0.043823,0.056091,up
179008,-0.894531,5.039062,8.84375,0.289063,0.146484,1.212891,0.959351,0.273132,0.043823,0.056091,up
179013,-0.933594,5.078125,8.917969,0.289063,0.146484,1.212891,0.959351,0.273132,0.043823,0.056091,up
179019,-1.007813,5.117187,8.917969,0.289063,0.146484,1.212891,0.956909,0.277954,0.040894,0.073425,up
179025,-1.046875,5.15625,8.953125,0.363281,0.089844,1.25,0.956909,0.277954,0.040894,0.073425,up
179031,-1.046875,5.230469,8.84375,0.363281,0.089844,1.25,0.955383,0.280823,0.039124,0.082336,up
179036,-1.046875,5.269531,8.847656,0.34375,0.013672,1.289063,0.954834,0.28186,0.03833,0.085571,up
179041,-1.046875,5.269531,8.804688,0.328125,-0.021484,1.322266,0.954834,0.28186,0.03833,0.085571,up
179046,-1.007813,5.269531,8.769531,0.328125,-0.021484,1.322266,0.953857,0.283691,0.036499,0.091614,up
179051,-0.777344,5.269531,8.6875,0.328125,-0.021484,1.322266,0.953369,0.284485,0.035522,0.094543,up
179056,-0.742187,5.191406,8.609375,0.328125,-0.021484,1.322266,0.95282,0.285217,0.034424,0.097717,up
179061,-0.664062,5.117187,8.535156,0.226562,-0.046875,1.414063,0.952271,0.286011,0.033264,0.101257,up
179066,-0.550781,5.0,8.425781,0.226562,-0.046875,1.414063,0.951782,0.286621,0.032288,0.104248,up
179071,-0.394531,4.847656,8.503906,0.226562,-0.046875,1.414063,0.951172,0.287415,0.031189,0.107849,up
179076,-0.28125,4.964844,8.421875,0.298828,0.044922,1.414063,0.950562,0.288269,0.030334,0.111206,up
179081,-0.164062,5.078125,8.425781,0.298828,0.044922,1.414063,0.950562,0.288269,0.030334,0.111206,up
179086,-0.050781,5.039062,8.34375,0.298828,0.044922,1.414063,0.949341,0.289917,0.028931,0.117615,up
179091,-0.128906,5.15625,8.347656,0.392578,0.183594,1.402344,0.949341,0.289917,0.028931,0.117615,up
179096,-0.089844,5.269531,8.347656,0.392578,0.183594,1.402344,0.947876,0.291931,0.027893,0.124695,up
179101,-0.089844,5.269531,8.347656,0.392578,0.183594,1.402344,0.947205,0.292847,0.027527,0.127808,up
179106,-0.203125,5.421875,8.386719,0.384766,0.208984,1.402344,0.94635,0.293884,0.0271,0.131409,up
179112,-0.203125,5.460937,8.269531,0.384766,0.208984,1.402344,0.945679,0.294739,0.026672,0.134521,up
179117,-0.164062,5.5,8.308594,0.296875,0.177734,1.400391,0.945679,0.294739,0.026672,0.134521,up
179123,-0.089844,5.421875,8.269531,0.296875,0.177734,1.400391,0.944275,0.296265,0.025574,0.141296,up
179128,-0.089844,5.421875,8.269531,0.296875,0.177734,1.400391,0.944275,0.296265,0.025574,0.141296,up
179134,-0.011719,5.386719,8.269531,0.169922,0.107422,1.404297,0.944275,0.296265,0.025574,0.141296,up
179139,-0.011719,5.386719,8.269531,0.144531,0.107422,1.40625,0.942261,0.297791,0.023499,0.151367,up
179144,0.179687,5.347656,8.226563,0.144531,0.107422,1.40625,0.942261,0.297791,0.023499,0.151367,up
179149,0.410156,5.386719,8.191406,0.144531,0.107422,1.416016,0.940918,0.298584,0.022034,0.158142,up
179154,0.410156,5.421875,8.191406,0.144531,0.107422,1.416016,0.940247,0.299011,0.021362,0.161499,up
179160,0.484375,5.460937,8.304688,0.144531,0.107422,1.416016,0.940247,0.299011,0.021362,0.161499,up
179165,0.484375,5.386719,8.1875,0.248047,0.236328,1.466797,0.940247,0.299011,0.021362,0.161499,up
179171,0.484375,5.386719,8.226563,0.363281,0.332031,1.542969,0.940247,0.299011,0.021362,0.161499,up
179176,0.484375,5.421875,8.269531,0.363281,0.332031,1.542969,0.935913,0.302246,0.019348,0.179749,up
179181,0.410156,5.5,8.1875,0.363281,0.332031,1.542969,0.935913,0.302246,0.019348,0.179749,up
179186,0.332031,5.578125,8.152344,0.597656,0.484375,1.691406,0.935913,0.302246,0.019348,0.179749,up
179191,0.253906,5.769531,8.078125,0.646484,0.529297,1.753906,0.933594,0.304504,0.019287,0.187988,up
179196,0.253906,5.84375,8.039063,0.683594,0.564453,1.796875,0.932312,0.305786,0.019409,0.192261,up
179201,0.140625,5.921875,8.0,0.683594,0.564453,1.796875,0.929321,0.308716,0.019958,0.201721,up
179206,0.140625,6.074219,7.921875,0.683594,0.564453,1.796875,0.929321,0.308716,0.019958,0.201721,up
179211,0.179687,6.265625,7.847656,0.710937,0.654297,1.878906,0.926392,0.311462,0.020752,0.210754,up
179216,0.140625,6.304687,7.804687,0.710937,0.654297,1.878906,0.926392,0.311462,0.020752,0.210754,up
179221,0.101563,6.226562,7.804687,0.667969,0.753906,1.951172,0.926392,0.311462,0.020752,0.210754,up
179226,0.101563,6.226562,7.886719,0.667969,0.753906,1.951172,0.921387,0.31543,0.0224,0.22583,up
179231,0.140625,6.265625,7.886719,0.667969,0.753906,1.951172,0.919739,0.31665,0.02301,0.230835,up
179236,0.253906,6.378906,8.039063,0.667969,0.753906,1.951172,0.919739,0.31665,0.02301,0.230835,up
179241,0.21875,6.417969,8.078125,0.607422,0.841797,1.990234,0.919739,0.31665,0.02301,0.230835,up
179246,0.179687,6.457031,8.082031,0.607422,0.841797,1.990234,0.914551,0.319885,0.025024,0.246338,up
179251,0.179687,6.457031,8.148438,0.607422,0.841797,1.990234,0.91272,0.320923,0.025696,0.251465,up
179256,0.179687,6.496094,8.304688,0.607422,0.841797,1.990234,0.91272,0.320923,0.025696,0.251465,up
179261,0.140625,6.417969,8.304688,0.673828,0.779297,2.068359,0.91272,0.320923,0.025696,0.251465,up
179266,0.027344,6.265625,8.109375,0.673828,0.779297,2.068359,0.908997,0.32312,0.026855,0.261902,up
179271,0.027344,6.265625,8.109375,0.691406,0.746094,2.082031,0.907043,0.324341,0.027344,0.26709,up
179276,-0.050781,6.265625,8.109375,0.691406,0.746094,2.082031,0.904968,0.325623,0.02771,0.272461,up
179281,0.027344,6.304687,7.960937,0.726562,0.652344,2.111328,0.902893,0.326965,0.028015,0.277649,up
179286,0.027344,6.304687,7.960937,0.726562,0.652344,2.111328,0.902893,0.326965,0.028015,0.277649,up
179291,0.332031,6.417969,7.847656,0.699219,0.535156,2.078125,0.898621,0.329712,0.028259,0.288025,up
179296,0.410156,6.417969,7.765625,0.699219,0.535156,2.078125,0.896545,0.331055,0.028259,0.292969,up
179301,0.410156,6.417969,7.765625,0.628906,0.517578,2.033203,0.894104,0.33252,0.028259,0.298645,up
179306,0.601562,6.417969,7.804687,0.628906,0.517578,2.033203,0.892273,0.333618,0.028198,0.302917,up
179311,0.601562,6.417969,7.804687,0.574219,0.511719,2.003906,0.890015,0.334778,0.028076,0.308167,up
179316,0.714844,6.417969,7.847656,0.525391,0.513672,1.980469,0.88623,0.336548,0.027832,0.3172,up
179321,0.792969,6.1875,7.886719,0.525391,0.513672,1.980469,0.88623,0.336548,0.027832,0.3172,up
179326,0.867187,6.074219,7.847656,0.525391,0.513672,1.980469,0.883972,0.337341,0.027588,0.322449,up
179331,0.90625,5.960937,7.882812,0.296875,0.5,1.927734,0.883972,0.337341,0.027588,0.322449,up
179336,0.984375,5.769531,8.042969,0.296875,0.5,1.927734,0.880249,0.338318,0.0271,0.331604,up
179341,1.058594,5.730469,8.078125,0.296875,0.5,1.927734,0.878418,0.338684,0.026794,0.336121,up
179346,1.175781,5.652344,8.003906,0.296875,0.476562,1.912109,0.878418,0.338684,0.026794,0.336121,up
179352,1.289063,5.691406,8.0,0.318359,0.478516,1.912109,0.878418,0.338684,0.026794,0.336121,up
179358,1.367188,5.730469,8.0,0.318359,0.478516,1.912109,0.87085,0.340332,0.025513,0.35376,up
179363,1.40625,5.769531,7.960937,0.412109,0.470703,1.898438,0.868835,0.340881,0.025208,0.358154,up
179368,1.40625,5.769531,7.960937,0.449219,0.464844,1.898438,0.866699,0.341553,0.024963,0.362671,up
179373,1.558594,5.921875,7.921875,0.449219,0.464844,1.898438,0.866699,0.341553,0.024963,0.362671,up
179378,1.558594,5.921875,7.921875,0.498047,0.464844,1.871094,0.864563,0.342224,0.02478,0.367065,up
179383,1.597656,5.996094,7.921875,0.498047,0.464844,1.871094,0.864563,0.342224,0.02478,0.367065,up
179388,1.632813,6.074219,7.804687,0.466797,0.482422,1.837891,0.858032,0.344421,0.024292,0.380188,up
179394,1.632813,5.730469,7.886719,0.466797,0.482422,1.837891,0.855835,0.345093,0.02417,0.384521,up
179400,1.671875,5.460937,7.964844,0.455078,0.5,1.822266,0.855835,0.345093,0.02417,0.384521,up
179406,1.710938,5.347656,7.921875,0.457031,0.523437,1.818359,0.855835,0.345093,0.02417,0.384521,up
179411,1.789063,5.191406,8.0,0.484375,0.544922,1.835938,0.855835,0.345093,0.02417,0.384521,up
179416,1.789063,5.117187,8.003906,0.568359,0.611328,1.859375,0.847046,0.347534,0.024109,0.401489,up
179421,1.863281,4.925781,7.960937,0.568359,0.611328,1.859375,0.844421,0.348267,0.024292,0.406311,up
179426,1.902344,4.808594,8.003906,0.759766,0.703125,1.886719,0.84198,0.34906,0.024597,0.410645,up
179432,2.019531,4.734375,7.925781,0.759766,0.703125,1.886719,0.836853,0.351013,0.025818,0.41925,up
179437,2.09375,4.808594,7.84375,1.050781,0.814453,1.910156,0.833801,0.352417,0.026794,0.424133,up
179442,2.132813,5.117187,7.769531,1.050781,0.814453,1.910156,0.830627,0.354065,0.028076,0.428833,up
179447,2.132813,5.191406,7.660156,1.050781,0.814453,1.910156,0.830627,0.354065,0.028076,0.428833,up
179452,2.09375,5.347656,7.582031,1.384766,0.96875,1.892578,0.830627,0.354065,0.028076,0.428833,up
179457,2.054688,5.5,7.421875,1.384766,0.96875,1.892578,0.820618,0.359802,0.033203,0.44281,up
179462,1.980469,5.578125,7.464844,1.384766,0.96875,1.892578,0.817505,0.361572,0.034973,0.446838,up
179467,1.824219,5.882812,7.277344,1.384766,0.96875,1.892578,0.813599,0.363831,0.037292,0.451965,up
179473,1.671875,6.152344,7.121094,1.384766,0.96875,1.892578,0.810303,0.365662,0.039246,0.456238,up
179478,1.597656,6.304687,7.078125,1.425781,1.109375,1.904297,0.810303,0.365662,0.039246,0.456238,up
179484,1.519531,6.304687,7.042969,1.425781,1.109375,1.904297,0.803223,0.369202,0.043396,0.465393,up
179489,1.519531,6.304687,7.042969,1.425781,1.109375,1.904297,0.803223,0.369202,0.043396,0.465393,up
179494,1.519531,6.1875,7.0,1.253906,1.103516,1.910156,0.796143,0.372131,0.047241,0.474792,up
179499,1.519531,6.1875,7.0,1.085938,1.097656,1.894531,0.792664,0.373291,0.049011,0.479492,up
179504,1.632813,5.960937,7.117187,1.085938,1.097656,1.894531,0.792664,0.373291,0.049011,0.479492,up
179510,1.671875,5.960937,7.238281,1.027344,1.083984,1.888672,0.786011,0.375183,0.052185,0.488586,up
179516,1.902344,5.996094,7.308594,0.941406,1.064453,1.832031,0.786011,0.375183,0.052185,0.488586,up
179521,1.980469,5.960937,7.347656,0.900391,1.025391,1.789063,0.786011,0.375183,0.052185,0.488586,up
179526,2.09375,6.035156,7.425781,0.900391,1.025391,1.789063,0.776306,0.377563,0.056641,0.501648,up
179532,2.132813,5.960937,7.34375,0.847656,0.96875,1.767578,0.776306,0.377563,0.056641,0.501648,up
179537,2.210938,5.921875,7.347656,0.847656,0.96875,1.767578,0.766663,0.379639,0.060547,0.514221,up
179542,2.246094,5.882812,7.34375,0.785156,0.888672,1.755859,0.766663,0.379639,0.060547,0.514221,up
179547,2.285156,5.84375,7.308594,0.785156,0.888672,1.755859,0.760498,0.38092,0.062561,0.522217,up
179552,2.402344,5.84375,7.199219,0.785156,0.888672,1.755859,0.75708,0.381531,0.063477,0.526489,up
179557,2.4375,5.921875,7.238281,0.785156,0.888672,1.755859,0.754272,0.38208,0.064148,0.530029,up
179562,2.476563,5.960937,7.199219,0.638672,0.757812,1.740234,0.754272,0.38208,0.064148,0.530029,up
179567,2.554688,5.996094,7.238281,0.638672,0.757812,1.740234,0.748169,0.383057,0.065308,0.537781,up
179572,2.59375,6.035156,7.273437,0.638672,0.757812,1.740234,0.745117,0.383423,0.065857,0.541687,up
179577,2.628906,6.113281,7.308594,0.519531,0.746094,1.703125,0.745117,0.383423,0.065857,0.541687,up
179582,2.707031,6.152344,7.308594,0.519531,0.746094,1.703125,0.739136,0.383911,0.066772,0.549377,up
179587,2.707031,6.152344,7.382812,0.445312,0.751953,1.6875,0.739136,0.383911,0.066772,0.549377,up
179592,2.746094,6.1875,7.460937,0.445312,0.751953,1.6875,0.736328,0.384033,0.067139,0.55304,up
179597,2.746094,6.1875,7.460937,0.419922,0.740234,1.679688,0.733765,0.384094,0.067444,0.556396,up
179602,2.785156,6.152344,7.425781,0.390625,0.740234,1.681641,0.733765,0.384094,0.067444,0.556396,up
179607,2.785156,6.152344,7.425781,0.355469,0.728516,1.701172,0.728027,0.384033,0.067932,0.563782,up
179612,2.898438,5.921875,7.382812,0.355469,0.728516,1.701172,0.728027,0.384033,0.067932,0.563782,up
179617,2.898438,5.921875,7.382812,0.28125,0.697266,1.773438,0.72229,0.383789,0.068176,0.571289,up
179622,3.050781,5.539062,7.421875,0.28125,0.697266,1.773438,0.716125,0.383423,0.068054,0.579224,up
179627,3.207031,5.421875,7.347656,0.28125,0.697266,1.773438,0.713501,0.383301,0.067932,0.582581,up
179632,3.320313,5.269531,7.34375,0.28125,0.697266,1.773438,0.710144,0.383179,0.06781,0.586731,up
179637,3.359375,5.191406,7.308594,0.28125,0.697266,1.773438,0.710144,0.383179,0.06781,0.586731,up
179642,3.433594,5.191406,7.308594,0.435547,0.707031,1.880859,0.710144,0.383179,0.06781,0.586731,up
179647,3.472656,5.308594,7.273437,0.435547,0.707031,1.880859,0.704041,0.383118,0.067749,0.594116,up
179652,3.550781,5.269531,7.277344,0.509766,0.712891,1.90625,0.697266,0.383423,0.068115,0.601746,up
179657,3.511719,5.269531,7.199219,0.634766,0.75,1.951172,0.697266,0.383423,0.068115,0.601746,up
179662,3.398438,5.386719,6.960937,0.679687,0.78125,1.982422,0.69342,0.383728,0.06842,0.605957,up
179667,3.398438,5.347656,6.773437,0.679687,0.78125,1.982422,0.686157,0.384399,0.069275,0.613708,up
179672,3.398438,5.386719,6.734375,0.679687,0.78125,1.982422,0.686157,0.384399,0.069275,0.613708,up
179677,3.359375,5.386719,6.699219,0.748047,0.806641,2.025391,0.678162,0.385193,0.070435,0.621948,up
179682,3.359375,5.308594,6.695312,0.748047,0.806641,2.025391,0.674133,0.38562,0.071045,0.625977,up
179687,3.359375,5.269531,6.660156,0.748047,0.806641,2.025391,0.674133,0.38562,0.071045,0.625977,up
179692,3.359375,5.269531,6.660156,0.880859,0.882812,2.09375,0.669983,0.386047,0.071777,0.630005,up
179697,3.242188,5.230469,6.699219,0.880859,0.882812,2.09375,0.665771,0.386475,0.072632,0.634155,up
179702,3.167969,5.117187,6.734375,0.884766,0.892578,2.099609,0.665771,0.386475,0.072632,0.634155,up
179707,3.167969,5.117187,6.734375,0.900391,0.929687,2.09375,0.665771,0.386475,0.072632,0.634155,up
179713,3.320313,5.0,6.65625,0.929687,0.982422,2.080078,0.665771,0.386475,0.072632,0.634155,up
179719,3.359375,5.191406,6.65625,0.929687,0.982422,2.080078,0.665771,0.386475,0.072632,0.634155,up
179725,3.320313,5.15625,6.734375,0.960937,1.011719,2.044922,0.665771,0.386475,0.072632,0.634155,up
179731,3.207031,5.117187,6.699219,0.962891,1.041016,2.005859,0.665771,0.386475,0.072632,0.634155,up
179737,3.28125,5.191406,6.617187,0.962891,1.039063,1.96875,0.626587,0.389343,0.082336,0.670044,up
179742,3.320313,5.269531,6.578125,0.962891,1.039063,1.96875,0.626587,0.389343,0.082336,0.670044,up
179747,3.320313,5.347656,6.582031,0.951172,1.029297,1.90625,0.626587,0.389343,0.082336,0.670044,up
179752,3.242188,5.386719,6.511719,0.949219,1.0,1.882813,0.626587,0.389343,0.082336,0.670044,up
179757,3.207031,5.347656,6.507812,0.908203,0.984375,1.861328,0.61377,0.389893,0.086304,0.68103,up
179762,3.207031,5.386719,6.433594,0.908203,0.984375,1.861328,0.609192,0.390076,0.087646,0.684875,up
179767,3.28125,5.539062,6.351562,0.908203,0.984375,1.861328,0.605042,0.390198,0.088806,0.688354,up
179772,3.472656,5.769531,6.234375,0.859375,0.945312,1.841797,0.601135,0.390259,0.089905,0.691589,up
179777,3.472656,5.769531,6.234375,0.833984,0.919922,1.820313,0.597229,0.39032,0.090881,0.694763,up
179782,3.550781,5.84375,6.3125,0.833984,0.919922,1.820313,0.593079,0.390381,0.091919,0.698181,up
179787,3.550781,5.84375,6.3125,0.792969,0.898437,1.738281,0.58905,0.390381,0.092896,0.701416,up
179792,3.433594,5.996094,6.351562,0.792969,0.898437,1.738281,0.585205,0.390381,0.093872,0.704468,up
179797,3.359375,6.035156,6.277344,0.792969,0.898437,1.738281,0.581177,0.390381,0.09491,0.707642,up
179802,3.511719,5.996094,6.316406,0.693359,0.765625,1.587891,0.577515,0.390442,0.095764,0.71051,up
179807,3.550781,5.960937,6.195312,0.693359,0.765625,1.587891,0.570312,0.390442,0.09729,0.716064,up
179812,3.589844,5.921875,6.085937,0.693359,0.765625,1.587891,0.566711,0.390381,0.0979,0.718933,up
179817,3.625,5.921875,6.199219,0.693359,0.765625,1.587891,0.566711,0.390381,0.0979,0.718933,up
179822,3.816406,5.921875,6.238281,0.542969,0.685547,1.580078,0.559814,0.390259,0.098633,0.724243,up
179827,4.007812,5.960937,6.351562,0.542969,0.685547,1.580078,0.559814,0.390259,0.098633,0.724243,up
179832,4.085937,6.035156,6.351562,0.443359,0.632812,1.621094,0.556396,0.390137,0.098816,0.726929,up
179837,4.125,6.035156,6.3125,0.369141,0.621094,1.65625,0.549133,0.389709,0.098572,0.732727,up
179842,4.085937,5.882812,6.46875,0.369141,0.621094,1.65625,0.549133,0.389709,0.098572,0.732727,up
179847,4.164062,5.769531,6.433594,0.191406,0.609375,1.830078,0.545654,0.389404,0.098206,0.735535,up
179852,4.238281,5.691406,6.472656,0.191406,0.609375,1.830078,0.538635,0.388611,0.097046,0.741272,up
179857,4.355469,5.578125,6.578125,0.191406,0.609375,1.830078,0.538635,0.388611,0.097046,0.741272,up
179862,4.46875,5.460937,6.660156,0.162109,0.591797,1.980469,0.538635,0.388611,0.097046,0.741272,up
179867,4.355469,5.347656,6.777344,0.162109,0.591797,1.980469,0.530945,0.387756,0.095398,0.747437,up
179872,4.355469,5.347656,6.777344,0.173828,0.601562,2.160156,0.526489,0.387329,0.09436,0.750916,up
179877,4.355469,5.347656,6.777344,0.195312,0.609375,2.228516,0.522339,0.386963,0.093445,0.754089,up
179882,4.125,5.0,6.851562,0.232422,0.664062,2.273438,0.522339,0.386963,0.093445,0.754089,up
179887,3.933594,4.886719,6.699219,0.232422,0.664062,2.273438,0.522339,0.386963,0.093445,0.754089,up
179892,3.933594,4.886719,6.699219,0.314453,0.677734,2.308594,0.50824,0.385742,0.09082,0.764648,up
179897,3.589844,4.617187,6.539062,0.447266,0.642578,2.230469,0.50824,0.385742,0.09082,0.764648,up
179902,3.78125,4.351562,6.355469,0.447266,0.642578,2.230469,0.498596,0.385254,0.089539,0.771362,up
179907,3.972656,4.542969,6.277344,0.447266,0.642578,2.230469,0.493408,0.385071,0.08905,0.77478,up
179912,4.125,4.773437,6.433594,0.710937,0.404297,2.314453,0.493408,0.385071,0.08905,0.77478,up
179918,4.507812,4.695312,6.855469,0.710937,0.404297,2.314453,0.478516,0.386353,0.087952,0.78363,up
179923,4.777344,4.464844,7.039062,0.986328,0.408203,2.529297,0.472229,0.387329,0.08783,0.786926,up
179928,4.929687,4.390625,7.117187,0.986328,0.408203,2.529297,0.466553,0.388184,0.08783,0.789856,up
179933,4.890625,4.351562,7.304687,1.3125,0.46875,2.935547,0.466553,0.388184,0.08783,0.789856,up
179939,4.890625,4.003906,7.042969,1.3125,0.46875,2.935547,0.452332,0.390625,0.08844,0.796875,up
179945,4.8125,4.042969,6.773437,1.59375,0.630859,3.417969,0.452332,0.390625,0.08844,0.796875,up
179950,4.8125,4.042969,6.773437,1.699219,0.71875,3.673828,0.435303,0.393188,0.089478,0.804932,up
179955,4.621094,3.96875,6.089844,1.835938,0.748047,3.867188,0.426025,0.39447,0.090149,0.809204,up
179961,4.546875,3.890625,6.089844,1.927734,0.699219,4.007812,0.426025,0.39447,0.090149,0.809204,up
179967,4.429687,3.851563,6.121094,2.021484,0.654297,4.074219,0.426025,0.39447,0.090149,0.809204,up
179972,4.199219,3.890625,5.972656,2.060547,0.675781,4.060547,0.426025,0.39447,0.090149,0.809204,up
179977,4.394531,4.042969,5.855469,2.060547,0.675781,4.060547,0.384827,0.400574,0.093262,0.826294,up
179982,4.394531,3.890625,5.894531,2.126953,0.929687,3.498047,0.384827,0.400574,0.093262,0.826294,up
179987,4.777344,3.851563,5.628906,2.126953,0.929687,3.498047,0.364319,0.402771,0.096008,0.834167,up
179993,4.8125,4.042969,5.546875,2.126953,0.929687,3.498047,0.34613,0.404846,0.100403,0.840393,up
179998,4.8125,4.195312,5.929687,2.388672,0.4375,2.824219,0.34613,0.404846,0.100403,0.840393,up
180003,4.96875,4.082031,6.429687,2.513672,0.236328,2.644531,0.336975,0.406555,0.103027,0.842957,up
180008,5.3125,4.003906,7.15625,2.564453,0.183594,2.492188,0.328491,0.40863,0.105774,0.84491,up
180013,5.351562,3.738281,7.234375,2.564453,0.183594,2.492188,0.312439,0.413269,0.111938,0.847961,up
180018,5.425781,3.660156,6.964844,2.564453,0.183594,2.492188,0.306152,0.414795,0.114563,0.849182,up
180023,5.234375,4.121094,6.085937,2.265625,0.447266,2.248047,0.306152,0.414795,0.114563,0.849182,up
180028,5.234375,4.121094,6.007812,2.265625,0.447266,2.248047,0.298218,0.416443,0.117859,0.850769,up
180033,5.234375,4.121094,6.007812,2.056641,0.318359,2.269531,0.291748,0.417786,0.120178,0.85199,up
180039,5.386719,3.96875,6.011719,1.625,0.179687,2.339844,0.277893,0.420898,0.123596,0.854614,up
180045,6.0,3.660156,5.894531,1.625,0.179687,2.339844,0.271362,0.422241,0.12439,0.855957,up
180050,6.15625,3.738281,5.96875,1.09375,0.257813,2.474609,0.264648,0.42334,0.124634,0.857422,up
180056,6.1875,3.777344,6.160156,0.800781,0.244141,2.5,0.264648,0.42334,0.124634,0.857422,up
180062,6.382812,3.8125,6.8125,0.607422,0.205078,2.445313,0.264648,0.42334,0.124634,0.857422,up
180067,6.539062,3.699219,6.960937,0.607422,0.205078,2.445313,0.246582,0.425537,0.122131,0.862122,up
180072,6.539062,3.621094,7.003906,0.556641,0.423828,2.046875,0.246582,0.425537,0.122131,0.862122,up
180077,6.039062,3.851563,6.777344,0.714844,0.560547,1.847656,0.246582,0.425537,0.122131,0.862122,up
180082,5.886719,3.929688,6.777344,0.714844,0.560547,1.847656,0.231506,0.425537,0.121094,0.866394,up
180087,5.808594,4.003906,6.8125,0.714844,0.560547,1.847656,0.226196,0.42572,0.122253,0.867554,up
180093,5.773437,4.003906,6.964844,1.550781,0.152344,1.470703,0.217102,0.427551,0.125793,0.868469,up
180098,5.808594,4.003906,7.042969,1.550781,0.152344,1.470703,0.212463,0.429138,0.128052,0.86853,up
180103,5.847656,4.082031,6.855469,1.701172,-0.1875,1.324219,0.212463,0.429138,0.128052,0.86853,up
180108,5.886719,4.082031,6.65625,1.515625,-0.228516,1.355469,0.207336,0.430969,0.130554,0.868469,up
180113,5.886719,3.890625,6.351562,1.515625,-0.228516,1.355469,0.203247,0.432556,0.132324,0.868347,up
180119,6.117187,3.429688,6.273437,1.515625,-0.228516,1.355469,0.19458,0.436096,0.13446,0.868286,up
180124,6.230469,3.203125,6.273437,0.623047,-0.386719,1.615234,0.190613,0.437805,0.134277,0.868286,up
180129,6.230469,3.203125,6.273437,0.322266,-0.369141,1.716797,0.186523,0.439453,0.13324,0.86853,up
180134,6.570312,2.972656,6.199219,0.322266,-0.369141,1.716797,0.186523,0.439453,0.13324,0.86853,up
180139,6.570312,2.972656,6.199219,0.035156,-0.330078,1.796875,0.182739,0.440857,0.131592,0.868835,up
180144,6.570312,2.972656,6.199219,0.035156,-0.330078,1.796875,0.175476,0.443237,0.126404,0.869934,up
180149,6.886719,2.625,6.199219,0.035156,-0.330078,1.796875,0.17218,0.444336,0.123413,0.870483,up
180155,6.992187,2.128906,6.121094,0.035156,-0.330078,1.796875,0.169067,0.445374,0.120544,0.870972,up
180160,6.847656,2.207031,6.160156,-0.207031,-0.251953,1.572266,0.169067,0.445374,0.120544,0.870972,up
180166,6.6875,2.433594,6.121094,0.060547,-0.224609,1.482422,0.169067,0.445374,0.120544,0.870972,up
180171,6.121094,2.972656,6.085937,0.060547,-0.224609,1.482422,0.159668,0.448303,0.114746,0.872009,up
180177,5.695312,3.316406,6.085937,0.669922,-0.341797,1.337891,0.159668,0.448303,0.114746,0.872009,up
180183,5.3125,3.507813,6.15625,1.199219,-0.914062,1.380859,0.159668,0.448303,0.114746,0.872009,up
180188,4.777344,3.394531,6.316406,1.199219,-0.914062,1.380859,0.148621,0.453674,0.114868,0.871155,up
180193,4.777344,2.78125,6.316406,1.332031,-1.277344,1.470703,0.140015,0.46106,0.116333,0.86853,up
180198,4.929687,2.167969,6.234375,1.332031,-1.277344,1.470703,0.140015,0.46106,0.116333,0.86853,up
180203,5.160156,1.898438,6.089844,1.314453,-1.806641,1.722656,0.130493,0.470825,0.11676,0.864685,up
180208,5.738281,1.4375,5.703125,1.314453,-1.806641,1.722656,0.125916,0.475647,0.116211,0.862793,up
180213,6.121094,1.246094,5.394531,1.314453,-1.806641,1.722656,0.125916,0.475647,0.116211,0.862793,up
180218,6.386719,0.941406,5.089844,0.767578,-1.898438,2.035156,0.116272,0.485718,0.113525,0.858887,up
180223,7.035156,0.289063,4.707031,0.767578,-1.898438,2.035156,0.111816,0.490479,0.111755,0.856995,up
180228,7.453125,0.023437,4.515625,0.767578,-1.898438,2.035156,0.107727,0.494934,0.110107,0.855164,up
180233,7.453125,0.023437,4.515625,0.767578,-1.898438,2.035156,0.107727,0.494934,0.110107,0.855164,up
180238,7.796875,-0.015625,4.359375,0.642578,-1.822266,1.759766,0.107727,0.494934,0.110107,0.855164,up
180243,8.183594,0.558594,3.976563,0.783203,-1.748047,1.582031,0.099609,0.504028,0.107605,0.851135,up
180248,7.957031,0.710937,3.632813,0.976562,-1.605469,1.353516,0.095947,0.508179,0.107239,0.849182,up
180254,7.652344,0.980469,2.980469,1.191406,-1.390625,1.140625,0.088867,0.51532,0.108704,0.845398,up
180259,6.992187,2.550781,2.40625,1.191406,-1.390625,1.140625,0.085083,0.518982,0.11084,0.843262,up
180265,6.882812,3.316406,3.019531,1.191406,-1.390625,1.140625,0.081909,0.5224,0.11322,0.841187,up
180271,6.882812,3.316406,3.019531,2.097656,-1.853516,0.611328,0.078369,0.526794,0.116333,0.838318,up
180276,7.269531,3.394531,4.054687,2.097656,-1.853516,0.611328,0.075073,0.531067,0.119507,0.83551,up
180281,7.417969,3.429688,3.785156,2.097656,-1.853516,0.611328,0.071411,0.535522,0.122986,0.832458,up
180286,7.375,3.277344,3.402344,2.023438,-1.570313,0.640625,0.071411,0.535522,0.122986,0.832458,up
180291,7.34375,3.046875,3.058594,1.744141,-1.494141,0.705078,0.071411,0.535522,0.122986,0.832458,up
180297,7.414062,2.625,3.058594,1.744141,-1.494141,0.705078,0.06134,0.546753,0.13092,0.824707,up
180303,7.765625,2.28125,3.25,1.744141,-1.494141,0.705078,0.056274,0.553772,0.131897,0.820251,up
180308,7.878906,2.089844,3.363281,1.744141,-1.494141,0.705078,0.056274,0.553772,0.131897,0.820251,up
180313,7.878906,2.089844,3.363281,0.087891,-1.359375,0.978516,0.054443,0.556946,0.130981,0.818359,up
180318,7.878906,1.9375,3.058594,0.087891,-1.359375,0.978516,0.054443,0.556946,0.130981,0.818359,up
180323,7.726562,1.59375,2.867188,-0.246094,-1.255859,1.001953,0.05188,0.562683,0.126831,0.815247,up
180328,7.726562,1.59375,2.867188,-0.724609,-1.115234,0.96875,0.050659,0.567566,0.121155,0.812805,up
180333,7.652344,1.515625,2.753906,-0.724609,-1.115234,0.96875,0.050293,0.569641,0.118225,0.811768,up
180338,7.457031,2.128906,2.484375,-0.724609,-1.115234,0.96875,0.050293,0.569641,0.118225,0.811768,up
180343,7.609375,2.28125,2.367188,-0.378906,-0.890625,0.466797,0.050293,0.569641,0.118225,0.811768,up
180348,7.957031,2.128906,2.367188,-0.378906,-0.890625,0.466797,0.049866,0.573364,0.113831,0.809814,up
180353,8.5625,2.359375,2.214844,-0.160156,-0.902344,0.265625,0.049866,0.577087,0.112183,0.807373,up
180358,8.761719,2.550781,2.367188,-0.160156,-0.902344,0.265625,0.049866,0.577087,0.112183,0.807373,up
180364,8.878906,2.550781,2.523438,0.373047,-0.816406,-0.310547,0.049866,0.577087,0.112183,0.807373,up
180369,9.101563,2.511719,3.210938,0.373047,-0.816406,-0.310547,0.050659,0.582092,0.114502,0.803467,up
180374,9.183594,2.589844,3.632813,0.373047,-0.816406,-0.310547,0.051025,0.583313,0.116516,0.802246,up
180379,9.222656,2.625,3.902344,0.865234,-0.419922,-0.728516,0.051392,0.584351,0.119324,0.801025,up
180385,8.878906,2.78125,4.167969,0.865234,-0.419922,-0.728516,0.051819,0.5849,0.122192,0.800171,up
180390,8.414063,2.511719,4.167969,0.865234,-0.419922,-0.728516,0.052307,0.585144,0.124634,0.799561,up
180397,8.179688,2.398438,4.207031,0.490234,-0.205078,-0.867187,0.052307,0.585144,0.124634,0.799561,up
180403,7.992187,2.511719,4.515625,0.21875,-0.289063,-0.875,0.052307,0.585144,0.124634,0.799561,up
180408,7.992187,2.511719,4.515625,0.21875,-0.289063,-0.875,0.056274,0.58606,0.130493,0.797668,up
180413,7.570312,2.589844,4.167969,0.21875,-0.289063,-0.875,0.056274,0.58606,0.130493,0.797668,up
180419,7.304687,2.78125,4.09375,-0.326172,-0.875,-0.882812,0.063721,0.590027,0.13269,0.793823,up
180425,7.6875,3.277344,4.015625,-0.326172,-0.875,-0.882812,0.066223,0.591797,0.132812,0.792297,up
180430,7.6875,3.277344,4.015625,-0.492187,-1.451172,-0.847656,0.069153,0.594238,0.132935,0.790222,up
180436,8.035156,3.507813,3.863281,-0.492187,-1.451172,-0.847656,0.069153,0.594238,0.132935,0.790222,up
180442,8.109375,3.699219,3.710938,-0.386719,-1.519531,-0.882812,0.069153,0.594238,0.132935,0.790222,up
180448,7.992187,3.699219,3.671875,-0.269531,-1.544922,-0.904297,0.069153,0.594238,0.132935,0.790222,up
180454,8.074219,3.738281,3.671875,-0.083984,-1.537109,-0.923828,0.082947,0.607483,0.135742,0.778259,up
180460,8.148438,3.507813,3.441406,-0.083984,-1.537109,-0.923828,0.084778,0.609558,0.137146,0.776184,up
180465,8.113281,3.546875,3.441406,0.333984,-1.257813,-0.939453,0.084778,0.609558,0.137146,0.776184,up
180470,7.953125,3.699219,3.480469,0.298828,-1.253906,-0.910156,0.088379,0.613953,0.140686,0.771667,up
180475,7.765625,3.738281,3.402344,0.193359,-1.304688,-0.859375,0.090149,0.61615,0.142273,0.769409,up
180481,7.53125,3.699219,3.097656,0.193359,-1.304688,-0.859375,0.092102,0.618408,0.143433,0.767151,up
180486,7.492187,3.621094,2.90625,-0.175781,-1.507813,-0.753906,0.092102,0.618408,0.143433,0.767151,up
180491,7.492187,3.621094,2.90625,-0.328125,-1.636719,-0.703125,0.096558,0.623535,0.14447,0.762207,up
180496,7.492187,3.777344,2.558594,-0.439453,-1.714844,-0.644531,0.09906,0.626343,0.144409,0.759644,up
180501,7.492187,3.777344,2.558594,-0.439453,-1.714844,-0.644531,0.09906,0.626343,0.144409,0.759644,up
180507,7.269531,3.890625,2.484375,-0.474609,-1.828125,-0.589844,0.104065,0.632629,0.143677,0.753906,up
180512,7.535156,3.96875,2.214844,-0.474609,-1.828125,-0.589844,0.104065,0.632629,0.143677,0.753906,up
180518,7.730469,4.003906,2.140625,-0.017578,-2.257813,-0.455078,0.104065,0.632629,0.143677,0.753906,up
180523,7.878906,4.042969,2.101563,-0.017578,-2.257813,-0.455078,0.110168,0.643616,0.142883,0.743774,up
180529,7.953125,4.042969,1.984375,0.240234,-2.275391,-0.470703,0.110168,0.643616,0.142883,0.743774,up
180534,8.074219,4.042969,1.792969,0.240234,-2.275391,-0.470703,0.114441,0.655884,0.144226,0.732117,up
180539,8.679688,4.082031,1.066406,0.410156,-2.279297,-0.527344,0.114441,0.655884,0.144226,0.732117,up
180544,8.878906,4.234375,0.644531,0.410156,-2.279297,-0.527344,0.116882,0.66449,0.146179,0.723511,up
180549,9.101563,4.390625,0.261719,0.294922,-2.212891,-0.583984,0.116882,0.66449,0.146179,0.723511,up
180554,9.257813,4.464844,-0.160156,0.294922,-2.212891,-0.583984,0.11969,0.672058,0.147827,0.715698,up
180559,9.40625,4.425781,-0.351563,0.294922,-2.212891,-0.583984,0.11969,0.672058,0.147827,0.715698,up
180564,9.445313,4.464844,-0.542969,-0.078125,-2.125,-0.650391,0.12384,0.678955,0.148499,0.708252,up
180570,9.449219,4.582031,-0.773437,-0.527344,-1.972656,-0.742187,0.126404,0.681946,0.148437,0.704956,up
180575,9.449219,4.582031,-0.773437,-0.527344,-1.972656,-0.742187,0.126404,0.681946,0.148437,0.704956,up
180580,9.371094,4.734375,-1.078125,-0.761719,-1.910156,-0.802734,0.126404,0.681946,0.148437,0.704956,up
180585,9.339844,4.734375,-1.003906,-0.964844,-1.835938,-0.867187,0.137268,0.689941,0.146423,0.695496,up
180590,9.222656,4.390625,-0.847656,-0.964844,-1.835938,-0.867187,0.141479,0.692139,0.145447,0.692627,up
180595,9.179688,4.273437,-0.8125,-1.246094,-1.625,-0.966797,0.146484,0.694519,0.144287,0.689453,up
180601,9.523438,4.160156,-0.773437,-1.246094,-1.625,-0.966797,0.15033,0.696167,0.143494,0.687134,up
180606,9.679688,4.351562,-0.773437,-1.246094,-1.625,-0.966797,0.154297,0.697937,0.142761,0.684631,up
180612,9.679688,4.503906,-0.773437,-0.839844,-1.271484,-0.916016,0.154297,0.697937,0.142761,0.684631,up
180617,9.679688,4.773437,-0.847656,-0.65625,-1.138672,-0.875,0.154297,0.697937,0.142761,0.684631,up
180622,9.683594,5.308594,-0.734375,-0.523437,-1.007813,-0.84375,0.154297,0.697937,0.142761,0.684631,up
180627,9.523438,5.578125,-0.8125,-0.439453,-0.880859,-0.804687,0.166748,0.703308,0.142456,0.676208,up
180633,9.523438,5.691406,-0.925781,-0.386719,-0.791016,-0.78125,0.166748,0.703308,0.142456,0.676208,up
180639,9.296875,5.578125,-1.195313,-0.357422,-0.744141,-0.759766,0.166748,0.703308,0.142456,0.676208,up
180644,9.296875,5.578125,-1.195313,-0.357422,-0.744141,-0.759766,0.175903,0.706543,0.143921,0.670166,up
180649,9.105469,5.539062,-1.003906,-0.357422,-0.744141,-0.759766,0.175903,0.706543,0.143921,0.670166,up
180654,9.105469,5.421875,-0.925781,-0.611328,-0.810547,-0.716797,0.181213,0.708191,0.143799,0.667053,up
180659,9.144531,5.308594,-0.773437,-0.611328,-0.810547,-0.716797,0.18396,0.708984,0.143433,0.665527,up
180664,9.105469,5.230469,-0.734375,-0.908203,-0.886719,-0.730469,0.18396,0.708984,0.143433,0.665527,up
180669,9.105469,5.15625,-0.695312,-0.916016,-0.871094,-0.751953,0.187317,0.709839,0.142883,0.663757,up
180675,9.257813,5.039062,-0.773437,-0.875,-0.855469,-0.763672,0.190186,0.71051,0.142334,0.662354,up
180681,9.605469,5.078125,-1.003906,-0.875,-0.855469,-0.763672,0.19635,0.711914,0.141418,0.659241,up
180687,9.683594,5.117187,-1.039063,-0.671875,-0.845703,-0.789062,0.19635,0.711914,0.141418,0.659241,up
180692,9.722656,5.191406,-1.078125,-0.556641,-0.822266,-0.798828,0.19635,0.711914,0.141418,0.659241,up
180698,9.828125,5.269531,-1.230469,-0.556641,-0.822266,-0.798828,0.19635,0.711914,0.141418,0.659241,up
180703,9.792969,5.386719,-1.386719,-0.273438,-0.75,-0.798828,0.19635,0.711914,0.141418,0.659241,up
180709,9.71875,5.460937,-1.578125,-0.029297,-0.660156,-0.796875,0.19635,0.711914,0.141418,0.659241,up
180714,9.527344,5.539062,-1.613281,-0.029297,-0.660156,-0.796875,0.210266,0.716431,0.143738,0.649475,up
180719,9.371094,5.769531,-1.539063,0.056641,-0.658203,-0.763672,0.211731,0.717224,0.144836,0.647888,up
180724,9.371094,5.769531,-1.539063,0.113281,-0.664062,-0.728516,0.213013,0.718079,0.145996,0.646301,up
180729,9.257813,6.1875,-1.308594,0.113281,-0.664062,-0.728516,0.214172,0.718933,0.147095,0.644714,up
180735,9.179688,6.265625,-1.269531,0.095703,-0.65625,-0.630859,0.216431,0.720642,0.148987,0.641602,up
180740,9.140625,6.226562,-1.230469,-0.041016,-0.630859,-0.539062,0.217651,0.721497,0.14978,0.640015,up
180746,8.988281,6.226562,-1.15625,-0.041016,-0.630859,-0.539062,0.21875,0.722168,0.150269,0.638794,up
180751,8.988281,6.113281,-1.117188,-0.041016,-0.630859,-0.539062,0.21991,0.722839,0.150635,0.637512,up
180756,9.0625,6.113281,-1.078125,-0.181641,-0.580078,-0.414062,0.21991,0.722839,0.150635,0.637512,up
180761,9.101563,6.1875,-1.078125,-0.244141,-0.556641,-0.375,0.21991,0.722839,0.150635,0.637512,up
180767,9.140625,6.113281,-1.003906,-0.289063,-0.533203,-0.333984,0.21991,0.722839,0.150635,0.637512,up
180773,9.21875,6.074219,-0.964844,-0.339844,-0.496094,-0.304688,0.21991,0.722839,0.150635,0.637512,up
180778,9.179688,6.035156,-0.964844,-0.365234,-0.451172,-0.275391,0.21991,0.722839,0.150635,0.637512,up
180783,9.144531,5.960937,-1.039063,-0.367188,-0.414062,-0.255859,0.21991,0.722839,0.150635,0.637512,up
180789,9.023438,5.921875,-1.078125,-0.34375,-0.376953,-0.207031,0.21991,0.722839,0.150635,0.637512,up
180794,9.023438,5.921875,-1.117188,-0.34375,-0.376953,-0.207031,0.229675,0.726562,0.149536,0.630066,up
180800,8.988281,5.882812,-1.039063,-0.320313,-0.373047,-0.185547,0.231812,0.727234,0.148804,0.628723,up
180806,8.917969,5.960937,-1.003906,-0.320313,-0.373047,-0.185547,0.232666,0.727478,0.148499,0.628174,up
180811,8.917969,5.960937,-1.003906,-0.273438,-0.3125,-0.167969,0.233582,0.727722,0.148193,0.627625,up
180816,8.761719,5.960937,-0.886719,-0.273438,-0.3125,-0.167969,0.234375,0.727966,0.147949,0.627075,up
180821,8.679688,5.996094,-0.8125,-0.273438,-0.3125,-0.167969,0.235168,0.728271,0.147766,0.626526,up
180826,8.5625,6.035156,-0.734375,-0.273438,-0.3125,-0.167969,0.235168,0.728271,0.147766,0.626526,up
180831,8.496094,6.074219,-0.734375,-0.115234,-0.296875,-0.15625,0.235168,0.728271,0.147766,0.626526,up
180836,8.457031,6.074219,-0.65625,-0.111328,-0.324219,-0.15625,0.235168,0.728271,0.147766,0.626526,up
180841,8.375,6.074219,-0.695312,-0.111328,-0.324219,-0.15625,0.235168,0.728271,0.147766,0.626526,up
180846,8.375,6.035156,-0.734375,-0.154297,-0.404297,-0.121094,0.235168,0.728271,0.147766,0.626526,up
180851,8.339844,5.921875,-0.773437,-0.193359,-0.443359,-0.117188,0.235168,0.728271,0.147766,0.626526,up
180856,8.339844,5.84375,-0.8125,-0.253906,-0.476562,-0.125,0.235168,0.728271,0.147766,0.626526,up
180861,8.414063,5.730469,-0.886719,-0.253906,-0.476562,-0.125,0.235168,0.728271,0.147766,0.626526,up
180866,8.378906,5.691406,-0.925781,-0.332031,-0.494141,-0.111328,0.235168,0.728271,0.147766,0.626526,up
180871,8.335938,5.691406,-0.964844,-0.347656,-0.490234,-0.107422,0.242249,0.732544,0.14502,0.619385,up
180876,8.375,5.691406,-0.964844,-0.347656,-0.490234,-0.107422,0.243286,0.733032,0.144348,0.618591,up
180883,8.257813,5.691406,-1.003906,-0.347656,-0.490234,-0.107422,0.243286,0.733032,0.144348,0.618591,up
180888,8.152344,5.804687,-1.078125,-0.328125,-0.421875,-0.101563,0.243286,0.733032,0.144348,0.618591,up
180893,8.03125,5.84375,-1.117188,-0.304688,-0.402344,-0.103516,0.243286,0.733032,0.144348,0.618591,up
180898,7.953125,5.769531,-1.195313,-0.257813,-0.388672,-0.113281,0.243286,0.733032,0.144348,0.618591,up
180903,7.917969,5.804687,-1.230469,-0.238281,-0.400391,-0.121094,0.243286,0.733032,0.144348,0.618591,up
180908,7.953125,5.84375,-1.230469,-0.230469,-0.396484,-0.121094,0.243286,0.733032,0.144348,0.618591,up
180914,7.957031,5.804687,-1.230469,-0.210937,-0.402344,-0.105469,0.249756,0.736206,0.140808,0.612976,up
180919,7.992187,5.730469,-1.269531,-0.210937,-0.402344,-0.105469,0.249756,0.736206,0.140808,0.612976,up
180924,7.992187,5.730469,-1.308594,-0.283203,-0.412109,-0.072266,0.249756,0.736206,0.140808,0.612976,up
180929,8.035156,5.730469,-1.308594,-0.283203,-0.412109,-0.072266,0.251221,0.737,0.140015,0.611694,up
180935,8.035156,5.691406,-1.308594,-0.333984,-0.404297,-0.0625,0.25293,0.737732,0.138794,0.610352,up
180940,8.03125,5.730469,-1.347656,-0.429687,-0.400391,-0.039063,0.25293,0.737732,0.138794,0.610352,up
180945,8.070313,5.652344,-1.421875,-0.472656,-0.384766,-0.042969,0.253906,0.738037,0.138062,0.609741,up
180950,8.074219,5.613281,-1.5,-0.472656,-0.384766,-0.042969,0.255859,0.738464,0.136536,0.608765,up
180955,8.109375,5.652344,-1.460938,-0.472656,-0.384766,-0.042969,0.255859,0.738464,0.136536,0.608765,up
180960,8.148438,5.613281,-1.460938,-0.541016,-0.314453,-0.060547,0.255859,0.738464,0.136536,0.608765,up
180965,8.152344,5.578125,-1.421875,-0.541016,-0.314453,-0.060547,0.259521,0.738831,0.133789,0.607361,up
180970,8.148438,5.539062,-1.460938,-0.541016,-0.314453,-0.060547,0.260559,0.738831,0.133057,0.607056,up
180975,8.183594,5.5,-1.460938,-0.496094,-0.214844,-0.09375,0.260559,0.738831,0.133057,0.607056,up
180980,8.183594,5.460937,-1.460938,-0.484375,-0.171875,-0.101563,0.261719,0.73877,0.132324,0.606812,up
180985,8.183594,5.5,-1.5,-0.484375,-0.171875,-0.101563,0.263916,0.738525,0.131165,0.606384,up
180990,8.257813,5.578125,-1.5,-0.484375,-0.171875,-0.101563,0.264893,0.738342,0.130676,0.606323,up
180995,8.257813,5.652344,-1.460938,-0.484375,-0.171875,-0.101563,0.264893,0.738342,0.130676,0.606323,up
181000,8.113281,5.730469,-1.5,-0.462891,-0.068359,-0.119141,0.264893,0.738342,0.130676,0.606323,up
181006,8.070313,5.804687,-1.539063,-0.462891,-0.068359,-0.119141,0.268066,0.737549,0.12915,0.606201,up
181011,8.070313,5.804687,-1.539063,-0.507812,-0.058594,-0.111328,0.269226,0.737244,0.128601,0.606201,up
181017,8.113281,5.804687,-1.5,-0.507812,-0.058594,-0.111328,0.270325,0.736938,0.127991,0.606201,up
181023,8.070313,5.804687,-1.539063,-0.507812,-0.058594,-0.111328,0.271545,0.736633,0.127319,0.60614,up
181028,8.074219,5.769531,-1.5,-0.570312,-0.091797,-0.113281,0.271545,0.736633,0.127319,0.60614,up
181034,8.113281,5.730469,-1.5,-0.580078,-0.09375,-0.103516,0.271545,0.736633,0.127319,0.60614,up
181040,8.070313,5.691406,-1.460938,-0.580078,-0.09375,-0.103516,0.27533,0.735718,0.125183,0.606018,up
181045,8.035156,5.691406,-1.5,-0.564453,-0.095703,-0.103516,0.276428,0.735413,0.124573,0.606018,up
181050,8.03125,5.652344,-1.460938,-0.552734,-0.091797,-0.09375,0.277771,0.735107,0.12384,0.605957,up
181055,8.03125,5.652344,-1.460938,-0.552734,-0.091797,-0.09375,0.278809,0.734802,0.12323,0.605896,up
181060,7.957031,5.691406,-1.421875,-0.53125,-0.076172,-0.09375,0.279968,0.734497,0.12262,0.605896,up
181066,7.957031,5.691406,-1.421875,-0.492187,-0.074219,-0.09375,0.282043,0.733948,0.12146,0.605835,up
181072,7.917969,5.691406,-1.386719,-0.492187,-0.074219,-0.09375,0.28302,0.733643,0.120972,0.605835,up
181077,7.875,5.84375,-1.347656,-0.492187,-0.074219,-0.09375,0.283875,0.733398,0.120544,0.605835,up
181082,7.800781,5.882812,-1.347656,-0.335938,-0.044922,-0.09375,0.284668,0.733154,0.120239,0.605774,up
181087,7.769531,5.921875,-1.347656,-0.302734,-0.039063,-0.087891,0.2854,0.732971,0.119873,0.605774,up
181093,7.730469,5.996094,-1.386719,-0.289063,-0.037109,-0.09375,0.2854,0.732971,0.119873,0.605774,up
181099,7.691406,5.960937,-1.386719,-0.271484,-0.050781,-0.089844,0.2854,0.732971,0.119873,0.605774,up
181104,7.691406,5.996094,-1.386719,-0.273438,-0.052734,-0.074219,0.2854,0.732971,0.119873,0.605774,up
181109,7.691406,5.996094,-1.386719,-0.287109,-0.054687,-0.0625,0.2854,0.732971,0.119873,0.605774,up
181114,7.691406,6.035156,-1.386719,-0.289063,-0.058594,-0.054687,0.2854,0.732971,0.119873,0.605774,up
181119,7.648437,6.035156,-1.386719,-0.289063,-0.058594,-0.054687,0.289185,0.731812,0.118347,0.605652,up
181124,7.691406,5.996094,-1.421875,-0.292969,-0.060547,-0.029297,0.289185,0.731812,0.118347,0.605652,up
181130,7.648437,6.035156,-1.421875,-0.294922,-0.0625,-0.001953,0.289185,0.731812,0.118347,0.605652,up
181135,7.609375,6.035156,-1.347656,-0.300781,-0.074219,0.007813,0.291382,0.731262,0.116699,0.605591,up
181140,7.730469,6.035156,-1.347656,-0.300781,-0.074219,0.007813,0.291382,0.731262,0.116699,0.605591,up
181145,7.765625,6.035156,-1.347656,-0.298828,-0.126953,0.029297,0.291382,0.731262,0.116699,0.605591,up
181151,7.765625,6.035156,-1.386719,-0.298828,-0.126953,0.029297,0.292908,0.73114,0.115051,0.605286,up
181156,7.800781,5.960937,-1.347656,-0.287109,-0.150391,0.037109,0.293518,0.73114,0.11438,0.605103,up
181162,7.730469,5.921875,-1.308594,-0.287109,-0.150391,0.037109,0.293884,0.73114,0.113953,0.605042,up
181167,7.6875,5.882812,-1.269531,-0.287109,-0.150391,0.037109,0.294373,0.73114,0.113342,0.604919,up
181172,7.6875,5.882812,-1.15625,-0.287109,-0.150391,0.037109,0.2948,0.731079,0.112915,0.604858,up
181178,7.726562,5.84375,-1.039063,-0.285156,-0.126953,0.076172,0.2948,0.731079,0.112915,0.604858,up
181183,7.730469,5.84375,-0.964844,-0.287109,-0.138672,0.091797,0.2948,0.731079,0.112915,0.604858,up
181189,7.765625,5.84375,-0.964844,-0.294922,-0.15625,0.103516,0.2948,0.731079,0.112915,0.604858,up
181194,7.796875,5.921875,-0.964844,-0.291016,-0.179687,0.115234,0.2948,0.731079,0.112915,0.604858,up
181199,7.917969,5.921875,-0.964844,-0.277344,-0.208984,0.134766,0.2948,0.731079,0.112915,0.604858,up
181204,7.914062,5.996094,-1.003906,-0.267578,-0.208984,0.140625,0.2948,0.731079,0.112915,0.604858,up
181210,7.917969,5.996094,-1.039063,-0.230469,-0.199219,0.142578,0.2948,0.731079,0.112915,0.604858,up
181215,7.917969,5.996094,-1.117188,-0.160156,-0.167969,0.136719,0.2948,0.731079,0.112915,0.604858,up
181221,7.839844,5.996094,-1.078125,-0.160156,-0.167969,0.136719,0.297791,0.731873,0.106323,0.603638,up
181226,7.839844,6.035156,-1.117188,-0.107422,-0.142578,0.136719,0.297791,0.731995,0.105835,0.603516,up
181232,7.839844,5.996094,-1.117188,-0.107422,-0.142578,0.136719,0.297791,0.732117,0.105408,0.603455,up
181237,7.914062,5.921875,-1.078125,-0.105469,-0.142578,0.136719,0.297791,0.7323,0.10498,0.603394,up
181242,7.957031,5.882812,-1.039063,-0.105469,-0.142578,0.136719,0.297791,0.732422,0.104492,0.603271,up
181248,7.953125,5.882812,-1.003906,-0.144531,-0.111328,0.123047,0.297791,0.732422,0.104492,0.603271,up
181253,7.878906,5.804687,-1.003906,-0.166016,-0.097656,0.111328,0.297791,0.732422,0.104492,0.603271,up
181259,7.917969,5.804687,-1.003906,-0.166016,-0.097656,0.111328,0.298157,0.732544,0.103088,0.60321,up
181264,7.878906,5.804687,-0.964844,-0.201172,-0.074219,0.095703,0.298157,0.732544,0.103088,0.60321,up
181269,7.796875,5.804687,-0.964844,-0.21875,-0.058594,0.083984,0.298157,0.732544,0.103088,0.60321,up
181274,7.691406,5.769531,-1.003906,-0.236328,-0.048828,0.087891,0.298157,0.732544,0.103088,0.60321,up
181280,7.652344,5.730469,-0.964844,-0.253906,-0.050781,0.074219,0.298157,0.732544,0.103088,0.60321,up
181285,7.6875,5.730469,-0.964844,-0.267578,-0.076172,0.074219,0.298157,0.732544,0.103088,0.60321,up
181290,7.6875,5.691406,-0.847656,-0.267578,-0.076172,0.074219,0.299988,0.732117,0.100037,0.603333,up
181295,7.6875,5.730469,-0.847656,-0.240234,-0.082031,0.072266,0.300659,0.731995,0.098999,0.603333,up
181300,7.6875,5.730469,-0.847656,-0.240234,-0.082031,0.072266,0.300659,0.731995,0.098999,0.603333,up
181305,7.648437,5.730469,-0.773437,-0.230469,-0.09375,0.087891,0.300659,0.731995,0.098999,0.603333,up
181310,7.691406,5.730469,-0.773437,-0.230469,-0.09375,0.087891,0.301331,0.731934,0.0979,0.603271,up
181315,7.726562,5.691406,-0.8125,-0.230469,-0.09375,0.087891,0.30188,0.731873,0.096863,0.60321,up
181320,7.765625,5.769531,-0.8125,-0.230469,-0.09375,0.087891,0.30188,0.731873,0.096863,0.60321,up
181325,7.765625,5.691406,-0.734375,-0.261719,-0.072266,0.083984,0.30188,0.731873,0.096863,0.60321,up
181330,7.769531,5.652344,-0.734375,-0.261719,-0.072266,0.083984,0.302551,0.73175,0.095764,0.60321,up
181335,7.765625,5.652344,-0.847656,-0.261719,-0.072266,0.083984,0.303223,0.731506,0.094727,0.603271,up
181340,7.765625,5.578125,-0.886719,-0.261719,-0.072266,0.083984,0.303223,0.731506,0.094727,0.603271,up
181345,7.839844,5.613281,-0.773437,-0.267578,-0.070312,0.076172,0.303223,0.731506,0.094727,0.603271,up
181350,7.878906,5.613281,-0.734375,-0.267578,-0.070312,0.076172,0.304016,0.731323,0.093628,0.603333,up
181355,7.917969,5.652344,-0.734375,-0.294922,-0.074219,0.056641,0.304443,0.731201,0.093079,0.603333,up
181361,7.917969,5.613281,-0.734375,-0.279297,-0.076172,0.037109,0.304443,0.731201,0.093079,0.603333,up
181367,7.917969,5.613281,-0.734375,-0.257813,-0.0625,0.027344,0.305786,0.730835,0.091553,0.603271,up
181372,7.996094,5.5,-0.773437,-0.257813,-0.0625,0.027344,0.306213,0.730713,0.091125,0.603271,up
181377,7.953125,5.5,-0.8125,-0.226562,-0.019531,0.009766,0.306213,0.730713,0.091125,0.603271,up
181382,7.953125,5.5,-0.8125,-0.201172,-0.003906,0.009766,0.306213,0.730713,0.091125,0.603271,up
181387,7.957031,5.421875,-0.847656,-0.201172,-0.003906,0.009766,0.306213,0.730713,0.091125,0.603271,up
181392,7.992187,5.460937,-0.847656,-0.164062,-0.003906,0.019531,0.306213,0.730713,0.091125,0.603271,up
181397,8.070313,5.460937,-0.847656,-0.158203,-0.011719,0.025391,0.306213,0.730713,0.091125,0.603271,up
181402,8.109375,5.386719,-0.8125,-0.158203,-0.011719,0.025391,0.308105,0.729858,0.089417,0.603638,up
181408,8.113281,5.386719,-0.925781,-0.158203,-0.011719,0.025391,0.308411,0.729736,0.089111,0.603638,up
181413,8.183594,5.386719,-1.003906,-0.166016,-0.041016,0.042969,0.308655,0.729675,0.088806,0.603699,up
181418,8.257813,5.421875,-1.003906,-0.169922,-0.052734,0.046875,0.308655,0.729675,0.088806,0.603699,up
181423,8.257813,5.421875,-1.003906,-0.146484,-0.068359,0.044922,0.308655,0.729675,0.088806,0.603699,up
181429,8.261719,5.421875,-1.039063,-0.146484,-0.082031,0.048828,0.308655,0.729675,0.088806,0.603699,up
181434,8.300781,5.308594,-1.039063,-0.150391,-0.091797,0.046875,0.308655,0.729675,0.088806,0.603699,up
181440,8.335938,5.308594,-1.039063,-0.150391,-0.087891,0.044922,0.308655,0.729675,0.088806,0.603699,up
181445,8.375,5.269531,-1.039063,-0.148437,-0.087891,0.039063,0.308655,0.729675,0.088806,0.603699,up
181450,8.375,5.230469,-1.003906,-0.148437,-0.091797,0.041016,0.308655,0.729675,0.088806,0.603699,up
181456,8.335938,5.269531,-0.925781,-0.148437,-0.074219,0.029297,0.308655,0.729675,0.088806,0.603699,up
181461,8.296875,5.269531,-1.003906,-0.128906,-0.046875,0.017578,0.310547,0.729553,0.085999,0.60321,up
181466,8.300781,5.269531,-1.039063,-0.128906,-0.046875,0.017578,0.310974,0.729492,0.085571,0.603149,up
181471,8.261719,5.269531,-1.003906,-0.113281,-0.035156,0.003906,0.310974,0.729492,0.085571,0.603149,up
181476,8.152344,5.269531,-1.003906,-0.113281,-0.035156,0.003906,0.31134,0.729431,0.085266,0.603088,up
181481,8.152344,5.269531,-0.964844,-0.082031,-0.03125,0.001953,0.31134,0.729431,0.085266,0.603088,up
181486,8.070313,5.269531,-0.964844,-0.060547,-0.048828,-0.013672,0.311523,0.72937,0.085144,0.603088,up
181491,8.113281,5.308594,-1.003906,-0.060547,-0.048828,-0.013672,0.311768,0.72937,0.084961,0.602966,up
181496,8.074219,5.269531,-1.039063,-0.060547,-0.048828,-0.013672,0.31189,0.729431,0.084961,0.602844,up
181501,8.03125,5.269531,-1.039063,-0.060547,-0.048828,-0.013672,0.31189,0.729431,0.084961,0.602844,up
181506,8.074219,5.386719,-0.964844,0.005859,-0.070312,-0.029297,0.31189,0.729431,0.084961,0.602844,up
181511,8.035156,5.386719,-1.039063,0.005859,-0.070312,-0.029297,0.311951,0.729614,0.084961,0.6026,up
181516,8.03125,5.421875,-1.003906,0.017578,-0.068359,-0.033203,0.312012,0.729797,0.085144,0.602295,up
181521,8.03125,5.421875,-1.003906,0.029297,-0.064453,-0.052734,0.312012,0.729797,0.085144,0.602295,up
181526,7.992187,5.460937,-1.003906,0.029297,-0.064453,-0.052734,0.312012,0.729919,0.085327,0.602173,up
181531,8.03125,5.460937,-1.039063,0.029297,-0.064453,-0.052734,0.312073,0.730042,0.085632,0.601929,up
181536,7.957031,5.460937,-1.039063,0.029297,-0.064453,-0.052734,0.312134,0.730042,0.085815,0.601868,up
181541,7.996094,5.5,-1.039063,0.029297,-0.064453,-0.052734,0.312134,0.730042,0.085815,0.601868,up
181546,7.957031,5.539062,-1.117188,0.001953,-0.001953,-0.087891,0.312134,0.730042,0.085815,0.601868,up
181551,7.917969,5.5,-1.078125,0.0,0.007813,-0.099609,0.312317,0.72998,0.086304,0.601746,up
181556,7.917969,5.460937,-1.078125,0.0,0.007813,-0.099609,0.312622,0.729919,0.086792,0.601624,up
181561,7.957031,5.460937,-1.039063,0.0,0.007813,-0.099609,0.312622,0.729919,0.086792,0.601624,up
