timestamp,ax,ay,az,gx,gy,gz,qw,qx,qy,qz,label
126477,0.945312,1.363281,9.570313,2.035156,0.023437,0.273438,0.985779,0.058716,-0.065613,-0.143311,up
126482,0.867187,1.324219,9.535156,1.9375,-0.046875,0.251953,0.985535,0.063232,-0.066406,-0.142395,up
126487,0.832031,1.402344,9.535156,1.9375,-0.046875,0.251953,0.985291,0.067993,-0.067322,-0.141418,up
126492,0.867187,1.746094,9.375,1.9375,-0.046875,0.251953,0.985291,0.067993,-0.067322,-0.141418,up
126497,0.867187,1.785156,9.574219,1.832031,-0.142578,0.259766,0.985291,0.067993,-0.067322,-0.141418,up
126502,1.097656,1.859375,9.53125,1.832031,-0.142578,0.259766,0.984802,0.077026,-0.069397,-0.139526,up
126507,1.214844,1.898438,9.574219,1.736328,-0.25,0.292969,0.984802,0.077026,-0.069397,-0.139526,up
126512,1.289063,1.9375,9.574219,1.736328,-0.25,0.292969,0.984131,0.085754,-0.07196,-0.137512,up
126517,1.558594,1.976563,9.574219,1.736328,-0.25,0.292969,0.983521,0.093567,-0.074402,-0.135559,up
126522,1.632813,2.015625,9.613281,1.736328,-0.25,0.292969,0.983215,0.097412,-0.0755,-0.134521,up
126527,1.671875,2.089844,9.535156,1.736328,-0.25,0.292969,0.983215,0.097412,-0.0755,-0.134521,up
126532,1.75,2.089844,9.574219,1.736328,-0.121094,0.335938,0.982483,0.105896,-0.077454,-0.132202,up
126537,1.863281,2.015625,9.570313,1.736328,-0.121094,0.335938,0.982117,0.110046,-0.078186,-0.131042,up
126542,1.824219,2.015625,9.574219,1.736328,-0.121094,0.335938,0.981812,0.114197,-0.078674,-0.129883,up
126547,1.824219,2.050781,9.609375,1.703125,0.162109,0.289063,0.981812,0.114197,-0.078674,-0.129883,up
126552,1.710938,2.242188,9.613281,1.703125,0.162109,0.289063,0.981384,0.118835,-0.079041,-0.128601,up
126558,1.710938,2.242188,9.613281,1.636719,0.300781,0.179687,0.980652,0.126648,-0.079102,-0.12677,up
126563,1.632813,2.398438,9.339844,1.587891,0.328125,0.107422,0.980164,0.131104,-0.078857,-0.125916,up
126569,1.597656,2.472656,9.269531,1.542969,0.318359,0.039063,0.979797,0.134644,-0.078552,-0.125366,up
126574,1.558594,2.625,9.226563,1.542969,0.318359,0.039063,0.979797,0.134644,-0.078552,-0.125366,up
126579,1.558594,2.625,9.226563,1.472656,0.296875,-0.064453,0.978821,0.142273,-0.078003,-0.124634,up
126585,1.519531,2.703125,9.269531,1.472656,0.296875,-0.064453,0.978333,0.145874,-0.077759,-0.124451,up
126590,1.597656,2.855469,9.152344,1.376953,0.285156,-0.130859,0.977844,0.149536,-0.077454,-0.124329,up
126596,1.632813,2.972656,9.230469,1.376953,0.285156,-0.130859,0.977844,0.149536,-0.077454,-0.124329,up
126602,1.632813,3.007813,9.226563,1.226563,0.300781,-0.146484,0.977844,0.149536,-0.077454,-0.124329,up
126607,1.632813,3.046875,9.230469,1.169922,0.324219,-0.121094,0.977844,0.149536,-0.077454,-0.124329,up
126612,1.671875,3.046875,9.226563,1.169922,0.324219,-0.121094,0.975952,0.162231,-0.075684,-0.124207,up
126617,1.671875,3.007813,9.109375,1.060547,0.5,0.001953,0.975952,0.162231,-0.075684,-0.124207,up
126622,1.710938,2.933594,9.070313,1.060547,0.5,0.001953,0.97522,0.167847,-0.07428,-0.123657,up
126628,1.671875,3.046875,8.917969,1.060547,0.5,0.001953,0.974548,0.173279,-0.072144,-0.122498,up
126633,1.671875,3.046875,8.882813,1.119141,0.748047,0.164062,0.974243,0.176392,-0.070679,-0.121582,up
126638,1.597656,3.125,8.847656,1.152344,0.826172,0.201172,0.973877,0.179443,-0.069153,-0.120544,up
126644,1.597656,3.203125,8.847656,1.152344,0.826172,0.201172,0.973633,0.18219,-0.067688,-0.119568,up
126649,1.058594,3.277344,8.570313,1.152344,0.826172,0.201172,0.973267,0.185303,-0.065857,-0.118408,up
126654,0.90625,3.277344,8.5,1.25,1.025391,0.185547,0.973267,0.185303,-0.065857,-0.118408,up
126659,0.832031,3.429688,8.535156,1.289063,1.003906,0.150391,0.973267,0.185303,-0.065857,-0.118408,up
126664,0.867187,3.699219,8.609375,1.289063,1.003906,0.150391,0.972107,0.195374,-0.059937,-0.115173,up
126671,0.867187,3.8125,8.570313,1.328125,0.9375,0.029297,0.972107,0.195374,-0.059937,-0.115173,up
126676,0.90625,3.890625,8.503906,1.330078,0.898437,-0.035156,0.972107,0.195374,-0.059937,-0.115173,up
126682,1.023438,3.890625,8.464844,1.318359,0.830078,-0.148437,0.972107,0.195374,-0.059937,-0.115173,up
126687,0.984375,3.929688,8.421875,1.318359,0.830078,-0.148437,0.969849,0.209412,-0.052551,-0.112976,up
126692,1.023438,4.003906,8.382813,1.291016,0.830078,-0.199219,0.969849,0.209412,-0.052551,-0.112976,up
126697,1.097656,4.082031,8.347656,1.291016,0.830078,-0.199219,0.968567,0.216431,-0.049011,-0.11261,up
126702,1.058594,4.160156,8.34375,1.291016,0.830078,-0.199219,0.967896,0.219849,-0.04718,-0.112488,up
126707,1.058594,4.160156,8.34375,1.177734,0.873047,-0.1875,0.967285,0.2229,-0.04541,-0.112366,up
126712,1.023438,4.3125,8.382813,1.177734,0.873047,-0.1875,0.966675,0.225891,-0.043518,-0.112122,up
126717,1.023438,4.3125,8.382813,1.041016,0.951172,-0.113281,0.966187,0.22876,-0.041504,-0.111816,up
126722,0.832031,4.582031,8.386719,1.041016,0.951172,-0.113281,0.966187,0.22876,-0.041504,-0.111816,up
126727,0.714844,4.695312,8.386719,0.949219,1.052734,-0.042969,0.966187,0.22876,-0.041504,-0.111816,up
126732,0.523437,5.0,8.464844,0.923828,1.099609,-0.019531,0.964233,0.239258,-0.032227,-0.109497,up
126737,0.21875,5.117187,8.382813,0.923828,1.099609,-0.019531,0.964233,0.239258,-0.032227,-0.109497,up
126742,0.101563,5.117187,8.308594,0.923828,1.099609,-0.019531,0.963684,0.242126,-0.029297,-0.108643,up
126747,0.0625,5.117187,8.269531,0.84375,1.179688,-0.027344,0.963318,0.244263,-0.026978,-0.107971,up
126752,0.027344,5.191406,8.421875,0.84375,1.179688,-0.027344,0.96283,0.246826,-0.02417,-0.107178,up
126757,0.0625,5.117187,8.535156,0.777344,1.117188,-0.035156,0.962341,0.249084,-0.021606,-0.106506,up
126762,0.0625,5.117187,8.460938,0.777344,1.117188,-0.035156,0.961914,0.251343,-0.018982,-0.105835,up
126767,0.0625,5.117187,8.460938,0.746094,1.080078,-0.039063,0.961487,0.253479,-0.016541,-0.105225,up
126772,0.027344,5.117187,8.535156,0.722656,1.007813,-0.001953,0.961487,0.253479,-0.016541,-0.105225,up
126777,0.101563,5.039062,8.6875,0.722656,1.007813,-0.001953,0.960632,0.257446,-0.012024,-0.104004,up
126782,0.027344,5.0,8.726563,0.722656,1.007813,-0.001953,0.960144,0.259521,-0.009644,-0.103271,up
126788,0.027344,4.847656,8.648438,0.707031,0.962891,0.082031,0.960144,0.259521,-0.009644,-0.103271,up
126794,-0.089844,4.808594,8.609375,0.707031,0.962891,0.082031,0.958862,0.26532,-0.003601,-0.100586,up
126799,-0.089844,4.964844,8.535156,0.773437,0.982422,0.255859,0.958862,0.26532,-0.003601,-0.100586,up
126804,-0.050781,5.078125,8.535156,0.851562,0.990234,0.314453,0.958862,0.26532,-0.003601,-0.100586,up
126810,-0.128906,5.308594,8.421875,0.851562,0.990234,0.314453,0.957458,0.271973,0.002319,-0.096619,up
126815,-0.203125,5.460937,8.425781,1.037109,1.041016,0.363281,0.957458,0.271973,0.002319,-0.096619,up
126821,-0.28125,5.539062,8.308594,1.128906,1.083984,0.359375,0.957458,0.271973,0.002319,-0.096619,up
126827,-0.359375,5.691406,8.109375,1.212891,1.123047,0.347656,0.957458,0.271973,0.002319,-0.096619,up
126832,-0.472656,5.730469,8.039063,1.353516,1.177734,0.289063,0.957458,0.271973,0.002319,-0.096619,up
126838,-0.550781,5.84375,7.921875,1.353516,1.177734,0.289063,0.953613,0.287415,0.013123,-0.088745,up
126843,-0.703125,5.921875,7.808594,1.369141,1.193359,0.261719,0.953613,0.287415,0.013123,-0.088745,up
126848,-0.703125,5.921875,7.808594,1.361328,1.173828,0.230469,0.95166,0.294312,0.0177,-0.085937,up
126853,-0.742187,5.996094,7.921875,1.361328,1.173828,0.230469,0.950623,0.297852,0.02002,-0.084595,up
126858,-0.742187,5.996094,7.921875,1.173828,1.087891,0.226562,0.94873,0.304199,0.024353,-0.082031,up
126863,-0.742187,6.113281,8.039063,1.173828,1.087891,0.226562,0.94873,0.304199,0.024353,-0.082031,up
126868,-0.742187,6.113281,8.039063,1.083984,1.078125,0.238281,0.947815,0.30719,0.026611,-0.080688,up
126873,-0.777344,6.417969,8.078125,1.083984,1.078125,0.238281,0.946167,0.312561,0.031006,-0.077881,up
126878,-0.777344,6.378906,8.113281,1.083984,1.078125,0.238281,0.946167,0.312561,0.031006,-0.077881,up
126883,-0.855469,6.417969,8.109375,1.083984,1.078125,0.238281,0.944885,0.316833,0.03479,-0.075073,up
126888,-0.855469,6.457031,8.003906,0.757812,1.009766,0.398438,0.944885,0.316833,0.03479,-0.075073,up
126893,-0.894531,6.457031,7.886719,0.757812,1.009766,0.398438,0.943542,0.321045,0.038818,-0.071594,up
126898,-0.894531,6.496094,7.847656,0.757812,1.009766,0.398438,0.942993,0.322815,0.040588,-0.069885,up
126903,-1.007813,6.535156,7.804687,0.671875,1.021484,0.509766,0.942383,0.324768,0.042603,-0.067871,up
126908,-1.046875,6.609375,7.847656,0.664062,1.023438,0.527344,0.942383,0.324768,0.042603,-0.067871,up
126913,-1.125,6.496094,7.847656,0.666016,1.041016,0.517578,0.941833,0.326477,0.044373,-0.065979,up
126919,-1.277344,6.457031,7.804687,0.666016,1.041016,0.517578,0.940674,0.330139,0.048218,-0.062012,up
126924,-1.277344,6.457031,7.804687,0.693359,0.974609,0.46875,0.940002,0.332031,0.05011,-0.06012,up
126929,-1.238281,6.417969,7.847656,0.738281,0.925781,0.443359,0.939331,0.334106,0.052002,-0.058167,up
126935,-1.277344,6.34375,7.886719,0.738281,0.925781,0.443359,0.938721,0.335815,0.053467,-0.056702,up
126941,-1.238281,6.417969,7.847656,0.8125,0.833984,0.375,0.938721,0.335815,0.053467,-0.056702,up
126946,-1.199219,6.457031,7.882812,0.841797,0.773437,0.335938,0.938721,0.335815,0.053467,-0.056702,up
126952,-1.199219,6.535156,7.84375,0.861328,0.71875,0.302734,0.938721,0.335815,0.053467,-0.056702,up
126957,-1.199219,6.648437,7.765625,0.861328,0.71875,0.302734,0.935608,0.344299,0.059143,-0.051453,up
126963,-1.160156,6.648437,7.699219,0.818359,0.626953,0.25,0.935608,0.344299,0.059143,-0.051453,up
126968,-1.199219,6.765625,7.582031,0.763672,0.578125,0.230469,0.935608,0.344299,0.059143,-0.051453,up
126974,-1.238281,6.957031,7.503906,0.763672,0.578125,0.230469,0.932617,0.35199,0.063354,-0.047729,up
126979,-1.199219,7.03125,7.503906,0.609375,0.4375,0.181641,0.932617,0.35199,0.063354,-0.047729,up
126984,-1.199219,7.03125,7.503906,0.521484,0.404297,0.171875,0.931458,0.35498,0.064941,-0.046265,up
126989,-1.238281,7.261719,7.421875,0.521484,0.404297,0.171875,0.931458,0.35498,0.064941,-0.046265,up
126994,-1.238281,7.261719,7.421875,0.521484,0.404297,0.171875,0.931458,0.35498,0.064941,-0.046265,up
126999,-1.351563,7.339844,7.421875,0.310547,0.34375,0.15625,0.931458,0.35498,0.064941,-0.046265,up
127004,-1.351563,7.339844,7.421875,0.058594,0.285156,0.099609,0.930237,0.358093,0.067444,-0.043884,up
127010,-1.546875,8.144531,7.234375,0.058594,0.285156,0.099609,0.930176,0.358093,0.067993,-0.043457,up
127015,-1.582031,8.179688,7.308594,-0.318359,0.154297,0.029297,0.930176,0.358093,0.067993,-0.043457,up
127020,-1.546875,8.300781,7.273437,-0.554687,0.103516,-0.017578,0.930786,0.356506,0.068787,-0.042969,up
127026,-1.546875,8.257813,7.117187,-0.832031,0.044922,-0.054687,0.930786,0.356506,0.068787,-0.042969,up
127031,-1.582031,8.179688,7.15625,-1.138672,-0.029297,-0.097656,0.930786,0.356506,0.068787,-0.042969,up
127036,-1.546875,7.984375,7.15625,-1.462891,-0.109375,-0.117188,0.930786,0.356506,0.068787,-0.042969,up
127041,-1.46875,7.800781,7.273437,-1.771484,-0.1875,-0.121094,0.930786,0.356506,0.068787,-0.042969,up
127046,-1.351563,7.261719,7.421875,-1.771484,-0.1875,-0.121094,0.930786,0.356506,0.068787,-0.042969,up
127052,-1.277344,6.917969,7.421875,-1.771484,-0.1875,-0.121094,0.938293,0.336243,0.068726,-0.043274,up
127058,-1.238281,6.574219,7.5,-2.761719,-0.267578,0.041016,0.938293,0.336243,0.068726,-0.043274,up
127063,-1.199219,5.960937,7.65625,-2.761719,-0.267578,0.041016,0.942627,0.324036,0.068054,-0.042969,up
127069,-1.160156,5.730469,7.808594,-2.875,-0.263672,0.119141,0.947266,0.310486,0.067261,-0.04187,up
127074,-1.125,5.386719,8.042969,-2.830078,-0.232422,0.287109,0.949768,0.30304,0.066711,-0.040894,up
127080,-1.046875,4.425781,8.574219,-2.830078,-0.232422,0.287109,0.951599,0.297363,0.066284,-0.039978,up
127085,-1.007813,4.195312,8.730469,-2.396484,-0.123047,0.425781,0.953613,0.29126,0.065857,-0.038757,up
127092,-0.96875,4.003906,8.765625,-2.058594,-0.048828,0.484375,0.953613,0.29126,0.065857,-0.038757,up
127097,-0.933594,3.738281,8.914063,-1.671875,0.021484,0.537109,0.953613,0.29126,0.065857,-0.038757,up
127102,-0.894531,3.660156,8.953125,-1.671875,0.021484,0.537109,0.957642,0.27832,0.065186,-0.034302,up
127108,-0.742187,3.546875,8.996094,-0.382813,0.228516,0.578125,0.957642,0.27832,0.065186,-0.034302,up
127113,-0.703125,3.546875,8.882813,-0.382813,0.228516,0.578125,0.958801,0.274658,0.065247,-0.031128,up
127118,-0.703125,3.546875,8.882813,0.375,0.341797,0.554687,0.958923,0.274353,0.065552,-0.029419,up
127123,-0.742187,3.851563,8.691406,0.375,0.341797,0.554687,0.958801,0.274902,0.065857,-0.028015,up
127128,-0.742187,4.042969,8.574219,0.919922,0.435547,0.5,0.958801,0.274902,0.065857,-0.028015,up
127133,-0.855469,4.425781,8.386719,0.919922,0.435547,0.5,0.957825,0.278442,0.066895,-0.025085,up
127138,-0.933594,4.582031,8.347656,1.246094,0.464844,0.476562,0.957031,0.280945,0.067566,-0.023804,up
127143,-0.96875,4.773437,8.1875,1.246094,0.464844,0.476562,0.956116,0.283936,0.068237,-0.022522,up
127149,-1.085938,5.191406,8.042969,1.353516,0.470703,0.486328,0.956116,0.283936,0.068237,-0.022522,up
127155,-1.199219,5.539062,8.003906,1.353516,0.470703,0.486328,0.953064,0.293884,0.070312,-0.018799,up
127162,-1.238281,5.730469,7.925781,1.447266,0.480469,0.546875,0.953064,0.293884,0.070312,-0.018799,up
127167,-1.316406,5.882812,7.699219,1.441406,0.486328,0.582031,0.953064,0.293884,0.070312,-0.018799,up
127173,-1.351563,6.035156,7.621094,1.376953,0.478516,0.613281,0.953064,0.293884,0.070312,-0.018799,up
127178,-1.429688,6.152344,7.578125,1.376953,0.478516,0.613281,0.948486,0.307983,0.072876,-0.013,up
127183,-1.429688,6.304687,7.621094,1.236328,0.445312,0.59375,0.948486,0.307983,0.072876,-0.013,up
127189,-1.46875,6.457031,7.542969,1.236328,0.445312,0.59375,0.945312,0.317444,0.074585,-0.008423,up
127194,-1.46875,6.496094,7.542969,1.074219,0.427734,0.535156,0.944214,0.320496,0.075134,-0.006836,up
127199,-1.46875,6.574219,7.539062,0.970703,0.423828,0.505859,0.943298,0.323059,0.075745,-0.005432,up
127205,-1.429688,6.648437,7.464844,0.970703,0.423828,0.505859,0.942627,0.325073,0.076233,-0.004333,up
127210,-1.46875,6.609375,7.382812,0.970703,0.423828,0.505859,0.942627,0.325073,0.076233,-0.004333,up
127215,-1.46875,6.609375,7.382812,0.738281,0.396484,0.419922,0.941833,0.327148,0.076843,-0.003052,up
127222,-1.507813,6.574219,7.425781,0.607422,0.392578,0.375,0.941833,0.327148,0.076843,-0.003052,up
127227,-1.507813,6.574219,7.425781,0.355469,0.367188,0.287109,0.940308,0.331177,0.078613,6.1e-05,up
127232,-1.507813,6.34375,7.304687,0.355469,0.367188,0.287109,0.940308,0.331177,0.078613,6.1e-05,up
127238,-1.46875,6.304687,7.273437,0.097656,0.322266,0.150391,0.940308,0.331177,0.078613,6.1e-05,up
127243,-1.429688,6.304687,7.238281,0.097656,0.322266,0.150391,0.939514,0.332886,0.080505,0.002258,up
127248,-1.507813,6.304687,7.234375,0.044922,0.308594,0.111328,0.939331,0.333191,0.081726,0.003235,up
127253,-1.546875,6.226562,7.273437,0.044922,0.308594,0.111328,0.939331,0.333191,0.081726,0.003235,up
127258,-1.546875,6.265625,7.304687,0.001953,0.283203,0.041016,0.939331,0.333191,0.081726,0.003235,up
127263,-1.582031,6.265625,7.273437,0.001953,0.283203,0.041016,0.939209,0.333252,0.082947,0.003906,up
127268,-1.621094,6.304687,7.308594,-0.017578,0.253906,0.025391,0.939209,0.333252,0.082947,0.003906,up
127273,-1.660156,6.304687,7.273437,0.005859,0.238281,0.025391,0.939209,0.333252,0.082947,0.003906,up
127278,-1.660156,6.304687,7.273437,0.005859,0.238281,0.025391,0.939026,0.333252,0.084595,0.0047,up
127283,-1.660156,6.34375,7.304687,0.039063,0.234375,0.044922,0.938965,0.333252,0.085144,0.004944,up
127289,-1.699219,6.34375,7.34375,0.039063,0.234375,0.044922,0.938782,0.333496,0.086182,0.005493,up
127294,-1.699219,6.304687,7.304687,0.060547,0.240234,0.054687,0.938782,0.333496,0.086182,0.005493,up
127300,-1.660156,6.265625,7.273437,0.060547,0.240234,0.054687,0.938599,0.333801,0.087158,0.006104,up
127305,-1.621094,6.304687,7.234375,0.0625,0.257813,0.056641,0.938477,0.333984,0.087708,0.006409,up
127310,-1.660156,6.226562,7.238281,0.060547,0.263672,0.064453,0.938477,0.333984,0.087708,0.006409,up
127315,-1.660156,6.265625,7.234375,0.060547,0.263672,0.064453,0.938232,0.334351,0.088806,0.00708,up
127321,-1.699219,6.226562,7.234375,0.060547,0.263672,0.064453,0.93811,0.334534,0.089355,0.007446,up
127326,-1.660156,6.265625,7.199219,0.105469,0.275391,0.054687,0.937988,0.334778,0.089905,0.007751,up
127332,-1.660156,6.226562,7.238281,0.111328,0.269531,0.056641,0.937988,0.334778,0.089905,0.007751,up
127337,-1.660156,6.265625,7.199219,0.113281,0.261719,0.046875,0.937988,0.334778,0.089905,0.007751,up
127343,-1.660156,6.265625,7.199219,0.123047,0.255859,0.052734,0.937988,0.334778,0.089905,0.007751,up
127349,-1.699219,6.304687,7.195312,0.136719,0.251953,0.050781,0.937988,0.334778,0.089905,0.007751,up
127354,-1.699219,6.34375,7.234375,0.136719,0.251953,0.050781,0.93689,0.336853,0.093262,0.009583,up
127359,-1.699219,6.34375,7.234375,0.199219,0.228516,0.054687,0.93689,0.336853,0.093262,0.009583,up
127364,-1.699219,6.34375,7.234375,0.199219,0.228516,0.054687,0.936462,0.337769,0.094238,0.010071,up
127369,-1.738281,6.34375,7.277344,0.199219,0.228516,0.054687,0.936279,0.338196,0.094604,0.010315,up
127374,-1.738281,6.34375,7.195312,0.136719,0.201172,0.087891,0.936279,0.338196,0.094604,0.010315,up
127379,-1.773438,6.34375,7.234375,0.136719,0.201172,0.087891,0.935913,0.338928,0.095459,0.010986,up
127384,-1.738281,6.304687,7.199219,0.136719,0.201172,0.087891,0.93573,0.339233,0.095764,0.011292,up
127389,-1.773438,6.378906,7.199219,0.136719,0.201172,0.087891,0.935608,0.339539,0.09613,0.011658,up
127394,-1.738281,6.378906,7.238281,0.136719,0.201172,0.087891,0.935486,0.339783,0.096436,0.011963,up
127399,-1.738281,6.378906,7.277344,0.09375,0.179687,0.082031,0.935486,0.339783,0.096436,0.011963,up
127404,-1.738281,6.378906,7.304687,0.09375,0.179687,0.082031,0.935181,0.340271,0.097107,0.012573,up
127409,-1.773438,6.378906,7.308594,0.087891,0.205078,0.072266,0.935181,0.340271,0.097107,0.012573,up
127414,-1.699219,6.34375,7.308594,0.087891,0.205078,0.072266,0.935059,0.340515,0.097534,0.012939,up
127419,-1.699219,6.378906,7.273437,0.099609,0.224609,0.0625,0.935059,0.340515,0.097534,0.012939,up
127424,-1.699219,6.34375,7.273437,0.099609,0.224609,0.0625,0.934631,0.341309,0.098816,0.013794,up
127429,-1.699219,6.304687,7.277344,0.099609,0.224609,0.0625,0.934509,0.341492,0.099304,0.014099,up
127434,-1.699219,6.304687,7.277344,0.099609,0.224609,0.0625,0.934509,0.341492,0.099304,0.014099,up
127439,-1.660156,6.304687,7.308594,0.078125,0.248047,0.048828,0.934509,0.341492,0.099304,0.014099,up
127444,-1.660156,6.34375,7.347656,0.078125,0.248047,0.048828,0.934082,0.342163,0.100891,0.014954,up
127449,-1.660156,6.34375,7.386719,0.078125,0.248047,0.048828,0.934082,0.342163,0.100891,0.014954,up
127454,-1.699219,6.304687,7.347656,0.070312,0.222656,0.056641,0.934082,0.342163,0.100891,0.014954,up
127460,-1.660156,6.304687,7.425781,0.070312,0.222656,0.056641,0.933716,0.342712,0.102356,0.015808,up
127465,-1.660156,6.304687,7.425781,0.070312,0.222656,0.056641,0.933594,0.342896,0.102661,0.016113,up
127471,-1.699219,6.304687,7.464844,0.089844,0.160156,0.078125,0.933472,0.34314,0.103027,0.016357,up
127477,-1.699219,6.34375,7.460937,0.089844,0.160156,0.078125,0.93335,0.343445,0.103271,0.016663,up
127483,-1.699219,6.378906,7.460937,0.128906,0.115234,0.072266,0.93335,0.343445,0.103271,0.016663,up
127488,-1.699219,6.378906,7.460937,0.154297,0.105469,0.064453,0.93335,0.343445,0.103271,0.016663,up
127494,-1.660156,6.457031,7.503906,0.167969,0.095703,0.050781,0.93335,0.343445,0.103271,0.016663,up
127499,-1.660156,6.457031,7.464844,0.167969,0.095703,0.050781,0.932495,0.345337,0.104187,0.017456,up
127504,-1.660156,6.535156,7.464844,0.154297,0.103516,0.007813,0.932495,0.345337,0.104187,0.017456,up
127509,-1.699219,6.574219,7.421875,0.154297,0.103516,0.007813,0.932373,0.345703,0.10437,0.017517,up
127514,-1.660156,6.574219,7.382812,0.144531,0.101563,0.013672,0.932373,0.345703,0.10437,0.017517,up
127519,-1.699219,6.609375,7.347656,0.078125,0.130859,-0.001953,0.932068,0.346375,0.104858,0.017639,up
127524,-1.699219,6.609375,7.277344,0.078125,0.130859,-0.001953,0.931885,0.34668,0.105164,0.017761,up
127529,-1.773438,6.6875,7.382812,0.044922,0.132812,-0.001953,0.931885,0.34668,0.105164,0.017761,up
127534,-1.773438,6.6875,7.382812,0.044922,0.132812,-0.001953,0.931702,0.346863,0.106018,0.018005,up
127539,-1.738281,6.6875,7.464844,0.044922,0.132812,-0.001953,0.931702,0.346863,0.106018,0.018005,up
127544,-1.773438,6.6875,7.460937,-0.091797,0.150391,-0.001953,0.931702,0.346863,0.106018,0.018005,up
127549,-1.8125,6.609375,7.5,-0.091797,0.150391,-0.001953,0.931763,0.346558,0.106689,0.01825,up
127555,-1.8125,6.574219,7.5,-0.091797,0.150391,-0.001953,0.931824,0.346313,0.107056,0.018372,up
127560,-1.773438,6.535156,7.539062,-0.132812,0.132812,0.001953,0.931946,0.345764,0.107727,0.018677,up
127566,-1.773438,6.496094,7.5,-0.132812,0.132812,0.001953,0.932007,0.345459,0.107971,0.018799,up
127571,-1.738281,6.417969,7.503906,-0.132812,0.132812,0.001953,0.932129,0.345093,0.108276,0.018982,up
127577,-1.738281,6.417969,7.542969,-0.158203,0.125,0.009766,0.932129,0.345093,0.108276,0.018982,up
127583,-1.699219,6.378906,7.5,-0.154297,0.130859,-0.001953,0.932129,0.345093,0.108276,0.018982,up
127588,-1.699219,6.34375,7.425781,-0.138672,0.123047,0.001953,0.932129,0.345093,0.108276,0.018982,up
127594,-1.660156,6.34375,7.386719,-0.125,0.134766,-0.009766,0.932129,0.345093,0.108276,0.018982,up
127599,-1.621094,6.304687,7.382812,-0.099609,0.158203,-0.029297,0.932129,0.345093,0.108276,0.018982,up
127604,-1.660156,6.304687,7.382812,-0.099609,0.158203,-0.029297,0.932617,0.343018,0.110474,0.019775,up
127609,-1.660156,6.34375,7.347656,-0.099609,0.158203,-0.029297,0.932617,0.342834,0.110901,0.019897,up
127614,-1.699219,6.378906,7.34375,-0.099609,0.158203,-0.029297,0.932617,0.342834,0.110901,0.019897,up
127619,-1.660156,6.457031,7.347656,-0.111328,0.214844,-0.044922,0.932617,0.342834,0.110901,0.019897,up
127624,-1.738281,6.417969,7.347656,-0.111328,0.214844,-0.044922,0.932678,0.342346,0.111816,0.02002,up
127630,-1.738281,6.417969,7.386719,-0.130859,0.228516,-0.039063,0.9328,0.341675,0.112915,0.020264,up
127635,-1.738281,6.417969,7.386719,-0.177734,0.251953,-0.013672,0.932861,0.341309,0.113525,0.020508,up
127640,-1.738281,6.304687,7.425781,-0.177734,0.251953,-0.013672,0.932922,0.34082,0.114136,0.020752,up
127645,-1.773438,6.265625,7.386719,-0.177734,0.251953,-0.013672,0.933044,0.340332,0.114685,0.020996,up
127650,-1.738281,6.1875,7.421875,-0.277344,0.287109,0.021484,0.933228,0.339661,0.115356,0.021362,up
127655,-1.738281,6.074219,7.5,-0.277344,0.287109,0.021484,0.93335,0.338989,0.116028,0.021729,up
127660,-1.738281,5.960937,7.421875,-0.277344,0.287109,0.021484,0.933472,0.338379,0.116577,0.022095,up
127665,-1.738281,5.921875,7.460937,-0.277344,0.287109,0.021484,0.933655,0.337708,0.117249,0.022461,up
127670,-1.738281,5.921875,7.5,-0.279297,0.310547,0.023437,0.933838,0.336975,0.117981,0.022949,up
127675,-1.8125,5.921875,7.539062,-0.279297,0.310547,0.023437,0.93396,0.336304,0.118713,0.023315,up
127680,-1.8125,5.921875,7.578125,-0.279297,0.310547,0.023437,0.934021,0.335876,0.119263,0.023621,up
127685,-1.8125,5.960937,7.582031,-0.279297,0.310547,0.023437,0.934021,0.335876,0.119263,0.023621,up
127690,-1.890625,5.996094,7.578125,-0.074219,0.285156,-0.001953,0.934021,0.335876,0.119263,0.023621,up
127696,-1.890625,5.996094,7.578125,-0.033203,0.28125,-0.013672,0.934021,0.335083,0.121277,0.024414,up
127701,-1.964844,6.304687,7.65625,-0.033203,0.28125,-0.013672,0.93396,0.335083,0.121887,0.024597,up
127706,-2.042969,6.417969,7.660156,0.025391,0.230469,-0.009766,0.933838,0.335083,0.122437,0.02478,up
127711,-2.003906,6.457031,7.695312,0.029297,0.203125,-0.001953,0.933838,0.335083,0.122437,0.02478,up
127717,-2.003906,6.457031,7.730469,0.029297,0.203125,-0.001953,0.933716,0.335205,0.123413,0.025024,up
127723,-2.042969,6.457031,7.695312,-0.033203,0.154297,0.017578,0.933716,0.335205,0.123413,0.025024,up
127728,-2.042969,6.496094,7.660156,-0.080078,0.126953,0.021484,0.933716,0.335205,0.123413,0.025024,up
127733,-2.003906,6.417969,7.660156,-0.080078,0.126953,0.021484,0.933716,0.335205,0.123413,0.025024,up
127739,-2.003906,6.34375,7.695312,-0.267578,0.097656,0.042969,0.933716,0.335205,0.123413,0.025024,up
127744,-1.964844,6.265625,7.65625,-0.267578,0.097656,0.042969,0.93396,0.333862,0.124634,0.026001,up
127749,-1.890625,6.074219,7.621094,-0.318359,0.109375,0.042969,0.93396,0.333862,0.124634,0.026001,up
127754,-1.929688,5.960937,7.617187,-0.318359,0.109375,0.042969,0.934387,0.332458,0.125,0.026489,up
127760,-1.929688,5.882812,7.578125,-0.435547,0.128906,0.005859,0.934387,0.332458,0.125,0.026489,up
127765,-1.851563,5.769531,7.621094,-0.435547,0.128906,0.005859,0.935303,0.32959,0.125732,0.027283,up
127771,-1.851563,5.691406,7.726562,-0.435547,0.128906,0.005859,0.935608,0.328674,0.125977,0.027466,up
127776,-1.851563,5.652344,7.804687,-0.365234,0.085937,-0.03125,0.935913,0.327698,0.126221,0.027588,up
127781,-1.8125,5.613281,7.921875,-0.289063,0.052734,-0.042969,0.935913,0.327698,0.126221,0.027588,up
127787,-1.851563,5.578125,7.921875,-0.289063,0.052734,-0.042969,0.93634,0.326355,0.126404,0.027649,up
127792,-1.851563,5.613281,7.886719,-0.126953,-0.041016,-0.064453,0.93634,0.326355,0.126404,0.027649,up
127798,-1.8125,5.730469,7.84375,-0.041016,-0.082031,-0.076172,0.93634,0.326355,0.126404,0.027649,up
127803,-1.851563,5.882812,7.847656,0.027344,-0.130859,-0.082031,0.93634,0.326355,0.126404,0.027649,up
127809,-1.738281,5.882812,7.765625,0.085937,-0.164062,-0.103516,0.93634,0.326355,0.126404,0.027649,up
127814,-1.660156,5.921875,7.65625,0.083984,-0.216797,-0.109375,0.93634,0.326355,0.126404,0.027649,up
127819,-1.699219,5.882812,7.65625,0.083984,-0.216797,-0.109375,0.936584,0.326294,0.125061,0.025757,up
127825,-1.660156,5.921875,7.460937,0.083984,-0.216797,-0.109375,0.936584,0.326294,0.125061,0.025757,up
127830,-1.699219,6.074219,7.464844,-0.117188,-0.230469,-0.097656,0.936584,0.326294,0.125061,0.025757,up
127835,-1.738281,6.1875,7.421875,-0.117188,-0.230469,-0.097656,0.937073,0.325867,0.123169,0.024048,up
127840,-1.773438,6.304687,7.304687,-0.117188,-0.230469,-0.097656,0.937317,0.325256,0.122742,0.023743,up
127845,-1.773438,6.304687,7.238281,-0.431641,-0.173828,-0.119141,0.937683,0.324341,0.122375,0.023376,up
127850,-1.773438,6.304687,7.238281,-0.431641,-0.173828,-0.119141,0.93811,0.323242,0.12207,0.023071,up
127855,-1.699219,6.226562,7.273437,-0.611328,-0.107422,-0.167969,0.93811,0.323242,0.12207,0.023071,up
127861,-1.660156,5.996094,7.277344,-0.611328,-0.107422,-0.167969,0.939209,0.320374,0.121704,0.022522,up
127866,-1.660156,5.996094,7.277344,-0.722656,-0.039063,-0.189453,0.939758,0.318604,0.121704,0.022217,up
127871,-1.582031,5.730469,7.382812,-0.722656,-0.039063,-0.189453,0.940369,0.316833,0.121704,0.021973,up
127876,-1.621094,5.539062,7.347656,-0.722656,-0.039063,-0.189453,0.940979,0.314941,0.121887,0.021667,up
127881,-1.507813,5.347656,7.382812,-0.722656,-0.039063,-0.189453,0.940979,0.314941,0.121887,0.021667,up
127886,-1.507813,5.347656,7.382812,-0.738281,0.146484,-0.226562,0.942139,0.31134,0.122559,0.021179,up
127891,-1.546875,5.308594,7.460937,-0.693359,0.191406,-0.228516,0.942688,0.309387,0.123169,0.020935,up
127897,-1.582031,5.15625,7.503906,-0.693359,0.191406,-0.228516,0.943115,0.307922,0.123718,0.020752,up
127903,-1.546875,5.15625,7.5,-0.595703,0.265625,-0.232422,0.943115,0.307922,0.123718,0.020752,up
127908,-1.546875,5.15625,7.5,-0.570312,0.289063,-0.224609,0.943909,0.304871,0.125244,0.020447,up
127913,-1.660156,5.117187,7.582031,-0.537109,0.306641,-0.226562,0.944214,0.303528,0.126038,0.020264,up
127918,-1.660156,5.117187,7.582031,-0.537109,0.306641,-0.226562,0.944214,0.303528,0.126038,0.020264,up
127923,-1.660156,5.15625,7.464844,-0.494141,0.333984,-0.220703,0.944824,0.301025,0.127869,0.02002,up
127928,-1.660156,5.15625,7.464844,-0.425781,0.357422,-0.208984,0.945007,0.299927,0.128845,0.019958,up
127934,-1.851563,5.269531,7.386719,-0.425781,0.357422,-0.208984,0.94519,0.298889,0.129822,0.019836,up
127939,-1.890625,5.269531,7.425781,-0.349609,0.376953,-0.191406,0.94519,0.298889,0.129822,0.019836,up
127945,-1.964844,5.308594,7.386719,-0.285156,0.394531,-0.183594,0.94519,0.298889,0.129822,0.019836,up
127950,-2.042969,5.347656,7.382812,-0.285156,0.394531,-0.183594,0.945679,0.295593,0.133911,0.019592,up
127955,-2.121094,5.386719,7.382812,-0.285156,0.394531,-0.183594,0.945679,0.295593,0.133911,0.019592,up
127960,-2.15625,5.460937,7.308594,-0.21875,0.435547,-0.175781,0.945679,0.295593,0.133911,0.019592,up
127965,-2.234375,5.5,7.308594,-0.21875,0.435547,-0.175781,0.945801,0.293762,0.137268,0.019409,up
127970,-2.3125,5.578125,7.347656,-0.21875,0.435547,-0.175781,0.945801,0.293213,0.138428,0.019348,up
127975,-2.3125,5.804687,7.460937,-0.21875,0.435547,-0.175781,0.945801,0.293213,0.138428,0.019348,up
127980,-2.3125,5.804687,7.539062,-0.240234,0.453125,-0.244141,0.945801,0.293213,0.138428,0.019348,up
127985,-2.3125,5.769531,7.621094,-0.240234,0.453125,-0.244141,0.945801,0.291321,0.14209,0.01886,up
127990,-2.273438,5.804687,7.621094,-0.240234,0.453125,-0.244141,0.945923,0.290466,0.143311,0.018677,up
127995,-2.195313,5.730469,7.699219,-0.240234,0.453125,-0.244141,0.945923,0.290466,0.143311,0.018677,up
128000,-2.273438,5.691406,7.695312,-0.425781,0.447266,-0.279297,0.946228,0.288147,0.145813,0.01825,up
128005,-2.3125,5.539062,7.660156,-0.425781,0.447266,-0.279297,0.946472,0.286865,0.146973,0.018127,up
128010,-2.347656,5.421875,7.699219,-0.425781,0.447266,-0.279297,0.946472,0.286865,0.146973,0.018127,up
128015,-2.425781,5.421875,7.730469,-0.646484,0.458984,-0.242187,0.947083,0.283508,0.149475,0.018127,up
128021,-2.464844,5.230469,7.84375,-0.646484,0.458984,-0.242187,0.947388,0.281799,0.150635,0.018188,up
128026,-2.425781,5.117187,7.882812,-0.646484,0.458984,-0.242187,0.947693,0.28009,0.151794,0.018311,up
128031,-2.464844,5.039062,7.847656,-0.673828,0.476562,-0.169922,0.948059,0.278198,0.153137,0.018494,up
128037,-2.503906,4.847656,7.882812,-0.673828,0.476562,-0.169922,0.948303,0.276733,0.154236,0.018677,up
128042,-2.503906,4.964844,7.960937,-0.673828,0.476562,-0.169922,0.948547,0.275208,0.155457,0.018799,up
128047,-2.503906,4.964844,7.960937,-0.449219,0.519531,-0.171875,0.948669,0.273987,0.156738,0.018982,up
128052,-2.503906,4.847656,7.960937,-0.449219,0.519531,-0.171875,0.948792,0.272888,0.158081,0.019043,up
128057,-2.503906,4.847656,7.808594,-0.449219,0.519531,-0.171875,0.948792,0.272888,0.158081,0.019043,up
128062,-2.503906,4.847656,7.808594,-0.216797,0.578125,-0.181641,0.948792,0.272888,0.158081,0.019043,up
128067,-2.578125,4.925781,7.726562,-0.216797,0.578125,-0.181641,0.948669,0.270813,0.162354,0.019165,up
128073,-2.617188,5.0,7.699219,-0.117188,0.619141,-0.169922,0.948669,0.270813,0.162354,0.019165,up
128079,-2.734375,5.15625,7.699219,-0.117188,0.619141,-0.169922,0.948669,0.270813,0.162354,0.019165,up
128085,-2.734375,5.269531,7.699219,-0.091797,0.65625,-0.134766,0.948669,0.270813,0.162354,0.019165,up
128090,-2.769531,5.269531,7.65625,-0.119141,0.691406,-0.087891,0.948669,0.270813,0.162354,0.019165,up
128096,-2.808594,5.269531,7.65625,-0.119141,0.691406,-0.087891,0.94751,0.268738,0.172058,0.020203,up
128101,-2.808594,5.191406,7.660156,-0.142578,0.732422,-0.050781,0.947266,0.268311,0.173889,0.02063,up
128107,-2.808594,5.078125,7.425781,-0.142578,0.732422,-0.050781,0.947083,0.268005,0.175598,0.021057,up
128112,-2.847656,4.925781,7.421875,-0.142578,0.732422,-0.050781,0.946777,0.267578,0.177551,0.021667,up
128119,-2.925781,4.542969,7.386719,-0.142578,0.732422,-0.050781,0.946777,0.267578,0.177551,0.021667,up
128124,-2.886719,4.503906,7.308594,-0.058594,0.976562,0.066406,0.946777,0.267578,0.177551,0.021667,up
128130,-2.886719,4.273437,7.238281,0.025391,1.072266,0.101563,0.946777,0.267578,0.177551,0.021667,up
128135,-2.847656,4.121094,7.199219,0.238281,1.294922,0.146484,0.945068,0.267212,0.186462,0.024841,up
128140,-2.886719,4.042969,7.039062,0.238281,1.294922,0.146484,0.944275,0.2677,0.189575,0.026062,up
128145,-2.925781,3.929688,6.890625,0.451172,1.564453,0.169922,0.943481,0.268372,0.192688,0.027161,up
128151,-2.960938,3.929688,6.699219,0.451172,1.564453,0.169922,0.941345,0.270386,0.199646,0.02948,up
128156,-3.039063,4.082031,6.507812,0.689453,1.908203,0.169922,0.93988,0.271973,0.204224,0.030945,up
128161,-3.191406,4.234375,6.46875,0.792969,2.091797,0.169922,0.938293,0.273682,0.208984,0.032349,up
128166,-3.382813,4.695312,6.238281,0.792969,2.091797,0.169922,0.938293,0.273682,0.208984,0.032349,up
128171,-3.382813,4.695312,6.238281,0.863281,2.28125,0.152344,0.936768,0.27533,0.21344,0.033569,up
128176,-3.5,5.039062,6.117187,0.863281,2.28125,0.152344,0.934875,0.277222,0.218872,0.035095,up
128182,-3.882813,5.347656,6.007812,0.818359,2.607422,0.152344,0.930786,0.280701,0.231018,0.038513,up
128187,-3.882813,5.347656,6.007812,0.818359,2.607422,0.152344,0.930786,0.280701,0.231018,0.038513,up
128192,-4.265625,5.613281,5.664062,0.505859,2.925781,0.103516,0.926514,0.283142,0.244263,0.042358,up
128198,-4.265625,5.882812,6.007812,0.505859,2.925781,0.103516,0.924377,0.283936,0.250916,0.044312,up
128203,-4.378906,6.035156,6.429687,0.505859,2.925781,0.103516,0.924377,0.283936,0.250916,0.044312,up
128208,-4.457031,5.882812,6.390625,0.308594,2.929688,0.066406,0.924377,0.283936,0.250916,0.044312,up
128214,-4.570312,5.730469,6.433594,0.228516,2.867188,0.068359,0.924377,0.283936,0.250916,0.044312,up
128219,-4.609375,5.539062,6.894531,0.134766,2.744141,0.087891,0.924377,0.283936,0.250916,0.044312,up
128224,-4.609375,5.5,7.003906,0.064453,2.578125,0.121094,0.913879,0.285461,0.283569,0.054504,up
128229,-4.648437,5.460937,7.121094,0.052734,2.398438,0.150391,0.913879,0.285461,0.283569,0.054504,up
128234,-4.761719,5.460937,7.199219,0.082031,2.205078,0.175781,0.913879,0.285461,0.283569,0.054504,up
128239,-4.839844,5.269531,7.34375,0.082031,2.205078,0.175781,0.90863,0.285339,0.298889,0.060303,up
128245,-4.839844,5.191406,7.386719,0.154297,1.759766,0.191406,0.90863,0.285339,0.298889,0.060303,up
128250,-4.839844,5.191406,7.277344,0.25,1.322266,0.173828,0.90863,0.285339,0.298889,0.060303,up
128255,-5.070312,5.230469,6.894531,0.25,1.322266,0.173828,0.904419,0.286194,0.309753,0.064636,up
128260,-5.144531,5.5,6.777344,0.25,1.322266,0.173828,0.903198,0.286865,0.3125,0.065674,up
128266,-5.183594,5.804687,6.734375,0.400391,0.927734,0.134766,0.903198,0.286865,0.3125,0.065674,up
128271,-5.183594,5.804687,6.734375,0.480469,0.736328,0.097656,0.901062,0.288635,0.31665,0.067017,up
128276,-5.300781,6.34375,6.433594,0.513672,0.568359,0.037109,0.900208,0.289673,0.318115,0.0672,up
128281,-5.300781,6.34375,6.433594,0.513672,0.568359,0.037109,0.900208,0.289673,0.318115,0.0672,up
128286,-5.261719,6.453125,6.160156,0.492187,0.417969,-0.041016,0.898865,0.291626,0.320251,0.066833,up
128292,-5.261719,6.453125,6.160156,0.294922,0.207031,-0.300781,0.898437,0.292175,0.320984,0.066223,up
128297,-4.992187,7.335937,5.855469,0.294922,0.207031,-0.300781,0.898254,0.291931,0.322205,0.063843,up
128302,-4.839844,7.457031,5.855469,0.294922,0.207031,-0.300781,0.898621,0.29071,0.322693,0.062073,up
128308,-4.496094,7.492187,5.777344,0.294922,0.207031,-0.300781,0.899292,0.288635,0.32312,0.059937,up
128313,-4.1875,7.296875,5.511719,0.294922,0.207031,-0.300781,0.90033,0.285339,0.323486,0.057495,up
128319,-4.113281,7.183594,5.625,-1.65625,-0.308594,-1.792969,0.90033,0.285339,0.323486,0.057495,up
128324,-3.957031,7.03125,5.703125,-2.044922,-0.371094,-2.041016,0.90033,0.285339,0.323486,0.057495,up
128329,-3.84375,6.574219,5.703125,-2.390625,-0.410156,-2.28125,0.90033,0.285339,0.323486,0.057495,up
128334,-3.921875,6.347656,5.855469,-2.691406,-0.439453,-2.501953,0.90033,0.285339,0.323486,0.057495,up
128339,-3.921875,6.191406,6.046875,-2.939453,-0.486328,-2.701172,0.90033,0.285339,0.323486,0.057495,up
128345,-3.957031,6.113281,6.117187,-2.939453,-0.486328,-2.701172,0.91333,0.242249,0.325317,0.03595,up
128350,-4.457031,5.996094,6.199219,-2.939453,-0.486328,-2.701172,0.91571,0.233337,0.3255,0.031799,up
128355,-4.800781,5.730469,6.355469,-2.939453,-0.486328,-2.701172,0.918274,0.223389,0.325745,0.026978,up
128361,-4.761719,5.386719,6.238281,-3.382813,-0.646484,-3.386719,0.923523,0.201599,0.325989,0.015747,up
128366,-4.800781,5.078125,6.121094,-3.308594,-0.777344,-3.681641,0.923523,0.201599,0.325989,0.015747,up
128371,-4.953125,4.925781,6.851562,-3.138672,-0.84375,-3.767578,0.92572,0.191467,0.325928,0.010071,up
128376,-5.222656,4.734375,7.273437,-3.138672,-0.84375,-3.767578,0.930176,0.170227,0.325317,-0.003479,up
128381,-5.605469,4.617187,7.382812,-3.138672,-0.84375,-3.767578,0.930176,0.170227,0.325317,-0.003479,up
128386,-5.71875,4.925781,7.347656,-3.138672,-0.84375,-3.767578,0.93219,0.159607,0.324646,-0.011169,up
128391,-5.71875,4.925781,7.347656,-2.71875,-1.128906,-4.052734,0.933777,0.151062,0.323914,-0.017883,up
128396,-5.910156,4.886719,7.578125,-2.699219,-1.277344,-4.140625,0.933777,0.151062,0.323914,-0.017883,up
128401,-6.140625,5.191406,7.621094,-2.683594,-1.384766,-4.238281,0.937256,0.13147,0.321228,-0.033875,up
128406,-6.140625,5.191406,7.621094,-2.683594,-1.384766,-4.238281,0.937256,0.13147,0.321228,-0.033875,up
128411,-6.410156,5.804687,7.617187,-2.595703,-1.474609,-4.265625,0.940247,0.112305,0.317444,-0.050415,up
128417,-6.640625,5.460937,7.34375,-2.595703,-1.474609,-4.265625,0.942871,0.09259,0.312744,-0.067383,up
128423,-6.679687,5.269531,7.425781,-2.595703,-1.474609,-4.265625,0.944031,0.08197,0.310303,-0.075867,up
128428,-6.640625,5.191406,7.660156,-3.232422,-1.572266,-4.277344,0.945007,0.071167,0.307983,-0.083801,up
128433,-6.753906,5.308594,8.039063,-3.496094,-1.527344,-4.216797,0.945007,0.071167,0.307983,-0.083801,up
128438,-6.832031,4.390625,8.382813,-3.496094,-1.527344,-4.216797,0.945007,0.071167,0.307983,-0.083801,up
128444,-7.023437,4.121094,8.570313,-3.861328,-1.464844,-4.033203,0.945007,0.071167,0.307983,-0.083801,up
128449,-7.023437,4.121094,8.570313,-4.005859,-1.425781,-3.914063,0.947205,0.022827,0.299316,-0.112488,up
128454,-7.023437,4.121094,8.570313,-4.042969,-1.40625,-3.773438,0.947327,0.009705,0.297241,-0.118835,up
128459,-7.136719,2.816406,8.84375,-4.042969,-1.40625,-3.773438,0.947327,0.009705,0.297241,-0.118835,up
128465,-7.136719,2.816406,8.84375,-4.095703,-1.388672,-3.595703,0.947083,-0.015442,0.293213,-0.129761,up
128471,-7.136719,2.816406,8.84375,-3.707031,-1.150391,-3.017578,0.946716,-0.028076,0.291321,-0.134705,up
128477,-7.328125,0.75,9.757813,-3.707031,-1.150391,-3.017578,0.945557,-0.050781,0.287781,-0.143433,up
128482,-7.40625,0.328125,10.03125,-2.902344,-1.042969,-2.527344,0.944824,-0.06134,0.285828,-0.147766,up
128488,-7.367187,-0.132812,10.488281,-2.902344,-1.042969,-2.527344,0.944336,-0.068665,0.284119,-0.15094,up
128493,-7.367187,-0.515625,10.605469,-2.902344,-1.042969,-2.527344,0.943848,-0.075684,0.281982,-0.154419,up
128499,-7.328125,-0.359375,10.417969,-1.292969,-1.052734,-1.679688,0.943848,-0.075684,0.281982,-0.154419,up
128504,-7.40625,-0.398438,10.222656,-0.751953,-1.03125,-1.373047,0.943848,-0.075684,0.281982,-0.154419,up
128509,-7.40625,-0.398438,10.222656,-0.269531,-0.974609,-1.046875,0.943604,-0.087219,0.274902,-0.162476,up
128514,-7.558594,-0.4375,10.101563,-0.269531,-0.974609,-1.046875,0.943604,-0.087219,0.274902,-0.162476,up
128519,-7.636719,-0.285156,10.070313,0.410156,-0.736328,-0.40625,0.944214,-0.08844,0.270508,-0.165588,up
128524,-7.636719,-0.285156,10.070313,0.410156,-0.736328,-0.40625,0.944214,-0.08844,0.270508,-0.165588,up
128529,-7.75,0.40625,10.144531,0.798828,-0.433594,0.132812,0.944214,-0.08844,0.270508,-0.165588,up
128535,-7.941406,0.902344,10.222656,0.798828,-0.433594,0.132812,0.94574,-0.083984,0.265869,-0.166809,up
128541,-8.019531,1.019531,10.222656,0.830078,-0.050781,0.763672,0.94574,-0.083984,0.265869,-0.166809,up
128546,-8.019531,1.476563,10.339844,0.830078,-0.050781,0.763672,0.946838,-0.079041,0.264526,-0.165283,up
128551,-8.058594,1.4375,10.417969,0.830078,-0.050781,0.763672,0.947327,-0.07666,0.264343,-0.163818,up
128557,-8.132813,1.210938,10.523438,0.488281,0.121094,1.072266,0.948242,-0.072571,0.264893,-0.159363,up
128562,-8.171875,1.324219,10.605469,0.488281,0.121094,1.072266,0.948608,-0.071228,0.265442,-0.156738,up
128568,-8.441406,1.019531,10.601563,0.488281,0.121094,1.072266,0.948975,-0.070312,0.265991,-0.153992,up
128573,-8.554688,0.863281,10.5625,-0.294922,0.085937,1.320313,0.949402,-0.069824,0.266541,-0.150879,up
128578,-8.515625,0.863281,10.453125,-0.515625,0.011719,1.369141,0.949402,-0.069824,0.266541,-0.150879,up
128584,-8.554688,0.828125,10.300781,-0.515625,0.011719,1.369141,0.950195,-0.070312,0.267456,-0.143677,up
128589,-8.554688,0.558594,10.453125,-0.515625,0.011719,1.369141,0.950684,-0.071289,0.2677,-0.139648,up
128594,-8.480469,0.289063,10.375,-1.083984,-0.267578,1.583984,0.950684,-0.071289,0.2677,-0.139648,up
128600,-8.480469,0.097656,10.339844,-1.083984,-0.267578,1.583984,0.951721,-0.074341,0.2677,-0.130554,up
128605,-8.363281,-0.359375,10.101563,-1.083984,-0.267578,1.583984,0.951721,-0.074341,0.2677,-0.130554,up
128610,-8.25,-0.476562,10.035156,-1.382813,-0.537109,1.875,0.951721,-0.074341,0.2677,-0.130554,up
128615,-8.171875,-0.746094,9.953125,-1.425781,-0.621094,1.996094,0.951721,-0.074341,0.2677,-0.130554,up
128621,-8.058594,-1.320313,9.796875,-1.425781,-0.621094,1.996094,0.954346,-0.082764,0.265625,-0.108459,up
128626,-7.980469,-1.511719,9.6875,-1.425781,-0.621094,1.996094,0.955078,-0.084839,0.264832,-0.102234,up
128631,-7.941406,-1.703125,9.609375,-1.369141,-0.734375,2.357422,0.956604,-0.088501,0.263,-0.08905,up
128636,-7.789062,-2.007813,9.457031,-1.369141,-0.734375,2.357422,0.956604,-0.088501,0.263,-0.08905,up
128641,-7.75,-2.046875,9.230469,-1.369141,-0.734375,2.357422,0.957397,-0.089966,0.261902,-0.08197,up
128646,-7.75,-2.007813,9.070313,-1.076172,-0.765625,2.625,0.957397,-0.089966,0.261902,-0.08197,up
128652,-7.519531,-2.125,8.957031,-0.982422,-0.744141,2.707031,0.957397,-0.089966,0.261902,-0.08197,up
128658,-7.484375,-2.429688,8.914063,-0.982422,-0.744141,2.707031,0.960266,-0.092773,0.257996,-0.052734,up
128663,-7.445312,-2.507813,8.847656,-0.828125,-0.5625,2.943359,0.960266,-0.092773,0.257996,-0.052734,up
128668,-7.445312,-2.507813,8.847656,-0.791016,-0.474609,3.033203,0.961243,-0.092957,0.256836,-0.037476,up
128673,-7.328125,-2.660156,8.917969,-0.791016,-0.474609,3.033203,0.961243,-0.092957,0.256836,-0.037476,up
128678,-7.328125,-2.660156,8.917969,-0.748047,-0.394531,3.130859,0.961609,-0.092834,0.256531,-0.029297,up
128683,-6.871094,-3.234375,9.1875,-0.748047,-0.394531,3.130859,0.961853,-0.092529,0.25647,-0.021179,up
128688,-6.871094,-3.234375,9.1875,-0.632812,-0.197266,3.361328,0.962036,-0.091187,0.257141,-0.004028,up
128693,-6.601562,-4.117187,9.613281,-0.632812,-0.197266,3.361328,0.961975,-0.089966,0.257935,0.004761,up
128698,-6.753906,-4.34375,9.6875,-0.632812,-0.197266,3.361328,0.961731,-0.088257,0.259094,0.014099,up
128703,-6.832031,-4.078125,9.496094,-0.064453,0.269531,3.929688,0.961731,-0.088257,0.259094,0.014099,up
128708,-7.023437,-3.960938,9.875,0.132812,0.345703,4.029297,0.961731,-0.088257,0.259094,0.014099,up
128714,-7.253906,-3.347656,9.835938,0.132812,0.345703,4.029297,0.960388,-0.080017,0.263672,0.042419,up
128719,-7.636719,-2.964844,9.648438,0.541016,0.408203,4.15625,0.960388,-0.080017,0.263672,0.042419,up
128724,-7.980469,-2.621094,9.648438,0.695312,0.373047,4.205078,0.960388,-0.080017,0.263672,0.042419,up
128729,-8.25,-1.855469,9.269531,0.695312,0.373047,4.205078,0.958191,-0.067261,0.26886,0.071045,up
128735,-8.402344,-1.472656,9.152344,0.814453,0.228516,4.261719,0.958191,-0.067261,0.26886,0.071045,up
128740,-8.480469,-1.320313,9.03125,0.789062,0.150391,4.277344,0.958191,-0.067261,0.26886,0.071045,up
128745,-8.480469,-0.972656,8.953125,0.699219,0.082031,4.283203,0.958191,-0.067261,0.26886,0.071045,up
128750,-8.441406,-0.628906,8.765625,0.699219,0.082031,4.283203,0.958191,-0.067261,0.26886,0.071045,up
128755,-8.324219,-0.476562,8.609375,0.570312,0.039063,4.283203,0.953186,-0.044189,0.274109,0.119751,up
128760,-8.324219,-0.476562,8.609375,0.199219,0.041016,4.273437,0.951904,-0.040527,0.274658,0.129578,up
128765,-8.253906,-0.4375,8.230469,0.199219,0.041016,4.273437,0.951904,-0.040527,0.274658,0.129578,up
128770,-8.253906,-0.4375,8.230469,-0.179687,0.041016,4.304687,0.948792,-0.034668,0.275818,0.150024,up
128776,-8.214844,-0.515625,7.847656,-0.179687,0.041016,4.304687,0.948792,-0.034668,0.275818,0.150024,up
128781,-8.058594,-0.398438,7.65625,-0.277344,-0.083984,4.376953,0.948792,-0.034668,0.275818,0.150024,up
128786,-8.054688,-0.167969,7.539062,-0.277344,-0.083984,4.376953,0.94342,-0.027161,0.276062,0.181519,up
128791,-8.054688,-0.167969,7.539062,-0.183594,-0.253906,4.451172,0.941467,-0.024414,0.275757,0.192383,up
128796,-8.015625,0.058594,7.425781,-0.136719,-0.345703,4.527344,0.939453,-0.021484,0.275208,0.202942,up
128801,-8.015625,0.058594,7.425781,-0.136719,-0.345703,4.527344,0.939453,-0.021484,0.275208,0.202942,up
128806,-8.015625,0.058594,7.425781,-0.035156,-0.509766,4.728516,0.935181,-0.014893,0.273499,0.224487,up
128812,-8.015625,0.058594,7.425781,0.0,-0.576172,4.861328,0.932739,-0.011292,0.272339,0.235962,up
128817,-7.753906,-0.359375,7.234375,0.0,-0.576172,4.861328,0.927551,-0.003357,0.269653,0.258789,up
128822,-7.792969,-0.285156,7.347656,0.244141,-0.789062,5.201172,0.927551,-0.003357,0.269653,0.258789,up
128827,-7.898437,-0.398438,7.308594,0.244141,-0.789062,5.201172,0.921509,0.005859,0.266235,0.282593,up
128832,-7.980469,-0.398438,7.234375,0.353516,-0.929687,5.355469,0.921509,0.005859,0.266235,0.282593,up
128837,-7.792969,-0.4375,7.195312,0.353516,-0.929687,5.355469,0.914856,0.016113,0.262146,0.306641,up
128842,-7.753906,-0.515625,7.234375,0.353516,-0.929687,5.355469,0.914856,0.016113,0.262146,0.306641,up
128847,-7.597656,-0.667969,7.195312,0.369141,-1.042969,5.447266,0.914856,0.016113,0.262146,0.306641,up
128852,-7.597656,-0.667969,7.195312,0.373047,-1.050781,5.441406,0.907471,0.026794,0.257324,0.330933,up
128857,-7.097656,-0.746094,7.042969,0.396484,-1.039063,5.404297,0.903625,0.032043,0.254883,0.342773,up
128862,-7.097656,-0.746094,7.042969,0.423828,-0.996094,5.34375,0.903625,0.032043,0.254883,0.342773,up
128868,-6.714844,-0.207031,6.921875,0.423828,-0.996094,5.34375,0.899475,0.037537,0.25238,0.354797,up
128873,-6.679687,0.40625,7.078125,0.509766,-0.880859,5.183594,0.890991,0.047913,0.247864,0.377319,up
128878,-6.679687,0.40625,7.078125,0.503906,-0.818359,5.119141,0.886414,0.053284,0.245728,0.388611,up
128883,-6.601562,0.789062,7.238281,0.503906,-0.818359,5.119141,0.876526,0.06366,0.241455,0.411499,up
128888,-6.523437,0.941406,7.238281,0.503906,-0.818359,5.119141,0.872314,0.067749,0.239624,0.420837,up
128893,-6.488281,1.285156,7.421875,0.503906,-0.818359,5.119141,0.872314,0.067749,0.239624,0.420837,up
128898,-6.488281,1.285156,7.421875,0.171875,-0.716797,4.972656,0.872314,0.067749,0.239624,0.420837,up
128904,-6.371094,1.746094,7.542969,0.171875,-0.716797,4.972656,0.8573,0.079956,0.232422,0.452332,up
128909,-6.296875,2.050781,7.660156,-0.037109,-0.923828,4.861328,0.8573,0.079956,0.232422,0.452332,up
128915,-6.296875,2.050781,7.660156,-0.083984,-1.033203,4.808594,0.847107,0.08783,0.226196,0.472778,up
128922,-6.027344,2.050781,7.769531,-0.083984,-1.033203,4.808594,0.847107,0.08783,0.226196,0.472778,up
128927,-5.683594,1.820313,7.804687,-0.160156,-1.279297,4.78125,0.847107,0.08783,0.226196,0.472778,up
128932,-5.414062,1.707031,7.804687,-0.064453,-1.513672,4.767578,0.847107,0.08783,0.226196,0.472778,up
128937,-5.222656,1.515625,7.921875,-0.064453,-1.513672,4.767578,0.826599,0.103882,0.210205,0.511658,up
128943,-4.722656,1.707031,8.003906,0.166016,-1.666016,4.712891,0.82074,0.108887,0.205261,0.521912,up
128949,-4.722656,1.707031,8.003906,0.166016,-1.666016,4.712891,0.810364,0.118469,0.196472,0.539062,up
128954,-4.722656,1.707031,8.003906,0.410156,-1.892578,4.585937,0.804749,0.124146,0.191711,0.547852,up
128959,-4.53125,1.976563,7.464844,0.410156,-1.892578,4.585937,0.804749,0.124146,0.191711,0.547852,up
128964,-4.1875,2.207031,7.078125,0.480469,-1.912109,4.511719,0.799316,0.129883,0.187073,0.55603,up
128969,-4.1875,2.207031,7.078125,0.480469,-1.912109,4.511719,0.799316,0.129883,0.187073,0.55603,up
128975,-3.84375,2.589844,7.039062,0.671875,-1.945313,4.400391,0.782471,0.147888,0.173523,0.579468,up
128980,-3.726563,2.28125,6.921875,0.84375,-1.931641,4.335937,0.782471,0.147888,0.173523,0.579468,up
128985,-3.535156,2.398438,6.851562,0.84375,-1.931641,4.335937,0.77063,0.160645,0.1651,0.594177,up
128991,-3.34375,2.398438,6.851562,0.947266,-1.90625,4.316406,0.77063,0.160645,0.1651,0.594177,up
128996,-3.078125,2.320313,7.039062,0.984375,-1.861328,4.318359,0.77063,0.160645,0.1651,0.594177,up
129002,-2.886719,2.472656,7.121094,1.068359,-1.832031,4.326172,0.77063,0.160645,0.1651,0.594177,up
129007,-2.808594,2.511719,7.273437,1.212891,-1.824219,4.341797,0.77063,0.160645,0.1651,0.594177,up
129012,-2.808594,2.511719,7.273437,1.386719,-1.839844,4.351562,0.738831,0.193787,0.145935,0.628723,up
129017,-2.464844,2.894531,7.382812,1.548828,-1.875,4.351562,0.731995,0.200989,0.1427,0.635132,up
129022,-2.464844,2.894531,7.382812,1.703125,-1.931641,4.371094,0.731995,0.200989,0.1427,0.635132,up
129027,-2.195313,2.550781,7.425781,1.703125,-1.931641,4.371094,0.724731,0.208801,0.139465,0.641663,up
129033,-2.195313,2.550781,7.425781,1.955078,-2.089844,4.394531,0.702209,0.233521,0.130493,0.659851,up
129038,-1.773438,2.359375,7.121094,1.955078,-2.089844,4.394531,0.694336,0.24231,0.127686,0.665527,up
129043,-1.582031,2.398438,6.855469,2.455078,-2.226563,4.458984,0.684998,0.252808,0.124695,0.671814,up
129049,-1.277344,2.550781,6.578125,2.455078,-2.226563,4.458984,0.677551,0.261169,0.122559,0.676514,up
129055,-0.742187,2.894531,6.816406,2.455078,-2.226563,4.458984,0.669006,0.270813,0.120239,0.681641,up
129061,-0.550781,2.933594,7.199219,2.849609,-2.427734,4.523437,0.669006,0.270813,0.120239,0.681641,up
129066,-0.433594,2.855469,7.386719,3.0,-2.521484,4.53125,0.669006,0.270813,0.120239,0.681641,up
129071,-0.433594,2.855469,7.386719,3.130859,-2.546875,4.521484,0.641602,0.302124,0.113403,0.695862,up
129076,-0.164062,3.238281,6.773437,3.130859,-2.546875,4.521484,0.641602,0.302124,0.113403,0.695862,up
129082,-0.242187,3.238281,6.699219,3.244141,-2.628906,4.613281,0.621948,0.323914,0.109314,0.704529,up
129087,-0.242187,3.238281,6.699219,3.271484,-2.75,4.673828,0.611938,0.334839,0.107117,0.708496,up
129092,0.253906,2.28125,6.472656,3.271484,-2.75,4.673828,0.601257,0.346313,0.104675,0.712463,up
129098,0.410156,1.976563,6.351562,3.308594,-2.792969,4.802734,0.601257,0.346313,0.104675,0.712463,up
129103,0.636719,1.746094,6.3125,3.308594,-2.792969,4.802734,0.567749,0.380676,0.096863,0.72345,up
129108,1.058594,2.167969,6.429687,3.308594,-2.792969,4.802734,0.567749,0.380676,0.096863,0.72345,up
129114,1.058594,2.167969,6.429687,3.408203,-2.916016,4.910156,0.557373,0.390869,0.094421,0.726379,up
129119,1.136719,2.28125,6.511719,3.408203,-2.916016,4.910156,0.545837,0.4021,0.091675,0.72937,up
129124,1.441406,1.707031,6.695312,3.490234,-3.080078,4.978516,0.521545,0.42511,0.086121,0.734741,up
129129,1.441406,1.707031,6.695312,3.490234,-3.080078,4.978516,0.521545,0.42511,0.086121,0.734741,up
129134,2.019531,1.054688,5.894531,3.664063,-3.011719,4.90625,0.521545,0.42511,0.086121,0.734741,up
129140,2.363281,2.089844,5.734375,3.65625,-2.941406,4.900391,0.484131,0.458557,0.078735,0.741028,up
129145,2.898438,2.625,5.628906,3.65625,-2.941406,4.900391,0.470886,0.46991,0.076477,0.742676,up
129150,2.898438,2.625,5.628906,3.65625,-2.941406,4.900391,0.470886,0.46991,0.076477,0.742676,up
129156,2.898438,2.625,5.628906,4.0,-3.126953,4.929687,0.444519,0.492249,0.072388,0.744873,up
129162,2.898438,2.625,5.628906,4.09375,-3.134766,4.763672,0.430664,0.503723,0.070496,0.745544,up
129167,3.894531,1.9375,4.898437,4.09375,-3.134766,4.763672,0.430664,0.503723,0.070496,0.745544,up
129172,3.894531,1.9375,4.898437,3.994141,-3.060547,4.615234,0.403931,0.52533,0.067017,0.74585,up
129178,4.199219,3.46875,5.351562,3.685547,-3.269531,4.378906,0.403931,0.52533,0.067017,0.74585,up
129183,4.890625,2.664063,5.664062,3.685547,-3.269531,4.378906,0.36377,0.557678,0.060303,0.743652,up
129188,5.195312,2.511719,5.507812,3.685547,-3.269531,4.378906,0.36377,0.557678,0.060303,0.743652,up
129193,5.195312,2.511719,5.507812,3.027344,-2.712891,3.988281,0.342163,0.574097,0.056091,0.74176,up
129198,5.5,2.589844,5.089844,3.027344,-2.712891,3.988281,0.342163,0.574097,0.056091,0.74176,up
129203,6.15625,2.933594,4.054687,2.691406,-2.607422,3.832031,0.330872,0.582153,0.053406,0.740784,up
129208,6.15625,2.933594,4.054687,2.691406,-2.607422,3.832031,0.330872,0.582153,0.053406,0.740784,up
129213,6.542969,2.742188,3.976563,2.056641,-2.609375,3.478516,0.330872,0.582153,0.053406,0.740784,up
129218,7.148437,2.433594,3.902344,1.849609,-2.554688,3.261719,0.294128,0.609436,0.040283,0.735107,up
129223,7.230469,2.703125,3.863281,1.5625,-2.404297,2.841797,0.285706,0.616028,0.036682,0.733154,up
129228,7.414062,2.625,3.863281,1.5625,-2.404297,2.841797,0.279297,0.621216,0.033691,0.731445,up
129233,7.914062,2.015625,3.710938,1.138672,-2.314453,2.447266,0.279297,0.621216,0.033691,0.731445,up
129238,8.179688,1.859375,3.519531,1.138672,-2.314453,2.447266,0.266479,0.632202,0.026489,0.727051,up
129243,8.21875,1.628906,3.289063,1.138672,-2.314453,2.447266,0.262146,0.63623,0.023376,0.72522,up
129248,8.222656,1.363281,2.980469,1.138672,-2.314453,2.447266,0.262146,0.63623,0.023376,0.72522,up
129253,8.257813,1.054688,2.714844,0.392578,-2.050781,1.900391,0.257507,0.640808,0.019531,0.722961,up
129258,8.339844,0.519531,2.332031,0.207031,-1.976563,1.722656,0.254211,0.644409,0.016113,0.721008,up
129263,8.339844,0.519531,2.332031,0.207031,-1.976563,1.722656,0.254211,0.644409,0.016113,0.721008,up
129268,8.339844,0.519531,2.332031,0.064453,-1.738281,1.142578,0.248413,0.651489,0.009216,0.716736,up
129273,8.339844,0.519531,2.332031,0.064453,-1.738281,1.142578,0.246216,0.654724,0.006226,0.7146,up
129279,9.410156,0.214844,1.21875,0.064453,-1.738281,1.142578,0.242493,0.66095,0.001282,0.710144,up
129284,9.832031,0.328125,1.105469,0.09375,-1.574219,0.617187,0.240967,0.664246,-0.000977,0.707581,up
129289,10.175781,0.828125,0.953125,0.09375,-1.574219,0.617187,0.240051,0.666626,-0.002441,0.705688,up
129295,10.101563,1.171875,0.492187,0.09375,-1.574219,0.617187,0.239319,0.669067,-0.003662,0.703613,up
129300,9.949219,1.171875,0.261719,0.125,-1.001953,0.103516,0.239319,0.669067,-0.003662,0.703613,up
129306,9.683594,1.09375,0.070312,0.177734,-0.841797,-0.080078,0.239319,0.669067,-0.003662,0.703613,up
129311,9.605469,1.132813,-0.007813,0.236328,-0.748047,-0.246094,0.239319,0.669067,-0.003662,0.703613,up
129316,9.527344,1.210938,0.070312,0.236328,-0.748047,-0.246094,0.239319,0.669067,-0.003662,0.703613,up
129321,9.488281,1.402344,0.222656,0.28125,-0.679687,-0.617187,0.239319,0.669067,-0.003662,0.703613,up
129326,9.40625,2.050781,0.339844,0.287109,-0.675781,-0.75,0.239319,0.669067,-0.003662,0.703613,up
129332,9.484375,2.167969,0.300781,0.224609,-0.671875,-0.84375,0.239319,0.669067,-0.003662,0.703613,up
129338,9.601563,2.128906,0.339844,0.095703,-0.689453,-0.886719,0.243713,0.682251,0.001892,0.68927,up
129343,9.601563,2.320313,0.570312,0.095703,-0.689453,-0.886719,0.245544,0.683411,0.002869,0.6875,up
129349,9.5625,2.472656,0.722656,-0.259766,-0.589844,-0.886719,0.247437,0.684326,0.003662,0.685913,up
129354,9.40625,2.550781,0.722656,-0.304688,-0.576172,-0.816406,0.249634,0.685181,0.004333,0.684204,up
129359,9.222656,2.816406,0.492187,-0.304688,-0.576172,-0.816406,0.251648,0.686035,0.004761,0.682678,up
129365,9.339844,3.085938,0.222656,-0.304688,-0.576172,-0.816406,0.253357,0.686646,0.004944,0.681396,up
129370,9.339844,3.085938,0.222656,-0.443359,-0.560547,-0.611328,0.255371,0.687378,0.005005,0.679871,up
129376,9.371094,3.546875,0.222656,-0.443359,-0.560547,-0.611328,0.255371,0.687378,0.005005,0.679871,up
129381,9.367188,4.042969,0.222656,-0.443359,-0.560547,-0.611328,0.258911,0.688477,0.004578,0.67749,up
129386,9.410156,4.121094,0.148437,-0.511719,-0.462891,-0.53125,0.258911,0.688477,0.004578,0.67749,up
129391,9.367188,4.273437,0.109375,-0.433594,-0.435547,-0.554687,0.258911,0.688477,0.004578,0.67749,up
129396,9.300781,4.503906,0.109375,-0.335938,-0.40625,-0.591797,0.258911,0.688477,0.004578,0.67749,up
129402,9.222656,4.65625,0.109375,-0.21875,-0.378906,-0.628906,0.258911,0.688477,0.004578,0.67749,up
129407,9.105469,4.734375,0.148437,-0.101563,-0.330078,-0.662109,0.258911,0.688477,0.004578,0.67749,up
129413,9.066406,4.847656,0.070312,-0.007813,-0.320313,-0.669922,0.269409,0.691772,0.006958,0.669922,up
129418,9.140625,4.964844,0.070312,-0.007813,-0.320313,-0.669922,0.27063,0.692383,0.008057,0.668762,up
129423,9.183594,5.0,0.070312,-0.007813,-0.320313,-0.669922,0.27063,0.692383,0.008057,0.668762,up
129428,9.140625,5.039062,0.109375,-0.128906,-0.398438,-0.619141,0.27063,0.692383,0.008057,0.668762,up
129433,9.140625,5.117187,0.148437,-0.128906,-0.398438,-0.619141,0.272888,0.693542,0.009583,0.666687,up
129438,9.105469,5.078125,0.109375,-0.25,-0.417969,-0.603516,0.27417,0.694031,0.010071,0.665649,up
129443,9.105469,5.078125,0.109375,-0.25,-0.417969,-0.603516,0.27417,0.694031,0.010071,0.665649,up
129448,9.140625,5.039062,0.148437,-0.478516,-0.458984,-0.568359,0.277466,0.694946,0.010254,0.663269,up
129453,9.140625,5.039062,0.148437,-0.550781,-0.480469,-0.568359,0.279358,0.695312,0.010071,0.662109,up
129459,9.21875,5.0,0.261719,-0.603516,-0.492187,-0.556641,0.283325,0.696045,0.009338,0.659668,up
129464,9.222656,4.964844,0.222656,-0.59375,-0.474609,-0.535156,0.285522,0.696472,0.00885,0.658264,up
129470,9.179688,4.964844,0.222656,-0.59375,-0.474609,-0.535156,0.28717,0.696777,0.008606,0.657227,up
129475,9.101563,4.847656,0.109375,-0.59375,-0.474609,-0.535156,0.288879,0.697144,0.008423,0.656128,up
129480,9.179688,4.847656,0.070312,-0.318359,-0.40625,-0.480469,0.288879,0.697144,0.008423,0.656128,up
129485,9.21875,4.925781,0.070312,-0.208984,-0.390625,-0.439453,0.288879,0.697144,0.008423,0.656128,up
129490,9.261719,5.0,0.03125,-0.134766,-0.347656,-0.417969,0.288879,0.697144,0.008423,0.656128,up
129497,9.222656,5.15625,0.03125,-0.134766,-0.347656,-0.417969,0.288879,0.697144,0.008423,0.656128,up
129503,9.101563,5.230469,-0.007813,0.068359,-0.230469,-0.324219,0.288879,0.697144,0.008423,0.656128,up
129508,8.953125,5.347656,-0.007813,0.068359,-0.230469,-0.324219,0.294678,0.699707,0.009827,0.650757,up
129514,8.914063,5.347656,-0.082031,0.117188,-0.201172,-0.300781,0.295288,0.7005,0.010925,0.649597,up
129519,8.875,5.421875,-0.121094,0.095703,-0.175781,-0.240234,0.295593,0.700928,0.011475,0.649048,up
129525,9.027344,5.386719,-0.082031,0.095703,-0.175781,-0.240234,0.295837,0.701172,0.011841,0.64856,up
129530,9.027344,5.386719,-0.007813,-0.076172,-0.173828,-0.181641,0.296204,0.701416,0.012024,0.648132,up
129535,8.988281,5.347656,0.109375,-0.181641,-0.164062,-0.146484,0.296204,0.701416,0.012024,0.648132,up
129541,8.757813,5.230469,0.148437,-0.267578,-0.128906,-0.132812,0.296204,0.701416,0.012024,0.648132,up
129546,8.683594,5.078125,0.070312,-0.267578,-0.128906,-0.132812,0.298096,0.701599,0.011414,0.647095,up
