timestamp,ax,ay,az,gx,gy,gz,qw,qx,qy,qz,label
11229,-3.078125,3.8125,8.5,0.515625,0.351563,0.056641,0.96344,0.217346,0.150879,-0.042358,up
11234,-3.078125,3.851563,8.5,0.515625,0.351563,0.056641,0.963013,0.218628,0.151672,-0.042236,up
11239,-3.078125,3.851563,8.5,0.515625,0.351563,0.056641,0.962646,0.219849,0.152344,-0.042114,up
11244,-3.117188,3.96875,8.460938,0.515625,0.351563,0.056641,0.96228,0.221008,0.153015,-0.041992,up
11249,-3.117188,4.003906,8.460938,0.433594,0.294922,0.074219,0.96228,0.221008,0.153015,-0.041992,up
11255,-3.117188,4.042969,8.425781,0.433594,0.294922,0.074219,0.96228,0.221008,0.153015,-0.041992,up
11261,-3.078125,4.082031,8.382813,0.433594,0.294922,0.074219,0.961243,0.224304,0.154846,-0.041565,up
11266,-3.078125,4.082031,8.382813,0.380859,0.236328,0.056641,0.961243,0.224304,0.154846,-0.041565,up
11271,-3.078125,4.042969,8.460938,0.380859,0.236328,0.056641,0.960632,0.226196,0.155823,-0.041382,up
11277,-3.117188,4.003906,8.460938,0.380859,0.236328,0.056641,0.960632,0.226196,0.155823,-0.041382,up
11282,-3.078125,3.96875,8.460938,0.275391,0.107422,0.068359,0.960632,0.226196,0.155823,-0.041382,up
11287,-3.039063,4.003906,8.460938,0.275391,0.107422,0.068359,0.959961,0.228577,0.156677,-0.041138,up
11292,-3.039063,3.929688,8.386719,0.275391,0.107422,0.068359,0.959595,0.229858,0.156982,-0.040955,up
11297,-3.039063,3.890625,8.304688,0.275391,0.107422,0.068359,0.959595,0.229858,0.156982,-0.040955,up
11302,-3.039063,3.890625,8.347656,0.210937,0.082031,0.091797,0.959595,0.229858,0.156982,-0.040955,up
11307,-3.078125,3.96875,8.308594,0.201172,0.083984,0.099609,0.959595,0.229858,0.156982,-0.040955,up
11312,-3.117188,3.96875,8.34375,0.201172,0.083984,0.099609,0.959167,0.231506,0.157288,-0.040466,up
11318,-3.152344,3.929688,8.347656,0.203125,0.111328,0.091797,0.959167,0.231506,0.157288,-0.040466,up
11323,-3.117188,3.890625,8.304688,0.212891,0.117188,0.091797,0.959167,0.231506,0.157288,-0.040466,up
11329,-3.117188,3.890625,8.265625,0.212891,0.117188,0.091797,0.958557,0.233704,0.158142,-0.039734,up
11334,-3.117188,3.851563,8.269531,0.226562,0.152344,0.0625,0.958374,0.234253,0.158386,-0.039612,up
11339,-3.078125,3.890625,8.191406,0.232422,0.15625,0.042969,0.958191,0.234863,0.158691,-0.039551,up
11344,-3.078125,3.890625,8.148438,0.232422,0.15625,0.042969,0.957947,0.235535,0.159058,-0.039429,up
11349,-3.078125,3.890625,8.082031,0.232422,0.15625,0.042969,0.957947,0.235535,0.159058,-0.039429,up
11354,-3.117188,3.890625,8.109375,0.228516,0.1875,0.015625,0.957581,0.236633,0.15979,-0.039368,up
11360,-3.078125,3.890625,8.082031,0.224609,0.203125,0.001953,0.957336,0.237183,0.160217,-0.039368,up
11365,-3.078125,3.929688,8.082031,0.224609,0.203125,0.001953,0.957153,0.237732,0.160706,-0.039368,up
11371,-3.078125,3.890625,8.109375,0.220703,0.234375,-0.017578,0.957153,0.237732,0.160706,-0.039368,up
11376,-3.117188,3.929688,8.109375,0.242187,0.238281,-0.027344,0.957153,0.237732,0.160706,-0.039368,up
11381,-3.152344,3.929688,8.148438,0.242187,0.238281,-0.027344,0.956421,0.239502,0.162292,-0.039429,up
11386,-3.152344,3.929688,8.082031,0.291016,0.240234,-0.003906,0.956421,0.239502,0.162292,-0.039429,up
11391,-3.152344,3.929688,8.191406,0.320313,0.248047,0.005859,0.956421,0.239502,0.162292,-0.039429,up
11396,-3.152344,3.929688,8.191406,0.353516,0.251953,0.03125,0.956421,0.239502,0.162292,-0.039429,up
11401,-3.269531,4.042969,8.152344,0.353516,0.251953,0.03125,0.956421,0.239502,0.162292,-0.039429,up
11406,-3.308594,4.121094,8.1875,0.353516,0.251953,0.03125,0.954895,0.243774,0.164978,-0.039307,up
11411,-3.308594,4.160156,8.226563,0.482422,0.25,0.083984,0.954895,0.243774,0.164978,-0.039307,up
11416,-3.34375,4.234375,8.230469,0.482422,0.25,0.083984,0.954102,0.246216,0.166016,-0.039063,up
11421,-3.308594,4.351562,8.152344,0.482422,0.25,0.083984,0.954102,0.246216,0.166016,-0.039063,up
11427,-3.34375,4.390625,8.109375,0.548828,0.224609,0.085937,0.954102,0.246216,0.166016,-0.039063,up
11432,-3.269531,4.542969,8.039063,0.548828,0.224609,0.085937,0.95282,0.250366,0.167297,-0.038757,up
11437,-3.230469,4.542969,8.003906,0.539062,0.224609,0.056641,0.95282,0.250366,0.167297,-0.038757,up
11443,-3.230469,4.503906,7.925781,0.503906,0.236328,0.048828,0.95282,0.250366,0.167297,-0.038757,up
11448,-3.269531,4.542969,7.847656,0.427734,0.267578,0.021484,0.95282,0.250366,0.167297,-0.038757,up
11453,-3.152344,4.464844,7.765625,0.427734,0.267578,0.021484,0.950806,0.256165,0.169739,-0.038635,up
11458,-3.117188,4.425781,7.769531,0.427734,0.267578,0.021484,0.950806,0.256165,0.169739,-0.038635,up
11463,-3.117188,4.425781,7.769531,0.373047,0.335938,0.009766,0.950439,0.257141,0.170471,-0.038574,up
11468,-3.078125,4.390625,7.769531,0.373047,0.382813,0.019531,0.950439,0.257141,0.170471,-0.038574,up
11473,-3.0,4.195312,7.804687,0.373047,0.382813,0.019531,0.950439,0.257141,0.170471,-0.038574,up
11478,-3.0,4.195312,7.804687,0.439453,0.533203,0.056641,0.949158,0.260071,0.17334,-0.038086,up
11483,-3.039063,4.003906,7.886719,0.439453,0.533203,0.056641,0.947876,0.262878,0.176025,-0.037415,up
11488,-3.117188,3.890625,7.882812,0.439453,0.533203,0.056641,0.947876,0.262878,0.176025,-0.037415,up
11493,-3.117188,3.890625,7.925781,1.035156,0.876953,0.130859,0.947083,0.264709,0.177612,-0.037048,up
11498,-3.230469,3.8125,7.925781,1.035156,0.876953,0.130859,0.944946,0.269897,0.181396,-0.036255,up
11503,-3.308594,4.003906,7.964844,1.035156,0.876953,0.130859,0.944946,0.269897,0.181396,-0.036255,up
11509,-3.382813,4.160156,7.964844,1.035156,0.876953,0.130859,0.941833,0.277832,0.185791,-0.035706,up
11514,-3.535156,4.464844,7.921875,2.302734,1.1875,0.167969,0.939697,0.283325,0.188293,-0.035522,up
11519,-3.765625,5.347656,7.617187,2.302734,1.1875,0.167969,0.937439,0.289063,0.190674,-0.035461,up
11524,-4.035156,5.84375,7.539062,2.302734,1.1875,0.167969,0.934875,0.295715,0.193237,-0.035461,up
11529,-4.148437,6.265625,7.5,2.302734,1.1875,0.167969,0.932007,0.302917,0.195801,-0.035583,up
11534,-4.226562,6.648437,7.503906,3.277344,1.273438,0.210937,0.92865,0.31134,0.198547,-0.035767,up
11540,-4.339844,7.339844,7.382812,3.277344,1.273438,0.210937,0.925659,0.318604,0.200806,-0.035889,up
11546,-4.53125,7.800781,7.234375,3.277344,1.273438,0.210937,0.922424,0.326416,0.203186,-0.03595,up
11551,-4.570312,7.953125,7.042969,3.197266,1.253906,0.349609,0.922424,0.326416,0.203186,-0.03595,up
11556,-4.570312,8.0625,6.925781,3.033203,1.210938,0.416016,0.922424,0.326416,0.203186,-0.03595,up
11561,-4.53125,8.105469,6.699219,3.033203,1.210938,0.416016,0.922424,0.326416,0.203186,-0.03595,up
11566,-4.53125,8.0625,6.582031,2.554688,1.148438,0.546875,0.922424,0.326416,0.203186,-0.03595,up
11572,-4.496094,8.023438,6.507812,2.292969,1.119141,0.621094,0.922424,0.326416,0.203186,-0.03595,up
11577,-4.378906,7.917969,6.429687,2.292969,1.119141,0.621094,0.904297,0.367065,0.215515,-0.031921,up
11582,-4.339844,7.796875,6.390625,2.292969,1.119141,0.621094,0.904297,0.367065,0.215515,-0.031921,up
11587,-4.339844,7.566406,6.390625,1.822266,1.068359,0.722656,0.904297,0.367065,0.215515,-0.031921,up
11592,-4.339844,7.566406,6.390625,1.478516,1.074219,0.794922,0.89801,0.379944,0.220093,-0.026855,up
11597,-4.378906,7.335937,6.007812,1.402344,1.070313,0.826172,0.89801,0.379944,0.220093,-0.026855,up
11602,-4.378906,7.335937,6.007812,1.380859,1.035156,0.851562,0.894287,0.387268,0.223022,-0.022766,up
11607,-4.304687,7.457031,5.625,1.380859,1.035156,0.851562,0.894287,0.387268,0.223022,-0.022766,up
11612,-4.148437,7.496094,5.625,1.380859,1.035156,0.851562,0.890198,0.395264,0.225891,-0.018433,up
11618,-4.074219,7.496094,5.625,1.380859,1.035156,0.851562,0.888306,0.398865,0.22699,-0.016724,up
11623,-3.957031,7.496094,5.511719,1.640625,0.927734,0.787109,0.886047,0.403198,0.228271,-0.014832,up
11628,-3.921875,7.492187,5.472656,1.640625,0.927734,0.787109,0.884094,0.406982,0.22937,-0.013306,up
11633,-3.765625,7.417969,5.433594,1.652344,0.904297,0.710937,0.884094,0.406982,0.22937,-0.013306,up
11638,-3.726563,7.417969,5.320312,1.652344,0.904297,0.710937,0.879639,0.415222,0.23175,-0.010254,up
11644,-3.691406,7.457031,5.242187,1.494141,0.876953,0.607422,0.879639,0.415222,0.23175,-0.010254,up
11649,-3.652344,7.375,5.242187,1.494141,0.876953,0.607422,0.873047,0.426819,0.235596,-0.005981,up
11654,-3.613281,7.300781,5.242187,1.494141,0.876953,0.607422,0.871399,0.429687,0.236694,-0.004761,up
11659,-3.574219,7.261719,5.164062,1.072266,0.833984,0.560547,0.871399,0.429687,0.236694,-0.004761,up
11664,-3.535156,7.261719,5.089844,0.933594,0.832031,0.546875,0.869568,0.432678,0.237976,-0.003296,up
11669,-3.535156,7.148437,4.898437,0.933594,0.832031,0.546875,0.866577,0.437378,0.240295,-0.000366,up
11674,-3.535156,7.035156,4.972656,0.736328,0.818359,0.544922,0.866577,0.437378,0.240295,-0.000366,up
11679,-3.5,6.914062,4.898437,0.736328,0.818359,0.544922,0.865051,0.439636,0.241577,0.001404,up
11684,-3.5,6.914062,4.898437,0.675781,0.84375,0.527344,0.863953,0.441284,0.242615,0.002869,up
11689,-3.421875,6.878906,4.742187,0.660156,0.853516,0.53125,0.863953,0.441284,0.242615,0.002869,up
11694,-3.421875,6.878906,4.742187,0.654297,0.888672,0.521484,0.861389,0.444824,0.245178,0.006226,up
11699,-3.421875,6.878906,4.742187,0.654297,0.888672,0.521484,0.860107,0.446533,0.246521,0.007874,up
11704,-3.421875,6.796875,4.398437,0.746094,0.953125,0.476562,0.858643,0.448425,0.248047,0.009521,up
11710,-3.421875,6.835937,4.246094,0.8125,0.994141,0.466797,0.855591,0.452393,0.251221,0.012695,up
11716,-3.574219,6.953125,4.132812,0.8125,0.994141,0.466797,0.853821,0.454651,0.253052,0.014221,up
11721,-3.613281,6.992187,4.015625,1.050781,1.070313,0.386719,0.853821,0.454651,0.253052,0.014221,up
11726,-3.613281,6.996094,3.976563,1.109375,1.066406,0.361328,0.853821,0.454651,0.253052,0.014221,up
11732,-3.726563,7.035156,3.902344,1.146484,1.078125,0.324219,0.853821,0.454651,0.253052,0.014221,up
11738,-3.765625,7.070312,3.824219,1.179688,1.085938,0.304688,0.853821,0.454651,0.253052,0.014221,up
11743,-3.996094,7.496094,3.519531,1.197266,1.091797,0.28125,0.841736,0.470032,0.264648,0.021423,up
11748,-4.074219,7.644531,3.632813,1.197266,1.091797,0.28125,0.841736,0.470032,0.264648,0.021423,up
11753,-4.074219,7.683594,3.746094,1.154297,1.015625,0.277344,0.841736,0.470032,0.264648,0.021423,up
11758,-4.074219,7.757812,3.785156,1.154297,1.015625,0.277344,0.837585,0.47522,0.268494,0.023437,up
11764,-4.226562,7.878906,3.785156,1.119141,0.996094,0.277344,0.837585,0.47522,0.268494,0.023437,up
11769,-4.265625,7.839844,3.824219,0.935547,0.882812,0.273438,0.837585,0.47522,0.268494,0.023437,up
11774,-4.265625,7.800781,3.746094,0.826172,0.806641,0.279297,0.831543,0.482483,0.273804,0.026489,up
11780,-4.265625,7.800781,3.746094,0.728516,0.736328,0.259766,0.828491,0.486145,0.27655,0.028381,up
11785,-4.304687,7.644531,3.59375,0.640625,0.646484,0.242187,0.826965,0.487915,0.277893,0.029358,up
11791,-4.226562,7.457031,3.632813,0.640625,0.646484,0.242187,0.825989,0.489075,0.278748,0.030029,up
11797,-4.378906,7.640625,3.402344,0.640625,0.646484,0.242187,0.82489,0.490295,0.279724,0.030701,up
11802,-4.496094,7.640625,3.402344,0.462891,0.466797,0.119141,0.82489,0.490295,0.279724,0.030701,up
11807,-4.457031,7.722656,3.402344,0.433594,0.398438,0.064453,0.82489,0.490295,0.279724,0.030701,up
11812,-4.417969,7.796875,3.363281,0.433594,0.398438,0.064453,0.822327,0.493164,0.282043,0.031799,up
11818,-4.722656,7.917969,3.363281,0.431641,0.208984,-0.125,0.822327,0.493164,0.282043,0.031799,up
11823,-4.761719,7.984375,3.328125,0.431641,0.208984,-0.125,0.820862,0.494812,0.283386,0.031555,up
11829,-4.722656,8.0625,3.363281,0.427734,0.154297,-0.199219,0.819641,0.496277,0.284546,0.030518,up
11834,-4.839844,8.371094,3.363281,0.427734,0.154297,-0.199219,0.819031,0.49707,0.285156,0.029663,up
11839,-4.878906,8.449219,3.441406,0.410156,-0.005859,-0.349609,0.819031,0.49707,0.285156,0.029663,up
11844,-4.878906,8.523438,3.441406,0.410156,-0.005859,-0.349609,0.818542,0.49762,0.285583,0.028809,up
11849,-4.914062,8.5625,3.441406,0.357422,-0.058594,-0.384766,0.818542,0.49762,0.285583,0.028809,up
11854,-4.839844,8.605469,3.480469,0.162109,-0.148437,-0.419922,0.81781,0.498535,0.286316,0.02655,up
11860,-4.839844,8.5625,3.519531,0.162109,-0.148437,-0.419922,0.817627,0.498657,0.286804,0.024231,up
11865,-4.800781,8.40625,3.519531,0.162109,-0.148437,-0.419922,0.817871,0.498291,0.286926,0.022949,up
11871,-4.800781,8.257813,3.554688,0.162109,-0.148437,-0.419922,0.818176,0.497803,0.286926,0.021912,up
11876,-4.761719,8.140625,3.480469,-0.244141,-0.287109,-0.460937,0.818176,0.497803,0.286926,0.021912,up
11882,-4.761719,8.066406,3.441406,-0.289063,-0.298828,-0.472656,0.818176,0.497803,0.286926,0.021912,up
11888,-4.839844,8.027344,3.402344,-0.289063,-0.298828,-0.472656,0.818176,0.497803,0.286926,0.021912,up
11894,-4.878906,8.105469,3.441406,-0.257813,-0.298828,-0.488281,0.818176,0.497803,0.286926,0.021912,up
11899,-4.914062,8.183594,3.480469,-0.173828,-0.28125,-0.501953,0.818176,0.497803,0.286926,0.021912,up
11904,-4.953125,8.183594,3.554688,-0.09375,-0.263672,-0.501953,0.818176,0.497803,0.286926,0.021912,up
11909,-4.914062,8.367188,3.710938,0.111328,-0.267578,-0.453125,0.821533,0.492554,0.286865,0.013428,up
11914,-4.914062,8.5625,3.824219,0.111328,-0.267578,-0.453125,0.821716,0.49231,0.286926,0.012024,up
11919,-4.992187,8.523438,3.746094,0.273438,-0.193359,-0.394531,0.821655,0.49231,0.286926,0.01062,up
11924,-5.070312,8.445313,3.710938,0.273438,-0.193359,-0.394531,0.82135,0.49292,0.287048,0.00824,up
11929,-5.070312,8.445313,3.710938,0.410156,-0.171875,-0.310547,0.82135,0.49292,0.287048,0.00824,up
11934,-4.992187,8.679688,3.710938,0.410156,-0.171875,-0.310547,0.820984,0.493469,0.287109,0.006958,up
11939,-5.03125,8.75,3.59375,0.546875,-0.09375,-0.226562,0.820984,0.493469,0.287109,0.006958,up
11945,-4.992187,8.828125,3.402344,0.546875,-0.09375,-0.226562,0.820007,0.494995,0.287231,0.004883,up
11950,-4.992187,8.949219,3.363281,0.648437,-0.011719,-0.101563,0.818604,0.497314,0.287415,0.003113,up
11956,-5.03125,8.949219,3.328125,0.648437,-0.011719,-0.101563,0.81781,0.498535,0.287537,0.002563,up
11961,-4.992187,8.949219,3.289063,0.648437,-0.011719,-0.101563,0.816833,0.5,0.28772,0.002075,up
11967,-5.03125,8.828125,3.289063,0.867187,0.144531,0.082031,0.816833,0.5,0.28772,0.002075,up
11973,-5.070312,8.792969,3.210938,0.953125,0.189453,0.134766,0.816833,0.5,0.28772,0.002075,up
11978,-5.070312,8.71875,3.058594,0.953125,0.189453,0.134766,0.816833,0.5,0.28772,0.002075,up
11983,-5.070312,8.71875,3.058594,1.140625,0.271484,0.238281,0.811401,0.50824,0.288574,0.001343,up
11988,-5.070312,8.71875,3.058594,1.210938,0.298828,0.273438,0.809753,0.510803,0.288818,0.001404,up
11993,-5.144531,8.644531,3.097656,1.210938,0.298828,0.273438,0.809753,0.510803,0.288818,0.001404,up
11998,-5.183594,8.640625,2.90625,1.269531,0.318359,0.314453,0.809753,0.510803,0.288818,0.001404,up
12004,-5.183594,8.640625,2.90625,1.34375,0.3125,0.376953,0.804077,0.519287,0.28949,0.00177,up
12009,-5.183594,8.722656,2.90625,1.371094,0.289063,0.392578,0.800049,0.525391,0.289612,0.002136,up
12014,-5.070312,8.832031,2.867188,1.371094,0.289063,0.392578,0.800049,0.525391,0.289612,0.002136,up
12019,-5.144531,8.90625,2.828125,1.388672,0.212891,0.414062,0.797729,0.52887,0.289612,0.002319,up
12024,-5.070312,8.949219,2.714844,1.388672,0.212891,0.414062,0.795959,0.531616,0.28949,0.00238,up
12029,-4.953125,8.910156,2.597656,1.359375,0.173828,0.417969,0.795959,0.531616,0.28949,0.00238,up
12034,-4.914062,8.910156,2.636719,1.359375,0.173828,0.417969,0.791992,0.53772,0.289124,0.002563,up
12039,-4.800781,8.988281,2.636719,1.257813,0.09375,0.417969,0.791992,0.53772,0.289124,0.002563,up
12045,-4.6875,8.949219,2.597656,1.207031,0.058594,0.404297,0.791992,0.53772,0.289124,0.002563,up
12051,-4.53125,8.828125,2.523438,1.207031,0.058594,0.404297,0.785339,0.548279,0.287415,0.002625,up
12056,-4.53125,8.75,2.523438,0.980469,-0.03125,0.375,0.785339,0.548279,0.287415,0.002625,up
12061,-4.53125,8.75,2.523438,0.898437,-0.046875,0.367188,0.782654,0.552673,0.286316,0.002625,up
12066,-4.304687,8.484375,2.523438,0.898437,-0.046875,0.367188,0.781555,0.554565,0.285706,0.002686,up
12071,-4.265625,8.40625,2.558594,0.746094,-0.080078,0.335938,0.781555,0.554565,0.285706,0.002686,up
12076,-4.1875,8.300781,2.558594,0.677734,-0.09375,0.326172,0.781555,0.554565,0.285706,0.002686,up
12081,-4.148437,8.179688,2.523438,0.615234,-0.095703,0.3125,0.778687,0.559509,0.283813,0.002747,up
12087,-4.035156,7.957031,2.523438,0.615234,-0.095703,0.3125,0.777954,0.560852,0.283203,0.002747,up
12092,-3.957031,7.878906,2.484375,0.482422,-0.113281,0.265625,0.777954,0.560852,0.283203,0.002747,up
12098,-3.84375,7.796875,2.523438,0.441406,-0.117188,0.244141,0.777954,0.560852,0.283203,0.002747,up
12103,-3.765625,7.601562,2.523438,0.398438,-0.115234,0.226562,0.777954,0.560852,0.283203,0.002747,up
12109,-3.765625,7.5625,2.523438,0.361328,-0.115234,0.181641,0.777954,0.560852,0.283203,0.002747,up
12114,-3.691406,7.492187,2.523438,0.320313,-0.119141,0.111328,0.777954,0.560852,0.283203,0.002747,up
12119,-3.652344,7.496094,2.523438,0.320313,-0.119141,0.111328,0.774963,0.566467,0.280151,0.002563,up
12124,-3.652344,7.566406,2.558594,0.320313,-0.119141,0.111328,0.774292,0.567749,0.27948,0.002136,up
12129,-3.613281,7.566406,2.558594,0.320313,-0.119141,0.111328,0.774292,0.567749,0.27948,0.002136,up
12134,-3.574219,7.566406,2.597656,0.21875,-0.125,-0.029297,0.774292,0.567749,0.27948,0.002136,up
12139,-3.652344,7.5625,2.597656,0.21875,-0.125,-0.029297,0.773743,0.568726,0.278992,0.001465,up
12145,-3.652344,7.605469,2.675781,0.21875,-0.125,-0.029297,0.773437,0.569397,0.278625,0.000488,up
12150,-3.726563,7.5625,2.753906,0.083984,-0.212891,-0.123047,0.773376,0.569519,0.278442,-6.1e-05,up
12155,-3.726563,7.496094,2.828125,0.083984,-0.212891,-0.123047,0.773376,0.569519,0.278442,-6.1e-05,up
12160,-3.804688,7.375,2.867188,0.083984,-0.212891,-0.123047,0.773682,0.569397,0.277893,-0.001282,up
12165,-3.804688,7.257812,2.867188,-0.089844,-0.404297,-0.228516,0.773682,0.569397,0.277893,-0.001282,up
12170,-3.84375,7.261719,3.019531,-0.089844,-0.404297,-0.228516,0.774475,0.568726,0.276978,-0.003235,up
12175,-3.84375,7.261719,3.210938,-0.089844,-0.404297,-0.228516,0.775024,0.568298,0.276367,-0.004395,up
12180,-3.921875,7.378906,3.097656,-0.189453,-0.683594,-0.386719,0.775757,0.567627,0.275635,-0.005981,up
12185,-3.996094,7.496094,3.019531,-0.189453,-0.683594,-0.386719,0.776489,0.567017,0.27478,-0.007568,up
12190,-3.996094,7.878906,3.058594,-0.1875,-0.90625,-0.480469,0.776489,0.567017,0.27478,-0.007568,up
12196,-3.996094,8.140625,3.097656,-0.1875,-0.90625,-0.480469,0.778259,0.565552,0.272644,-0.011719,up
12201,-3.996094,8.140625,3.097656,-0.158203,-1.085938,-0.556641,0.779175,0.564819,0.271362,-0.01416,up
12206,-4.074219,8.222656,3.019531,-0.189453,-1.144531,-0.595703,0.780273,0.563965,0.269897,-0.016968,up
12212,-4.074219,8.261719,2.789063,-0.189453,-1.144531,-0.595703,0.781189,0.563171,0.268677,-0.019348,up
12218,-4.074219,8.261719,2.675781,-0.345703,-1.232422,-0.632812,0.781189,0.563171,0.268677,-0.019348,up
12223,-4.074219,8.140625,2.675781,-0.458984,-1.255859,-0.658203,0.781189,0.563171,0.268677,-0.019348,up
12228,-3.996094,8.222656,2.753906,-0.585937,-1.271484,-0.703125,0.781189,0.563171,0.268677,-0.019348,up
12233,-3.996094,8.0625,2.675781,-0.585937,-1.271484,-0.703125,0.781189,0.563171,0.268677,-0.019348,up
12238,-3.957031,8.027344,2.558594,-0.585937,-1.271484,-0.703125,0.788757,0.555359,0.261414,-0.03302,up
12244,-3.957031,8.027344,2.558594,-0.90625,-1.166016,-0.8125,0.790649,0.55304,0.260254,-0.035645,up
12249,-3.921875,7.914062,2.523438,-0.96875,-1.117188,-0.851562,0.790649,0.55304,0.260254,-0.035645,up
12254,-3.921875,7.914062,2.523438,-1.003906,-1.060547,-0.880859,0.790649,0.55304,0.260254,-0.035645,up
12260,-3.921875,7.757812,2.523438,-1.003906,-1.060547,-0.880859,0.794617,0.547852,0.258362,-0.040833,up
12265,-3.921875,7.757812,2.523438,-0.966797,-0.949219,-0.933594,0.798462,0.54248,0.25708,-0.045898,up
12271,-3.957031,7.878906,2.523438,-0.966797,-0.949219,-0.933594,0.801819,0.537354,0.256409,-0.050842,up
12277,-4.148437,8.105469,2.558594,-0.966797,-0.949219,-0.933594,0.803345,0.534912,0.256348,-0.053345,up
12283,-4.378906,8.296875,2.636719,-0.740234,-0.685547,-1.033203,0.803345,0.534912,0.256348,-0.053345,up
12288,-4.457031,8.484375,2.714844,-0.693359,-0.630859,-1.058594,0.803345,0.534912,0.256348,-0.053345,up
12293,-4.570312,8.679688,2.753906,-0.658203,-0.585937,-1.083984,0.803345,0.534912,0.256348,-0.053345,up
12298,-4.6875,8.789063,2.753906,-0.671875,-0.521484,-1.111328,0.803345,0.534912,0.256348,-0.053345,up
12303,-4.800781,8.90625,2.675781,-0.671875,-0.521484,-1.111328,0.809143,0.523926,0.257874,-0.065796,up
12309,-4.878906,9.0625,2.789063,-0.671875,-0.521484,-1.111328,0.809143,0.523926,0.257874,-0.065796,up
12314,-4.914062,9.023438,2.675781,-0.671875,-0.521484,-1.111328,0.811523,0.518738,0.25946,-0.07074,up
12320,-4.914062,9.027344,2.597656,-1.109375,-0.287109,-1.027344,0.811523,0.518738,0.25946,-0.07074,up
12325,-4.914062,8.832031,2.753906,-1.232422,-0.240234,-0.988281,0.813965,0.51355,0.261108,-0.074341,up
12330,-4.878906,8.722656,2.753906,-1.232422,-0.240234,-0.988281,0.815613,0.510132,0.262207,-0.076111,up
12335,-4.800781,8.40625,2.828125,-1.417969,-0.144531,-0.923828,0.817261,0.506775,0.263245,-0.077515,up
12340,-4.722656,8.371094,2.90625,-1.417969,-0.144531,-0.923828,0.818848,0.503418,0.264343,-0.078674,up
12345,-4.722656,8.21875,2.90625,-1.417969,-0.144531,-0.923828,0.820435,0.500122,0.265442,-0.079651,up
12350,-4.648437,8.0625,2.945313,-1.513672,-0.019531,-0.894531,0.823914,0.492432,0.268311,-0.081421,up
12355,-4.648437,7.761719,3.097656,-1.513672,-0.019531,-0.894531,0.823914,0.492432,0.268311,-0.081421,up
12360,-4.609375,7.683594,3.25,-1.474609,0.179687,-0.875,0.825562,0.48877,0.269836,-0.082092,up
12365,-4.570312,7.535156,3.289063,-1.474609,0.179687,-0.875,0.827148,0.485046,0.271606,-0.082703,up
12370,-4.570312,7.535156,3.289063,-1.345703,0.318359,-0.898437,0.82843,0.48175,0.273254,-0.083191,up
12375,-4.570312,7.378906,3.328125,-1.345703,0.318359,-0.898437,0.82843,0.48175,0.273254,-0.083191,up
12380,-4.570312,6.796875,3.25,-1.345703,0.318359,-0.898437,0.82843,0.48175,0.273254,-0.083191,up
12385,-4.570312,6.796875,3.25,-1.232422,0.4375,-0.935547,0.831848,0.471863,0.279541,-0.084839,up
12391,-4.648437,6.609375,3.710938,-1.232422,0.4375,-0.935547,0.833557,0.465637,0.284485,-0.086182,up
12397,-4.800781,6.796875,3.671875,-1.232422,0.4375,-0.935547,0.834167,0.463013,0.286865,-0.086731,up
12402,-4.800781,6.796875,3.671875,-0.970703,0.607422,-1.046875,0.834717,0.4599,0.289917,-0.087585,up
12408,-4.992187,7.035156,3.554688,-0.970703,0.607422,-1.046875,0.834717,0.4599,0.289917,-0.087585,up
12414,-5.109375,7.335937,3.59375,-0.970703,0.607422,-1.046875,0.835449,0.455017,0.294922,-0.089111,up
12419,-5.183594,7.53125,3.746094,-0.919922,0.589844,-1.085938,0.835449,0.455017,0.294922,-0.089111,up
12424,-5.300781,7.640625,3.824219,-0.960937,0.554687,-1.072266,0.835449,0.455017,0.294922,-0.089111,up
12430,-5.453125,7.722656,4.054687,-1.041016,0.525391,-1.050781,0.837341,0.443909,0.30542,-0.092468,up
12435,-5.527344,7.679687,4.054687,-1.041016,0.525391,-1.050781,0.837341,0.443909,0.30542,-0.092468,up
12440,-5.605469,7.640625,4.132812,-1.328125,0.441406,-1.003906,0.837341,0.443909,0.30542,-0.092468,up
12445,-5.796875,7.378906,3.976563,-1.507813,0.416016,-0.980469,0.837341,0.443909,0.30542,-0.092468,up
12450,-5.910156,7.183594,3.976563,-1.507813,0.416016,-0.980469,0.840271,0.432983,0.312439,-0.093933,up
12455,-5.949219,6.957031,3.976563,-1.990234,0.369141,-0.917969,0.841797,0.428162,0.314941,-0.094055,up
12460,-5.988281,6.6875,4.015625,-1.990234,0.369141,-0.917969,0.843323,0.423462,0.3172,-0.094055,up
12465,-6.066406,6.226562,4.132812,-1.990234,0.369141,-0.917969,0.844971,0.418579,0.319397,-0.093994,up
12470,-6.140625,6.191406,4.324219,-2.082031,0.376953,-0.935547,0.846436,0.414062,0.321472,-0.093933,up
12475,-6.140625,5.996094,4.476562,-2.082031,0.376953,-0.935547,0.848145,0.40863,0.323853,-0.093811,up
12480,-6.21875,5.960937,4.398437,-1.871094,0.408203,-1.025391,0.84967,0.403625,0.326111,-0.09375,up
12486,-6.261719,5.996094,4.476562,-1.871094,0.408203,-1.025391,0.852173,0.394409,0.330688,-0.094177,up
12491,-6.296875,5.921875,4.550781,-1.630859,0.455078,-1.134766,0.853333,0.389526,0.333374,-0.094727,up
12496,-6.367187,5.960937,4.589844,-1.490234,0.466797,-1.183594,0.854187,0.385254,0.335938,-0.095459,up
12501,-6.488281,5.960937,4.550781,-1.490234,0.466797,-1.183594,0.854187,0.385254,0.335938,-0.095459,up
12506,-6.488281,5.960937,4.550781,-1.404297,0.5,-1.224609,0.854797,0.381714,0.338135,-0.096191,up
12511,-6.527344,5.996094,4.550781,-1.404297,0.5,-1.224609,0.855408,0.377869,0.340698,-0.097168,up
12517,-6.644531,6.074219,4.628906,-1.355469,0.548828,-1.267578,0.856384,0.370117,0.34613,-0.099182,up
12522,-6.644531,6.074219,4.628906,-1.355469,0.548828,-1.267578,0.856384,0.370117,0.34613,-0.099182,up
12528,-6.792969,6.113281,4.898437,-1.458984,0.591797,-1.232422,0.857422,0.361877,0.351624,-0.100769,up
12534,-6.871094,5.769531,5.164062,-1.675781,0.605469,-1.121094,0.857422,0.361877,0.351624,-0.100769,up
12540,-6.910156,5.269531,5.164062,-1.773438,0.59375,-1.046875,0.857422,0.361877,0.351624,-0.100769,up
12545,-7.027344,4.925781,5.203125,-1.896484,0.582031,-0.927734,0.857422,0.361877,0.351624,-0.100769,up
12550,-7.023437,4.964844,5.203125,-1.896484,0.582031,-0.927734,0.860474,0.343628,0.362244,-0.101379,up
12555,-7.066406,4.886719,5.242187,-1.875,0.556641,-0.884766,0.860474,0.343628,0.362244,-0.101379,up
12560,-7.023437,4.773437,5.320312,-1.875,0.556641,-0.884766,0.862183,0.334167,0.367188,-0.10083,up
12565,-7.023437,4.773437,5.320312,-1.693359,0.525391,-0.880859,0.862976,0.329407,0.36969,-0.100647,up
12571,-7.0625,4.503906,5.472656,-1.568359,0.490234,-0.884766,0.864136,0.321472,0.373901,-0.100708,up
12576,-7.097656,4.464844,5.355469,-1.568359,0.490234,-0.884766,0.864624,0.317261,0.37616,-0.101013,up
12581,-7.171875,4.542969,5.355469,-1.568359,0.490234,-0.884766,0.865051,0.313904,0.37793,-0.101563,up
12586,-7.175781,4.734375,5.511719,-1.246094,0.285156,-1.082031,0.865479,0.309998,0.379944,-0.102417,up
12592,-7.066406,4.925781,5.546875,-1.246094,0.285156,-1.082031,0.865906,0.30658,0.381531,-0.103333,up
12597,-7.097656,4.886719,5.355469,-1.367188,0.166016,-1.216797,0.866394,0.302673,0.383179,-0.104431,up
12603,-7.09375,4.773437,5.355469,-1.535156,0.117188,-1.261719,0.867065,0.298218,0.384827,-0.105652,up
12609,-7.09375,4.734375,5.355469,-1.703125,0.080078,-1.28125,0.867065,0.298218,0.384827,-0.105652,up
12614,-7.136719,4.582031,5.472656,-1.703125,0.080078,-1.28125,0.867065,0.298218,0.384827,-0.105652,up
12620,-7.175781,4.425781,5.472656,-2.011719,0.044922,-1.220703,0.867065,0.298218,0.384827,-0.105652,up
12625,-7.175781,4.425781,5.472656,-2.126953,0.027344,-1.154297,0.87085,0.277344,0.390991,-0.109009,up
12630,-7.253906,3.929688,5.625,-2.126953,0.027344,-1.154297,0.87085,0.277344,0.390991,-0.109009,up
12635,-7.328125,3.394531,5.777344,-2.193359,0.009766,-1.072266,0.87323,0.265686,0.393677,-0.109375,up
12640,-7.328125,3.394531,5.777344,-2.193359,0.009766,-1.072266,0.87323,0.265686,0.393677,-0.109375,up
12645,-7.410156,2.625,6.046875,-1.791016,-0.0625,-0.740234,0.87323,0.265686,0.393677,-0.109375,up
12650,-7.519531,2.359375,6.085937,-1.791016,-0.0625,-0.740234,0.876587,0.249634,0.396667,-0.108948,up
12656,-7.484375,2.550781,6.160156,-1.152344,-0.140625,-0.691406,0.876587,0.249634,0.396667,-0.108948,up
12661,-7.488281,2.589844,6.238281,-1.152344,-0.140625,-0.691406,0.878906,0.238464,0.398315,-0.109802,up
12666,-7.636719,2.742188,6.429687,-1.152344,-0.140625,-0.691406,0.878906,0.238464,0.398315,-0.109802,up
12671,-7.59375,2.972656,6.429687,-0.441406,-0.345703,-0.740234,0.879333,0.236145,0.398438,-0.110657,up
12676,-7.59375,3.085938,6.277344,-0.441406,-0.345703,-0.740234,0.880188,0.2323,0.398071,-0.113525,up
12681,-7.488281,3.394531,6.199219,-0.441406,-0.345703,-0.740234,0.880188,0.2323,0.398071,-0.113525,up
12687,-7.488281,3.394531,6.199219,-0.320313,-0.509766,-0.791016,0.881042,0.229065,0.397034,-0.116882,up
12692,-7.210937,3.585938,5.738281,-0.320313,-0.509766,-0.791016,0.88147,0.227417,0.396545,-0.118347,up
12697,-7.171875,3.546875,5.585937,-0.560547,-0.498047,-0.771484,0.88147,0.227417,0.396545,-0.118347,up
12702,-7.027344,3.394531,5.511719,-0.560547,-0.498047,-0.771484,0.882629,0.223083,0.395569,-0.121216,up
12708,-6.792969,3.125,5.355469,-0.560547,-0.498047,-0.771484,0.883301,0.220398,0.395264,-0.122253,up
12713,-6.644531,2.855469,5.203125,-1.042969,-0.347656,-0.716797,0.883301,0.220398,0.395264,-0.122253,up
12719,-6.566406,2.550781,5.164062,-1.042969,-0.347656,-0.716797,0.884705,0.21405,0.395142,-0.12384,up
12724,-6.488281,2.359375,5.128906,-1.042969,-0.347656,-0.716797,0.885315,0.210876,0.395325,-0.124329,up
12729,-6.296875,2.28125,5.164062,-1.119141,-0.150391,-0.730469,0.885315,0.210876,0.395325,-0.124329,up
12734,-6.183594,2.089844,5.242187,-1.0625,-0.107422,-0.761719,0.885315,0.210876,0.395325,-0.124329,up
12739,-6.183594,1.785156,5.164062,-1.0625,-0.107422,-0.761719,0.885315,0.210876,0.395325,-0.124329,up
12744,-6.183594,1.785156,5.164062,-1.0625,-0.107422,-0.761719,0.886902,0.198364,0.397339,-0.127136,up
12749,-6.183594,1.785156,5.164062,-0.78125,0.064453,-0.904297,0.887024,0.195679,0.398132,-0.128174,up
12754,-6.140625,1.785156,5.472656,-0.78125,0.064453,-0.904297,0.887024,0.193176,0.398987,-0.129456,up
12759,-6.21875,1.859375,5.546875,-0.78125,0.064453,-0.904297,0.887024,0.193176,0.398987,-0.129456,up
12764,-6.21875,1.859375,5.546875,-0.582031,0.111328,-1.119141,0.886719,0.188232,0.400818,-0.132629,up
12770,-6.328125,2.511719,5.929687,-0.582031,0.111328,-1.119141,0.886719,0.188232,0.400818,-0.132629,up
12776,-6.484375,2.589844,5.816406,-0.488281,-0.042969,-1.373047,0.886719,0.188232,0.400818,-0.132629,up
12781,-6.644531,2.742188,5.855469,-0.488281,-0.042969,-1.373047,0.885925,0.178467,0.40387,-0.142029,up
12786,-6.792969,2.855469,5.96875,-0.5625,-0.248047,-1.466797,0.885925,0.178467,0.40387,-0.142029,up
12791,-7.066406,2.664063,5.703125,-0.5625,-0.248047,-1.466797,0.885864,0.172791,0.404541,-0.147522,up
12796,-7.214844,2.472656,5.777344,-0.736328,-0.457031,-1.515625,0.885864,0.172791,0.404541,-0.147522,up
12801,-7.25,2.589844,6.199219,-0.736328,-0.457031,-1.515625,0.88623,0.16626,0.404358,-0.153076,up
12806,-7.175781,2.472656,5.816406,-0.736328,-0.457031,-1.515625,0.88623,0.16626,0.404358,-0.153076,up
12811,-7.292969,2.359375,5.855469,-0.785156,-0.613281,-1.568359,0.886536,0.162476,0.403931,-0.156311,up
12816,-7.214844,2.167969,5.894531,-0.785156,-0.613281,-1.568359,0.887207,0.155273,0.403137,-0.16217,up
12821,-7.410156,1.898438,5.929687,-0.785156,-0.613281,-1.568359,0.887207,0.155273,0.403137,-0.16217,up
12826,-7.253906,1.707031,5.738281,-0.857422,-0.537109,-1.568359,0.887451,0.151611,0.402771,-0.164978,up
12831,-7.25,1.363281,5.816406,-0.857422,-0.537109,-1.568359,0.887695,0.148193,0.402466,-0.167542,up
12836,-7.132812,1.210938,5.855469,-0.765625,-0.439453,-1.576172,0.887878,0.143982,0.402222,-0.170715,up
12841,-7.09375,1.171875,6.007812,-0.765625,-0.439453,-1.576172,0.887939,0.140564,0.4021,-0.173462,up
12847,-6.949219,1.019531,6.046875,-0.765625,-0.439453,-1.576172,0.887817,0.134338,0.401978,-0.179321,up
12852,-7.0625,0.863281,5.738281,-0.439453,-0.271484,-1.701172,0.887512,0.131165,0.4021,-0.182983,up
12857,-7.136719,0.863281,5.625,-0.292969,-0.234375,-1.759766,0.887024,0.128418,0.402283,-0.186584,up
12863,-7.175781,1.515625,5.96875,-0.292969,-0.234375,-1.759766,0.886597,0.126282,0.402466,-0.18988,up
12868,-7.136719,1.898438,6.046875,-0.046875,-0.15625,-1.847656,0.886597,0.126282,0.402466,-0.18988,up
12873,-7.097656,2.207031,5.894531,0.09375,-0.142578,-1.859375,0.886597,0.126282,0.402466,-0.18988,up
12878,-7.214844,2.128906,6.351562,0.119141,-0.158203,-1.857422,0.886597,0.126282,0.402466,-0.18988,up
12883,-7.214844,2.128906,6.351562,0.119141,-0.158203,-1.857422,0.883545,0.118774,0.403198,-0.206482,up
12888,-7.214844,2.128906,6.351562,0.115234,-0.300781,-1.84375,0.882812,0.117004,0.403076,-0.210876,up
12893,-7.171875,2.089844,6.582031,0.115234,-0.300781,-1.84375,0.882812,0.117004,0.403076,-0.210876,up
12899,-7.171875,2.089844,6.582031,0.025391,-0.382813,-1.802734,0.881592,0.11322,0.402405,-0.219055,up
12904,-7.097656,2.242188,6.773437,0.025391,-0.382813,-1.802734,0.881592,0.11322,0.402405,-0.219055,up
12910,-6.828125,0.980469,6.542969,-0.492187,-0.544922,-1.712891,0.881592,0.11322,0.402405,-0.219055,up
12916,-6.527344,0.558594,6.351562,-0.519531,-0.533203,-1.728516,0.881592,0.11322,0.402405,-0.219055,up
12921,-6.328125,-0.054687,6.238281,-0.609375,-0.369141,-1.845703,0.880188,0.101685,0.400513,-0.233521,up
12926,-6.328125,-0.628906,5.855469,-0.609375,-0.369141,-1.845703,0.8797,0.098389,0.40033,-0.236938,up
12931,-6.144531,-0.78125,5.472656,-0.554687,-0.220703,-1.955078,0.8797,0.098389,0.40033,-0.236938,up
12936,-6.144531,-0.78125,5.472656,-0.554687,-0.220703,-1.955078,0.87677,0.088928,0.401855,-0.248779,up
12941,-6.027344,-1.433594,5.355469,-0.554687,-0.220703,-1.955078,0.87677,0.088928,0.401855,-0.248779,up
12946,-6.140625,-1.394531,5.203125,0.019531,0.435547,-2.34375,0.87677,0.088928,0.401855,-0.248779,up
12951,-6.40625,-0.324219,5.164062,0.279297,0.623047,-2.482422,0.87677,0.088928,0.401855,-0.248779,up
12956,-6.371094,0.75,5.394531,0.279297,0.623047,-2.482422,0.870483,0.083557,0.406494,-0.264587,up
12961,-6.601562,1.285156,5.894531,0.279297,0.623047,-2.482422,0.867432,0.082947,0.40863,-0.271362,up
12966,-6.90625,1.554688,6.085937,0.974609,1.019531,-2.640625,0.86145,0.083008,0.41272,-0.284058,up
12971,-7.253906,2.089844,6.121094,0.974609,1.019531,-2.640625,0.86145,0.083008,0.41272,-0.284058,up
12976,-7.519531,2.207031,6.199219,0.59375,0.982422,-2.302734,0.858398,0.08313,0.414856,-0.2901,up
12981,-7.410156,2.089844,6.621094,0.59375,0.982422,-2.302734,0.855347,0.082947,0.417053,-0.295898,up
12986,-7.410156,2.089844,6.621094,0.302734,0.867187,-2.125,0.852844,0.082336,0.419006,-0.300476,up
12991,-7.902344,1.09375,7.273437,0.023437,0.732422,-1.972656,0.852844,0.082336,0.419006,-0.300476,up
12996,-7.902344,1.09375,7.273437,-0.195312,0.583984,-1.794922,0.848328,0.079468,0.422852,-0.308655,up
13001,-7.871094,0.289063,7.695312,-0.195312,0.583984,-1.794922,0.846497,0.077576,0.424438,-0.31189,up
13006,-7.871094,0.289063,7.695312,-0.261719,0.318359,-1.474609,0.84491,0.075562,0.425781,-0.314819,up
13011,-8.28125,0.023437,7.808594,-0.261719,0.318359,-1.474609,0.843567,0.073853,0.426758,-0.317505,up
13016,-8.4375,0.136719,7.65625,-0.261719,0.318359,-1.474609,0.842346,0.072388,0.427551,-0.320068,up
13021,-8.441406,0.328125,7.425781,0.210937,0.275391,-0.917969,0.842346,0.072388,0.427551,-0.320068,up
13026,-8.671875,-0.015625,7.042969,0.210937,0.275391,-0.917969,0.840149,0.07074,0.428711,-0.324585,up
13031,-8.742188,-0.207031,6.890625,0.210937,0.275391,-0.917969,0.83905,0.070618,0.429382,-0.326538,up
13037,-8.9375,-0.285156,6.660156,0.466797,0.675781,-0.583984,0.83905,0.070618,0.429382,-0.326538,up
13042,-9.054688,-0.285156,6.699219,0.466797,0.675781,-0.583984,0.835327,0.072693,0.432434,-0.331604,up
13048,-9.703125,-0.324219,6.621094,0.466797,0.675781,-0.583984,0.833923,0.073975,0.433838,-0.332886,up
13053,-9.863281,-0.515625,6.773437,0.552734,1.095703,-0.386719,0.833923,0.073975,0.433838,-0.332886,up
13058,-10.011719,-0.554687,6.773437,0.533203,1.203125,-0.341797,0.833923,0.073975,0.433838,-0.332886,up
13063,-10.203125,-0.589844,6.773437,0.533203,1.292969,-0.298828,0.829041,0.078979,0.439819,-0.336243,up
13069,-10.65625,-0.246094,6.8125,0.533203,1.292969,-0.298828,0.827148,0.080933,0.442261,-0.337158,up
13074,-10.929688,-0.015625,6.890625,0.494141,1.447266,-0.283203,0.827148,0.080933,0.442261,-0.337158,up
13080,-11.195313,0.40625,6.773437,0.451172,1.488281,-0.25,0.827148,0.080933,0.442261,-0.337158,up
13085,-11.390625,0.632812,7.003906,0.451172,1.488281,-0.25,0.82135,0.086609,0.450256,-0.339294,up
13091,-11.660156,0.941406,7.195312,0.179687,1.384766,0.013672,0.82135,0.086609,0.450256,-0.339294,up
13096,-11.84375,0.789062,7.386719,0.179687,1.384766,0.013672,0.81781,0.090027,0.45575,-0.339661,up
13101,-11.886719,0.632812,7.425781,0.179687,1.384766,0.013672,0.816284,0.091492,0.458435,-0.339294,up
13106,-11.882813,0.480469,7.425781,0.179687,1.384766,0.013672,0.815125,0.092712,0.460693,-0.338745,up
13112,-11.925781,0.328125,7.386719,-0.011719,0.994141,0.300781,0.813232,0.095093,0.464783,-0.336914,up
13118,-11.816406,0.519531,7.082031,-0.011719,0.994141,0.300781,0.812683,0.096313,0.466248,-0.335938,up
13123,-11.695313,0.441406,6.851562,0.101563,0.679687,0.572266,0.812317,0.097595,0.467529,-0.334778,up
13128,-11.582031,0.214844,6.660156,0.134766,0.628906,0.675781,0.812317,0.097595,0.467529,-0.334778,up
13134,-11.3125,-0.359375,6.351562,0.134766,0.628906,0.675781,0.812317,0.097595,0.467529,-0.334778,up
13139,-11.3125,-0.398438,6.121094,0.150391,0.595703,0.855469,0.812317,0.097595,0.467529,-0.334778,up
13144,-11.3125,-0.398438,6.121094,0.207031,0.646484,0.910156,0.811829,0.104431,0.471375,-0.328491,up
13149,-11.3125,-0.398438,6.121094,0.238281,0.71875,0.935547,0.811707,0.106506,0.47229,-0.32666,up
13154,-11.464844,-0.132812,5.472656,0.238281,0.71875,0.935547,0.811707,0.106506,0.47229,-0.32666,up
13159,-11.464844,-0.132812,5.472656,0.205078,0.875,0.962891,0.811218,0.111023,0.47467,-0.322876,up
13164,-11.394531,0.214844,5.738281,0.205078,0.875,0.962891,0.810913,0.11322,0.476074,-0.320862,up
13169,-11.617188,0.40625,5.703125,0.021484,0.921875,1.027344,0.810608,0.115295,0.477539,-0.318665,up
13174,-11.925781,0.367188,6.121094,0.021484,0.921875,1.027344,0.810608,0.115295,0.477539,-0.318665,up
13179,-12.042969,0.328125,6.046875,-0.154297,0.867187,1.171875,0.810608,0.115295,0.477539,-0.318665,up
13185,-12.160156,0.480469,5.894531,-0.208984,0.820312,1.273438,0.810608,0.115295,0.477539,-0.318665,up
13190,-12.421875,0.136719,5.625,-0.208984,0.820312,1.273438,0.810608,0.115295,0.477539,-0.318665,up
13196,-11.925781,0.75,6.160156,-0.208984,0.820312,1.273438,0.810608,0.124756,0.485046,-0.303406,up
13202,-12.199219,-0.015625,5.511719,-0.210937,0.771484,1.816406,0.810608,0.124756,0.485046,-0.303406,up
13207,-11.886719,0.097656,5.433594,0.017578,0.853516,1.984375,0.811523,0.128662,0.487488,-0.29541,up
13213,-11.773438,-0.09375,5.203125,0.017578,0.853516,1.984375,0.812439,0.134521,0.489624,-0.286621,up
13218,-11.699219,0.136719,5.128906,0.304688,0.986328,2.292969,0.812439,0.134521,0.489624,-0.286621,up
13225,-11.695313,0.328125,4.628906,0.414062,1.076172,2.443359,0.812439,0.134521,0.489624,-0.286621,up
13230,-11.578125,0.480469,4.628906,0.539062,1.15625,2.582031,0.812439,0.134521,0.489624,-0.286621,up
13235,-11.621094,0.519531,4.4375,0.65625,1.244141,2.693359,0.812439,0.134521,0.489624,-0.286621,up
13241,-11.617188,0.480469,4.246094,0.724609,1.330078,2.798828,0.812439,0.134521,0.489624,-0.286621,up
13246,-11.539063,0.597656,4.167969,0.724609,1.330078,2.798828,0.812439,0.134521,0.489624,-0.286621,up
13251,-11.539063,0.597656,4.167969,0.753906,1.408203,2.886719,0.813171,0.169983,0.497314,-0.250183,up
13256,-11.539063,0.597656,4.167969,0.654297,1.513672,3.013672,0.812805,0.176208,0.498657,-0.244141,up
13261,-11.5,0.863281,3.824219,0.5625,1.554688,3.066406,0.812805,0.176208,0.498657,-0.244141,up
13266,-11.5,0.941406,3.59375,0.474609,1.578125,3.09375,0.812134,0.187805,0.501465,-0.23175,up
13271,-11.847656,1.210938,3.59375,0.369141,1.574219,3.111328,0.812134,0.187805,0.501465,-0.23175,up
13276,-11.816406,1.285156,3.480469,0.369141,1.574219,3.111328,0.811401,0.199219,0.504639,-0.21759,up
13281,-12.003906,1.324219,3.480469,0.167969,1.525391,3.132813,0.811401,0.199219,0.504639,-0.21759,up
13286,-11.921875,1.09375,3.289063,0.052734,1.480469,3.132813,0.81073,0.20929,0.507446,-0.203369,up
13291,-12.003906,1.515625,3.441406,-0.054687,1.398438,3.103516,0.81073,0.20929,0.507446,-0.203369,up
13296,-12.082031,1.171875,3.671875,-0.054687,1.398438,3.103516,0.810364,0.218262,0.509949,-0.188599,up
13301,-12.160156,1.515625,3.097656,-0.259766,1.214844,3.037109,0.810364,0.218262,0.509949,-0.188599,up
13306,-12.195313,1.132813,3.25,-0.365234,1.113281,3.001953,0.810364,0.218262,0.509949,-0.188599,up
13311,-12.0,1.628906,2.980469,-0.488281,0.990234,2.964844,0.810364,0.218262,0.509949,-0.188599,up
13317,-11.660156,1.667969,2.867188,-0.488281,0.990234,2.964844,0.811035,0.232056,0.512878,-0.159241,up
13322,-11.582031,1.707031,3.058594,-0.488281,0.990234,2.964844,0.811523,0.234497,0.513184,-0.152039,up
13327,-11.582031,1.707031,3.058594,-0.849609,0.736328,2.974609,0.812134,0.236938,0.513306,-0.144104,up
13332,-10.933594,1.09375,2.828125,-0.923828,0.6875,2.994141,0.812805,0.239014,0.513367,-0.136658,up
13337,-10.933594,1.09375,2.828125,-0.923828,0.6875,2.994141,0.812805,0.239014,0.513367,-0.136658,up
13342,-10.277344,0.941406,3.171875,-0.896484,0.673828,2.982422,0.812805,0.239014,0.513367,-0.136658,up
13347,-10.277344,0.941406,3.171875,-0.703125,0.734375,2.900391,0.814575,0.245728,0.513062,-0.113647,up
13353,-10.277344,0.941406,3.171875,-0.384766,0.912109,2.78125,0.814636,0.251221,0.513184,-0.099304,up
13358,-10.355469,2.015625,3.058594,-0.261719,1.005859,2.767578,0.81427,0.254639,0.51355,-0.091553,up
13364,-10.429688,2.359375,3.058594,-0.261719,1.005859,2.767578,0.813782,0.257446,0.513977,-0.08551,up
13370,-10.855469,2.78125,3.289063,-0.261719,1.005859,2.767578,0.813049,0.260986,0.514465,-0.077942,up
13375,-10.929688,2.78125,3.402344,-0.269531,1.082031,2.806641,0.813049,0.260986,0.514465,-0.077942,up
13380,-10.890625,2.855469,3.480469,-0.316406,1.019531,2.804688,0.813049,0.260986,0.514465,-0.077942,up
13385,-11.078125,2.894531,3.25,-0.386719,0.951172,2.779297,0.813049,0.260986,0.514465,-0.077942,up
13391,-11.007813,3.164063,3.097656,-0.386719,0.951172,2.779297,0.813049,0.260986,0.514465,-0.077942,up
13397,-11.007813,3.394531,2.945313,-0.486328,0.763672,2.736328,0.813049,0.260986,0.514465,-0.077942,up
13402,-10.96875,3.585938,2.980469,-0.671875,0.566406,2.722656,0.813049,0.260986,0.514465,-0.077942,up
13407,-10.890625,3.777344,2.828125,-0.671875,0.566406,2.722656,0.809937,0.279785,0.514648,-0.029663,up
13412,-10.695313,3.738281,2.636719,-0.755859,0.449219,2.732422,0.809937,0.281799,0.513855,-0.022461,up
13417,-10.695313,3.738281,2.636719,-0.8125,0.355469,2.746094,0.809937,0.281799,0.513855,-0.022461,up
13422,-10.273438,3.777344,2.523438,-0.8125,0.355469,2.746094,0.810425,0.285461,0.511536,-0.008667,up
13427,-10.273438,3.777344,2.523438,-0.880859,0.191406,2.763672,0.810425,0.285461,0.511536,-0.008667,up
13433,-9.859375,3.699219,2.40625,-0.880859,0.191406,2.763672,0.811646,0.290405,0.506714,0.012573,up
13438,-9.511719,3.8125,2.140625,-0.880859,0.191406,2.763672,0.812073,0.292053,0.504822,0.020264,up
13443,-9.324219,3.929688,2.175781,-0.880859,0.191406,2.763672,0.812378,0.293274,0.503296,0.02655,up
13449,-9.085938,3.929688,1.984375,-0.880859,0.191406,2.763672,0.812744,0.294495,0.501526,0.033936,up
13454,-8.941406,3.777344,2.253906,-1.144531,0.205078,2.753906,0.813049,0.295532,0.499878,0.041199,up
13459,-8.898438,3.738281,2.292969,-1.144531,0.205078,2.753906,0.813354,0.296448,0.49823,0.048584,up
13464,-8.898438,3.699219,2.484375,-1.144531,0.205078,2.753906,0.813538,0.297302,0.496582,0.056396,up
13469,-8.902344,3.777344,2.523438,-1.287109,0.271484,2.775391,0.813538,0.297302,0.496582,0.056396,up
13476,-8.863281,4.003906,2.558594,-1.298828,0.275391,2.767578,0.813538,0.297302,0.496582,0.056396,up
13481,-8.820313,4.121094,2.675781,-1.337891,0.271484,2.765625,0.813538,0.297302,0.496582,0.056396,up
13486,-8.820313,4.121094,2.675781,-1.361328,0.238281,2.761719,0.814026,0.299622,0.489868,0.087097,up
13491,-8.824219,4.234375,2.675781,-1.369141,0.179687,2.753906,0.814026,0.299622,0.489868,0.087097,up
13496,-8.824219,4.234375,2.675781,-1.386719,0.140625,2.744141,0.814331,0.300598,0.485901,0.102295,up
13501,-8.820313,4.195312,2.675781,-1.386719,0.140625,2.744141,0.814331,0.300598,0.485901,0.102295,up
13506,-8.703125,4.273437,2.789063,-1.419922,0.078125,2.740234,0.814697,0.30127,0.481323,0.11731,up
13512,-8.398438,4.425781,2.867188,-1.419922,0.078125,2.740234,0.815125,0.301819,0.476501,0.132019,up
13517,-8.171875,4.425781,3.058594,-1.392578,-0.089844,2.708984,0.815125,0.301819,0.476501,0.132019,up
13522,-8.097656,4.617187,3.058594,-1.392578,-0.089844,2.708984,0.815308,0.302185,0.473633,0.140137,up
13527,-8.09375,4.65625,3.136719,-1.392578,-0.089844,2.708984,0.81543,0.302429,0.471191,0.146912,up
13532,-7.976562,4.773437,3.402344,-1.349609,-0.164062,2.753906,0.81543,0.302429,0.471191,0.146912,up
13537,-7.902344,4.808594,3.519531,-1.349609,-0.164062,2.753906,0.815613,0.303284,0.465454,0.161682,up
13542,-7.902344,4.886719,3.554688,-1.263672,-0.246094,2.847656,0.815613,0.303284,0.465454,0.161682,up
13548,-7.789062,4.925781,3.59375,-1.232422,-0.294922,2.884766,0.815613,0.303284,0.465454,0.161682,up
13554,-7.597656,4.925781,3.480469,-1.232422,-0.294922,2.884766,0.81543,0.306458,0.452454,0.19104,up
13559,-7.449219,5.117187,3.328125,-1.142578,-0.453125,2.941406,0.815247,0.307556,0.44873,0.198486,up
13564,-7.449219,5.117187,3.328125,-1.144531,-0.484375,2.943359,0.815125,0.308594,0.445068,0.205627,up
13569,-6.949219,5.15625,3.210938,-1.144531,-0.484375,2.943359,0.815125,0.308594,0.445068,0.205627,up
13574,-6.949219,5.15625,3.210938,-1.232422,-0.513672,2.929688,0.815125,0.308594,0.445068,0.205627,up
13579,-6.5625,5.15625,3.136719,-1.232422,-0.513672,2.929688,0.81488,0.310669,0.437256,0.219788,up
13584,-6.5625,5.15625,3.136719,-1.34375,-0.476562,2.898438,0.814697,0.311462,0.43335,0.226929,up
13589,-6.5625,5.15625,3.136719,-1.351563,-0.447266,2.886719,0.81427,0.312622,0.425415,0.241333,up
13595,-6.066406,5.0,3.25,-1.351563,-0.447266,2.886719,0.813904,0.313049,0.421631,0.248596,up
13601,-6.027344,4.964844,3.363281,-1.316406,-0.367188,2.832031,0.813904,0.313049,0.421631,0.248596,up
13606,-5.984375,4.964844,3.441406,-1.316406,-0.367188,2.832031,0.812805,0.313782,0.414246,0.263245,up
13611,-5.90625,5.117187,3.519531,-1.232422,-0.302734,2.794922,0.812805,0.313782,0.414246,0.263245,up
13616,-5.90625,5.230469,3.554688,-1.171875,-0.267578,2.800781,0.812805,0.313782,0.414246,0.263245,up
13621,-5.839844,5.308594,3.710938,-1.123047,-0.240234,2.816406,0.812805,0.313782,0.414246,0.263245,up
13627,-5.757812,5.421875,3.746094,-1.123047,-0.240234,2.816406,0.808105,0.316406,0.397095,0.298645,up
13632,-5.722656,5.539062,3.863281,-1.123047,-0.240234,2.816406,0.808105,0.316406,0.397095,0.298645,up
13638,-5.605469,5.648437,3.941406,-1.023438,-0.199219,2.958984,0.808105,0.316406,0.397095,0.298645,up
13643,-5.492187,5.808594,4.054687,-1.023438,-0.199219,2.958984,0.805359,0.317993,0.390198,0.31311,up
13648,-5.492187,5.808594,4.054687,-0.958984,-0.246094,2.994141,0.803833,0.318848,0.38678,0.32019,up
13653,-5.453125,5.691406,4.132812,-0.892578,-0.292969,3.015625,0.803833,0.318848,0.38678,0.32019,up
13658,-5.261719,5.996094,3.785156,-0.832031,-0.349609,3.021484,0.800781,0.321411,0.379395,0.333923,up
13663,-5.261719,5.996094,3.785156,-0.832031,-0.349609,3.021484,0.800781,0.321411,0.379395,0.333923,up
13668,-5.144531,6.230469,3.710938,-0.730469,-0.474609,3.068359,0.800781,0.321411,0.379395,0.333923,up
13673,-4.6875,6.113281,3.632813,-0.689453,-0.488281,3.148438,0.800781,0.321411,0.379395,0.333923,up
13678,-4.6875,6.113281,3.632813,-0.689453,-0.488281,3.148438,0.791626,0.329956,0.359497,0.367798,up
13683,-3.957031,6.1875,3.59375,-0.691406,-0.474609,3.240234,0.791626,0.329956,0.359497,0.367798,up
13688,-3.804688,6.191406,3.632813,-0.691406,-0.474609,3.240234,0.787231,0.333557,0.351318,0.381592,up
13693,-3.460938,6.230469,3.671875,-0.691406,-0.474609,3.240234,0.784729,0.335388,0.346802,0.389221,up
13698,-3.535156,5.996094,3.289063,-0.691406,-0.474609,3.240234,0.782349,0.336731,0.342896,0.396179,up
13703,-3.5,5.882812,3.210938,-0.914062,-0.251953,3.298828,0.782349,0.336731,0.342896,0.396179,up
13708,-3.460938,5.808594,3.25,-0.914062,-0.251953,3.298828,0.779846,0.338013,0.338745,0.403503,up
13713,-3.191406,5.386719,3.289063,-0.943359,-0.1875,3.279297,0.779846,0.338013,0.338745,0.403503,up
13718,-3.039063,5.308594,3.328125,-0.919922,-0.068359,3.228516,0.774719,0.339966,0.330933,0.41803,up
13723,-2.886719,5.34375,3.480469,-0.863281,-0.011719,3.208984,0.771729,0.340881,0.326721,0.426025,up
13728,-2.886719,5.34375,3.480469,-0.863281,-0.011719,3.208984,0.769104,0.341675,0.323364,0.432617,up
13733,-2.578125,5.382812,3.785156,-0.791016,0.046875,3.189453,0.769104,0.341675,0.323364,0.432617,up
13738,-2.578125,5.382812,3.785156,-0.722656,0.115234,3.167969,0.762939,0.343384,0.316589,0.446899,up
13743,-2.386719,5.609375,3.785156,-0.722656,0.115234,3.167969,0.759888,0.344421,0.313416,0.453552,up
13748,-2.386719,5.609375,3.785156,-0.615234,0.201172,3.171875,0.756531,0.345337,0.310425,0.460449,up
13753,-1.621094,5.886719,4.207031,-0.615234,0.201172,3.171875,0.75293,0.346375,0.307495,0.467529,up
13758,-1.546875,5.882812,4.285156,-0.458984,0.277344,3.214844,0.749268,0.347412,0.304688,0.474365,up
13763,-1.582031,5.886719,4.285156,-0.458984,0.277344,3.214844,0.741516,0.34967,0.299194,0.48822,up
13768,-1.46875,5.921875,4.285156,-0.458984,0.277344,3.214844,0.737549,0.350647,0.29657,0.495117,up
13773,-1.351563,6.152344,4.515625,-0.458984,0.277344,3.214844,0.737549,0.350647,0.29657,0.495117,up
13778,-1.238281,6.375,4.628906,-0.585937,0.503906,3.384766,0.737549,0.350647,0.29657,0.495117,up
13783,-1.125,6.230469,4.820312,-0.585937,0.503906,3.384766,0.724548,0.352783,0.288391,0.517151,up
13788,-1.199219,5.609375,4.78125,-0.585937,0.503906,3.384766,0.720093,0.352722,0.285828,0.524719,up
13793,-1.238281,3.777344,5.089844,-0.585937,0.503906,3.384766,0.720093,0.352722,0.285828,0.524719,up
13798,-0.96875,3.621094,5.128906,-0.652344,0.898437,3.261719,0.720093,0.352722,0.285828,0.524719,up
13803,-0.472656,4.351562,5.664062,-0.652344,0.898437,3.261719,0.710815,0.352234,0.28125,0.539917,up
13808,-0.472656,4.351562,5.664062,-0.494141,0.919922,3.15625,0.710815,0.352234,0.28125,0.539917,up
13813,-0.203125,4.351562,5.707031,-0.494141,0.919922,3.15625,0.706177,0.352112,0.279419,0.546997,up
13818,-0.203125,4.351562,5.707031,0.150391,1.271484,2.779297,0.696594,0.352356,0.2771,0.560181,up
13823,-0.203125,4.160156,5.167969,0.150391,1.271484,2.779297,0.691772,0.352661,0.276794,0.56604,up
13828,-0.203125,4.160156,5.167969,0.378906,1.341797,2.714844,0.686584,0.353088,0.2771,0.57196,up
13833,-0.203125,5.5,4.515625,0.621094,1.345703,2.689453,0.675537,0.355042,0.27887,0.582947,up
13838,-0.242187,6.347656,4.972656,0.621094,1.345703,2.689453,0.675537,0.355042,0.27887,0.582947,up
13843,-0.359375,6.535156,5.164062,0.621094,1.345703,2.689453,0.669373,0.356628,0.280273,0.588379,up
13848,-0.359375,6.609375,5.320312,1.226563,1.265625,2.867188,0.669373,0.356628,0.280273,0.588379,up
13853,-0.28125,6.835937,5.320312,1.226563,1.265625,2.867188,0.656372,0.360596,0.283386,0.598999,up
13858,-0.28125,6.835937,5.320312,1.226563,1.265625,2.867188,0.643494,0.364624,0.285889,0.609314,up
13863,-0.203125,6.835937,5.320312,1.226563,1.265625,2.867188,0.643494,0.364624,0.285889,0.609314,up
13868,-0.128906,6.726562,5.355469,1.103516,1.072266,3.146484,0.643494,0.364624,0.285889,0.609314,up
13873,0.21875,6.378906,5.203125,1.037109,0.986328,3.240234,0.643494,0.364624,0.285889,0.609314,up
13878,0.292969,6.148437,5.320312,1.037109,0.986328,3.240234,0.61499,0.374023,0.287048,0.632019,up
13883,0.445312,5.882812,5.394531,1.037109,0.986328,3.240234,0.61499,0.374023,0.287048,0.632019,up
13888,0.445312,5.882812,5.394531,0.695312,0.765625,3.494141,0.608582,0.376038,0.286438,0.637329,up
13893,0.601562,5.648437,5.511719,0.585937,0.712891,3.554688,0.608582,0.376038,0.286438,0.637329,up
13898,0.675781,5.613281,5.734375,0.585937,0.712891,3.554688,0.608582,0.376038,0.286438,0.637329,up
13903,0.675781,5.613281,5.734375,0.517578,0.548828,3.611328,0.588013,0.382874,0.282227,0.654236,up
13909,1.097656,5.230469,6.117187,0.666016,0.335938,3.675781,0.588013,0.382874,0.282227,0.654236,up
13915,1.214844,5.347656,6.316406,0.666016,0.335938,3.675781,0.566589,0.391235,0.276733,0.670349,up
13920,1.214844,5.230469,6.539062,1.085938,0.009766,3.761719,0.566589,0.391235,0.276733,0.670349,up
13925,1.289063,5.269531,6.578125,1.333984,-0.111328,3.808594,0.551086,0.39917,0.273315,0.679932,up
13931,1.441406,5.613281,6.394531,1.333984,-0.111328,3.808594,0.542969,0.403931,0.271973,0.684143,up
13937,1.519531,5.804687,6.277344,1.806641,-0.332031,3.908203,0.542969,0.403931,0.271973,0.684143,up
13942,1.558594,5.882812,6.089844,1.960938,-0.453125,3.947266,0.542969,0.403931,0.271973,0.684143,up
13947,1.558594,5.882812,6.089844,2.052734,-0.523437,4.027344,0.516785,0.421021,0.268433,0.695435,up
13952,1.671875,6.652344,5.433594,2.052734,-0.523437,4.027344,0.516785,0.421021,0.268433,0.695435,up
13957,1.671875,6.652344,5.433594,2.109375,-0.611328,4.214844,0.49823,0.433777,0.265686,0.702148,up
13962,1.632813,6.875,5.050781,2.109375,-0.611328,4.214844,0.48877,0.440125,0.264099,0.705444,up
13967,1.902344,6.492187,4.859375,1.919922,-0.783203,4.357422,0.479187,0.446838,0.261841,0.708618,up
13973,2.4375,7.566406,4.707031,1.919922,-0.783203,4.357422,0.479187,0.446838,0.261841,0.708618,up
13978,2.59375,8.410156,4.589844,1.652344,-0.957031,4.583984,0.479187,0.446838,0.261841,0.708618,up
13983,2.667969,8.945313,4.4375,1.457031,-1.03125,4.714844,0.479187,0.446838,0.261841,0.708618,up
13989,2.554688,8.023438,4.476562,0.871094,-1.041016,4.972656,0.479187,0.446838,0.261841,0.708618,up
13994,2.59375,6.953125,4.359375,0.871094,-1.041016,4.972656,0.420044,0.484375,0.237305,0.729797,up
13999,2.667969,4.734375,4.476562,0.871094,-1.041016,4.972656,0.410217,0.489685,0.230652,0.734009,up
14004,2.785156,4.621094,4.398437,0.871094,-1.041016,4.972656,0.410217,0.489685,0.230652,0.734009,up
14009,2.785156,4.621094,4.398437,-0.119141,-0.941406,5.353516,0.401855,0.493835,0.224304,0.737793,up
14014,2.785156,4.65625,4.589844,-0.119141,-0.941406,5.353516,0.392273,0.498352,0.216248,0.74231,up
14019,3.550781,3.699219,5.164062,-0.519531,-0.941406,5.203125,0.383606,0.502502,0.208008,0.746399,up
14024,3.550781,3.699219,5.164062,-0.632812,-0.853516,4.951172,0.383606,0.502502,0.208008,0.746399,up
14029,4.394531,2.972656,4.824219,-0.632812,-0.853516,4.951172,0.375122,0.506104,0.199951,0.750427,up
14034,4.738281,2.625,4.902344,-0.660156,-0.949219,4.486328,0.351807,0.51593,0.176819,0.760742,up
14039,5.199219,2.589844,5.128906,-0.660156,-0.949219,4.486328,0.344116,0.519653,0.169861,0.763306,up
14045,6.386719,3.429688,6.085937,-0.660156,-0.949219,4.486328,0.336487,0.52356,0.163818,0.765381,up
14050,6.386719,3.429688,6.085937,0.609375,-1.171875,3.869141,0.327454,0.528259,0.157959,0.767334,up
14055,6.6875,3.203125,6.160156,0.609375,-1.171875,3.869141,0.319153,0.53241,0.153992,0.768738,up
14061,6.609375,3.046875,5.164062,0.609375,-1.171875,3.869141,0.31134,0.53595,0.15155,0.769958,up
14066,6.609375,3.046875,5.164062,1.816406,-0.601562,3.412109,0.301392,0.540161,0.149597,0.771362,up
14071,6.609375,3.046875,5.164062,2.111328,-0.521484,3.275391,0.292847,0.543579,0.148865,0.7724,up
14076,6.882812,3.277344,4.359375,2.111328,-0.521484,3.275391,0.292847,0.543579,0.148865,0.7724,up
14081,6.996094,3.46875,4.054687,2.277344,-0.386719,3.138672,0.273865,0.550476,0.149109,0.774414,up
14086,6.996094,3.46875,4.054687,2.277344,-0.386719,3.138672,0.273865,0.550476,0.149109,0.774414,up
14091,7.230469,3.238281,3.976563,2.332031,-0.125,2.84375,0.256775,0.556152,0.150024,0.776062,up
14096,7.574219,3.277344,4.207031,2.332031,-0.125,2.84375,0.247803,0.558533,0.151306,0.776978,up
14102,7.574219,3.394531,4.09375,2.011719,-0.046875,2.234375,0.247803,0.558533,0.151306,0.776978,up
14108,7.570312,3.394531,3.671875,1.828125,-0.066406,2.013672,0.247803,0.558533,0.151306,0.776978,up
14114,7.457031,3.429688,3.402344,1.40625,-0.236328,1.597656,0.247803,0.558533,0.151306,0.776978,up
14119,7.347656,3.507813,3.328125,1.40625,-0.236328,1.597656,0.213928,0.568115,0.156433,0.779114,up
14124,7.34375,3.507813,3.097656,1.40625,-0.236328,1.597656,0.213928,0.568115,0.156433,0.779114,up
14129,7.265625,3.660156,2.828125,1.013672,-0.484375,1.294922,0.209473,0.569946,0.156799,0.778931,up
14134,7.265625,3.660156,2.828125,0.796875,-0.642578,1.195313,0.205933,0.571777,0.156799,0.778503,up
14139,7.191406,4.121094,2.558594,0.796875,-0.642578,1.195313,0.202576,0.573975,0.156372,0.777893,up
14144,7.457031,4.425781,2.675781,0.431641,-0.996094,1.042969,0.200073,0.576355,0.155334,0.776917,up
14149,8.113281,4.3125,3.402344,0.431641,-0.996094,1.042969,0.197693,0.578979,0.154358,0.775818,up
14154,8.261719,4.234375,3.824219,0.240234,-1.320313,0.859375,0.194275,0.5849,0.151794,0.772705,up
14159,8.601563,4.273437,4.09375,0.109375,-1.371094,0.689453,0.194275,0.5849,0.151794,0.772705,up
14164,9.105469,4.390625,4.359375,0.109375,-1.371094,0.689453,0.192749,0.588196,0.150513,0.770874,up
14170,9.339844,4.160156,3.863281,0.109375,-1.371094,0.689453,0.190735,0.592957,0.148132,0.768127,up
14175,9.296875,3.96875,3.632813,-0.402344,-1.052734,0.488281,0.190735,0.592957,0.148132,0.768127,up
14180,9.367188,3.777344,3.402344,-0.630859,-0.931641,0.441406,0.18988,0.596802,0.144897,0.765991,up
14185,9.179688,3.546875,3.171875,-0.630859,-0.931641,0.441406,0.190063,0.598206,0.142822,0.765259,up
14190,8.917969,3.429688,2.945313,-1.089844,-0.773437,0.359375,0.190796,0.599487,0.140015,0.764587,up
14195,8.761719,3.355469,2.714844,-1.298828,-0.730469,0.304688,0.191833,0.600403,0.137146,0.76416,up
14201,8.375,3.046875,2.523438,-1.298828,-0.730469,0.304688,0.192932,0.601013,0.134644,0.763855,up
14206,8.300781,3.046875,2.523438,-1.490234,-0.699219,0.21875,0.194519,0.601624,0.131409,0.763489,up
14212,8.152344,3.125,2.484375,-1.464844,-0.720703,0.179687,0.194519,0.601624,0.131409,0.763489,up
14217,8.222656,3.585938,2.40625,-1.375,-0.755859,0.158203,0.194519,0.601624,0.131409,0.763489,up
14223,8.222656,3.777344,2.367188,-1.226563,-0.794922,0.150391,0.194519,0.601624,0.131409,0.763489,up
14228,8.296875,3.851563,2.40625,-1.025391,-0.8125,0.123047,0.200745,0.604736,0.120056,0.761292,up
14234,8.605469,3.96875,2.484375,-0.777344,-0.865234,0.107422,0.200745,0.604736,0.120056,0.761292,up
14240,8.761719,4.003906,2.558594,-0.777344,-0.865234,0.107422,0.203125,0.608826,0.115295,0.758118,up
14245,8.953125,4.042969,2.597656,-0.048828,-0.892578,0.015625,0.203247,0.610229,0.114807,0.75708,up
14250,9.0625,4.003906,2.597656,0.177734,-0.867187,-0.009766,0.203064,0.612122,0.114746,0.755615,up
14256,9.445313,4.351562,2.597656,0.177734,-0.867187,-0.009766,0.202698,0.613586,0.115112,0.754456,up
14261,9.371094,4.390625,2.558594,0.505859,-0.751953,-0.066406,0.202026,0.615295,0.115906,0.753113,up
14266,9.21875,4.425781,2.558594,0.605469,-0.650391,-0.091797,0.201294,0.61676,0.116943,0.751953,up
14271,9.0625,4.503906,2.445313,0.605469,-0.650391,-0.091797,0.200317,0.618347,0.118347,0.750671,up
14276,8.988281,4.773437,2.023438,0.605469,-0.650391,-0.091797,0.200317,0.618347,0.118347,0.750671,up
14282,8.796875,4.925781,1.792969,0.654297,-0.494141,-0.144531,0.200317,0.618347,0.118347,0.750671,up
14288,8.644531,5.039062,1.640625,0.621094,-0.439453,-0.173828,0.200317,0.618347,0.118347,0.750671,up
14294,8.5625,5.230469,1.71875,0.621094,-0.439453,-0.173828,0.196594,0.623657,0.125061,0.746155,up
14299,8.53125,5.347656,1.757813,0.621094,-0.439453,-0.173828,0.196594,0.623657,0.125061,0.746155,up
14304,8.535156,5.421875,1.566406,0.414062,-0.333984,-0.185547,0.196594,0.623657,0.125061,0.746155,up
14309,8.566406,5.539062,1.371094,0.384766,-0.28125,-0.199219,0.196594,0.623657,0.125061,0.746155,up
14314,8.644531,5.613281,1.296875,0.384766,-0.28125,-0.199219,0.195435,0.625671,0.128357,0.744263,up
14319,8.605469,5.730469,1.296875,0.304688,-0.066406,-0.169922,0.195435,0.625671,0.128357,0.744263,up
14324,8.644531,5.730469,1.335938,0.304688,-0.066406,-0.169922,0.194824,0.626282,0.130432,0.74353,up
14330,8.722656,5.613281,1.335938,0.304688,-0.066406,-0.169922,0.194153,0.626404,0.132263,0.743225,up
14335,8.839844,5.539062,1.371094,0.257813,0.066406,-0.126953,0.193787,0.626343,0.13324,0.743225,up
14340,8.71875,5.5,1.449219,0.242187,0.076172,-0.111328,0.19342,0.626221,0.134155,0.743225,up
14345,8.796875,5.539062,1.527344,0.242187,0.076172,-0.111328,0.193054,0.62616,0.134888,0.743286,up
14350,8.839844,5.5,1.601563,0.242187,0.076172,-0.111328,0.192688,0.626099,0.135681,0.743286,up
14355,8.878906,5.5,1.601563,0.269531,0.080078,-0.097656,0.192688,0.626099,0.135681,0.743286,up
14360,8.878906,5.386719,1.566406,0.269531,0.080078,-0.097656,0.191833,0.625854,0.13739,0.743408,up
14365,8.761719,5.230469,1.640625,0.269531,0.080078,-0.097656,0.191406,0.625793,0.138184,0.743408,up
14370,8.796875,5.15625,1.601563,0.339844,0.099609,-0.111328,0.191406,0.625793,0.138184,0.743408,up
14375,8.835938,5.117187,1.640625,0.339844,0.099609,-0.111328,0.190369,0.625549,0.140198,0.743469,up
