timestamp,ax,ay,az,gx,gy,gz,qw,qx,qy,qz,label
457031,3.253906,7.800781,5.25,0.076172,0.037109,-0.017578,0.822205,0.491699,-0.028992,0.285217,up
457037,3.253906,7.757812,5.175781,0.082031,0.035156,-0.027344,0.822144,0.491882,-0.02887,0.285217,up
457042,3.214844,7.679687,5.214844,0.082031,0.035156,-0.027344,0.822021,0.492004,-0.028687,0.285217,up
457047,3.214844,7.640625,5.214844,0.097656,0.019531,-0.039063,0.822021,0.492004,-0.028687,0.285217,up
457052,3.136719,7.644531,5.175781,0.097656,0.019531,-0.039063,0.821838,0.492432,-0.028381,0.285156,up
457057,3.214844,7.644531,5.175781,0.097656,0.019531,-0.039063,0.821838,0.492432,-0.028381,0.285156,up
457063,3.214844,7.71875,5.175781,0.144531,-0.029297,-0.035156,0.821838,0.492432,-0.028381,0.285156,up
457069,3.253906,7.683594,5.175781,0.152344,-0.035156,-0.042969,0.821838,0.492432,-0.028381,0.285156,up
457075,3.292969,7.761719,5.136719,0.175781,-0.041016,-0.039063,0.821838,0.492432,-0.028381,0.285156,up
457081,3.292969,7.796875,5.136719,0.175781,-0.041016,-0.039063,0.821045,0.494019,-0.027893,0.284668,up
457086,3.253906,7.761719,5.136719,0.189453,-0.042969,-0.056641,0.821045,0.494019,-0.027893,0.284668,up
457091,3.292969,7.757812,5.175781,0.189453,-0.042969,-0.056641,0.820435,0.495239,-0.027527,0.284302,up
457096,3.253906,7.796875,5.136719,0.189453,-0.042969,-0.056641,0.820435,0.495239,-0.027527,0.284302,up
457101,3.253906,7.839844,5.136719,0.175781,-0.029297,-0.076172,0.820129,0.496033,-0.027161,0.283936,up
457107,3.253906,7.90625,5.136719,0.175781,-0.029297,-0.076172,0.819946,0.496399,-0.027039,0.283752,up
457112,3.253906,7.90625,5.136719,0.123047,-0.03125,-0.097656,0.819885,0.496704,-0.026917,0.283569,up
457117,3.214844,7.949219,5.097656,0.123047,-0.03125,-0.097656,0.819763,0.496948,-0.026733,0.283325,up
457122,3.214844,7.949219,5.136719,0.123047,-0.03125,-0.097656,0.819702,0.497253,-0.02655,0.283081,up
457127,3.214844,7.945312,5.058594,0.123047,-0.03125,-0.097656,0.819702,0.497253,-0.02655,0.283081,up
457132,3.214844,7.945312,5.058594,0.146484,-0.025391,-0.119141,0.819519,0.497864,-0.026245,0.282593,up
457137,3.175781,7.945312,5.097656,0.15625,-0.023437,-0.113281,0.819397,0.49823,-0.026001,0.282349,up
457143,3.175781,8.027344,5.058594,0.15625,-0.023437,-0.113281,0.819275,0.498535,-0.025757,0.282104,up
457148,3.136719,7.988281,5.058594,0.162109,-0.001953,-0.123047,0.819275,0.498535,-0.025757,0.282104,up
457153,3.101563,7.988281,5.023437,0.169922,-0.005859,-0.121094,0.819031,0.499207,-0.025269,0.281616,up
457159,3.136719,7.988281,5.058594,0.169922,-0.005859,-0.121094,0.818909,0.499634,-0.024963,0.281372,up
457165,3.136719,7.988281,5.023437,0.179687,-0.003906,-0.134766,0.818909,0.499634,-0.024963,0.281372,up
457170,3.136719,7.988281,5.023437,0.195312,-0.013672,-0.138672,0.818909,0.499634,-0.024963,0.281372,up
457176,3.136719,8.023438,4.984375,0.205078,-0.025391,-0.142578,0.818909,0.499634,-0.024963,0.281372,up
457181,3.101563,8.027344,4.945312,0.205078,-0.025391,-0.142578,0.818115,0.50177,-0.023499,0.279907,up
457186,3.136719,8.023438,4.984375,0.216797,-0.041016,-0.152344,0.818115,0.50177,-0.023499,0.279907,up
457191,3.101563,8.066406,4.984375,0.216797,-0.041016,-0.152344,0.817749,0.502747,-0.02301,0.279236,up
457196,3.101563,8.105469,4.867187,0.216797,-0.041016,-0.152344,0.817566,0.503235,-0.022705,0.278931,up
457201,3.136719,8.183594,4.832031,0.259766,-0.060547,-0.162109,0.817566,0.503235,-0.022705,0.278931,up
457206,3.136719,8.21875,4.832031,0.259766,-0.060547,-0.162109,0.817078,0.504456,-0.022156,0.278137,up
457211,3.175781,8.261719,4.832031,0.259766,-0.060547,-0.162109,0.816895,0.505005,-0.021851,0.277771,up
457216,3.136719,8.332031,4.714844,0.259766,-0.060547,-0.162109,0.81665,0.505676,-0.021545,0.277283,up
457221,3.101563,8.332031,4.792969,0.259766,-0.060547,-0.162109,0.81665,0.505676,-0.021545,0.277283,up
457226,3.101563,8.371094,4.714844,0.226562,-0.042969,-0.185547,0.81665,0.505676,-0.021545,0.277283,up
457231,3.101563,8.371094,4.753906,0.226562,-0.042969,-0.185547,0.816162,0.507202,-0.020691,0.276123,up
457236,3.0625,8.371094,4.753906,0.226562,-0.042969,-0.185547,0.815979,0.507629,-0.020386,0.275757,up
457241,3.023438,8.410156,4.675781,0.226562,-0.042969,-0.185547,0.815979,0.507629,-0.020386,0.275757,up
457246,3.0625,8.410156,4.714844,0.142578,-0.033203,-0.167969,0.815979,0.507629,-0.020386,0.275757,up
457251,2.945313,8.367188,4.675781,0.142578,-0.033203,-0.167969,0.815796,0.508423,-0.019836,0.274963,up
457257,2.945313,8.328125,4.675781,0.125,-0.027344,-0.173828,0.815796,0.508423,-0.019836,0.274963,up
457262,2.945313,8.328125,4.640625,0.125,-0.027344,-0.173828,0.815613,0.509338,-0.019043,0.273804,up
457268,2.945313,8.289063,4.675781,0.125,-0.027344,-0.173828,0.815552,0.509644,-0.018799,0.273499,up
457273,2.945313,8.289063,4.675781,0.125,-0.027344,-0.173828,0.81543,0.510071,-0.018555,0.27301,up
457279,2.945313,8.261719,4.675781,0.189453,-0.068359,-0.195312,0.81543,0.510071,-0.018555,0.27301,up
457284,2.945313,8.261719,4.675781,0.212891,-0.070312,-0.191406,0.81543,0.510071,-0.018555,0.27301,up
457290,2.945313,8.289063,4.640625,0.212891,-0.070312,-0.191406,0.815063,0.511475,-0.017761,0.271667,up
457296,2.984375,8.371094,4.640625,0.251953,-0.060547,-0.193359,0.815063,0.511475,-0.017761,0.271667,up
457301,2.984375,8.367188,4.601562,0.244141,-0.041016,-0.197266,0.815063,0.511475,-0.017761,0.271667,up
457307,2.945313,8.371094,4.601562,0.236328,-0.025391,-0.195312,0.814453,0.513123,-0.016846,0.270325,up
457312,2.910156,8.371094,4.5625,0.236328,-0.025391,-0.195312,0.814087,0.51416,-0.016113,0.26947,up
457317,2.910156,8.371094,4.601562,0.228516,-0.029297,-0.201172,0.813904,0.514709,-0.015686,0.269043,up
457322,2.871094,8.328125,4.675781,0.228516,-0.029297,-0.201172,0.813782,0.515198,-0.01532,0.268616,up
457327,2.910156,8.328125,4.640625,0.228516,-0.029297,-0.201172,0.813599,0.515625,-0.015015,0.268188,up
457332,2.945313,8.328125,4.640625,0.230469,-0.021484,-0.203125,0.813599,0.515625,-0.015015,0.268188,up
457337,2.945313,8.328125,4.640625,0.216797,-0.011719,-0.207031,0.813293,0.516602,-0.014221,0.267334,up
457343,2.945313,8.292969,4.5625,0.216797,-0.011719,-0.207031,0.81311,0.51709,-0.013794,0.266968,up
457348,2.945313,8.261719,4.523437,0.21875,-0.003906,-0.208984,0.812988,0.517578,-0.013367,0.266541,up
457354,2.910156,8.183594,4.5625,0.216797,0.003906,-0.216797,0.812988,0.517578,-0.013367,0.266541,up
457359,2.910156,8.222656,4.523437,0.207031,0.011719,-0.21875,0.812683,0.518433,-0.012512,0.265686,up
457365,2.910156,8.21875,4.5625,0.193359,0.017578,-0.21875,0.812683,0.518433,-0.012512,0.265686,up
457371,2.910156,8.261719,4.523437,0.166016,0.025391,-0.234375,0.812683,0.518433,-0.012512,0.265686,up
457376,2.945313,8.21875,4.5625,0.167969,0.025391,-0.232422,0.812378,0.519531,-0.011108,0.264465,up
457381,2.871094,8.21875,4.5625,0.167969,0.025391,-0.232422,0.812317,0.519897,-0.01062,0.264038,up
457386,2.871094,8.257813,4.601562,0.169922,0.03125,-0.251953,0.812317,0.519897,-0.01062,0.264038,up
457391,2.871094,8.257813,4.5625,0.169922,0.03125,-0.251953,0.812195,0.520569,-0.009583,0.263123,up
457397,2.871094,8.257813,4.5625,0.169922,0.03125,-0.251953,0.812073,0.52124,-0.008606,0.262268,up
457402,2.871094,8.292969,4.601562,0.166016,0.041016,-0.251953,0.812073,0.52124,-0.008606,0.262268,up
457407,2.832031,8.292969,4.5625,0.166016,0.041016,-0.251953,0.811951,0.521851,-0.007507,0.261292,up
457412,2.832031,8.292969,4.5625,0.166016,0.041016,-0.251953,0.811951,0.522156,-0.007019,0.260925,up
457417,2.832031,8.292969,4.601562,0.166016,0.041016,-0.251953,0.81189,0.522461,-0.006409,0.260437,up
457422,2.871094,8.292969,4.601562,0.173828,0.068359,-0.277344,0.811829,0.522827,-0.005737,0.259949,up
457427,2.871094,8.371094,4.601562,0.173828,0.068359,-0.277344,0.811829,0.522827,-0.005737,0.259949,up
457432,2.871094,8.371094,4.601562,0.179687,0.091797,-0.28125,0.811707,0.523437,-0.004456,0.259094,up
457438,2.910156,8.410156,4.601562,0.179687,0.091797,-0.28125,0.811646,0.523743,-0.003784,0.258667,up
457443,2.871094,8.371094,4.601562,0.193359,0.136719,-0.300781,0.811646,0.523743,-0.003784,0.258667,up
457450,2.792969,8.410156,4.5625,0.203125,0.154297,-0.296875,0.811646,0.523743,-0.003784,0.258667,up
457455,2.71875,8.449219,4.640625,0.203125,0.154297,-0.296875,0.811401,0.524658,-0.001282,0.257446,up
457461,2.679688,8.449219,4.601562,0.185547,0.177734,-0.294922,0.811401,0.524658,-0.001282,0.257446,up
457466,2.601563,8.523438,4.675781,0.185547,0.177734,-0.294922,0.811279,0.525269,0.000488,0.256714,up
457471,2.601563,8.523438,4.675781,0.185547,0.177734,-0.294922,0.811218,0.525513,0.001404,0.256348,up
457477,2.601563,8.5625,4.753906,0.142578,0.148437,-0.277344,0.811218,0.525513,0.001404,0.256348,up
457482,2.5625,8.601563,4.792969,0.142578,0.148437,-0.277344,0.811157,0.52594,0.003052,0.255615,up
457488,2.640625,8.566406,4.792969,0.142578,0.148437,-0.277344,0.811157,0.526306,0.004517,0.254944,up
457493,2.640625,8.566406,4.792969,0.125,0.148437,-0.279297,0.811157,0.526428,0.00531,0.254578,up
457498,2.601563,8.601563,4.753906,0.125,0.148437,-0.279297,0.811218,0.526611,0.006042,0.254211,up
457503,2.601563,8.644531,4.753906,0.125,0.148437,-0.279297,0.811218,0.526733,0.006836,0.253784,up
457509,2.640625,8.640625,4.792969,0.125,0.148437,-0.279297,0.811279,0.526855,0.007507,0.253479,up
457514,2.601563,8.644531,4.753906,0.072266,0.128906,-0.269531,0.811279,0.526917,0.008179,0.253113,up
457520,2.679688,8.640625,4.832031,0.046875,0.125,-0.269531,0.811279,0.526917,0.008179,0.253113,up
457525,2.679688,8.644531,4.867187,0.046875,0.125,-0.269531,0.811279,0.526917,0.008179,0.253113,up
457530,2.71875,8.640625,4.867187,0.046875,0.125,-0.269531,0.811584,0.526978,0.010132,0.252014,up
457535,2.679688,8.644531,4.867187,0.041016,0.130859,-0.246094,0.811584,0.526978,0.010132,0.252014,up
457540,2.71875,8.644531,4.832031,0.039063,0.136719,-0.242187,0.811584,0.526978,0.010132,0.252014,up
457545,2.679688,8.710938,4.792969,0.039063,0.136719,-0.242187,0.811584,0.526978,0.010132,0.252014,up
457550,2.71875,8.714844,4.832031,0.039063,0.136719,-0.242187,0.811951,0.526978,0.012695,0.250793,up
457555,2.71875,8.714844,4.832031,0.048828,0.15625,-0.228516,0.812012,0.526978,0.013306,0.250549,up
457560,2.71875,8.714844,4.753906,0.048828,0.15625,-0.228516,0.812012,0.526978,0.013306,0.250549,up
457565,2.71875,8.714844,4.753906,0.060547,0.167969,-0.216797,0.812134,0.526978,0.014648,0.250061,up
457570,2.71875,8.753906,4.714844,0.060547,0.167969,-0.216797,0.812195,0.526978,0.01532,0.249878,up
457575,2.71875,8.753906,4.714844,0.064453,0.1875,-0.207031,0.812195,0.526978,0.016052,0.249695,up
457580,2.679688,8.828125,4.5625,0.064453,0.1875,-0.207031,0.812256,0.526978,0.016724,0.249512,up
457585,2.640625,8.832031,4.640625,0.015625,0.205078,-0.195312,0.812256,0.526978,0.016724,0.249512,up
457590,2.601563,8.832031,4.601562,-0.007813,0.203125,-0.193359,0.812256,0.526978,0.016724,0.249512,up
457596,2.488281,8.871094,4.5625,-0.035156,0.205078,-0.183594,0.812683,0.526367,0.019409,0.249084,up
457601,2.449219,8.90625,4.5625,-0.035156,0.205078,-0.183594,0.812683,0.526367,0.019409,0.249084,up
457607,2.488281,8.910156,4.5625,-0.050781,0.181641,-0.193359,0.812683,0.526367,0.019409,0.249084,up
457612,2.410156,8.910156,4.601562,-0.050781,0.181641,-0.193359,0.812988,0.52594,0.020691,0.248901,up
457617,2.488281,8.910156,4.5625,-0.058594,0.164062,-0.1875,0.813416,0.525452,0.021912,0.248535,up
457622,2.449219,8.90625,4.601562,-0.058594,0.164062,-0.1875,0.813416,0.525452,0.021912,0.248535,up
457627,2.449219,8.867188,4.5625,-0.054687,0.125,-0.189453,0.813416,0.525452,0.021912,0.248535,up
457632,2.488281,8.832031,4.5625,-0.054687,0.125,-0.189453,0.813904,0.524841,0.023376,0.247986,up
457637,2.527344,8.832031,4.5625,-0.054687,0.125,-0.189453,0.813904,0.524841,0.023376,0.247986,up
457642,2.449219,8.832031,4.523437,-0.023437,0.107422,-0.1875,0.813904,0.524841,0.023376,0.247986,up
457648,2.488281,8.828125,4.523437,-0.023437,0.107422,-0.1875,0.814392,0.524414,0.02478,0.247314,up
457653,2.527344,8.75,4.484375,-0.023437,0.107422,-0.1875,0.814514,0.524292,0.025208,0.247131,up
457658,2.527344,8.753906,4.410156,-0.039063,0.140625,-0.158203,0.814636,0.524109,0.025696,0.247009,up
457663,2.527344,8.753906,4.410156,-0.054687,0.150391,-0.140625,0.814758,0.523926,0.026184,0.246887,up
457669,2.488281,8.753906,4.410156,-0.054687,0.150391,-0.140625,0.81488,0.523743,0.026611,0.246826,up
457675,2.449219,8.75,4.332031,-0.041016,0.185547,-0.136719,0.815002,0.523499,0.027161,0.246826,up
457681,2.488281,8.714844,4.371094,-0.021484,0.212891,-0.126953,0.815002,0.523499,0.027161,0.246826,up
457687,2.5625,8.671875,4.332031,-0.011719,0.238281,-0.121094,0.815247,0.522949,0.028992,0.247009,up
457692,2.601563,8.671875,4.292969,-0.011719,0.238281,-0.121094,0.815247,0.522949,0.028992,0.247009,up
457697,2.640625,8.675781,4.253906,0.025391,0.355469,-0.121094,0.815247,0.522949,0.028992,0.247009,up
457702,2.71875,8.601563,4.21875,0.025391,0.355469,-0.121094,0.815308,0.522644,0.03064,0.247375,up
457707,2.71875,8.605469,4.140625,0.025391,0.355469,-0.121094,0.815308,0.5224,0.031616,0.247681,up
457712,2.753906,8.566406,4.140625,0.007813,0.460937,-0.099609,0.815308,0.5224,0.031616,0.247681,up
457718,2.753906,8.488281,4.0625,-0.009766,0.529297,-0.09375,0.815308,0.5224,0.031616,0.247681,up
457724,2.679688,8.449219,4.0625,-0.009766,0.529297,-0.09375,0.81543,0.520935,0.036377,0.249695,up
457730,2.5625,8.367188,4.140625,-0.113281,0.748047,-0.083984,0.81543,0.520935,0.036377,0.249695,up
457736,2.449219,8.328125,4.21875,-0.144531,0.826172,-0.091797,0.81543,0.520935,0.036377,0.249695,up
457741,2.179688,8.292969,4.140625,-0.144531,0.826172,-0.091797,0.81543,0.520935,0.036377,0.249695,up
457747,1.949219,8.332031,4.179687,-0.191406,1.148438,-0.171875,0.81543,0.520935,0.036377,0.249695,up
457752,1.875,8.289063,4.140625,-0.191406,1.148438,-0.171875,0.816467,0.515381,0.048523,0.255737,up
457757,1.796875,8.222656,4.0625,-0.191406,1.201172,-0.222656,0.816467,0.515381,0.048523,0.255737,up
457762,1.644531,8.183594,4.101562,-0.191406,1.201172,-0.222656,0.816711,0.514221,0.051086,0.256897,up
457767,1.453125,8.222656,4.140625,-0.173828,1.03125,-0.201172,0.816956,0.512939,0.053894,0.258057,up
457772,1.339844,8.261719,4.253906,-0.173828,1.03125,-0.201172,0.817139,0.511841,0.056213,0.259033,up
457777,1.339844,8.410156,4.484375,-0.0625,0.859375,-0.193359,0.817322,0.510864,0.05835,0.259949,up
457782,1.375,8.371094,4.601562,-0.0625,0.859375,-0.193359,0.817444,0.510132,0.060303,0.260681,up
457787,1.300781,8.445313,4.601562,0.056641,0.791016,-0.185547,0.817444,0.509399,0.062439,0.261414,up
457792,1.300781,8.445313,4.601562,0.056641,0.791016,-0.185547,0.817383,0.508972,0.064331,0.262085,up
457797,1.414063,8.566406,4.523437,0.056641,0.791016,-0.185547,0.817261,0.508179,0.067749,0.263184,up
457802,1.453125,8.644531,4.445312,0.056641,0.791016,-0.185547,0.817261,0.508179,0.067749,0.263184,up
457807,1.566406,8.675781,4.445312,-0.078125,0.642578,-0.162109,0.817261,0.508179,0.067749,0.263184,up
457812,1.53125,8.671875,4.445312,-0.078125,0.642578,-0.162109,0.817322,0.507141,0.070862,0.264221,up
457818,1.566406,8.792969,4.523437,-0.140625,0.623047,-0.167969,0.817688,0.505615,0.073669,0.265198,up
457823,1.605469,8.75,4.5625,-0.302734,0.615234,-0.181641,0.818054,0.504578,0.075073,0.265686,up
457828,1.53125,8.789063,4.640625,-0.302734,0.615234,-0.181641,0.818481,0.503418,0.076416,0.266235,up
457833,1.492188,8.828125,4.675781,-0.302734,0.615234,-0.181641,0.818909,0.502197,0.077576,0.266663,up
457838,1.492188,8.789063,4.675781,-0.523437,0.701172,-0.21875,0.81958,0.500549,0.079041,0.267273,up
457843,1.414063,8.832031,4.714844,-0.523437,0.701172,-0.21875,0.82019,0.499084,0.080261,0.267761,up
457848,1.222656,8.90625,4.832031,-0.523437,0.701172,-0.21875,0.820984,0.497253,0.081848,0.268372,up
457854,1.144531,8.871094,4.832031,-0.523437,0.701172,-0.21875,0.821716,0.495483,0.083374,0.268921,up
457859,1.109375,8.832031,4.832031,-0.626953,0.824219,-0.333984,0.822571,0.49353,0.085083,0.269409,up
457864,1.03125,8.871094,4.945312,-0.626953,0.804687,-0.351563,0.822571,0.49353,0.085083,0.269409,up
457870,1.03125,8.984375,5.058594,-0.626953,0.804687,-0.351563,0.824219,0.489746,0.088379,0.270264,up
457875,0.953125,8.949219,5.058594,-0.605469,0.75,-0.380859,0.825073,0.487854,0.090027,0.270569,up
457881,0.917969,8.910156,5.023437,-0.605469,0.734375,-0.396484,0.825073,0.487854,0.090027,0.270569,up
457887,0.839844,9.097656,5.058594,-0.605469,0.734375,-0.396484,0.825073,0.487854,0.090027,0.270569,up
457892,0.800781,9.132813,5.058594,-0.607422,0.685547,-0.375,0.825073,0.487854,0.090027,0.270569,up
457897,0.800781,9.132813,5.058594,-0.611328,0.666016,-0.359375,0.828308,0.480591,0.096069,0.271484,up
457902,0.761719,9.054688,5.175781,-0.609375,0.660156,-0.345703,0.829102,0.478821,0.097473,0.271729,up
457907,0.761719,9.054688,5.175781,-0.615234,0.646484,-0.328125,0.829895,0.47699,0.098877,0.271973,up
457913,0.761719,8.949219,5.214844,-0.615234,0.646484,-0.328125,0.830688,0.475159,0.100098,0.272217,up
457918,0.761719,8.949219,5.214844,-0.716797,0.644531,-0.265625,0.832458,0.47113,0.102478,0.27301,up
457924,0.761719,8.714844,5.40625,-0.716797,0.644531,-0.265625,0.833435,0.468933,0.103577,0.273499,up
457929,0.726562,8.640625,5.441406,-0.902344,0.675781,-0.230469,0.833435,0.468933,0.103577,0.273499,up
457934,0.761719,8.566406,5.441406,-0.921875,0.695312,-0.246094,0.833435,0.468933,0.103577,0.273499,up
457940,0.648437,8.484375,5.558594,-0.921875,0.695312,-0.246094,0.836487,0.46167,0.106873,0.275146,up
457947,0.648437,8.40625,5.632812,-0.878906,0.669922,-0.277344,0.836487,0.46167,0.106873,0.275146,up
457953,0.648437,8.367188,5.632812,-0.769531,0.623047,-0.330078,0.836487,0.46167,0.106873,0.275146,up
457958,0.648437,8.289063,5.75,-0.769531,0.623047,-0.330078,0.840393,0.452576,0.111511,0.27655,up
457963,0.648437,8.261719,5.789062,-0.605469,0.578125,-0.359375,0.840393,0.452576,0.111511,0.27655,up
457968,0.609375,8.289063,5.789062,-0.605469,0.578125,-0.359375,0.84198,0.448853,0.114014,0.276733,up
457973,0.609375,8.289063,5.863281,-0.451172,0.53125,-0.371094,0.842651,0.447266,0.115295,0.276733,up
457978,0.570312,8.328125,5.941406,-0.451172,0.53125,-0.371094,0.843201,0.446045,0.116455,0.276672,up
457983,0.609375,8.367188,6.019531,-0.365234,0.527344,-0.357422,0.843201,0.446045,0.116455,0.276672,up
457988,0.570312,8.40625,6.054687,-0.337891,0.539062,-0.339844,0.84375,0.444641,0.117798,0.276611,up
457993,0.496094,8.371094,6.09375,-0.337891,0.539062,-0.339844,0.844604,0.442322,0.1203,0.276611,up
457998,0.457031,8.289063,6.171875,-0.339844,0.541016,-0.302734,0.844604,0.442322,0.1203,0.276611,up
458003,0.417969,8.292969,6.132812,-0.339844,0.541016,-0.302734,0.845032,0.441162,0.121521,0.276672,up
458008,0.304688,8.261719,6.210937,-0.349609,0.539062,-0.275391,0.845032,0.441162,0.121521,0.276672,up
458014,0.304688,8.261719,6.210937,-0.414062,0.472656,-0.230469,0.846252,0.4375,0.125,0.277161,up
458019,0.265625,8.21875,6.324219,-0.433594,0.439453,-0.199219,0.846802,0.436096,0.125977,0.277344,up
458024,0.304688,8.140625,6.363281,-0.425781,0.402344,-0.195312,0.847229,0.434814,0.126831,0.277527,up
458030,0.304688,8.066406,6.363281,-0.425781,0.402344,-0.195312,0.847656,0.433716,0.127502,0.27771,up
458035,0.304688,8.066406,6.363281,-0.349609,0.351563,-0.195312,0.848083,0.432495,0.128296,0.277832,up
458040,0.1875,8.027344,6.402344,-0.349609,0.351563,-0.195312,0.848083,0.432495,0.128296,0.277832,up
458046,0.152344,7.984375,6.4375,-0.230469,0.283203,-0.205078,0.848083,0.432495,0.128296,0.277832,up
458051,0.113281,7.949219,6.4375,-0.164062,0.242187,-0.212891,0.848999,0.430176,0.130249,0.277771,up
458057,0.113281,7.910156,6.515625,-0.107422,0.1875,-0.228516,0.848999,0.430176,0.130249,0.277771,up
458063,0.152344,8.027344,6.59375,-0.046875,0.134766,-0.232422,0.848999,0.430176,0.130249,0.277771,up
458068,0.226562,8.027344,6.628906,-0.046875,0.134766,-0.232422,0.84967,0.429077,0.132385,0.276489,up
458073,0.265625,8.023438,6.667969,0.09375,0.0,-0.253906,0.84967,0.429077,0.132385,0.276489,up
458078,0.226562,8.101563,6.667969,0.09375,0.0,-0.253906,0.849731,0.429138,0.132751,0.276001,up
458083,0.226562,8.0625,6.707031,0.105469,-0.027344,-0.269531,0.849731,0.429138,0.132751,0.276001,up
458088,0.265625,8.105469,6.746094,0.105469,-0.105469,-0.261719,0.849854,0.429443,0.133362,0.27478,up
458093,0.226562,8.101563,6.785156,0.105469,-0.105469,-0.261719,0.850098,0.429871,0.133667,0.273376,up
458098,0.152344,8.101563,6.628906,0.105469,-0.105469,-0.261719,0.850098,0.429871,0.133667,0.273376,up
458103,0.113281,8.101563,6.628906,0.105469,-0.105469,-0.261719,0.850342,0.430237,0.133728,0.271973,up
458108,0.113281,8.101563,6.628906,0.033203,-0.220703,-0.238281,0.850342,0.430237,0.133728,0.271973,up
458113,0.152344,8.140625,6.554687,0.009766,-0.248047,-0.236328,0.850525,0.43042,0.133545,0.271179,up
458119,0.152344,8.105469,6.554687,0.009766,-0.248047,-0.236328,0.850952,0.430603,0.133057,0.269775,up
458124,0.152344,8.140625,6.554687,0.007813,-0.291016,-0.255859,0.851196,0.430725,0.13269,0.26886,up
458130,0.1875,8.105469,6.515625,0.007813,-0.291016,-0.255859,0.85144,0.430847,0.132446,0.268066,up
458142,0.152344,8.179688,6.515625,0.070312,-0.320313,-0.287109,0.851685,0.431091,0.13208,0.267151,up
458147,0.113281,8.179688,6.515625,0.130859,-0.369141,-0.314453,0.851685,0.431091,0.13208,0.267151,up
458153,0.074219,8.179688,6.476562,0.169922,-0.410156,-0.333984,0.851685,0.431091,0.13208,0.267151,up
458158,0.113281,8.144531,6.4375,0.169922,-0.410156,-0.333984,0.852539,0.433289,0.13031,0.261597,up
458163,0.152344,8.21875,6.402344,0.169922,-0.410156,-0.333984,0.852539,0.433289,0.13031,0.261597,up
458168,0.152344,8.292969,6.363281,0.166016,-0.46875,-0.333984,0.852539,0.433289,0.13031,0.261597,up
458173,0.1875,8.328125,6.324219,0.166016,-0.46875,-0.333984,0.853088,0.434937,0.128723,0.257874,up
458178,0.1875,8.332031,6.285156,0.166016,-0.46875,-0.333984,0.853271,0.435425,0.128174,0.256653,up
458183,0.265625,8.261719,6.285156,0.166016,-0.46875,-0.333984,0.853271,0.435425,0.128174,0.256653,up
458188,0.265625,8.292969,6.171875,0.037109,-0.423828,-0.257813,0.853271,0.435425,0.128174,0.256653,up
458193,0.265625,8.40625,6.019531,0.037109,-0.423828,-0.257813,0.85376,0.436157,0.126953,0.254395,up
458199,0.304688,8.445313,5.980469,0.017578,-0.392578,-0.236328,0.854248,0.436584,0.125854,0.252625,up
458204,0.34375,8.410156,6.019531,0.017578,-0.314453,-0.183594,0.854492,0.436768,0.125305,0.251709,up
458209,0.34375,8.328125,6.054687,0.017578,-0.314453,-0.183594,0.854675,0.436951,0.124878,0.251038,up
458214,0.304688,8.328125,6.019531,0.017578,-0.314453,-0.183594,0.854797,0.437073,0.124573,0.250488,up
458219,0.304688,8.332031,5.980469,0.041016,-0.203125,-0.148437,0.854919,0.437256,0.124329,0.249878,up
458224,0.304688,8.371094,5.980469,0.046875,-0.181641,-0.148437,0.855042,0.437439,0.124084,0.249329,up
458230,0.1875,8.257813,5.902344,0.046875,-0.181641,-0.148437,0.855103,0.437622,0.123962,0.248901,up
458235,0.1875,8.257813,5.902344,0.09375,-0.152344,-0.152344,0.855164,0.437866,0.12384,0.248352,up
458240,0.152344,8.332031,5.902344,0.09375,-0.152344,-0.152344,0.855164,0.438049,0.123779,0.247925,up
458246,0.113281,8.410156,5.902344,0.113281,-0.164062,-0.154297,0.855164,0.438049,0.123779,0.247925,up
458252,0.113281,8.371094,5.863281,0.113281,-0.162109,-0.160156,0.855164,0.438049,0.123779,0.247925,up
458257,0.074219,8.449219,5.863281,0.109375,-0.181641,-0.160156,0.855164,0.438049,0.123779,0.247925,up
458263,0.035156,8.410156,5.789062,0.089844,-0.199219,-0.15625,0.855164,0.438049,0.123779,0.247925,up
458269,0.035156,8.445313,5.75,0.083984,-0.246094,-0.150391,0.855347,0.439453,0.123108,0.245239,up
458274,0.035156,8.445313,5.75,0.083984,-0.246094,-0.150391,0.855469,0.440063,0.122498,0.244019,up
458279,0.074219,8.488281,5.671875,0.080078,-0.306641,-0.125,0.85553,0.44043,0.12207,0.243347,up
458286,0.152344,8.484375,5.671875,0.080078,-0.306641,-0.125,0.855591,0.440735,0.121582,0.242798,up
458291,0.113281,8.484375,5.597656,0.044922,-0.345703,-0.105469,0.855591,0.440735,0.121582,0.242798,up
458297,0.1875,8.488281,5.558594,0.033203,-0.361328,-0.095703,0.855835,0.441284,0.120422,0.241577,up
458303,0.226562,8.484375,5.480469,0.021484,-0.355469,-0.09375,0.855835,0.441284,0.120422,0.241577,up
458308,0.226562,8.484375,5.480469,-0.001953,-0.349609,-0.083984,0.855835,0.441284,0.120422,0.241577,up
458313,0.304688,8.445313,5.480469,-0.011719,-0.337891,-0.078125,0.855835,0.441284,0.120422,0.241577,up
458318,0.34375,8.332031,5.367187,-0.041016,-0.308594,-0.076172,0.855835,0.441284,0.120422,0.241577,up
458323,0.34375,8.332031,5.367187,-0.041016,-0.308594,-0.076172,0.856567,0.442017,0.11731,0.239014,up
458329,0.378906,8.292969,5.40625,-0.087891,-0.226562,-0.068359,0.856567,0.442017,0.11731,0.239014,up
458334,0.34375,8.257813,5.367187,-0.087891,-0.226562,-0.068359,0.857178,0.441895,0.115845,0.237854,up
458340,0.34375,8.144531,5.367187,-0.087891,-0.226562,-0.068359,0.857361,0.441772,0.115479,0.23761,up
458345,0.34375,8.144531,5.40625,-0.091797,-0.138672,-0.064453,0.857361,0.441772,0.115479,0.23761,up
458352,0.378906,8.101563,5.367187,-0.080078,-0.136719,-0.054687,0.857361,0.441772,0.115479,0.23761,up
458357,0.34375,8.101563,5.40625,-0.080078,-0.136719,-0.054687,0.857361,0.441772,0.115479,0.23761,up
458362,0.34375,8.101563,5.40625,-0.058594,-0.121094,-0.058594,0.857971,0.441345,0.114502,0.236694,up
458367,0.34375,8.101563,5.40625,-0.037109,-0.119141,-0.052734,0.858093,0.441284,0.114258,0.23645,up
458372,0.34375,8.105469,5.441406,-0.009766,-0.132812,-0.046875,0.858093,0.441284,0.114258,0.23645,up
458377,0.34375,8.105469,5.441406,-0.009766,-0.132812,-0.046875,0.858276,0.441345,0.113831,0.235962,up
458382,0.378906,8.101563,5.328125,-0.009766,-0.132812,-0.046875,0.858276,0.441406,0.113586,0.235718,up
458387,0.417969,8.144531,5.328125,0.023437,-0.148437,-0.056641,0.858276,0.441406,0.113586,0.235718,up
458392,0.378906,8.183594,5.328125,0.023437,-0.148437,-0.056641,0.858398,0.44165,0.113098,0.235168,up
458398,0.417969,8.21875,5.328125,0.021484,-0.150391,-0.056641,0.858398,0.44165,0.113098,0.235168,up
458403,0.417969,8.292969,5.367187,0.021484,-0.150391,-0.056641,0.858459,0.441895,0.11261,0.234619,up
458409,0.457031,8.292969,5.367187,0.017578,-0.144531,-0.070312,0.858459,0.441895,0.11261,0.234619,up
458414,0.417969,8.332031,5.328125,-0.005859,-0.111328,-0.068359,0.858582,0.442078,0.112183,0.23407,up
458419,0.378906,8.332031,5.328125,-0.005859,-0.111328,-0.068359,0.858704,0.442139,0.111877,0.233582,up
458424,0.378906,8.371094,5.40625,-0.005859,-0.111328,-0.068359,0.858704,0.442139,0.111877,0.233582,up
458429,0.417969,8.332031,5.40625,-0.005859,-0.111328,-0.068359,0.858948,0.442078,0.111633,0.233215,up
458434,0.378906,8.328125,5.441406,-0.005859,-0.111328,-0.068359,0.858948,0.442078,0.111633,0.233215,up
458439,0.457031,8.328125,5.441406,-0.078125,-0.037109,-0.03125,0.858948,0.442078,0.111633,0.233215,up
458445,0.457031,8.21875,5.519531,-0.078125,-0.037109,-0.03125,0.859192,0.44165,0.111389,0.232971,up
458450,0.496094,8.179688,5.597656,-0.078125,-0.037109,-0.03125,0.859314,0.441528,0.111389,0.23291,up
458455,0.496094,8.179688,5.597656,-0.046875,0.005859,-0.023437,0.859375,0.441406,0.111389,0.23291,up
458461,0.570312,8.183594,5.632812,-0.046875,0.005859,-0.023437,0.859436,0.441284,0.11145,0.23291,up
458466,0.570312,8.261719,5.671875,-0.046875,0.005859,-0.023437,0.859436,0.441223,0.111511,0.23291,up
458471,0.570312,8.257813,5.75,0.005859,0.025391,-0.019531,0.859436,0.441223,0.111511,0.23291,up
458476,0.535156,8.257813,5.75,0.023437,0.03125,-0.023437,0.859436,0.441223,0.111511,0.23291,up
458481,0.496094,8.292969,5.828125,0.050781,0.015625,-0.011719,0.859436,0.441223,0.111511,0.23291,up
458486,0.496094,8.332031,5.828125,0.064453,0.013672,-0.011719,0.859436,0.441223,0.111511,0.23291,up
458492,0.570312,8.332031,5.863281,0.070312,-0.015625,0.003906,0.859436,0.441223,0.111511,0.23291,up
458497,0.570312,8.367188,5.941406,0.052734,-0.03125,0.017578,0.859436,0.441223,0.111511,0.23291,up
458503,0.609375,8.40625,5.902344,0.052734,-0.03125,0.017578,0.859436,0.441223,0.111511,0.23291,up
458509,0.6875,8.371094,5.863281,0.013672,-0.052734,0.042969,0.859436,0.441223,0.111511,0.23291,up
458514,0.726562,8.410156,5.863281,0.013672,-0.052734,0.042969,0.858948,0.442078,0.111572,0.233093,up
458520,0.726562,8.410156,5.863281,0.027344,-0.042969,0.042969,0.858887,0.442139,0.11145,0.233154,up
458525,0.917969,8.527344,5.789062,0.027344,-0.042969,0.042969,0.858826,0.442261,0.111328,0.233276,up
458530,0.953125,8.605469,5.828125,0.041016,-0.019531,0.035156,0.858826,0.442261,0.111328,0.233276,up
458535,0.953125,8.605469,5.828125,0.046875,-0.001953,0.033203,0.858704,0.442444,0.111267,0.233398,up
458540,0.953125,8.789063,5.75,0.046875,-0.001953,0.033203,0.858643,0.442566,0.111328,0.233521,up
458545,0.917969,8.910156,5.789062,0.068359,0.056641,0.039063,0.858521,0.442688,0.11145,0.233643,up
458551,0.839844,9.136719,5.863281,0.068359,0.056641,0.039063,0.858398,0.44281,0.111572,0.233826,up
458557,0.761719,9.371094,5.863281,0.078125,0.105469,0.048828,0.858398,0.44281,0.111572,0.233826,up
458562,0.726562,9.449219,5.980469,0.074219,0.123047,0.078125,0.858398,0.44281,0.111572,0.233826,up
458568,0.6875,9.476563,6.054687,0.050781,0.146484,0.095703,0.858398,0.44281,0.111572,0.233826,up
458574,0.570312,9.558594,6.171875,0.050781,0.146484,0.095703,0.857727,0.443115,0.112549,0.235107,up
458579,0.496094,9.597656,6.210937,-0.029297,0.193359,0.148437,0.857483,0.442871,0.112915,0.236206,up
458584,0.535156,9.554688,6.210937,-0.150391,0.189453,0.224609,0.857483,0.442871,0.112915,0.236206,up
458589,0.496094,9.445313,6.363281,-0.150391,0.189453,0.224609,0.857422,0.442566,0.113098,0.236938,up
458594,0.496094,9.410156,6.363281,-0.150391,0.189453,0.224609,0.857422,0.442139,0.113098,0.237732,up
458599,0.496094,9.253906,6.4375,-0.289063,0.140625,0.300781,0.857422,0.442139,0.113098,0.237732,up
458604,0.535156,9.171875,6.476562,-0.289063,0.140625,0.300781,0.857544,0.44104,0.112915,0.239502,up
458609,0.570312,9.097656,6.628906,-0.289063,0.140625,0.300781,0.857727,0.439819,0.112427,0.241333,up
458614,0.609375,9.023438,6.667969,-0.289063,0.140625,0.300781,0.857727,0.439819,0.112427,0.241333,up
458619,0.609375,9.023438,6.667969,-0.203125,0.119141,0.373047,0.857727,0.439819,0.112427,0.241333,up
458624,0.648437,8.949219,6.746094,-0.203125,0.119141,0.373047,0.857727,0.438843,0.111816,0.243286,up
458630,0.648437,8.949219,6.746094,-0.113281,0.140625,0.400391,0.857544,0.438171,0.111389,0.245361,up
458635,0.648437,8.867188,6.746094,-0.072266,0.148437,0.408203,0.857361,0.437988,0.111206,0.246521,up
458641,0.726562,8.789063,6.898437,-0.072266,0.148437,0.408203,0.857117,0.437866,0.111084,0.24762,up
458646,0.726562,8.753906,6.9375,-0.072266,0.148437,0.408203,0.856873,0.437744,0.110962,0.248718,up
458653,0.726562,8.675781,7.050781,-0.072266,0.148437,0.408203,0.856873,0.437744,0.110962,0.248718,up
458658,0.726562,8.640625,7.050781,-0.107422,0.230469,0.453125,0.856873,0.437744,0.110962,0.248718,up
458663,0.648437,8.566406,7.089844,-0.138672,0.263672,0.453125,0.856873,0.437744,0.110962,0.248718,up
458669,0.648437,8.523438,7.089844,-0.261719,0.314453,0.451172,0.856873,0.437744,0.110962,0.248718,up
458674,0.609375,8.449219,7.128906,-0.261719,0.314453,0.451172,0.855835,0.436096,0.11084,0.255249,up
458679,0.648437,8.289063,7.128906,-0.335938,0.314453,0.453125,0.855835,0.436096,0.11084,0.255249,up
458684,0.609375,8.261719,7.207031,-0.335938,0.314453,0.453125,0.855774,0.434448,0.110779,0.258179,up
458689,0.609375,8.261719,7.207031,-0.335938,0.314453,0.453125,0.855835,0.43335,0.110718,0.259766,up
458694,0.609375,8.222656,7.320312,-0.560547,0.304688,0.427734,0.855835,0.43335,0.110718,0.259766,up
458700,0.570312,8.183594,7.167969,-0.560547,0.304688,0.427734,0.856384,0.429871,0.110291,0.263855,up
458705,0.609375,8.140625,7.207031,-0.601562,0.318359,0.404297,0.856689,0.428345,0.110168,0.265442,up
458710,0.570312,8.140625,7.242187,-0.617187,0.318359,0.392578,0.856995,0.426941,0.109985,0.266785,up
458716,0.570312,8.183594,7.167969,-0.617187,0.318359,0.392578,0.8573,0.425598,0.109924,0.268066,up
458721,0.457031,8.027344,7.167969,-0.617187,0.318359,0.392578,0.857605,0.424072,0.109802,0.26947,up
458726,0.378906,8.027344,7.128906,-0.736328,0.369141,0.357422,0.857605,0.424072,0.109802,0.26947,up
458731,0.34375,7.984375,7.128906,-0.775391,0.378906,0.357422,0.857605,0.424072,0.109802,0.26947,up
458737,0.34375,7.945312,7.015625,-0.775391,0.378906,0.357422,0.858948,0.41864,0.109619,0.273682,up
458743,0.304688,7.839844,7.050781,-0.845703,0.400391,0.373047,0.858948,0.41864,0.109619,0.273682,up
458748,0.265625,7.757812,6.976562,-0.894531,0.398438,0.373047,0.858948,0.41864,0.109619,0.273682,up
458753,0.304688,7.644531,6.976562,-0.935547,0.398438,0.382813,0.858948,0.41864,0.109619,0.273682,up
458759,0.265625,7.414062,6.976562,-0.935547,0.398438,0.382813,0.861145,0.410278,0.109009,0.279663,up
458764,0.265625,7.257812,6.976562,-1.042969,0.384766,0.349609,0.861145,0.410278,0.109009,0.279663,up
458769,0.226562,7.03125,6.898437,-1.042969,0.384766,0.349609,0.862488,0.405518,0.108582,0.282593,up
458774,0.1875,6.914062,6.898437,-1.042969,0.384766,0.349609,0.86322,0.402954,0.108276,0.284119,up
458779,0.113281,6.914062,6.824219,-1.042969,0.384766,0.349609,0.863892,0.400757,0.108032,0.2854,up
458785,0.074219,6.917969,6.859375,-0.986328,0.339844,0.269531,0.865295,0.395935,0.107544,0.287903,up
458790,0.074219,6.992187,6.785156,-0.986328,0.339844,0.269531,0.865967,0.39386,0.107361,0.28894,up
458796,0.074219,7.03125,6.746094,-0.986328,0.339844,0.269531,0.866638,0.391663,0.107117,0.289917,up
458801,0.074219,7.03125,6.707031,-0.957031,0.279297,0.177734,0.867371,0.389465,0.106873,0.290894,up
458806,0.035156,6.996094,6.667969,-0.945312,0.283203,0.164062,0.867371,0.389465,0.106873,0.290894,up
458812,-0.003906,6.957031,6.515625,-0.945312,0.283203,0.164062,0.868774,0.384949,0.106445,0.292725,up
458818,-0.003906,6.992187,6.4375,-0.955078,0.326172,0.138672,0.868774,0.384949,0.106445,0.292725,up
458823,0.035156,6.917969,6.402344,-0.964844,0.349609,0.123047,0.868774,0.384949,0.106445,0.292725,up
458829,0.074219,6.71875,6.402344,-0.964844,0.349609,0.123047,0.870972,0.378052,0.10614,0.29541,up
458834,0.113281,6.613281,6.363281,-1.054688,0.378906,0.089844,0.870972,0.378052,0.10614,0.29541,up
458839,0.074219,6.492187,6.210937,-1.15625,0.457031,0.048828,0.870972,0.378052,0.10614,0.29541,up
458844,-0.003906,6.300781,6.132812,-1.15625,0.457031,0.048828,0.873474,0.370117,0.10614,0.298035,up
458849,0.035156,6.1875,6.09375,-1.15625,0.457031,0.048828,0.87439,0.367065,0.106262,0.298889,up
458855,0.074219,6.148437,6.175781,-1.257813,0.501953,-0.015625,0.87439,0.367065,0.106262,0.298889,up
458860,0.074219,6.148437,6.175781,-1.292969,0.527344,-0.048828,0.876465,0.360779,0.106628,0.300476,up
458865,-0.042969,6.109375,6.246094,-1.300781,0.542969,-0.09375,0.877502,0.357544,0.106873,0.301208,up
458870,-0.042969,6.109375,6.246094,-1.294922,0.558594,-0.121094,0.878601,0.354248,0.107239,0.301819,up
458875,-0.234375,6.109375,6.359375,-1.294922,0.558594,-0.121094,0.879639,0.351013,0.107605,0.302368,up
458880,-0.234375,6.109375,6.359375,-1.279297,0.53125,-0.1875,0.880737,0.347656,0.107971,0.302856,up
458885,-0.042969,5.917969,6.242187,-1.279297,0.53125,-0.1875,0.881897,0.34436,0.108398,0.303223,up
458890,-0.15625,6.035156,6.363281,-1.296875,0.535156,-0.273438,0.884216,0.337646,0.109192,0.303711,up
458895,-0.195312,6.035156,6.597656,-1.296875,0.535156,-0.273438,0.885376,0.334412,0.109497,0.303711,up
458901,-0.234375,6.722656,6.4375,-1.296875,0.535156,-0.273438,0.886658,0.331116,0.109741,0.303589,up
458906,-0.269531,6.914062,6.324219,-1.349609,0.316406,-0.458984,0.886658,0.331116,0.109741,0.303589,up
458911,-0.195312,6.992187,6.246094,-1.484375,0.220703,-0.515625,0.886658,0.331116,0.109741,0.303589,up
458916,-0.234375,6.953125,6.171875,-1.669922,0.121094,-0.583984,0.886658,0.331116,0.109741,0.303589,up
458922,-0.195312,6.796875,6.054687,-1.669922,0.121094,-0.583984,0.892822,0.316345,0.108826,0.301514,up
458928,-0.15625,6.570312,6.09375,-2.099609,-0.017578,-0.685547,0.892822,0.316345,0.108826,0.301514,up
458934,-0.078125,6.300781,6.171875,-2.310547,-0.076172,-0.738281,0.892822,0.316345,0.108826,0.301514,up
458939,-0.078125,5.804687,6.171875,-2.529297,-0.113281,-0.775391,0.892822,0.316345,0.108826,0.301514,up
458945,-0.078125,5.574219,6.242187,-2.878906,-0.148437,-0.832031,0.892822,0.316345,0.108826,0.301514,up
458950,-0.003906,5.078125,6.554687,-2.878906,-0.148437,-0.832031,0.904907,0.288269,0.101746,0.296082,up
458955,-0.003906,4.886719,6.667969,-2.878906,-0.148437,-0.832031,0.910278,0.274963,0.097839,0.293579,up
458960,0.035156,4.617187,6.785156,-2.878906,-0.148437,-0.832031,0.910278,0.274963,0.097839,0.293579,up
458965,0.035156,4.425781,6.902344,-3.044922,-0.259766,-0.916016,0.916077,0.260437,0.093262,0.290405,up
458970,-0.042969,4.730469,6.863281,-3.044922,-0.259766,-0.916016,0.918701,0.253784,0.091003,0.288635,up
458975,-0.003906,4.808594,6.625,-3.044922,-0.259766,-0.916016,0.918701,0.253784,0.091003,0.288635,up
458980,-0.003906,4.808594,6.625,-2.796875,-0.443359,-1.171875,0.921265,0.247559,0.088867,0.28656,up
458985,-0.117188,4.921875,6.554687,-2.753906,-0.556641,-1.318359,0.921265,0.247559,0.088867,0.28656,up
458990,-0.078125,5.152344,6.59375,-2.726563,-0.652344,-1.474609,0.921265,0.247559,0.088867,0.28656,up
458995,-0.078125,5.152344,6.59375,-2.71875,-0.748047,-1.626953,0.929504,0.228882,0.08136,0.277588,up
459001,0.1875,5.460937,6.707031,-2.794922,-0.8125,-1.771484,0.935242,0.21637,0.075806,0.269714,up
459007,0.34375,5.113281,6.402344,-2.794922,-0.8125,-1.771484,0.935242,0.21637,0.075806,0.269714,up
459012,0.457031,4.847656,6.515625,-3.353516,-0.841797,-2.082031,0.935242,0.21637,0.075806,0.269714,up
459017,0.570312,4.347656,6.625,-3.634766,-0.832031,-2.130859,0.944763,0.193726,0.066467,0.255737,up
459022,0.726562,3.925781,6.667969,-3.925781,-0.794922,-2.173828,0.944763,0.193726,0.066467,0.255737,up
459027,0.800781,2.816406,7.015625,-3.925781,-0.794922,-2.173828,0.944763,0.193726,0.066467,0.255737,up
459033,0.878906,2.355469,7.320312,-4.21875,-0.697266,-2.144531,0.944763,0.193726,0.066467,0.255737,up
459038,0.878906,2.355469,7.320312,-4.193359,-0.65625,-2.126953,0.957764,0.155151,0.05304,0.236206,up
459044,0.878906,2.355469,7.320312,-4.03125,-0.587891,-2.119141,0.960388,0.146179,0.050232,0.231812,up
459049,1.109375,1.246094,7.96875,-4.03125,-0.587891,-2.119141,0.960388,0.146179,0.050232,0.231812,up
459054,1.222656,1.054688,8.429688,-3.755859,-0.533203,-2.132813,0.960388,0.146179,0.050232,0.231812,up
459060,1.222656,1.054688,8.429688,-2.851563,-0.5,-2.21875,0.967773,0.120605,0.04248,0.216797,up
459066,1.109375,1.628906,8.855469,-1.833984,-0.632812,-2.40625,0.969788,0.114441,0.040588,0.211548,up
459071,1.144531,1.820313,9.078125,-1.833984,-0.632812,-2.40625,0.973633,0.105225,0.036682,0.199158,up
459077,0.992187,2.203125,9.277344,-1.833984,-0.632812,-2.40625,0.975098,0.102783,0.034973,0.193481,up
459082,0.457031,2.96875,9.316406,-1.833984,-0.632812,-2.40625,0.976685,0.100952,0.032776,0.186584,up
459087,0.417969,3.3125,9.316406,-0.548828,-1.353516,-3.078125,0.978333,0.09967,0.030151,0.178894,up
459093,0.34375,3.773438,9.421875,-0.501953,-1.572266,-3.253906,0.978333,0.09967,0.030151,0.178894,up
459098,0.265625,4.273437,9.5,-0.5625,-1.757813,-3.396484,0.978333,0.09967,0.030151,0.178894,up
459103,0.152344,5.078125,9.695313,-0.5625,-1.757813,-3.396484,0.978333,0.09967,0.030151,0.178894,up
459109,0.152344,5.535156,9.921875,-0.5625,-1.757813,-3.396484,0.984741,0.09552,0.015564,0.144531,up
459114,0.34375,5.613281,10.082031,-1.183594,-2.015625,-3.515625,0.984741,0.09552,0.015564,0.144531,up
459119,0.496094,5.496094,10.230469,-1.183594,-2.015625,-3.515625,0.984741,0.09552,0.015564,0.144531,up
459124,0.496094,5.496094,10.230469,-1.435547,-1.972656,-3.46875,0.989197,0.087585,0.002075,0.117615,up
459129,0.496094,5.496094,10.230469,-1.845703,-1.742188,-3.208984,0.99054,0.083679,-0.002319,0.108887,up
459134,0.800781,4.886719,10.730469,-1.845703,-1.742188,-3.208984,0.991699,0.079529,-0.006226,0.100891,up
459139,1.261719,4.5,11.375,-1.845703,-1.742188,-3.208984,0.992798,0.075134,-0.009888,0.09314,up
459144,1.644531,4.195312,11.914063,-1.845703,-1.742188,-3.208984,0.992798,0.075134,-0.009888,0.09314,up
459150,1.644531,4.195312,12.148438,-1.175781,-0.740234,-2.091797,0.992798,0.075134,-0.009888,0.09314,up
459155,1.492188,4.273437,12.878906,-0.791016,-0.554687,-1.886719,0.994995,0.064148,-0.017395,0.074219,up
459160,1.109375,4.386719,12.757813,-0.791016,-0.554687,-1.886719,0.99585,0.060669,-0.019836,0.064697,up
459165,0.800781,4.5,12.796875,-0.791016,-0.554687,-1.886719,0.99585,0.060669,-0.019836,0.064697,up
459170,0.570312,5.0,13.300781,-0.011719,-0.414062,-1.591797,0.99585,0.060669,-0.019836,0.064697,up
459175,0.417969,5.421875,13.179688,0.693359,-0.332031,-1.425781,0.996338,0.060791,-0.021484,0.056641,up
459181,0.304688,5.804687,13.0625,0.931641,-0.263672,-1.361328,0.996399,0.062378,-0.022095,0.052795,up
459186,0.113281,6.761719,12.71875,0.931641,-0.263672,-1.361328,0.996399,0.0672,-0.022766,0.045898,up
459191,0.074219,6.953125,12.644531,0.931641,-0.263672,-1.361328,0.996338,0.069885,-0.022705,0.043091,up
459196,0.074219,6.992187,12.375,1.128906,0.103516,-1.146484,0.996277,0.072998,-0.022278,0.040039,up
459201,-0.117188,6.761719,12.257813,1.128906,0.103516,-1.146484,0.996216,0.0755,-0.021545,0.03772,up
459206,-0.117188,6.457031,12.53125,1.128906,0.103516,-1.146484,0.996155,0.077942,-0.020264,0.035217,up
459211,0.074219,6.800781,12.71875,0.59375,0.658203,-0.794922,0.996094,0.079834,-0.018494,0.033081,up
459217,-0.234375,6.609375,12.957031,0.59375,0.658203,-0.794922,0.996094,0.080811,-0.016663,0.031738,up
459222,-0.386719,6.109375,13.300781,0.035156,1.03125,-0.462891,0.996155,0.081177,-0.014221,0.03064,up
459228,-0.691406,5.726562,13.949219,0.035156,1.03125,-0.462891,0.996216,0.080933,-0.011414,0.030029,up
459234,-0.808594,5.613281,14.332031,-0.320313,1.277344,-0.009766,0.996216,0.080933,-0.011414,0.030029,up
459239,-0.808594,5.613281,14.332031,-0.382813,1.394531,0.242187,0.996338,0.079346,-0.005127,0.030457,up
459245,-1.113281,5.039062,14.753906,-0.355469,1.478516,0.501953,0.996399,0.078308,-0.001526,0.031738,up
459250,-1.113281,5.039062,14.753906,-0.267578,1.53125,0.763672,0.996399,0.077454,0.002014,0.03363,up
459255,-1.535156,4.386719,15.402344,-0.267578,1.53125,0.763672,0.996338,0.076904,0.005676,0.036194,up
459260,-1.535156,4.386719,15.402344,0.185547,1.570313,1.253906,0.996216,0.076904,0.009399,0.039368,up
459265,-2.609375,2.777344,16.015625,0.185547,1.570313,1.253906,0.995605,0.079102,0.016541,0.047058,up
459270,-2.609375,2.625,16.203125,0.185547,1.570313,1.253906,0.995605,0.079102,0.016541,0.047058,up
459275,-2.644531,2.433594,16.28125,1.476563,1.269531,1.804688,0.995605,0.079102,0.016541,0.047058,up
459280,-3.027344,2.625,15.980469,1.476563,1.269531,1.804688,0.994568,0.084656,0.02301,0.056091,up
459285,-3.105469,2.96875,15.746094,1.476563,1.269531,1.804688,0.993774,0.089294,0.026306,0.061646,up
459291,-3.144531,3.46875,15.671875,2.060547,0.771484,1.878906,0.993774,0.089294,0.026306,0.061646,up
459296,-3.183594,4.082031,15.441406,2.060547,0.771484,1.878906,0.991211,0.103577,0.032227,0.075439,up
459301,-3.296875,4.847656,14.789063,2.060547,0.771484,1.878906,0.990356,0.108337,0.033203,0.079956,up
459306,-3.21875,5.113281,14.632813,2.060547,0.771484,1.878906,0.989441,0.112976,0.033752,0.084595,up
459311,-3.066406,5.230469,14.484375,1.4375,0.015625,1.972656,0.988464,0.117371,0.033813,0.089722,up
459316,-2.875,5.113281,14.289063,1.4375,0.015625,1.972656,0.987671,0.120361,0.033386,0.094177,up
459321,-2.53125,4.539062,14.066406,0.740234,-0.240234,2.119141,0.986816,0.123108,0.03241,0.099731,up
459326,-2.300781,4.082031,14.101563,0.455078,-0.324219,2.214844,0.986145,0.124817,0.03125,0.104919,up
459331,-1.957031,2.96875,14.328125,0.455078,-0.324219,2.214844,0.986145,0.124817,0.03125,0.104919,up
459336,-1.839844,2.28125,14.449219,0.455078,-0.324219,2.214844,0.984741,0.12677,0.028198,0.115845,up
459341,-1.726563,1.707031,14.554688,0.189453,-0.412109,2.535156,0.984741,0.12677,0.028198,0.115845,up
459346,-1.613281,1.128906,14.636719,0.189453,-0.412109,2.535156,0.983032,0.12854,0.024597,0.128479,up
459351,-1.496094,0.976562,14.636719,0.189453,-0.412109,2.535156,0.982117,0.129822,0.023132,0.13446,up
459356,-1.304688,0.746094,14.328125,0.919922,-0.236328,2.869141,0.980835,0.13208,0.021667,0.141724,up
459361,-1.230469,0.710937,14.25,0.919922,-0.236328,2.869141,0.980835,0.13208,0.021667,0.141724,up
459366,-1.265625,0.671875,14.171875,1.333984,-0.158203,3.0,0.979431,0.134888,0.020691,0.148499,up
459371,-1.34375,0.863281,13.832031,1.333984,-0.158203,3.0,0.977783,0.138855,0.019958,0.155823,up
459376,-1.34375,0.863281,13.832031,1.333984,-0.158203,3.0,0.977783,0.138855,0.019958,0.155823,up
459381,-1.574219,1.09375,13.367188,2.671875,0.019531,3.509766,0.970642,0.15741,0.019226,0.180847,up
459386,-1.839844,1.4375,13.21875,2.671875,0.019531,3.509766,0.970642,0.15741,0.019226,0.180847,up
459392,-2.070313,1.398438,13.105469,2.671875,0.019531,3.509766,0.964233,0.173462,0.019531,0.199341,up
459397,-2.070313,1.398438,13.105469,3.779297,0.029297,4.382812,0.960327,0.182739,0.019592,0.209717,up
459402,-2.417969,1.359375,12.761719,3.779297,0.029297,4.382812,0.956116,0.1922,0.019592,0.220215,up
459407,-2.492188,1.515625,12.492188,3.779297,0.029297,4.382812,0.951477,0.202271,0.019348,0.231201,up
459412,-2.835938,2.011719,12.417969,3.779297,0.029297,4.382812,0.951477,0.202271,0.019348,0.231201,up
459417,-2.835938,2.011719,12.417969,4.707031,-0.5,5.326172,0.94043,0.224426,0.017883,0.254761,up
459422,-2.835938,2.011719,12.417969,4.933594,-0.726562,5.568359,0.934204,0.236267,0.016479,0.266846,up
459427,-3.105469,2.089844,11.992188,4.933594,-0.726562,5.568359,0.934204,0.236267,0.016479,0.266846,up
459432,-3.21875,1.628906,11.878906,5.208984,-0.990234,5.816406,0.927063,0.249207,0.014404,0.279785,up
459437,-3.21875,1.628906,11.878906,5.501953,-1.267578,6.076172,0.919495,0.26239,0.011902,0.29248,up
459442,-2.992188,0.976562,10.6875,5.798828,-1.492188,6.306641,0.919495,0.26239,0.011902,0.29248,up
459447,-2.800781,0.824219,10.082031,6.115234,-1.701172,6.541016,0.891724,0.307007,0.001465,0.33252,up
459453,-2.378906,0.59375,8.550781,6.115234,-1.701172,6.541016,0.880432,0.323608,-0.002625,0.346558,up
459458,-2.378906,0.59375,8.550781,6.982422,-1.960938,7.056641,0.868652,0.340027,-0.006531,0.360229,up
459463,-1.957031,0.746094,6.902344,6.982422,-1.960938,7.056641,0.868652,0.340027,-0.006531,0.360229,up
459468,-1.957031,0.746094,6.902344,7.246094,-1.982422,7.158203,0.842041,0.374573,-0.014221,0.387878,up
459473,-1.765625,0.863281,6.214844,7.246094,-1.982422,7.158203,0.842041,0.374573,-0.014221,0.387878,up
459478,-0.960937,1.054688,5.832031,7.935547,-2.074219,7.271484,0.81189,0.410156,-0.021484,0.414917,up
459483,-0.308594,1.820313,4.640625,7.935547,-2.074219,7.271484,0.795898,0.427856,-0.024658,0.427734,up
459489,-0.269531,1.742188,4.601562,8.341797,-2.076172,7.222656,0.795898,0.427856,-0.024658,0.427734,up
459494,-0.078125,1.167969,4.328125,8.546875,-2.142578,7.226562,0.795898,0.427856,-0.024658,0.427734,up
459499,0.226562,0.289063,4.140625,8.546875,-2.142578,7.226562,0.795898,0.427856,-0.024658,0.427734,up
459504,0.34375,-0.476562,3.722656,8.625,-2.054688,7.199219,0.795898,0.427856,-0.024658,0.427734,up
459510,0.34375,-0.476562,3.722656,8.646484,-1.830078,7.150391,0.703125,0.516541,-0.036987,0.487244,up
459515,1.222656,-1.089844,2.796875,8.572266,-1.634766,6.976562,0.703125,0.516541,-0.036987,0.487244,up
459520,2.066406,0.363281,2.570313,8.486328,-1.693359,6.814453,0.663147,0.548218,-0.039795,0.508057,up
459525,2.105469,1.820313,1.726563,8.486328,-1.693359,6.814453,0.663147,0.548218,-0.039795,0.508057,up
459530,2.601563,2.316406,1.304688,8.486328,-1.693359,6.814453,0.620544,0.579163,-0.042297,0.526978,up
459535,2.871094,2.511719,1.421875,7.634766,-1.865234,5.984375,0.620544,0.579163,-0.042297,0.526978,up
459540,2.871094,2.511719,1.421875,7.185547,-2.123047,5.632812,0.582581,0.605103,-0.045105,0.54071,up
459545,3.332031,2.738281,1.652344,6.644531,-2.240234,5.246094,0.582581,0.605103,-0.045105,0.54071,up
459550,4.558594,2.625,1.765625,6.121094,-2.207031,4.796875,0.547058,0.628845,-0.049316,0.550354,up
459555,4.558594,2.625,1.765625,6.121094,-2.207031,4.796875,0.547058,0.628845,-0.049316,0.550354,up
459560,4.558594,2.625,1.765625,5.621094,-2.107422,4.306641,0.516907,0.648315,-0.05304,0.556519,up
459566,6.316406,1.859375,1.191406,5.621094,-2.107422,4.306641,0.50354,0.656799,-0.054687,0.558655,up
459571,7.503906,0.480469,0.882812,3.591797,-1.707031,2.890625,0.50354,0.656799,-0.054687,0.558655,up
459576,7.925781,-0.476562,0.960937,1.431641,-1.394531,2.185547,0.483154,0.669434,-0.058533,0.561218,up
459581,7.925781,-0.476562,0.960937,1.431641,-1.394531,2.185547,0.476074,0.673645,-0.061462,0.561951,up
459586,8.84375,-2.433594,1.957031,0.353516,-1.21875,1.958984,0.471436,0.676208,-0.065186,0.562378,up
459591,8.84375,-2.433594,1.957031,-0.677734,-0.974609,1.787109,0.468872,0.677246,-0.069763,0.562683,up
459597,8.726563,-3.082031,2.417969,-0.677734,-0.974609,1.787109,0.468018,0.67688,-0.075195,0.56311,up
459603,8.421875,-3.8125,2.648438,-1.898438,-0.472656,1.492188,0.469727,0.673462,-0.086365,0.56427,up
459608,7.660156,-2.660156,2.070313,-1.898438,-0.472656,1.492188,0.47113,0.671143,-0.091614,0.564941,up
459613,7.355469,-1.855469,1.726563,-1.507813,-0.130859,1.009766,0.47113,0.671143,-0.091614,0.564941,up
459618,7.3125,-0.898437,1.382813,-0.701172,-0.226562,0.751953,0.47113,0.671143,-0.091614,0.564941,up
459624,7.160156,0.710937,1.304688,0.21875,-0.330078,0.478516,0.47113,0.671143,-0.091614,0.564941,up
459629,7.15625,1.4375,1.34375,1.228516,-0.429687,0.179687,0.47113,0.671143,-0.091614,0.564941,up
459634,7.199219,2.242188,1.230469,2.228516,-0.492187,-0.103516,0.47113,0.671143,-0.091614,0.564941,up
459639,7.046875,3.007813,1.230469,2.974609,-0.53125,-0.310547,0.47113,0.671143,-0.091614,0.564941,up
459644,7.085937,3.851563,1.039063,2.974609,-0.53125,-0.310547,0.47113,0.671143,-0.091614,0.564941,up
459650,7.273437,4.195312,0.730469,3.714844,-0.589844,-0.603516,0.47113,0.671143,-0.091614,0.564941,up
459655,7.394531,4.425781,0.464844,3.572266,-0.570312,-0.677734,0.47113,0.671143,-0.091614,0.564941,up
459661,7.617187,4.386719,0.347656,3.117188,-0.587891,-0.664062,0.437744,0.699036,-0.070251,0.561035,up
459666,7.777344,4.347656,0.539062,3.117188,-0.587891,-0.664062,0.437744,0.699036,-0.070251,0.561035,up
459671,7.886719,4.386719,0.578125,0.441406,-0.400391,-0.300781,0.437744,0.699036,-0.070251,0.561035,up
459676,7.960937,4.578125,0.539062,0.441406,-0.400391,-0.300781,0.433777,0.703735,-0.065857,0.558777,up
459681,7.886719,4.617187,0.386719,-0.974609,-0.119141,-0.097656,0.433777,0.703735,-0.065857,0.558777,up
459686,7.921875,4.695312,0.425781,-0.974609,-0.119141,-0.097656,0.435303,0.703857,-0.066528,0.557434,up
459692,7.921875,4.695312,0.539062,-1.445313,-0.037109,-0.027344,0.440369,0.700806,-0.070435,0.556763,up
459697,7.960937,4.808594,0.539062,-1.697266,0.111328,-0.0625,0.443115,0.699036,-0.072388,0.55658,up
459702,8.0,4.886719,0.308594,-1.697266,0.111328,-0.0625,0.443115,0.699036,-0.072388,0.55658,up
459707,8.039063,5.0,0.195312,-1.550781,0.150391,-0.158203,0.449036,0.69519,-0.075806,0.556213,up
459712,8.234375,5.113281,0.042969,-1.550781,0.150391,-0.158203,0.451294,0.693848,-0.076477,0.555908,up
459717,8.238281,5.191406,0.003906,-1.550781,0.150391,-0.158203,0.452942,0.693115,-0.076355,0.555603,up
459722,8.195313,5.304687,0.003906,-0.050781,0.164062,-0.611328,0.454163,0.692688,-0.075378,0.555176,up
459727,8.195313,5.304687,0.042969,0.201172,0.132812,-0.669922,0.454895,0.692688,-0.073975,0.554749,up
459732,8.195313,5.34375,0.117188,0.201172,0.132812,-0.669922,0.455383,0.692932,-0.072327,0.554321,up
459737,8.042969,5.496094,0.234375,0.335938,0.121094,-0.734375,0.455811,0.693298,-0.070374,0.553772,up
459743,7.738281,5.421875,0.65625,0.335938,0.121094,-0.734375,0.456238,0.693665,-0.068665,0.553162,up
459748,7.773437,5.382812,0.808594,0.166016,-0.011719,-0.689453,0.456238,0.693665,-0.068665,0.553162,up
459754,7.773437,5.726562,0.617187,0.166016,-0.011719,-0.689453,0.457458,0.694275,-0.065735,0.551697,up
459759,7.855469,5.957031,0.5,0.042969,-0.074219,-0.568359,0.45813,0.69458,-0.064636,0.550964,up
459764,7.882812,6.1875,0.425781,0.046875,-0.119141,-0.521484,0.45813,0.69458,-0.064636,0.550964,up
459769,8.039063,6.648437,0.273438,0.046875,-0.119141,-0.521484,0.459229,0.69519,-0.062866,0.549438,up
459775,8.117188,6.839844,0.042969,0.195312,-0.140625,-0.453125,0.459229,0.69519,-0.062866,0.549438,up
459780,8.117188,7.03125,-0.1875,0.357422,-0.123047,-0.447266,0.459229,0.69519,-0.062866,0.549438,up
459786,8.277344,7.296875,-0.378906,0.501953,-0.121094,-0.441406,0.459229,0.69519,-0.062866,0.549438,up
459791,8.308594,7.375,-0.457031,0.501953,-0.121094,-0.441406,0.459045,0.697815,-0.05835,0.546753,up
459797,8.308594,7.375,-0.496094,0.615234,-0.078125,-0.400391,0.459045,0.697815,-0.05835,0.546753,up
459802,8.234375,7.453125,-0.570312,0.576172,-0.025391,-0.363281,0.459045,0.697815,-0.05835,0.546753,up
459808,8.15625,7.375,-0.496094,0.576172,-0.025391,-0.363281,0.457153,0.700562,-0.052917,0.545349,up
459813,8.160156,7.261719,-0.339844,0.082031,0.142578,-0.236328,0.457153,0.700684,-0.052002,0.545288,up
459818,8.117188,7.105469,-0.265625,-0.152344,0.207031,-0.191406,0.45752,0.700439,-0.051453,0.545349,up
459823,8.039063,6.914062,-0.1875,-0.152344,0.207031,-0.191406,0.458252,0.699768,-0.051208,0.545593,up
459828,7.816406,6.609375,0.082031,-0.152344,0.207031,-0.191406,0.458252,0.699768,-0.051208,0.545593,up
459834,7.773437,6.417969,0.273438,-0.621094,0.265625,-0.083984,0.460266,0.697998,-0.051514,0.546143,up
459839,7.699219,6.265625,0.386719,-0.642578,0.238281,-0.044922,0.460266,0.697998,-0.051514,0.546143,up
459844,7.699219,6.074219,0.386719,-0.642578,0.238281,-0.044922,0.462585,0.695923,-0.05249,0.546753,up
459849,7.777344,5.882812,0.464844,-0.480469,0.162109,-0.001953,0.463623,0.695007,-0.052979,0.547058,up
459854,7.882812,5.882812,0.539062,-0.345703,0.103516,0.0,0.463623,0.695007,-0.052979,0.547058,up
459859,7.921875,5.765625,0.578125,-0.201172,0.060547,-0.023437,0.464722,0.69397,-0.053589,0.547302,up
459864,8.117188,5.726562,0.386719,-0.201172,0.060547,-0.023437,0.464722,0.69397,-0.053589,0.547302,up
459870,8.15625,5.726562,0.386719,0.050781,0.001953,-0.066406,0.464722,0.69397,-0.053589,0.547302,up
459876,8.277344,5.6875,0.425781,0.050781,0.001953,-0.066406,0.464966,0.693909,-0.053284,0.547241,up
459882,8.425781,5.6875,0.464844,0.140625,-0.017578,-0.107422,0.464722,0.694275,-0.052612,0.547058,up
459887,8.460938,5.652344,0.386719,0.140625,-0.017578,-0.107422,0.464722,0.694275,-0.052612,0.547058,up
459892,8.460938,5.765625,0.308594,0.054687,0.056641,-0.130859,0.464722,0.694275,-0.052612,0.547058,up
459898,8.460938,5.765625,0.308594,-0.109375,0.126953,-0.140625,0.465149,0.694092,-0.051575,0.547058,up
459903,8.34375,5.957031,0.386719,-0.109375,0.126953,-0.140625,0.465576,0.693726,-0.051331,0.547119,up
459908,8.308594,6.035156,0.347656,-0.21875,0.183594,-0.158203,0.465576,0.693726,-0.051331,0.547119,up
459914,8.160156,6.035156,0.5,-0.21875,0.183594,-0.158203,0.466675,0.69281,-0.050964,0.547363,up
459919,8.003906,5.957031,0.539062,-0.197266,0.238281,-0.171875,0.467285,0.692261,-0.050659,0.547546,up
459925,7.964844,5.882812,0.691406,-0.136719,0.242187,-0.179687,0.467285,0.692261,-0.050659,0.547546,up
459931,7.851562,5.726562,0.691406,-0.082031,0.242187,-0.183594,0.467285,0.692261,-0.050659,0.547546,up
459936,7.855469,5.6875,0.808594,-0.005859,0.222656,-0.173828,0.467285,0.692261,-0.050659,0.547546,up
459942,7.882812,5.6875,0.882812,0.123047,0.177734,-0.15625,0.467285,0.692261,-0.050659,0.547546,up
459947,7.925781,5.726562,0.960937,0.123047,0.177734,-0.15625,0.468872,0.690674,-0.048035,0.548523,up
459953,7.925781,5.726562,0.960937,0.230469,0.160156,-0.152344,0.468689,0.690613,-0.046631,0.548828,up
459958,7.925781,5.882812,0.882812,0.269531,0.138672,-0.150391,0.468445,0.690735,-0.045776,0.54895,up
459963,7.925781,5.882812,0.882812,0.294922,0.121094,-0.162109,0.468201,0.690918,-0.045044,0.549011,up
459968,7.960937,6.074219,0.847656,0.294922,0.121094,-0.162109,0.468201,0.690918,-0.045044,0.549011,up
459973,7.960937,6.074219,0.847656,0.302734,0.113281,-0.164062,0.467896,0.691101,-0.044189,0.549072,up
459978,7.960937,6.074219,0.847656,0.302734,0.113281,-0.164062,0.467346,0.691589,-0.042542,0.549133,up
459983,7.960937,6.074219,0.847656,0.230469,0.115234,-0.169922,0.467346,0.691589,-0.042542,0.549133,up
459988,7.960937,6.074219,0.847656,0.179687,0.099609,-0.164062,0.467041,0.691833,-0.041077,0.549133,up
459993,7.816406,6.457031,0.960937,0.179687,0.099609,-0.164062,0.46698,0.691895,-0.040466,0.549133,up
459998,7.816406,6.417969,1.0,0.179687,0.099609,-0.164062,0.467041,0.691895,-0.039917,0.549133,up
460004,7.773437,6.378906,1.039063,0.179687,0.099609,-0.164062,0.467102,0.691895,-0.03949,0.549133,up
460009,7.816406,6.339844,1.0,-0.025391,0.099609,-0.123047,0.467285,0.691772,-0.039124,0.549194,up
460014,7.851562,6.300781,0.960937,-0.068359,0.099609,-0.111328,0.467285,0.691772,-0.039124,0.549194,up
460020,7.921875,6.300781,1.0,-0.101563,0.087891,-0.085937,0.467285,0.691772,-0.039124,0.549194,up
460025,8.0,6.265625,0.882812,-0.101563,0.087891,-0.085937,0.468079,0.691101,-0.038635,0.549316,up
460031,8.039063,6.265625,0.882812,-0.154297,0.107422,-0.070312,0.468079,0.691101,-0.038635,0.549316,up
460037,8.042969,6.1875,0.882812,-0.171875,0.109375,-0.058594,0.468079,0.691101,-0.038635,0.549316,up
460042,7.964844,6.074219,0.960937,-0.179687,0.103516,-0.068359,0.469604,0.689758,-0.038513,0.549683,up
460047,7.960937,5.957031,0.960937,-0.179687,0.103516,-0.068359,0.469604,0.689758,-0.038513,0.549683,up
460052,8.003906,5.917969,1.0,-0.150391,0.117188,-0.064453,0.469604,0.689758,-0.038513,0.549683,up
460058,7.960937,5.882812,1.0,-0.150391,0.117188,-0.064453,0.470642,0.688782,-0.038452,0.550049,up
460064,8.117188,5.996094,1.191406,-0.150391,0.117188,-0.064453,0.470947,0.688538,-0.038452,0.55011,up
460070,8.160156,6.035156,1.113281,-0.113281,0.097656,-0.078125,0.470947,0.688538,-0.038452,0.55011,up
460075,8.15625,6.074219,1.113281,-0.091797,0.115234,-0.091797,0.470947,0.688538,-0.038452,0.55011,up
460080,8.234375,6.109375,1.152344,-0.091797,0.115234,-0.091797,0.471802,0.687805,-0.038025,0.550354,up
460085,8.234375,6.148437,1.113281,-0.082031,0.121094,-0.126953,0.471802,0.687805,-0.038025,0.550354,up
460090,8.238281,6.1875,1.113281,-0.078125,0.121094,-0.142578,0.471802,0.687805,-0.038025,0.550354,up
460095,8.273438,6.1875,1.191406,-0.089844,0.134766,-0.15625,0.471802,0.687805,-0.038025,0.550354,up
460101,8.277344,6.226562,1.152344,-0.113281,0.142578,-0.164062,0.471802,0.687805,-0.038025,0.550354,up
460106,8.277344,6.226562,1.152344,-0.142578,0.162109,-0.169922,0.471802,0.687805,-0.038025,0.550354,up
460112,8.304688,6.226562,1.113281,-0.158203,0.175781,-0.171875,0.471802,0.687805,-0.038025,0.550354,up
460117,8.34375,6.265625,1.078125,-0.158203,0.175781,-0.171875,0.47467,0.685547,-0.036072,0.550781,up
460123,8.386719,6.339844,1.078125,-0.162109,0.199219,-0.191406,0.47467,0.685547,-0.036072,0.550781,up
460128,8.277344,6.417969,1.078125,-0.162109,0.199219,-0.191406,0.476379,0.684204,-0.035034,0.551086,up
460133,8.160156,6.457031,1.152344,-0.162109,0.199219,-0.191406,0.476868,0.683777,-0.034668,0.551208,up
460138,8.003906,6.457031,1.152344,-0.09375,0.197266,-0.199219,0.476868,0.683777,-0.034668,0.551208,up
460143,7.855469,6.457031,1.152344,-0.09375,0.197266,-0.199219,0.477722,0.683105,-0.033813,0.551392,up
460148,7.699219,6.609375,1.191406,-0.09375,0.197266,-0.199219,0.478088,0.6828,-0.033325,0.551453,up
460153,7.617187,6.609375,1.191406,-0.09375,0.197266,-0.199219,0.478394,0.682617,-0.03302,0.551453,up
460158,7.617187,6.683594,1.230469,-0.025391,0.052734,-0.128906,0.478638,0.682495,-0.032715,0.551453,up
460163,7.578125,6.761719,1.269531,-0.025391,0.052734,-0.128906,0.478821,0.682373,-0.032471,0.551392,up
460168,7.621094,6.761719,1.191406,-0.025391,0.052734,-0.128906,0.479004,0.682312,-0.032349,0.55127,up
460173,7.582031,6.800781,1.152344,-0.033203,0.005859,-0.087891,0.479004,0.682312,-0.032349,0.55127,up
460178,7.621094,6.800781,1.078125,-0.033203,0.005859,-0.087891,0.47937,0.682251,-0.032104,0.551086,up
460183,7.617187,6.839844,0.960937,-0.033203,0.005859,-0.087891,0.479553,0.68219,-0.032043,0.550964,up
460188,7.65625,6.800781,0.921875,-0.033203,0.005859,-0.087891,0.479736,0.682129,-0.031982,0.550903,up
460193,7.699219,6.761719,0.882812,-0.101563,-0.021484,-0.074219,0.479736,0.682129,-0.031982,0.550903,up
460198,7.734375,6.761719,0.960937,-0.101563,-0.021484,-0.074219,0.480286,0.681946,-0.032043,0.550659,up
460203,7.738281,6.722656,0.847656,-0.101563,-0.021484,-0.074219,0.48053,0.681885,-0.032104,0.550537,up
460208,7.777344,6.722656,0.847656,-0.101563,-0.013672,-0.046875,0.48053,0.681885,-0.032104,0.550537,up
460213,7.738281,6.683594,0.808594,-0.101563,-0.013672,-0.046875,0.481018,0.681641,-0.032288,0.550354,up
460218,7.8125,6.722656,0.730469,-0.091797,0.013672,-0.03125,0.481018,0.681641,-0.032288,0.550354,up
460223,7.777344,6.609375,0.808594,-0.091797,0.013672,-0.03125,0.481384,0.681396,-0.032349,0.550354,up
460228,7.777344,6.609375,0.769531,-0.09375,0.046875,-0.005859,0.481384,0.681396,-0.032349,0.550354,up
460233,7.773437,6.570312,0.808594,-0.09375,0.046875,-0.005859,0.481628,0.681213,-0.032471,0.550415,up
460238,7.738281,6.492187,0.808594,-0.113281,0.076172,0.005859,0.481628,0.681213,-0.032471,0.550415,up
460243,7.699219,6.378906,0.769531,-0.113281,0.076172,0.005859,0.482117,0.680542,-0.032654,0.55072,up
460248,7.734375,6.300781,0.847656,-0.130859,0.09375,0.003906,0.482117,0.680542,-0.032654,0.55072,up
460253,7.734375,6.1875,0.808594,-0.130859,0.09375,0.003906,0.482361,0.680237,-0.032715,0.550903,up
460258,7.777344,6.074219,0.769531,-0.128906,0.113281,-0.003906,0.482361,0.680237,-0.032715,0.550903,up
460263,7.777344,5.957031,0.847656,-0.140625,0.125,-0.009766,0.483093,0.679321,-0.032837,0.551453,up
460268,7.738281,5.957031,0.847656,-0.105469,0.154297,-0.023437,0.483093,0.679321,-0.032837,0.551453,up
460273,7.65625,5.917969,0.808594,-0.105469,0.154297,-0.023437,0.483337,0.678955,-0.032776,0.551697,up
460278,7.699219,5.957031,0.808594,-0.105469,0.154297,-0.023437,0.483521,0.678589,-0.032654,0.551941,up
460283,7.734375,5.996094,0.808594,0.003906,0.140625,-0.070312,0.483521,0.678589,-0.032654,0.551941,up
460289,7.734375,5.996094,0.769531,0.003906,0.140625,-0.070312,0.483948,0.677917,-0.03186,0.552429,up
460295,7.816406,6.148437,0.730469,0.003906,0.140625,-0.070312,0.484009,0.677856,-0.031555,0.552551,up
460301,7.777344,6.226562,0.730469,0.105469,0.130859,-0.121094,0.484009,0.677795,-0.031006,0.552612,up
460307,7.777344,6.265625,0.65625,0.123047,0.142578,-0.126953,0.484009,0.677795,-0.031006,0.552612,up
460312,7.816406,6.339844,0.65625,0.113281,0.164062,-0.128906,0.484009,0.677551,-0.029419,0.552979,up
460317,7.816406,6.339844,0.65625,0.113281,0.164062,-0.128906,0.484009,0.677551,-0.029419,0.552979,up
460322,7.816406,6.378906,0.65625,0.017578,0.199219,-0.105469,0.484009,0.677551,-0.029419,0.552979,up
460327,7.734375,6.339844,0.65625,-0.0625,0.234375,-0.097656,0.484009,0.677551,-0.029419,0.552979,up
460332,7.738281,6.300781,0.65625,-0.0625,0.234375,-0.097656,0.484619,0.676575,-0.028259,0.553711,up
460338,7.660156,6.265625,0.65625,-0.212891,0.28125,-0.089844,0.484619,0.676575,-0.028259,0.553711,up
460343,7.621094,6.226562,0.730469,-0.318359,0.291016,-0.074219,0.484619,0.676575,-0.028259,0.553711,up
460349,7.582031,6.074219,0.808594,-0.318359,0.291016,-0.074219,0.486938,0.673706,-0.027771,0.555176,up
460355,7.503906,5.996094,0.921875,-0.318359,0.291016,-0.074219,0.48761,0.672913,-0.027771,0.555542,up
460360,7.472656,5.996094,0.960937,-0.300781,0.273438,-0.072266,0.488342,0.672058,-0.02771,0.555969,up
460365,7.429687,5.996094,0.960937,-0.259766,0.261719,-0.074219,0.488342,0.672058,-0.02771,0.555969,up
460372,7.429687,6.035156,1.039063,-0.259766,0.261719,-0.074219,0.48938,0.670776,-0.027588,0.55658,up
460378,7.46875,6.109375,1.039063,-0.138672,0.216797,-0.058594,0.48938,0.670776,-0.027588,0.55658,up
460383,7.472656,6.226562,1.078125,-0.083984,0.205078,-0.060547,0.48938,0.670776,-0.027588,0.55658,up
460388,7.503906,6.300781,1.113281,-0.083984,0.205078,-0.060547,0.490417,0.669128,-0.026611,0.557739,up
