timestamp,ax,ay,az,gx,gy,gz,qw,qx,qy,qz,label
449775,3.75,7.484375,6.132812,0.568359,0.193359,-0.123047,0.874817,0.427673,-0.121704,0.192139,up
449780,3.75,7.484375,6.132812,0.480469,0.1875,-0.097656,0.873901,0.429932,-0.120117,0.192383,up
449785,3.714844,7.453125,6.09375,0.455078,0.185547,-0.089844,0.873474,0.430969,-0.119263,0.192566,up
449790,3.75,7.457031,6.019531,0.455078,0.185547,-0.089844,0.873108,0.431885,-0.118591,0.192688,up
449795,3.75,7.453125,5.980469,0.455078,0.185547,-0.089844,0.872742,0.432617,-0.11792,0.192871,up
449800,3.75,7.457031,6.019531,0.365234,0.177734,-0.058594,0.872742,0.432617,-0.11792,0.192871,up
449805,3.75,7.378906,5.902344,0.365234,0.177734,-0.058594,0.87207,0.434204,-0.116638,0.193237,up
449810,3.714844,7.375,5.902344,0.365234,0.177734,-0.058594,0.871826,0.434814,-0.116089,0.19342,up
449815,3.675781,7.417969,5.828125,0.306641,0.123047,-0.035156,0.871521,0.435486,-0.115601,0.193604,up
449821,3.597656,7.488281,5.75,0.306641,0.123047,-0.035156,0.871216,0.436096,-0.115173,0.193726,up
449826,3.636719,7.488281,5.75,0.261719,0.080078,-0.003906,0.870972,0.436646,-0.114807,0.193909,up
449831,3.597656,7.375,5.789062,0.261719,0.080078,-0.003906,0.870728,0.437134,-0.114502,0.194092,up
449837,3.597656,7.375,5.75,0.177734,0.058594,0.025391,0.870483,0.437561,-0.114258,0.194214,up
449842,3.636719,7.378906,5.671875,0.134766,0.048828,0.041016,0.8703,0.437866,-0.114136,0.194458,up
449848,3.675781,7.222656,5.75,0.134766,0.048828,0.041016,0.870178,0.438049,-0.114014,0.194641,up
449854,3.75,7.179687,5.75,0.064453,0.023437,0.044922,0.870178,0.438049,-0.114014,0.194641,up
449859,3.75,7.179687,5.710937,0.017578,0.021484,0.048828,0.870178,0.438049,-0.114014,0.194641,up
449864,3.75,7.035156,5.710937,0.017578,0.021484,0.048828,0.869934,0.438354,-0.113831,0.195068,up
449869,3.789063,7.035156,5.789062,0.017578,0.021484,0.048828,0.869873,0.438416,-0.113831,0.195251,up
449875,3.828125,7.035156,5.789062,0.039063,0.017578,0.039063,0.869873,0.438416,-0.113831,0.195251,up
449880,3.75,6.996094,5.75,0.068359,0.023437,0.033203,0.869873,0.438416,-0.113831,0.195251,up
449886,3.75,6.996094,5.828125,0.068359,0.023437,0.033203,0.869568,0.438965,-0.113586,0.19574,up
449891,3.75,6.996094,5.828125,0.144531,0.046875,0.013672,0.869385,0.439209,-0.113403,0.195923,up
449896,3.75,6.996094,5.828125,0.166016,0.064453,0.009766,0.869263,0.439514,-0.11322,0.196045,up
449902,3.675781,7.035156,5.789062,0.166016,0.064453,0.009766,0.86908,0.43988,-0.112976,0.196167,up
449907,3.675781,7.070312,5.789062,0.195312,0.080078,-0.019531,0.86908,0.43988,-0.112976,0.196167,up
449912,3.597656,7.074219,5.828125,0.205078,0.074219,-0.035156,0.868652,0.440674,-0.112427,0.196411,up
449917,3.558594,7.140625,5.75,0.210937,0.089844,-0.048828,0.868469,0.441101,-0.112061,0.196472,up
449922,3.484375,7.222656,5.710937,0.210937,0.089844,-0.048828,0.868469,0.441101,-0.112061,0.196472,up
449928,3.484375,7.179687,5.75,0.199219,0.080078,-0.076172,0.868469,0.441101,-0.112061,0.196472,up
449933,3.484375,7.261719,5.710937,0.183594,0.072266,-0.082031,0.868469,0.441101,-0.112061,0.196472,up
449939,3.445313,7.261719,5.597656,0.183594,0.072266,-0.082031,0.867798,0.442749,-0.110657,0.196472,up
449944,3.445313,7.300781,5.632812,0.154297,0.042969,-0.080078,0.867798,0.442749,-0.110657,0.196472,up
449950,3.484375,7.296875,5.710937,0.115234,0.011719,-0.070312,0.867798,0.442749,-0.110657,0.196472,up
449955,3.484375,7.300781,5.671875,0.115234,0.011719,-0.070312,0.867371,0.44397,-0.109741,0.196167,up
449960,3.445313,7.296875,5.671875,0.115234,0.011719,-0.070312,0.86731,0.444214,-0.109619,0.196106,up
449965,3.523438,7.257812,5.671875,0.115234,0.011719,-0.070312,0.86731,0.444214,-0.109619,0.196106,up
449970,3.523438,7.257812,5.671875,0.095703,0.015625,-0.035156,0.86731,0.444214,-0.109619,0.196106,up
449975,3.558594,7.261719,5.632812,0.095703,0.015625,-0.035156,0.867065,0.444824,-0.109192,0.195984,up
449980,3.597656,7.300781,5.632812,0.095703,0.015625,-0.035156,0.867065,0.444824,-0.109192,0.195984,up
449985,3.597656,7.261719,5.671875,0.126953,0.021484,-0.046875,0.866821,0.445374,-0.108826,0.195923,up
449990,3.523438,7.222656,5.632812,0.126953,0.021484,-0.046875,0.866699,0.445679,-0.108582,0.195862,up
449995,3.558594,7.222656,5.632812,0.167969,0.066406,-0.0625,0.866699,0.445679,-0.108582,0.195862,up
450000,3.558594,7.261719,5.632812,0.167969,0.066406,-0.0625,0.866577,0.445984,-0.108276,0.195862,up
450005,3.558594,7.300781,5.671875,0.195312,0.083984,-0.078125,0.866577,0.445984,-0.108276,0.195862,up
450011,3.558594,7.300781,5.671875,0.205078,0.101563,-0.082031,0.866089,0.447205,-0.107239,0.195862,up
450017,3.484375,7.296875,5.632812,0.205078,0.101563,-0.082031,0.865967,0.447632,-0.106812,0.195862,up
450022,3.484375,7.300781,5.597656,0.210937,0.125,-0.087891,0.865784,0.448059,-0.106323,0.195923,up
450028,3.484375,7.296875,5.558594,0.210937,0.125,-0.087891,0.865601,0.448486,-0.105774,0.195923,up
450034,3.484375,7.300781,5.480469,0.207031,0.15625,-0.103516,0.865601,0.448486,-0.105774,0.195923,up
450039,3.484375,7.378906,5.519531,0.203125,0.15625,-0.119141,0.865601,0.448486,-0.105774,0.195923,up
450045,3.484375,7.375,5.597656,0.191406,0.144531,-0.119141,0.865601,0.448486,-0.105774,0.195923,up
450050,3.445313,7.417969,5.597656,0.191406,0.144531,-0.119141,0.865051,0.450073,-0.103516,0.195923,up
450055,3.484375,7.488281,5.597656,0.205078,0.15625,-0.123047,0.865051,0.450073,-0.103516,0.195923,up
450060,3.484375,7.523437,5.632812,0.205078,0.15625,-0.123047,0.864807,0.450806,-0.102356,0.195801,up
450065,3.484375,7.523437,5.632812,0.191406,0.179687,-0.132812,0.864685,0.451233,-0.101685,0.195801,up
450070,3.484375,7.5625,5.597656,0.191406,0.179687,-0.132812,0.864563,0.451599,-0.101135,0.195801,up
450075,3.484375,7.527344,5.671875,0.152344,0.197266,-0.125,0.864563,0.451599,-0.101135,0.195801,up
450081,3.484375,7.523437,5.710937,0.152344,0.197266,-0.125,0.86438,0.452515,-0.099121,0.195801,up
450086,3.523438,7.523437,5.710937,0.101563,0.216797,-0.126953,0.864319,0.452698,-0.098389,0.195801,up
450091,3.558594,7.484375,5.75,0.078125,0.242187,-0.138672,0.864319,0.45282,-0.097717,0.195801,up
450097,3.558594,7.484375,5.710937,0.078125,0.242187,-0.138672,0.86438,0.452881,-0.097046,0.195801,up
450102,3.636719,7.414062,5.789062,0.078125,0.242187,-0.138672,0.864441,0.452881,-0.096191,0.195862,up
450108,3.636719,7.414062,5.828125,0.042969,0.314453,-0.158203,0.864441,0.452881,-0.096191,0.195862,up
450113,3.636719,7.414062,5.789062,0.052734,0.339844,-0.169922,0.864624,0.452881,-0.094421,0.195923,up
450118,3.597656,7.414062,5.789062,0.050781,0.375,-0.173828,0.864624,0.452881,-0.094421,0.195923,up
450124,3.523438,7.417969,5.75,0.082031,0.414062,-0.185547,0.864624,0.452881,-0.094421,0.195923,up
450130,3.523438,7.417969,5.789062,0.105469,0.449219,-0.197266,0.864624,0.452881,-0.094421,0.195923,up
450135,3.445313,7.414062,5.710937,0.142578,0.470703,-0.210937,0.864624,0.452881,-0.094421,0.195923,up
450141,3.40625,7.457031,5.75,0.171875,0.476562,-0.228516,0.86499,0.453369,-0.087036,0.196533,up
450146,3.367188,7.484375,5.75,0.234375,0.488281,-0.240234,0.86499,0.453674,-0.08551,0.196655,up
450152,3.292969,7.488281,5.828125,0.234375,0.488281,-0.240234,0.864929,0.454041,-0.084106,0.196716,up
450157,3.214844,7.527344,5.863281,0.234375,0.488281,-0.240234,0.864807,0.454468,-0.082581,0.196838,up
450164,3.214844,7.5625,5.863281,0.347656,0.496094,-0.259766,0.864807,0.454468,-0.082581,0.196838,up
450169,3.023438,7.640625,5.902344,0.392578,0.494141,-0.25,0.864807,0.454468,-0.082581,0.196838,up
450175,2.984375,7.683594,5.980469,0.419922,0.474609,-0.240234,0.864807,0.454468,-0.082581,0.196838,up
450180,2.984375,7.757812,5.941406,0.441406,0.443359,-0.234375,0.864807,0.454468,-0.082581,0.196838,up
450185,2.910156,7.761719,5.941406,0.466797,0.427734,-0.210937,0.86322,0.45874,-0.073608,0.19751,up
450190,2.871094,7.910156,5.863281,0.466797,0.427734,-0.210937,0.86322,0.45874,-0.073608,0.19751,up
450195,2.832031,7.945312,5.828125,0.466797,0.427734,-0.210937,0.862793,0.459656,-0.072266,0.197632,up
450201,2.871094,7.988281,5.828125,0.488281,0.306641,-0.171875,0.862793,0.459656,-0.072266,0.197632,up
450206,2.910156,8.105469,5.75,0.488281,0.306641,-0.171875,0.86145,0.462585,-0.068726,0.197937,up
450211,2.945313,8.140625,5.710937,0.488281,0.306641,-0.171875,0.861084,0.463379,-0.06781,0.197998,up
450216,3.023438,8.140625,5.671875,0.431641,0.251953,-0.160156,0.861084,0.463379,-0.06781,0.197998,up
450221,3.023438,8.140625,5.671875,0.431641,0.251953,-0.160156,0.860657,0.464294,-0.066772,0.198059,up
450226,3.023438,8.21875,5.558594,0.412109,0.246094,-0.15625,0.860291,0.465088,-0.065857,0.19812,up
450231,3.023438,8.21875,5.558594,0.373047,0.248047,-0.148437,0.859924,0.46582,-0.064941,0.19812,up
450236,3.0625,8.21875,5.597656,0.316406,0.253906,-0.146484,0.859924,0.46582,-0.064941,0.19812,up
450241,3.0625,8.21875,5.597656,0.226562,0.267578,-0.132812,0.859253,0.467468,-0.062317,0.198303,up
450247,3.0625,8.105469,5.558594,0.226562,0.267578,-0.132812,0.85907,0.467773,-0.061462,0.198364,up
450252,3.023438,8.105469,5.480469,0.144531,0.271484,-0.121094,0.85907,0.467773,-0.061462,0.198364,up
450257,2.984375,8.105469,5.480469,0.115234,0.269531,-0.101563,0.85907,0.467773,-0.061462,0.198364,up
450262,2.984375,8.066406,5.597656,0.115234,0.269531,-0.101563,0.858887,0.468262,-0.059143,0.19873,up
450268,2.945313,8.0625,5.597656,0.060547,0.273438,-0.082031,0.858887,0.468262,-0.059143,0.19873,up
450273,2.910156,8.101563,5.597656,0.064453,0.283203,-0.070312,0.858887,0.468262,-0.059143,0.19873,up
450278,2.910156,8.105469,5.558594,0.083984,0.277344,-0.066406,0.858887,0.468262,-0.059143,0.19873,up
450283,2.832031,8.144531,5.597656,0.083984,0.277344,-0.066406,0.858826,0.468445,-0.056213,0.199463,up
450289,2.871094,8.144531,5.671875,0.148437,0.257813,-0.048828,0.858826,0.468445,-0.056213,0.199463,up
450294,2.832031,8.183594,5.671875,0.158203,0.255859,-0.042969,0.858826,0.468445,-0.056213,0.199463,up
450299,2.71875,8.183594,5.671875,0.166016,0.246094,-0.037109,0.858826,0.468445,-0.056213,0.199463,up
450304,2.679688,8.140625,5.597656,0.162109,0.240234,-0.042969,0.858826,0.468445,-0.056213,0.199463,up
450309,2.601563,8.105469,5.632812,0.154297,0.21875,-0.035156,0.858826,0.468445,-0.056213,0.199463,up
450314,2.640625,8.101563,5.632812,0.132812,0.183594,-0.035156,0.858826,0.468445,-0.056213,0.199463,up
450320,2.679688,8.027344,5.710937,0.132812,0.183594,-0.035156,0.857788,0.470215,-0.051453,0.201111,up
450325,2.753906,8.023438,5.710937,0.132812,0.183594,-0.035156,0.857788,0.470215,-0.051453,0.201111,up
450330,2.753906,8.023438,5.710937,0.097656,0.070312,-0.021484,0.857788,0.470215,-0.051453,0.201111,up
450335,2.792969,7.988281,5.710937,0.097656,0.070312,-0.021484,0.857605,0.470581,-0.050903,0.201294,up
450341,2.792969,7.945312,5.632812,0.097656,0.070312,-0.021484,0.857361,0.470947,-0.050415,0.201416,up
450346,2.832031,7.949219,5.597656,0.109375,0.054687,-0.021484,0.857361,0.470947,-0.050415,0.201416,up
450351,2.910156,8.023438,5.632812,0.109375,0.054687,-0.021484,0.857239,0.471191,-0.050232,0.201477,up
450356,2.871094,8.023438,5.558594,0.109375,0.054687,-0.021484,0.856995,0.471619,-0.049805,0.201599,up
450361,2.910156,8.0625,5.597656,0.109375,0.054687,-0.021484,0.856873,0.471802,-0.0495,0.20166,up
450366,2.910156,8.023438,5.558594,0.109375,0.054687,-0.021484,0.856873,0.471802,-0.0495,0.20166,up
450371,2.910156,7.945312,5.558594,0.097656,0.095703,-0.011719,0.856873,0.471802,-0.0495,0.20166,up
450376,2.910156,7.945312,5.558594,0.076172,0.126953,-0.041016,0.856689,0.472168,-0.04895,0.201843,up
450381,2.832031,7.867187,5.480469,0.076172,0.126953,-0.041016,0.856567,0.472412,-0.048157,0.202087,up
450386,2.792969,7.800781,5.519531,0.076172,0.126953,-0.041016,0.856567,0.472412,-0.048157,0.202087,up
450392,2.792969,7.800781,5.519531,0.087891,0.105469,-0.035156,0.856384,0.472717,-0.047485,0.202209,up
450397,2.753906,7.800781,5.519531,0.105469,0.111328,-0.03125,0.856262,0.4729,-0.047119,0.202332,up
450402,2.753906,7.796875,5.480469,0.105469,0.111328,-0.03125,0.856201,0.473083,-0.046814,0.202393,up
450408,2.832031,7.871094,5.558594,0.105469,0.111328,-0.03125,0.856079,0.473267,-0.046448,0.202515,up
450413,2.792969,7.871094,5.558594,0.142578,0.103516,-0.029297,0.856079,0.473267,-0.046448,0.202515,up
450418,2.792969,7.871094,5.519531,0.146484,0.119141,-0.03125,0.855774,0.473755,-0.045776,0.202698,up
450423,2.753906,7.867187,5.441406,0.146484,0.119141,-0.03125,0.855591,0.474121,-0.045288,0.20282,up
450429,2.753906,7.867187,5.480469,0.146484,0.119141,-0.03125,0.855408,0.474426,-0.044922,0.202881,up
450435,2.679688,7.90625,5.40625,0.216797,0.125,-0.058594,0.855408,0.474426,-0.044922,0.202881,up
450441,2.679688,7.90625,5.40625,0.238281,0.101563,-0.078125,0.855408,0.474426,-0.044922,0.202881,up
450446,2.679688,7.988281,5.441406,0.238281,0.09375,-0.080078,0.854736,0.475769,-0.043579,0.203064,up
450451,2.679688,7.988281,5.441406,0.238281,0.09375,-0.080078,0.854187,0.476746,-0.042664,0.203003,up
450456,2.640625,8.027344,5.40625,0.238281,0.09375,-0.080078,0.854187,0.476746,-0.042664,0.203003,up
450461,2.601563,8.066406,5.367187,0.244141,0.074219,-0.085937,0.854187,0.476746,-0.042664,0.203003,up
450466,2.601563,8.066406,5.367187,0.244141,0.074219,-0.085937,0.853516,0.47821,-0.041504,0.20282,up
450471,2.679688,8.0625,5.40625,0.244141,0.074219,-0.085937,0.853516,0.47821,-0.041504,0.20282,up
450476,2.679688,8.101563,5.367187,0.210937,0.066406,-0.082031,0.853516,0.47821,-0.041504,0.20282,up
450481,2.601563,8.140625,5.289062,0.210937,0.066406,-0.082031,0.852844,0.479553,-0.040405,0.202576,up
450486,2.640625,8.144531,5.289062,0.210937,0.066406,-0.082031,0.852844,0.479553,-0.040405,0.202576,up
450491,2.640625,8.183594,5.25,0.130859,0.095703,-0.074219,0.852844,0.479553,-0.040405,0.202576,up
450496,2.640625,8.183594,5.289062,0.130859,0.095703,-0.074219,0.852478,0.480408,-0.039307,0.202515,up
450501,2.601563,8.140625,5.25,0.130859,0.095703,-0.074219,0.852417,0.48053,-0.038879,0.202515,up
450506,2.601563,8.105469,5.25,0.130859,0.095703,-0.074219,0.852417,0.48053,-0.038879,0.202515,up
450511,2.5625,8.105469,5.25,0.056641,0.140625,-0.085937,0.852417,0.48053,-0.038879,0.202515,up
450516,2.5625,8.105469,5.175781,0.056641,0.140625,-0.085937,0.852356,0.480713,-0.038025,0.202576,up
450521,2.527344,8.066406,5.175781,0.037109,0.144531,-0.091797,0.852356,0.480713,-0.037109,0.202576,up
450526,2.527344,8.027344,5.214844,0.037109,0.144531,-0.091797,0.852356,0.480713,-0.037109,0.202576,up
450531,2.449219,8.023438,5.214844,0.029297,0.132812,-0.113281,0.852356,0.480713,-0.037109,0.202576,up
450536,2.371094,7.945312,5.289062,0.029297,0.132812,-0.113281,0.852417,0.480774,-0.035767,0.202454,up
450541,2.371094,7.90625,5.214844,0.029297,0.132812,-0.113281,0.852417,0.480774,-0.035767,0.202454,up
450546,2.332031,7.910156,5.289062,0.035156,0.103516,-0.121094,0.852417,0.480835,-0.034973,0.202209,up
450551,2.296875,7.90625,5.25,0.035156,0.103516,-0.121094,0.852417,0.480835,-0.034973,0.202209,up
450556,2.296875,7.949219,5.289062,0.033203,0.046875,-0.123047,0.852417,0.480835,-0.034973,0.202209,up
450561,2.332031,7.945312,5.367187,0.025391,0.005859,-0.117188,0.852417,0.480835,-0.034973,0.202209,up
450566,2.410156,7.945312,5.367187,0.027344,-0.001953,-0.117188,0.852478,0.481079,-0.034241,0.201599,up
450572,2.410156,7.945312,5.367187,0.027344,-0.001953,-0.117188,0.852539,0.481201,-0.033875,0.201172,up
450577,2.449219,7.949219,5.328125,0.029297,-0.007813,-0.121094,0.852539,0.481323,-0.033752,0.200867,up
450582,2.527344,7.910156,5.25,0.029297,-0.007813,-0.121094,0.8526,0.481384,-0.033569,0.200684,up
450587,2.640625,7.90625,5.289062,0.029297,-0.007813,-0.121094,0.8526,0.481506,-0.033386,0.200378,up
450593,2.753906,7.910156,5.289062,0.029297,-0.007813,-0.121094,0.8526,0.481506,-0.033142,0.200134,up
450598,2.753906,7.910156,5.289062,0.003906,0.052734,-0.146484,0.852661,0.481567,-0.032898,0.19989,up
450603,2.871094,7.910156,5.25,0.003906,0.052734,-0.146484,0.852783,0.481506,-0.032593,0.199646,up
450609,2.871094,7.871094,5.25,0.003906,0.052734,-0.146484,0.852844,0.481506,-0.032166,0.199402,up
450614,2.871094,7.871094,5.289062,-0.017578,0.138672,-0.181641,0.852844,0.481506,-0.032166,0.199402,up
450619,2.832031,7.910156,5.289062,-0.025391,0.177734,-0.1875,0.852844,0.481506,-0.032166,0.199402,up
450624,2.792969,8.023438,5.328125,-0.009766,0.191406,-0.193359,0.852844,0.481506,-0.032166,0.199402,up
450631,2.753906,8.023438,5.40625,-0.011719,0.214844,-0.203125,0.852844,0.481506,-0.032166,0.199402,up
450636,2.753906,8.101563,5.480469,-0.001953,0.216797,-0.197266,0.852844,0.481506,-0.032166,0.199402,up
450641,2.601563,8.21875,5.480469,0.001953,0.242187,-0.205078,0.852844,0.481506,-0.032166,0.199402,up
450646,2.601563,8.257813,5.480469,0.001953,0.242187,-0.205078,0.853699,0.480835,-0.027588,0.198242,up
450652,2.640625,8.257813,5.519531,0.017578,0.265625,-0.208984,0.853699,0.480835,-0.027588,0.198242,up
450657,2.601563,8.261719,5.519531,0.017578,0.265625,-0.208984,0.853943,0.480591,-0.025024,0.197937,up
450663,2.5625,8.289063,5.519531,0.007813,0.271484,-0.210937,0.853943,0.480591,-0.025024,0.197937,up
450668,2.527344,8.328125,5.558594,0.007813,0.271484,-0.210937,0.854187,0.480347,-0.023376,0.197693,up
450673,2.449219,8.328125,5.597656,-0.015625,0.28125,-0.210937,0.854187,0.480347,-0.023376,0.197693,up
450678,2.449219,8.332031,5.558594,-0.039063,0.277344,-0.201172,0.854187,0.480347,-0.023376,0.197693,up
450683,2.371094,8.328125,5.558594,-0.039063,0.277344,-0.201172,0.854187,0.480347,-0.023376,0.197693,up
450688,2.332031,8.371094,5.597656,-0.082031,0.261719,-0.179687,0.854187,0.480347,-0.023376,0.197693,up
450693,2.296875,8.371094,5.519531,-0.097656,0.265625,-0.169922,0.854187,0.480347,-0.023376,0.197693,up
450698,2.296875,8.367188,5.597656,-0.097656,0.265625,-0.169922,0.855164,0.478943,-0.018677,0.197327,up
450704,2.296875,8.449219,5.597656,-0.097656,0.265625,-0.169922,0.855164,0.478943,-0.018677,0.197327,up
450709,2.257813,8.445313,5.597656,-0.167969,0.222656,-0.123047,0.855164,0.478943,-0.018677,0.197327,up
450714,2.257813,8.488281,5.671875,-0.173828,0.220703,-0.113281,0.855164,0.478943,-0.018677,0.197327,up
450720,2.21875,8.484375,5.558594,-0.173828,0.220703,-0.113281,0.856201,0.477112,-0.016357,0.197388,up
450726,2.21875,8.523438,5.558594,-0.173828,0.222656,-0.115234,0.856201,0.477112,-0.016357,0.197388,up
450732,2.21875,8.484375,5.632812,-0.169922,0.214844,-0.111328,0.856201,0.477112,-0.016357,0.197388,up
450737,2.257813,8.484375,5.632812,-0.189453,0.181641,-0.101563,0.857056,0.475708,-0.014771,0.197449,up
450742,2.296875,8.445313,5.632812,-0.189453,0.181641,-0.101563,0.857605,0.47467,-0.013855,0.19751,up
450747,2.257813,8.449219,5.632812,-0.189453,0.181641,-0.101563,0.857605,0.47467,-0.013855,0.19751,up
450752,2.257813,8.40625,5.632812,-0.189453,0.181641,-0.101563,0.858154,0.473694,-0.013,0.197632,up
450757,2.179688,8.40625,5.597656,-0.189453,0.181641,-0.101563,0.858398,0.473145,-0.012573,0.197754,up
450762,2.21875,8.367188,5.632812,-0.267578,0.222656,-0.052734,0.858398,0.473145,-0.012573,0.197754,up
450767,2.21875,8.332031,5.597656,-0.291016,0.242187,-0.042969,0.858765,0.472412,-0.012146,0.197937,up
450773,2.140625,8.261719,5.597656,-0.291016,0.242187,-0.042969,0.859497,0.471008,-0.011292,0.198303,up
450778,2.140625,8.261719,5.597656,-0.330078,0.246094,-0.044922,0.859863,0.470215,-0.010864,0.198486,up
450783,2.179688,8.261719,5.597656,-0.328125,0.251953,-0.039063,0.860352,0.469299,-0.010376,0.19873,up
450789,2.140625,8.140625,5.671875,-0.328125,0.251953,-0.039063,0.860718,0.468567,-0.01001,0.198914,up
450795,2.066406,8.144531,5.632812,-0.294922,0.255859,-0.050781,0.860718,0.468567,-0.01001,0.198914,up
450800,2.066406,8.21875,5.632812,-0.265625,0.248047,-0.050781,0.860718,0.468567,-0.01001,0.198914,up
450806,1.988281,8.140625,5.632812,-0.228516,0.236328,-0.064453,0.860718,0.468567,-0.01001,0.198914,up
450811,1.988281,8.183594,5.671875,-0.148437,0.185547,-0.070312,0.860718,0.468567,-0.01001,0.198914,up
450816,1.988281,8.21875,5.671875,-0.148437,0.185547,-0.070312,0.862244,0.465393,-0.007629,0.199707,up
450822,1.949219,8.261719,5.671875,-0.123047,0.160156,-0.078125,0.86261,0.464722,-0.006836,0.199768,up
450827,1.988281,8.261719,5.75,-0.123047,0.160156,-0.078125,0.862793,0.464355,-0.00647,0.199768,up
450832,1.988281,8.261719,5.710937,-0.123047,0.160156,-0.078125,0.862793,0.464355,-0.00647,0.199768,up
450837,1.949219,8.257813,5.632812,-0.111328,0.09375,-0.0625,0.862793,0.464355,-0.00647,0.199768,up
450842,1.914063,8.289063,5.632812,-0.111328,0.09375,-0.0625,0.86322,0.463562,-0.005798,0.199768,up
450847,1.949219,8.257813,5.632812,-0.107422,0.064453,-0.046875,0.86322,0.463562,-0.005798,0.199768,up
450852,1.949219,8.289063,5.671875,-0.107422,0.064453,-0.046875,0.863525,0.463013,-0.005493,0.199768,up
450857,1.949219,8.257813,5.632812,-0.107422,0.064453,-0.046875,0.863525,0.463013,-0.005493,0.199768,up
450862,1.914063,8.289063,5.632812,-0.136719,0.056641,-0.035156,0.863831,0.462402,-0.005249,0.199768,up
450867,1.914063,8.257813,5.597656,-0.136719,0.056641,-0.035156,0.863831,0.462402,-0.005249,0.199768,up
450872,1.875,8.257813,5.597656,-0.167969,0.042969,-0.023437,0.863831,0.462402,-0.005249,0.199768,up
450877,1.835938,8.261719,5.558594,-0.167969,0.042969,-0.023437,0.864441,0.461243,-0.005066,0.199829,up
450882,1.875,8.21875,5.597656,-0.167969,0.042969,-0.023437,0.864624,0.460876,-0.005066,0.199829,up
450887,1.914063,8.144531,5.597656,-0.167969,0.042969,-0.023437,0.864624,0.460876,-0.005066,0.199829,up
450892,1.875,8.144531,5.597656,-0.144531,0.03125,0.001953,0.864624,0.460876,-0.005066,0.199829,up
450897,1.875,8.144531,5.597656,-0.144531,0.03125,0.001953,0.865173,0.459839,-0.005066,0.199951,up
450902,1.875,8.066406,5.558594,-0.144531,0.03125,0.001953,0.865295,0.459595,-0.005066,0.200012,up
450907,1.949219,8.027344,5.519531,-0.144531,0.03125,0.001953,0.865295,0.459595,-0.005066,0.200012,up
450912,1.949219,7.988281,5.480469,-0.099609,0.005859,0.001953,0.865295,0.459595,-0.005066,0.200012,up
450917,1.914063,7.949219,5.480469,-0.099609,0.005859,0.001953,0.865662,0.458923,-0.005127,0.200073,up
450922,1.949219,7.949219,5.40625,-0.099609,0.005859,0.001953,0.865662,0.458923,-0.005127,0.200073,up
450927,1.914063,7.945312,5.40625,-0.076172,0.001953,0.001953,0.865845,0.458557,-0.005188,0.200073,up
450932,1.949219,7.949219,5.40625,-0.076172,0.001953,0.001953,0.865845,0.458557,-0.005188,0.200073,up
450937,1.914063,7.988281,5.367187,-0.03125,-0.007813,-0.005859,0.865906,0.458435,-0.005249,0.200073,up
450942,1.914063,7.988281,5.367187,-0.03125,-0.007813,-0.005859,0.865967,0.458313,-0.005249,0.200073,up
450947,1.914063,8.023438,5.40625,-0.03125,-0.007813,-0.005859,0.865967,0.458313,-0.005249,0.200073,up
450952,1.914063,8.023438,5.367187,-0.03125,-0.007813,-0.005859,0.866028,0.458252,-0.005188,0.200134,up
450957,1.914063,8.023438,5.367187,-0.03125,-0.007813,-0.005859,0.866028,0.458252,-0.005188,0.200134,up
450962,1.835938,8.023438,5.40625,-0.013672,0.033203,-0.005859,0.866028,0.458252,-0.005188,0.200134,up
450967,1.875,8.023438,5.40625,-0.013672,0.033203,-0.005859,0.866028,0.458191,-0.005066,0.200195,up
450972,1.835938,8.023438,5.40625,-0.03125,0.042969,0.009766,0.866028,0.45813,-0.004944,0.200195,up
450977,1.835938,8.0625,5.441406,-0.03125,0.042969,0.009766,0.866028,0.458069,-0.004883,0.200317,up
450982,1.835938,8.027344,5.441406,-0.048828,0.042969,0.009766,0.86615,0.457825,-0.0047,0.200439,up
450987,1.875,8.027344,5.441406,-0.048828,0.042969,0.009766,0.86615,0.457825,-0.0047,0.200439,up
450992,1.875,7.984375,5.480469,-0.070312,0.054687,0.005859,0.866211,0.457703,-0.004639,0.200562,up
450997,1.875,7.984375,5.441406,-0.070312,0.054687,0.005859,0.866333,0.457336,-0.004456,0.200745,up
451002,1.875,7.949219,5.441406,-0.070312,0.054687,0.005859,0.866333,0.457336,-0.004456,0.200745,up
451007,1.835938,7.945312,5.40625,-0.070312,0.054687,0.005859,0.866455,0.457031,-0.004272,0.200928,up
451012,1.835938,7.949219,5.480469,-0.070312,0.054687,0.005859,0.866455,0.457031,-0.004272,0.200928,up
451017,1.875,7.90625,5.441406,-0.041016,0.044922,0.003906,0.866455,0.457031,-0.004272,0.200928,up
451023,1.835938,7.945312,5.40625,-0.041016,0.044922,0.003906,0.866577,0.456665,-0.004028,0.201172,up
451028,1.835938,7.988281,5.40625,-0.027344,0.044922,0.009766,0.866577,0.456604,-0.003906,0.201294,up
451033,1.875,7.984375,5.441406,-0.017578,0.037109,0.013672,0.866638,0.456543,-0.003845,0.201355,up
451039,1.914063,7.984375,5.480469,-0.017578,0.037109,0.013672,0.866638,0.456482,-0.003784,0.201477,up
451044,1.914063,8.027344,5.441406,-0.017578,0.037109,0.013672,0.866638,0.456421,-0.003662,0.201599,up
451050,1.914063,7.984375,5.480469,0.001953,0.064453,0.019531,0.866638,0.456421,-0.003662,0.201599,up
451056,1.949219,7.984375,5.519531,-0.001953,0.087891,0.017578,0.866638,0.456421,-0.003662,0.201599,up
451062,1.875,7.949219,5.480469,-0.001953,0.087891,0.017578,0.866577,0.456299,-0.003174,0.202026,up
451068,1.914063,7.988281,5.519531,-0.021484,0.130859,0.03125,0.866577,0.456299,-0.003174,0.202026,up
451073,1.875,7.949219,5.480469,-0.021484,0.130859,0.03125,0.866577,0.455994,-0.002441,0.202759,up
451078,1.835938,7.984375,5.480469,-0.021484,0.130859,0.03125,0.866577,0.455872,-0.002258,0.203003,up
451083,1.835938,7.945312,5.558594,-0.021484,0.130859,0.03125,0.866577,0.45575,-0.001953,0.203247,up
451088,1.835938,7.945312,5.558594,-0.019531,0.142578,0.042969,0.866577,0.45575,-0.001953,0.203247,up
451093,1.796875,7.910156,5.597656,-0.019531,0.142578,0.042969,0.866577,0.455505,-0.001404,0.203796,up
451098,1.796875,7.988281,5.597656,-0.005859,0.152344,0.046875,0.866577,0.455505,-0.001404,0.203796,up
451103,1.835938,7.945312,5.558594,-0.005859,0.152344,0.046875,0.866516,0.455322,-0.000854,0.204407,up
451108,1.796875,7.988281,5.597656,0.013672,0.150391,0.03125,0.866516,0.455261,-0.000488,0.204651,up
451113,1.796875,7.984375,5.632812,0.013672,0.150391,0.03125,0.866455,0.455261,-0.000244,0.204895,up
451118,1.796875,8.027344,5.710937,0.009766,0.152344,0.037109,0.866394,0.4552,6.1e-05,0.205139,up
451124,1.796875,7.949219,5.710937,0.009766,0.152344,0.037109,0.866394,0.455139,0.000366,0.205444,up
451129,1.796875,7.988281,5.671875,-0.001953,0.158203,0.03125,0.866394,0.455078,0.000671,0.205688,up
451135,1.796875,7.945312,5.671875,-0.001953,0.158203,0.03125,0.866333,0.455017,0.000977,0.205933,up
451142,1.796875,7.949219,5.75,-0.019531,0.126953,0.037109,0.866333,0.455017,0.000977,0.205933,up
451148,1.835938,7.910156,5.789062,-0.007813,0.128906,0.041016,0.866333,0.455017,0.000977,0.205933,up
451153,1.835938,7.910156,5.789062,-0.019531,0.142578,0.046875,0.866333,0.454712,0.001709,0.206726,up
451158,1.796875,7.90625,5.710937,-0.019531,0.142578,0.046875,0.866333,0.454468,0.002258,0.207275,up
451163,1.875,7.835937,5.789062,-0.007813,0.146484,0.041016,0.866333,0.454468,0.002258,0.207275,up
451168,1.875,7.871094,5.75,-0.007813,0.146484,0.041016,0.866272,0.454285,0.002808,0.207825,up
451173,1.875,7.835937,5.828125,-0.007813,0.146484,0.041016,0.866211,0.454224,0.003113,0.208069,up
451178,1.835938,7.910156,5.75,0.039063,0.162109,0.029297,0.866211,0.454224,0.003113,0.208069,up
451183,1.875,7.910156,5.75,0.039063,0.162109,0.029297,0.86615,0.454224,0.003479,0.208374,up
451188,1.875,7.910156,5.75,0.054687,0.164062,0.03125,0.866028,0.454285,0.00415,0.208923,up
451193,1.796875,7.949219,5.902344,0.054687,0.167969,0.027344,0.866028,0.454285,0.00415,0.208923,up
451198,1.835938,7.988281,5.902344,0.054687,0.167969,0.027344,0.865845,0.454346,0.004944,0.209412,up
451203,1.796875,7.988281,5.980469,0.054687,0.167969,0.027344,0.865784,0.454346,0.00531,0.209717,up
451208,1.796875,8.027344,6.019531,0.054687,0.167969,0.027344,0.865662,0.454346,0.005676,0.209961,up
451213,1.835938,7.984375,6.054687,0.054687,0.167969,0.027344,0.865662,0.454346,0.005676,0.209961,up
451219,1.835938,7.984375,6.054687,0.023437,0.136719,0.046875,0.86554,0.454407,0.006287,0.21051,up
451224,1.875,7.988281,6.132812,0.023437,0.136719,0.046875,0.865479,0.454346,0.006531,0.210815,up
451229,1.949219,7.945312,6.171875,0.023437,0.136719,0.046875,0.865417,0.454346,0.006714,0.21106,up
451234,1.949219,7.949219,6.246094,0.0,0.111328,0.056641,0.865417,0.454346,0.006714,0.21106,up
451239,1.949219,7.949219,6.246094,-0.005859,0.103516,0.056641,0.865356,0.454224,0.00708,0.211548,up
451244,1.988281,7.90625,6.171875,-0.005859,0.103516,0.056641,0.865356,0.454224,0.00708,0.211548,up
451250,1.988281,7.90625,6.171875,-0.001953,0.103516,0.064453,0.865295,0.454102,0.007385,0.212097,up
451255,2.027344,7.910156,6.210937,-0.001953,0.103516,0.064453,0.865295,0.454102,0.007385,0.212097,up
451260,2.027344,7.910156,6.210937,-0.03125,0.09375,0.072266,0.865295,0.453979,0.007507,0.212402,up
451265,2.257813,7.871094,6.285156,-0.03125,0.09375,0.072266,0.865295,0.453674,0.00769,0.212952,up
451271,2.257813,7.945312,6.363281,-0.091797,0.115234,0.091797,0.865295,0.453674,0.00769,0.212952,up
451276,2.21875,7.910156,6.363281,-0.105469,0.119141,0.103516,0.865295,0.453674,0.00769,0.212952,up
451282,2.179688,7.945312,6.515625,-0.166016,0.152344,0.099609,0.865295,0.453674,0.00769,0.212952,up
451287,2.21875,7.949219,6.515625,-0.166016,0.152344,0.099609,0.865601,0.452454,0.008179,0.214478,up
451293,2.105469,8.027344,6.628906,-0.195312,0.166016,0.095703,0.865601,0.452454,0.008179,0.214478,up
451298,2.105469,8.0625,6.667969,-0.195312,0.166016,0.095703,0.866089,0.450806,0.008728,0.215759,up
451303,2.027344,8.066406,6.785156,-0.271484,0.199219,0.089844,0.866333,0.450195,0.00885,0.216187,up
451308,1.949219,8.066406,6.898437,-0.271484,0.199219,0.089844,0.866333,0.450195,0.00885,0.216187,up
451313,1.835938,8.066406,6.9375,-0.294922,0.203125,0.087891,0.866333,0.450195,0.00885,0.216187,up
451318,1.796875,8.023438,7.015625,-0.294922,0.203125,0.087891,0.866882,0.448669,0.009277,0.217102,up
451323,1.796875,7.988281,7.015625,-0.408203,0.185547,0.107422,0.866882,0.448669,0.009277,0.217102,up
451328,1.796875,7.90625,7.207031,-0.408203,0.185547,0.107422,0.867554,0.446899,0.009521,0.218018,up
451334,1.796875,7.90625,7.207031,-0.447266,0.15625,0.119141,0.868347,0.444885,0.009583,0.218933,up
451339,1.796875,7.871094,7.28125,-0.462891,0.140625,0.130859,0.868835,0.443726,0.009521,0.219421,up
451345,1.835938,7.796875,7.28125,-0.462891,0.140625,0.130859,0.869263,0.442688,0.00946,0.219849,up
451351,1.914063,7.800781,7.320312,-0.462891,0.140625,0.130859,0.86969,0.441589,0.009277,0.220337,up
451356,1.949219,7.757812,7.242187,-0.457031,0.113281,0.125,0.86969,0.441589,0.009277,0.220337,up
451361,1.949219,7.757812,7.28125,-0.447266,0.109375,0.109375,0.86969,0.441589,0.009277,0.220337,up
451366,1.914063,7.867187,7.28125,-0.427734,0.107422,0.109375,0.86969,0.441589,0.009277,0.220337,up
451372,1.914063,7.90625,7.359375,-0.419922,0.107422,0.105469,0.86969,0.441589,0.009277,0.220337,up
451377,1.875,7.90625,7.359375,-0.427734,0.119141,0.097656,0.86969,0.441589,0.009277,0.220337,up
451383,1.914063,7.984375,7.398437,-0.433594,0.128906,0.107422,0.86969,0.441589,0.009277,0.220337,up
451388,1.875,7.945312,7.320312,-0.482422,0.164062,0.125,0.872559,0.434509,0.008606,0.223083,up
451394,1.835938,7.949219,7.359375,-0.482422,0.164062,0.125,0.873474,0.432129,0.008545,0.22406,up
451399,1.835938,7.90625,7.359375,-0.580078,0.193359,0.146484,0.874023,0.430847,0.008545,0.224609,up
451404,1.796875,7.835937,7.359375,-0.580078,0.193359,0.146484,0.874512,0.429504,0.008484,0.225098,up
451410,1.914063,7.761719,7.28125,-0.580078,0.193359,0.146484,0.875183,0.427795,0.008362,0.225769,up
451415,1.875,7.679687,7.28125,-0.738281,0.242187,0.173828,0.875793,0.426208,0.008301,0.226379,up
451421,1.914063,7.640625,7.28125,-0.763672,0.25,0.181641,0.876465,0.4245,0.00824,0.227051,up
451427,1.949219,7.605469,7.207031,-0.763672,0.25,0.181641,0.876465,0.4245,0.00824,0.227051,up
451433,1.914063,7.5625,7.167969,-0.832031,0.314453,0.185547,0.876465,0.4245,0.00824,0.227051,up
451438,1.949219,7.484375,7.128906,-0.832031,0.314453,0.185547,0.878662,0.418701,0.008179,0.229309,up
451443,1.949219,7.484375,7.128906,-0.865234,0.376953,0.181641,0.879456,0.416626,0.00824,0.230103,up
451448,1.949219,7.453125,7.050781,-0.865234,0.376953,0.181641,0.880188,0.414551,0.008362,0.230896,up
451453,1.914063,7.375,6.976562,-0.876953,0.466797,0.185547,0.880188,0.414551,0.008362,0.230896,up
451459,1.835938,7.414062,6.976562,-0.876953,0.466797,0.185547,0.882507,0.40802,0.009216,0.233582,up
451464,1.796875,7.417969,6.976562,-0.919922,0.566406,0.164062,0.883362,0.40564,0.009705,0.234558,up
451469,1.796875,7.375,7.015625,-0.958984,0.617187,0.148437,0.884277,0.403015,0.010376,0.235657,up
451474,1.757813,7.335937,6.976562,-0.958984,0.617187,0.148437,0.885193,0.400391,0.011108,0.236694,up
451479,1.722656,7.296875,6.976562,-0.958984,0.617187,0.148437,0.885925,0.398071,0.01178,0.23761,up
451484,1.644531,7.300781,6.976562,-1.0625,0.746094,0.113281,0.886963,0.395081,0.012756,0.23877,up
451489,1.605469,7.179687,6.9375,-1.0625,0.746094,0.113281,0.887817,0.392578,0.013611,0.239685,up
451494,1.605469,6.953125,6.980469,-1.0625,0.746094,0.113281,0.888916,0.389404,0.014709,0.240723,up
451500,1.53125,6.953125,6.9375,-1.0625,0.746094,0.113281,0.889893,0.386475,0.015808,0.241699,up
451505,1.492188,6.875,6.976562,-1.21875,0.878906,0.021484,0.890991,0.383362,0.016968,0.242676,up
451510,1.453125,6.800781,7.019531,-1.255859,0.902344,0.013672,0.890991,0.383362,0.016968,0.242676,up
451515,1.375,6.683594,7.019531,-1.255859,0.902344,0.013672,0.890991,0.383362,0.016968,0.242676,up
451520,1.300781,6.609375,7.019531,-1.298828,0.943359,-0.011719,0.890991,0.383362,0.016968,0.242676,up
451525,1.261719,6.570312,7.019531,-1.298828,0.960937,-0.011719,0.890991,0.383362,0.016968,0.242676,up
451531,1.183594,6.570312,7.050781,-1.298828,0.960937,-0.011719,0.896729,0.36615,0.02356,0.247437,up
451536,1.109375,6.609375,7.046875,-1.273438,1.001953,-0.023437,0.896729,0.36615,0.02356,0.247437,up
451541,1.109375,6.609375,7.046875,-1.255859,1.015625,-0.033203,0.898926,0.359192,0.02655,0.249329,up
451546,1.109375,6.609375,7.046875,-1.248047,1.021484,-0.039063,0.900024,0.355774,0.028076,0.250305,up
451551,1.144531,6.839844,7.085937,-1.253906,1.044922,-0.056641,0.900024,0.355774,0.028076,0.250305,up
451556,1.109375,6.914062,7.046875,-1.253906,1.044922,-0.056641,0.901062,0.352234,0.029724,0.251221,up
451561,1.109375,6.914062,7.046875,-1.275391,1.091797,-0.099609,0.903198,0.345093,0.033081,0.252991,up
451566,1.070313,6.953125,6.859375,-1.275391,1.091797,-0.099609,0.903198,0.345093,0.033081,0.252991,up
451572,1.070313,6.914062,6.859375,-1.335938,1.125,-0.132812,0.903198,0.345093,0.033081,0.252991,up
451577,1.03125,6.839844,6.898437,-1.404297,1.148438,-0.148437,0.903198,0.345093,0.033081,0.252991,up
451582,0.992187,6.722656,6.980469,-1.484375,1.177734,-0.160156,0.903198,0.345093,0.033081,0.252991,up
451587,0.953125,6.457031,7.050781,-1.484375,1.177734,-0.160156,0.903198,0.345093,0.033081,0.252991,up
451593,0.839844,6.339844,7.089844,-1.484375,1.177734,-0.160156,0.910278,0.320862,0.04425,0.257751,up
451599,0.800781,6.226562,7.015625,-1.896484,1.330078,-0.251953,0.910278,0.320862,0.04425,0.257751,up
451604,0.6875,6.035156,7.207031,-1.984375,1.310547,-0.271484,0.913086,0.311035,0.048279,0.259216,up
451609,0.6875,6.035156,7.207031,-2.058594,1.289063,-0.304688,0.916077,0.300354,0.052063,0.260498,up
451614,0.648437,5.882812,7.46875,-2.076172,1.283203,-0.324219,0.917786,0.294128,0.054077,0.261108,up
451619,0.570312,5.726562,7.511719,-2.085938,1.275391,-0.359375,0.917786,0.294128,0.054077,0.261108,up
451624,0.496094,5.574219,7.550781,-2.085938,1.275391,-0.359375,0.920898,0.282959,0.057739,0.261902,up
451629,0.378906,5.535156,7.472656,-2.056641,1.226563,-0.402344,0.920898,0.282959,0.057739,0.261902,up
451634,0.304688,5.421875,7.589844,-2.056641,1.226563,-0.402344,0.923889,0.271667,0.061218,0.26239,up
451639,0.152344,5.34375,7.589844,-1.978516,1.021484,-0.398438,0.923889,0.271667,0.061218,0.26239,up
451644,0.113281,5.382812,7.589844,-1.978516,1.021484,-0.398438,0.926758,0.260986,0.063904,0.262573,up
451649,0.1875,5.460937,7.785156,-1.892578,0.888672,-0.443359,0.926758,0.260986,0.063904,0.262573,up
451654,0.152344,5.34375,8.085938,-1.902344,0.929687,-0.490234,0.928101,0.255981,0.065002,0.262451,up
451660,0.152344,5.34375,8.085938,-1.957031,0.931641,-0.535156,0.930664,0.246155,0.067322,0.262085,up
451665,0.152344,5.34375,8.085938,-1.957031,0.931641,-0.535156,0.930664,0.246155,0.067322,0.262085,up
451670,-0.078125,5.230469,7.585937,-2.039063,0.857422,-0.564453,0.930664,0.246155,0.067322,0.262085,up
451675,-0.003906,4.847656,7.707031,-2.128906,0.753906,-0.595703,0.933594,0.235291,0.069275,0.261169,up
451680,-0.003906,4.847656,7.707031,-2.255859,0.669922,-0.677734,0.933594,0.235291,0.069275,0.261169,up
451685,-0.003906,4.425781,7.625,-2.255859,0.669922,-0.677734,0.936707,0.223816,0.070496,0.259766,up
451690,0.035156,4.195312,7.625,-2.255859,0.669922,-0.677734,0.936707,0.223816,0.070496,0.259766,up
451695,0.113281,4.003906,7.664062,-2.255859,0.669922,-0.677734,0.940125,0.211182,0.071289,0.257935,up
451700,0.113281,4.003906,7.664062,-2.396484,0.589844,-0.779297,0.940125,0.211182,0.071289,0.257935,up
451706,0.113281,3.851563,7.742187,-2.396484,0.589844,-0.779297,0.944702,0.193359,0.072083,0.254883,up
451711,0.226562,3.851563,7.851562,-2.396484,0.589844,-0.779297,0.944702,0.193359,0.072083,0.254883,up
451716,0.1875,3.925781,7.929687,-2.210938,0.554687,-0.912109,0.944702,0.193359,0.072083,0.254883,up
451721,0.113281,3.660156,7.894531,-2.166016,0.550781,-0.947266,0.949158,0.175781,0.07312,0.250671,up
451727,0.113281,3.582031,7.933594,-2.029297,0.523437,-0.986328,0.949158,0.175781,0.07312,0.250671,up
451733,0.113281,3.390625,7.929687,-2.029297,0.523437,-0.986328,0.949158,0.175781,0.07312,0.250671,up
451738,-0.042969,3.160156,7.929687,-1.785156,0.46875,-1.011719,0.949158,0.175781,0.07312,0.250671,up
451744,0.035156,2.894531,8.011719,-1.5625,0.361328,-0.990234,0.949158,0.175781,0.07312,0.250671,up
451749,-0.15625,3.277344,8.273438,-1.5625,0.361328,-0.990234,0.956665,0.147339,0.075378,0.239624,up
451754,-0.308594,3.046875,8.277344,-1.482422,0.228516,-1.037109,0.956665,0.147339,0.075378,0.239624,up
451759,-0.042969,1.972656,7.933594,-1.482422,0.228516,-1.037109,0.958862,0.139404,0.075439,0.235352,up
451764,-0.308594,2.777344,8.273438,-1.482422,0.228516,-1.037109,0.958862,0.139404,0.075439,0.235352,up
451769,-0.308594,2.777344,8.273438,-1.482422,0.228516,-1.037109,0.958862,0.139404,0.075439,0.235352,up
451774,-0.347656,2.777344,8.660156,-1.304688,-0.054687,-1.179688,0.958862,0.139404,0.075439,0.235352,up
451779,-0.347656,2.777344,8.660156,-1.015625,-0.242187,-1.240234,0.958862,0.139404,0.075439,0.235352,up
451785,-0.460937,3.160156,8.617188,-1.015625,-0.242187,-1.240234,0.964417,0.123779,0.072693,0.222046,up
451790,-0.425781,3.277344,8.734375,-0.832031,-0.609375,-1.324219,0.965576,0.121521,0.071228,0.218628,up
451796,-0.425781,3.699219,8.394531,-0.832031,-0.609375,-1.324219,0.966553,0.119934,0.069763,0.215698,up
451801,-0.347656,3.773438,8.273438,-0.773437,-0.871094,-1.414063,0.966553,0.119934,0.069763,0.215698,up
451806,-0.117188,3.773438,8.050781,-0.773437,-0.871094,-1.414063,0.966553,0.119934,0.069763,0.215698,up
451812,0.035156,3.699219,7.855469,-0.925781,-1.083984,-1.40625,0.966553,0.119934,0.069763,0.215698,up
451817,0.1875,3.582031,7.78125,-1.0625,-1.132813,-1.367188,0.966553,0.119934,0.069763,0.215698,up
451822,0.609375,3.007813,7.628906,-1.0625,-1.132813,-1.367188,0.972229,0.110291,0.057251,0.198181,up
451827,0.648437,2.738281,7.589844,-1.302734,-1.138672,-1.251953,0.972229,0.110291,0.057251,0.198181,up
451832,0.839844,2.511719,7.667969,-1.347656,-1.107422,-1.181641,0.972229,0.110291,0.057251,0.198181,up
451838,0.953125,2.28125,7.746094,-1.347656,-1.107422,-1.181641,0.975464,0.101929,0.048096,0.188965,up
451844,1.144531,2.089844,7.894531,-1.347656,-1.107422,-1.181641,0.977356,0.096558,0.042297,0.18335,up
451849,1.261719,2.011719,8.007813,-1.347656,-1.107422,-1.181641,0.977356,0.096558,0.042297,0.18335,up
451854,1.339844,1.898438,8.089844,-0.919922,-1.019531,-1.099609,0.977356,0.096558,0.042297,0.18335,up
451859,1.300781,1.898438,8.164063,-0.919922,-1.019531,-1.099609,0.979797,0.091675,0.034241,0.1745,up
451864,1.109375,1.933594,8.125,-0.919922,-1.019531,-1.099609,0.979797,0.091675,0.034241,0.1745,up
451869,1.109375,1.933594,8.125,-0.177734,-1.078125,-1.273438,0.980408,0.091309,0.032043,0.17157,up
451874,1.03125,2.242188,8.164063,0.101563,-1.142578,-1.361328,0.980408,0.091309,0.032043,0.17157,up
451879,0.726562,2.96875,8.273438,0.101563,-1.142578,-1.361328,0.980408,0.091309,0.032043,0.17157,up
451884,0.609375,3.238281,8.351563,0.546875,-1.384766,-1.539063,0.982239,0.093872,0.024475,0.160461,up
451889,0.1875,4.15625,8.433594,0.546875,-1.384766,-1.539063,0.982849,0.095581,0.021606,0.156311,up
451894,0.1875,4.15625,8.433594,0.546875,-1.384766,-1.539063,0.983887,0.099304,0.015686,0.147827,up
451899,0.1875,4.65625,8.851563,0.546875,-1.384766,-1.539063,0.983887,0.099304,0.015686,0.147827,up
451904,0.113281,4.730469,8.855469,0.451172,-1.494141,-1.568359,0.983887,0.099304,0.015686,0.147827,up
451909,0.074219,4.847656,9.042969,0.306641,-1.484375,-1.544922,0.983887,0.099304,0.015686,0.147827,up
451914,0.152344,4.847656,9.117188,-0.033203,-1.425781,-1.416016,0.985352,0.103455,0.006348,0.135376,up
451920,0.265625,4.808594,9.15625,-0.033203,-1.425781,-1.416016,0.985901,0.104126,0.002869,0.131042,up
451925,0.304688,4.730469,9.121094,-0.242187,-1.285156,-1.246094,0.986816,0.104248,-0.003174,0.123901,up
451930,0.417969,4.730469,9.234375,-0.242187,-1.285156,-1.246094,0.987183,0.104065,-0.005798,0.120911,up
451935,0.761719,4.464844,9.65625,-0.255859,-1.125,-1.121094,0.98761,0.10376,-0.00885,0.117371,up
451940,0.761719,4.425781,9.695313,-0.255859,-1.125,-1.121094,0.987915,0.103577,-0.010986,0.114746,up
451945,0.839844,3.925781,9.921875,-0.255859,-1.125,-1.121094,0.988281,0.103455,-0.013428,0.111633,up
451951,0.800781,3.699219,10.308594,-0.255859,-1.125,-1.121094,0.988525,0.103577,-0.015442,0.10907,up
451956,0.917969,3.964844,10.808594,0.232422,-1.074219,-1.064453,0.988525,0.103577,-0.015442,0.10907,up
451962,0.839844,4.308594,11.230469,0.519531,-1.189453,-1.044922,0.988525,0.103577,-0.015442,0.10907,up
451967,0.609375,4.308594,11.226563,0.818359,-1.269531,-1.005859,0.988525,0.103577,-0.015442,0.10907,up
451973,0.570312,4.15625,11.191406,1.152344,-1.445313,-0.90625,0.988525,0.103577,-0.015442,0.10907,up
451978,0.417969,3.890625,11.074219,1.433594,-1.628906,-0.796875,0.988525,0.103577,-0.015442,0.10907,up
451984,0.457031,3.925781,10.886719,1.71875,-1.757813,-0.65625,0.988037,0.118286,-0.03241,0.093262,up
451989,0.917969,5.0,10.304688,2.039063,-1.853516,-0.503906,0.987427,0.123535,-0.036377,0.091431,up
451994,0.917969,5.0,10.304688,2.292969,-1.84375,-0.3125,0.987427,0.123535,-0.036377,0.091431,up
451999,1.183594,5.84375,9.925781,2.292969,-1.84375,-0.3125,0.986694,0.129272,-0.040283,0.090088,up
452004,1.183594,5.84375,9.925781,2.662109,-1.507813,0.0625,0.98468,0.142395,-0.047485,0.088928,up
452010,2.679688,7.527344,9.65625,2.662109,-1.507813,0.0625,0.982117,0.15686,-0.05249,0.089844,up
452015,2.910156,7.453125,9.847656,2.662109,-1.507813,0.0625,0.981079,0.162415,-0.053528,0.090698,up
452021,2.984375,7.261719,10.160156,2.662109,-1.507813,0.0625,0.97998,0.168091,-0.053772,0.091919,up
452026,2.371094,6.339844,11.070313,2.662109,-1.507813,0.0625,0.979004,0.173218,-0.053284,0.093323,up
452032,2.105469,5.996094,11.453125,1.716797,0.386719,0.419922,0.978027,0.178162,-0.052185,0.094971,up
452038,1.757813,5.804687,11.992188,1.716797,0.386719,0.419922,0.978027,0.178162,-0.052185,0.094971,up
452043,1.605469,5.917969,12.300781,1.423828,0.503906,0.421875,0.978027,0.178162,-0.052185,0.094971,up
452048,1.414063,5.957031,12.570313,1.351563,0.449219,0.482422,0.978027,0.178162,-0.052185,0.094971,up
452053,1.183594,5.957031,12.761719,1.3125,0.339844,0.574219,0.978027,0.178162,-0.052185,0.094971,up
452059,0.917969,6.1875,12.988281,1.3125,0.339844,0.574219,0.978027,0.178162,-0.052185,0.094971,up
452064,0.953125,6.378906,13.179688,1.712891,0.023437,0.923828,0.978027,0.178162,-0.052185,0.094971,up
452069,0.992187,6.570312,13.222656,1.712891,0.023437,0.923828,0.972473,0.20166,-0.046082,0.1073,up
452074,1.222656,6.914062,13.105469,1.712891,0.023437,0.923828,0.971191,0.206299,-0.046082,0.110046,up
452079,1.339844,6.914062,13.023438,1.712891,0.023437,0.923828,0.96991,0.210815,-0.046204,0.112488,up
452084,1.339844,6.914062,13.023438,2.339844,-0.113281,1.064453,0.968262,0.216614,-0.046326,0.115479,up
452089,1.339844,6.914062,13.023438,2.421875,-0.128906,1.080078,0.966736,0.222046,-0.046509,0.118164,up
452094,1.566406,6.914062,12.605469,2.421875,-0.128906,1.080078,0.966736,0.222046,-0.046509,0.118164,up
452099,1.566406,6.914062,12.605469,2.427734,-0.148437,1.107422,0.963318,0.233398,-0.046997,0.123901,up
452104,1.566406,6.914062,12.605469,2.226563,-0.177734,1.185547,0.961548,0.238953,-0.047424,0.126953,up
452110,1.757813,7.03125,11.875,1.837891,-0.207031,1.310547,0.961548,0.238953,-0.047424,0.126953,up
452115,1.835938,7.144531,11.492188,1.837891,-0.207031,1.310547,0.956421,0.253113,-0.049316,0.136963,up
452120,1.875,7.222656,11.378906,1.837891,-0.207031,1.310547,0.956421,0.253113,-0.049316,0.136963,up
452125,2.027344,7.070312,11.308594,1.521484,-0.216797,1.445313,0.956421,0.253113,-0.049316,0.136963,up
452131,2.140625,6.609375,11.34375,1.521484,-0.216797,1.445313,0.952026,0.263,-0.052002,0.147339,up
452136,2.296875,6.417969,11.265625,1.435547,-0.144531,1.619141,0.952026,0.263,-0.052002,0.147339,up
452141,2.488281,6.1875,11.269531,1.578125,-0.089844,1.636719,0.952026,0.263,-0.052002,0.147339,up
452147,2.792969,5.652344,11.152344,1.578125,-0.089844,1.636719,0.947021,0.273376,-0.054321,0.159363,up
452152,2.871094,5.496094,10.996094,1.916016,0.017578,1.667969,0.947021,0.273376,-0.054321,0.159363,up
452157,2.984375,5.421875,10.84375,2.095703,0.09375,1.673828,0.947021,0.273376,-0.054321,0.159363,up
452162,2.984375,5.421875,10.84375,2.28125,0.175781,1.673828,0.940674,0.287048,-0.054871,0.172424,up
452167,3.253906,5.421875,10.503906,2.28125,0.175781,1.673828,0.940674,0.287048,-0.054871,0.172424,up
452173,3.445313,5.496094,10.308594,2.455078,0.257813,1.671875,0.93573,0.297791,-0.053955,0.181213,up
452178,3.445313,5.496094,10.308594,2.455078,0.257813,1.671875,0.93573,0.297791,-0.053955,0.181213,up
452184,3.636719,5.957031,9.65625,2.931641,0.580078,1.667969,0.929993,0.310059,-0.051697,0.190613,up
452190,3.445313,6.761719,9.390625,2.931641,0.580078,1.667969,0.923584,0.323364,-0.048157,0.200439,up
452195,3.328125,7.183594,9.199219,2.931641,0.580078,1.667969,0.923584,0.323364,-0.048157,0.200439,up
452200,3.214844,7.796875,8.890625,3.238281,0.837891,1.734375,0.923584,0.323364,-0.048157,0.200439,up
452205,3.101563,7.988281,8.894531,3.146484,0.947266,1.826172,0.923584,0.323364,-0.048157,0.200439,up
452210,3.0625,8.101563,8.855469,3.146484,0.947266,1.826172,0.909119,0.350464,-0.039063,0.221741,up
452215,2.945313,8.21875,8.773438,3.146484,0.947266,1.826172,0.909119,0.350464,-0.039063,0.221741,up
452220,2.832031,8.332031,8.855469,3.146484,0.947266,1.826172,0.9021,0.362,-0.034668,0.232239,up
452225,2.71875,8.449219,9.003906,3.146484,0.947266,1.826172,0.9021,0.362,-0.034668,0.232239,up
452230,2.601563,8.484375,9.082031,2.775391,1.033203,1.976563,0.894714,0.373108,-0.030273,0.243652,up
452235,2.296875,8.5625,9.121094,2.501953,1.001953,2.074219,0.894714,0.373108,-0.030273,0.243652,up
452240,2.179688,8.523438,9.199219,2.501953,1.001953,2.074219,0.89093,0.378296,-0.028259,0.249634,up
452246,2.179688,8.523438,9.199219,2.425781,0.96875,2.126953,0.88385,0.387329,-0.025024,0.260986,up
452251,2.027344,8.5625,9.199219,2.425781,0.96875,2.126953,0.88385,0.387329,-0.025024,0.260986,up
452256,1.757813,8.5625,9.117188,2.414063,0.896484,2.248047,0.880005,0.392029,-0.023499,0.26709,up
452261,1.757813,8.5625,9.117188,2.441406,0.859375,2.306641,0.87616,0.396606,-0.022217,0.273071,up
452266,2.027344,8.945313,8.699219,2.441406,0.859375,2.306641,0.872192,0.401245,-0.020996,0.279053,up
452271,2.105469,9.097656,8.507813,2.441406,0.859375,2.306641,0.872192,0.401245,-0.020996,0.279053,up
452276,2.179688,9.253906,8.203125,2.441406,0.859375,2.306641,0.872192,0.401245,-0.020996,0.279053,up
452281,2.179688,9.253906,8.203125,2.53125,0.871094,2.513672,0.872192,0.401245,-0.020996,0.279053,up
452286,2.179688,9.480469,8.203125,2.53125,0.871094,2.513672,0.849426,0.425598,-0.015076,0.311646,up
452292,1.835938,9.789063,8.085938,2.53125,0.871094,2.513672,0.845337,0.429504,-0.014038,0.317383,up
452297,1.722656,9.832031,8.085938,2.347656,0.953125,2.566406,0.845337,0.429504,-0.014038,0.317383,up
452302,1.566406,9.832031,8.085938,2.242188,0.962891,2.597656,0.836243,0.437622,-0.01178,0.330322,up
452307,1.492188,9.75,8.085938,2.242188,0.962891,2.597656,0.831177,0.44165,-0.010803,0.337524,up
452312,1.222656,9.675781,8.046875,2.242188,0.962891,2.597656,0.827026,0.444763,-0.010132,0.343567,up
452318,1.070313,9.480469,8.085938,1.876953,0.828125,2.699219,0.827026,0.444763,-0.010132,0.343567,up
452323,1.070313,9.480469,8.085938,1.753906,0.742187,2.740234,0.818054,0.450989,-0.00946,0.35675,up
452328,0.953125,9.171875,7.933594,1.753906,0.742187,2.740234,0.818054,0.450989,-0.00946,0.35675,up
452334,0.953125,9.171875,7.933594,1.640625,0.644531,2.765625,0.809387,0.45636,-0.010071,0.369446,up
452339,0.878906,8.753906,7.816406,1.640625,0.644531,2.765625,0.809387,0.45636,-0.010071,0.369446,up
452344,0.878906,8.753906,7.816406,1.498047,0.447266,2.792969,0.800659,0.461487,-0.011841,0.381897,up
452349,1.605469,8.222656,7.28125,1.498047,0.447266,2.792969,0.800659,0.461487,-0.011841,0.381897,up
452355,1.835938,8.144531,7.050781,1.388672,0.160156,2.724609,0.800659,0.461487,-0.011841,0.381897,up
452360,2.027344,8.0625,6.824219,1.388672,0.160156,2.724609,0.783081,0.471558,-0.017334,0.405151,up
452365,2.410156,7.867187,6.515625,1.388672,0.160156,2.724609,0.783081,0.471558,-0.017334,0.405151,up
452370,2.601563,7.601562,6.4375,1.388672,0.160156,2.724609,0.778809,0.473938,-0.01886,0.410522,up
452375,2.753906,7.375,6.402344,1.292969,0.130859,2.59375,0.778809,0.473938,-0.01886,0.410522,up
452380,2.753906,7.183594,6.476562,1.292969,0.130859,2.59375,0.769775,0.478699,-0.022034,0.421692,up
452386,2.679688,6.800781,6.515625,1.292969,0.130859,2.59375,0.760986,0.483154,-0.024841,0.43219,up
452391,2.679688,6.648437,6.515625,1.375,0.179687,2.552734,0.75647,0.485474,-0.026184,0.4375,up
452396,2.71875,6.609375,6.4375,1.375,0.179687,2.552734,0.752502,0.487488,-0.027222,0.442017,up
452401,2.71875,6.492187,6.246094,1.375,0.179687,2.552734,0.752502,0.487488,-0.027222,0.442017,up
452406,2.71875,6.492187,6.246094,1.455078,0.207031,2.519531,0.747986,0.489807,-0.02832,0.447083,up
452411,2.792969,6.414062,6.132812,1.455078,0.207031,2.519531,0.743225,0.492187,-0.029358,0.452271,up
452416,3.0625,6.378906,5.671875,1.572266,0.230469,2.447266,0.738586,0.494568,-0.030212,0.457153,up
452421,3.0625,6.378906,5.671875,1.638672,0.222656,2.402344,0.733826,0.49707,-0.030884,0.461975,up
452426,3.0625,6.378906,5.671875,1.638672,0.222656,2.402344,0.724121,0.502319,-0.032104,0.471436,up
452431,3.40625,6.53125,5.214844,1.638672,0.222656,2.402344,0.719238,0.504944,-0.032593,0.476135,up
452436,3.558594,6.613281,4.984375,1.638672,0.222656,2.402344,0.714417,0.507507,-0.033081,0.480652,up
452441,3.523438,6.570312,4.867187,1.638672,0.222656,2.402344,0.714417,0.507507,-0.033081,0.480652,up
452446,3.445313,6.652344,4.832031,1.40625,0.164062,2.138672,0.714417,0.507507,-0.033081,0.480652,up
452451,3.523438,6.414062,4.714844,1.40625,0.164062,2.138672,0.700745,0.51416,-0.035095,0.493347,up
452456,3.558594,6.414062,4.714844,1.40625,0.164062,2.138672,0.696838,0.515808,-0.036011,0.49707,up
452461,3.636719,6.375,4.675781,1.072266,0.074219,2.123047,0.692444,0.517578,-0.037292,0.501221,up
452467,3.75,6.265625,4.753906,1.072266,0.074219,2.123047,0.688599,0.519043,-0.038574,0.504883,up
452472,3.789063,6.230469,4.714844,1.072266,0.074219,2.123047,0.684692,0.520386,-0.040039,0.508667,up
452478,3.90625,6.070312,4.675781,1.072266,0.074219,2.123047,0.684692,0.520386,-0.040039,0.508667,up
452483,3.90625,6.070312,4.675781,0.792969,0.037109,2.115234,0.676941,0.522827,-0.043335,0.516296,up
452488,3.867188,5.808594,4.640625,0.75,0.037109,2.107422,0.673096,0.523865,-0.045044,0.520081,up
452493,3.867188,5.808594,4.640625,0.75,0.037109,2.107422,0.673096,0.523865,-0.045044,0.520081,up
452498,4.058594,5.609375,4.5625,0.742187,0.041016,2.09375,0.673096,0.523865,-0.045044,0.520081,up
452504,4.058594,5.609375,4.5625,0.738281,0.070312,2.042969,0.661926,0.526672,-0.050049,0.531006,up
452510,4.210937,5.386719,4.332031,0.738281,0.070312,2.042969,0.658264,0.527588,-0.051575,0.534546,up
452515,4.324219,5.34375,4.292969,0.650391,0.0625,1.988281,0.658264,0.527588,-0.051575,0.534546,up
452520,4.554687,5.269531,4.253906,0.650391,0.0625,1.988281,0.650879,0.529175,-0.054871,0.541626,up
452526,4.785156,5.1875,4.140625,0.580078,0.080078,1.941406,0.647461,0.529785,-0.056396,0.544861,up
452531,4.902344,5.113281,4.140625,0.580078,0.080078,1.941406,0.640259,0.531006,-0.059875,0.55188,up
452536,4.863281,5.039062,4.140625,0.580078,0.080078,1.941406,0.640259,0.531006,-0.059875,0.55188,up
452541,4.824219,4.964844,4.140625,0.464844,0.064453,1.869141,0.640259,0.531006,-0.059875,0.55188,up
452546,4.824219,4.769531,4.292969,0.464844,0.064453,1.869141,0.630737,0.532104,-0.064819,0.561096,up
452551,4.863281,4.695312,4.332031,0.441406,-0.003906,1.832031,0.630737,0.532104,-0.064819,0.561096,up
452556,5.054687,4.65625,4.371094,0.441406,-0.003906,1.832031,0.627258,0.532532,-0.066772,0.564392,up
452561,5.097656,4.539062,4.410156,0.421875,-0.048828,1.783203,0.627258,0.532532,-0.066772,0.564392,up
452566,5.359375,4.5,4.21875,0.421875,-0.048828,1.783203,0.617981,0.533752,-0.072144,0.572693,up
452571,5.359375,4.464844,4.140625,0.402344,-0.001953,1.701172,0.617981,0.533752,-0.072144,0.572693,up
452576,5.28125,4.425781,3.988281,0.402344,-0.001953,1.701172,0.614746,0.534119,-0.073975,0.575623,up
452581,5.164062,4.234375,3.871094,0.392578,0.001953,1.662109,0.614746,0.534119,-0.073975,0.575623,up
452586,5.164062,4.234375,3.871094,0.380859,-0.033203,1.646484,0.60907,0.534729,-0.077209,0.580627,up
452591,5.207031,4.15625,3.949219,0.380859,-0.033203,1.646484,0.60614,0.535034,-0.078918,0.583191,up
452596,5.207031,4.15625,3.949219,0.333984,-0.056641,1.603516,0.600525,0.535583,-0.082336,0.588013,up
452601,5.285156,3.925781,3.949219,0.333984,-0.056641,1.603516,0.600525,0.535583,-0.082336,0.588013,up
452606,5.285156,3.925781,3.949219,0.285156,-0.009766,1.574219,0.597717,0.535706,-0.084106,0.590454,up
452611,5.324219,3.429688,3.835938,0.285156,-0.009766,1.574219,0.592102,0.53595,-0.087524,0.595398,up
452616,5.402344,3.3125,3.871094,0.285156,-0.009766,1.574219,0.589661,0.536072,-0.088989,0.597534,up
452621,5.667969,3.160156,3.835938,0.353516,0.041016,1.488281,0.586731,0.536194,-0.090515,0.600037,up
452626,5.707031,3.121094,3.757813,0.353516,0.041016,1.488281,0.584167,0.536316,-0.091797,0.602234,up
452631,5.785156,2.96875,3.644531,0.390625,0.099609,1.410156,0.584167,0.536316,-0.091797,0.602234,up
452637,5.707031,2.894531,3.488281,0.390625,0.099609,1.410156,0.578857,0.53656,-0.094116,0.60675,up
452642,5.707031,2.894531,3.488281,0.441406,0.140625,1.308594,0.576233,0.536682,-0.095032,0.60907,up
452647,5.664062,2.855469,3.414063,0.441406,0.140625,1.308594,0.573669,0.536804,-0.095886,0.611145,up
452653,5.746094,2.703125,3.453125,0.441406,0.140625,1.308594,0.571228,0.536987,-0.096619,0.61322,up
452659,5.785156,2.664063,3.375,0.466797,0.138672,1.173828,0.571228,0.536987,-0.096619,0.61322,up
452664,5.863281,2.625,3.375,0.435547,0.160156,1.119141,0.571228,0.536987,-0.096619,0.61322,up
452669,5.859375,2.585938,3.296875,0.394531,0.193359,1.074219,0.571228,0.536987,-0.096619,0.61322,up
452675,5.933594,2.546875,3.335938,0.367188,0.205078,1.037109,0.571228,0.536987,-0.096619,0.61322,up
452680,6.011719,2.585938,3.335938,0.306641,0.210937,1.005859,0.571228,0.536987,-0.096619,0.61322,up
452686,6.207031,2.433594,3.488281,0.232422,0.205078,0.96875,0.571228,0.536987,-0.096619,0.61322,up
452691,6.28125,2.472656,3.644531,0.232422,0.205078,0.96875,0.554504,0.536438,-0.101746,0.627991,up
452696,6.351562,2.472656,3.71875,0.232422,0.205078,0.96875,0.554504,0.536438,-0.101746,0.627991,up
452701,6.355469,2.472656,3.796875,0.054687,0.1875,0.863281,0.554504,0.536438,-0.101746,0.627991,up
452706,6.46875,2.394531,3.796875,0.054687,0.1875,0.863281,0.550354,0.535217,-0.104065,0.632324,up
452711,6.511719,2.28125,3.871094,0.054687,0.1875,0.863281,0.550354,0.535217,-0.104065,0.632324,up
452716,6.589844,2.242188,3.910156,0.064453,0.185547,0.767578,0.548889,0.534729,-0.104919,0.63385,up
452721,6.628906,2.125,3.988281,0.064453,0.185547,0.767578,0.547607,0.534302,-0.105591,0.635193,up
452727,6.734375,2.125,4.0625,0.064453,0.185547,0.767578,0.546387,0.533997,-0.106201,0.636475,up
452732,6.773437,2.164063,4.101562,0.179687,0.185547,0.695312,0.545105,0.533691,-0.106628,0.637634,up
452737,6.773437,2.164063,4.101562,0.179687,0.185547,0.695312,0.543823,0.533569,-0.106934,0.638855,up
452742,6.972656,2.28125,4.0625,0.337891,0.199219,0.605469,0.54248,0.533508,-0.106995,0.640076,up
452747,6.972656,2.28125,4.0625,0.390625,0.212891,0.554687,0.54248,0.533508,-0.106995,0.640076,up
452753,7.046875,2.394531,4.027344,0.390625,0.212891,0.554687,0.53833,0.533752,-0.106201,0.643433,up
452759,7.234375,2.585938,4.027344,0.390625,0.212891,0.554687,0.53833,0.533752,-0.106201,0.643433,up
452765,7.472656,2.703125,4.027344,0.390625,0.212891,0.554687,0.535706,0.534058,-0.104919,0.645569,up
452770,7.582031,2.816406,3.988281,0.498047,0.34375,0.318359,0.535706,0.534058,-0.104919,0.645569,up
452775,7.617187,2.894531,3.988281,0.453125,0.378906,0.277344,0.535706,0.534058,-0.104919,0.645569,up
452780,7.660156,2.929688,3.988281,0.380859,0.402344,0.240234,0.535706,0.534058,-0.104919,0.645569,up
452785,7.734375,3.007813,4.027344,0.314453,0.416016,0.210937,0.535706,0.534058,-0.104919,0.645569,up
452791,7.851562,3.046875,4.0625,0.255859,0.40625,0.181641,0.530762,0.53302,-0.100098,0.651245,up
452796,8.195313,3.238281,4.101562,0.15625,0.419922,0.105469,0.530762,0.53302,-0.100098,0.651245,up
452801,8.238281,3.351563,4.101562,0.15625,0.419922,0.105469,0.530396,0.532532,-0.099426,0.652039,up
452806,8.160156,3.429688,4.140625,0.130859,0.404297,0.029297,0.530151,0.532104,-0.098755,0.65271,up
452811,8.195313,3.46875,4.21875,0.130859,0.404297,0.029297,0.529968,0.531494,-0.097961,0.653442,up
452817,8.082031,3.660156,4.292969,0.130859,0.404297,0.029297,0.529785,0.530701,-0.096558,0.65448,up
452822,8.003906,3.8125,4.253906,0.193359,0.341797,-0.048828,0.529724,0.530334,-0.095703,0.654968,up
452827,8.0,3.773438,4.410156,0.216797,0.269531,-0.042969,0.529541,0.53009,-0.094788,0.655396,up
452833,7.964844,3.890625,4.753906,0.216797,0.269531,-0.042969,0.529419,0.530029,-0.094116,0.655701,up
452838,7.773437,3.964844,4.753906,0.216797,0.269531,-0.042969,0.529175,0.529968,-0.093323,0.656067,up
452844,7.777344,4.082031,4.867187,0.273438,0.181641,0.007813,0.52887,0.530029,-0.09259,0.656372,up
452849,7.816406,4.15625,4.90625,0.273438,0.150391,0.021484,0.52887,0.530029,-0.09259,0.656372,up
452854,7.851562,4.273437,4.832031,0.273438,0.150391,0.021484,0.528076,0.530212,-0.09137,0.656982,up
452859,7.851562,4.308594,4.753906,0.214844,0.123047,0.037109,0.528076,0.530212,-0.09137,0.656982,up
452864,7.886719,4.308594,4.792969,0.160156,0.111328,0.027344,0.528076,0.530212,-0.09137,0.656982,up
452869,7.960937,4.347656,4.753906,0.119141,0.091797,0.019531,0.528076,0.530212,-0.09137,0.656982,up
452874,7.960937,4.347656,4.714844,0.072266,0.087891,0.0,0.528076,0.530212,-0.09137,0.656982,up
452880,7.964844,4.308594,4.753906,0.035156,0.076172,-0.011719,0.528076,0.530212,-0.09137,0.656982,up
452886,7.8125,4.308594,4.832031,-0.007813,0.070312,-0.027344,0.528076,0.530212,-0.09137,0.656982,up
452891,7.734375,4.308594,4.867187,-0.091797,0.046875,-0.03125,0.527222,0.53009,-0.089417,0.658081,up
452896,7.65625,4.234375,4.90625,-0.091797,0.046875,-0.03125,0.527344,0.529907,-0.089417,0.658081,up
452901,7.660156,4.195312,5.023437,-0.150391,0.039063,-0.009766,0.527344,0.529907,-0.089417,0.658081,up
452907,7.695312,4.15625,5.097656,-0.150391,0.039063,-0.009766,0.527954,0.529236,-0.089844,0.658081,up
452912,7.734375,4.117187,5.058594,-0.201172,0.060547,-0.009766,0.528259,0.52887,-0.090088,0.658142,up
452917,7.816406,4.082031,5.097656,-0.230469,0.058594,-0.015625,0.528564,0.528503,-0.090393,0.658142,up
452922,7.882812,4.042969,5.097656,-0.230469,0.058594,-0.015625,0.52887,0.528137,-0.090637,0.658142,up
452927,8.003906,4.003906,5.097656,-0.230469,0.058594,-0.015625,0.529358,0.527588,-0.091064,0.658081,up
452932,8.039063,3.890625,5.136719,-0.306641,0.048828,-0.046875,0.529358,0.527588,-0.091064,0.658081,up
452937,8.039063,3.773438,5.097656,-0.306641,0.048828,-0.046875,0.530334,0.526733,-0.091736,0.657959,up
452942,8.117188,3.773438,5.136719,-0.306641,0.048828,-0.046875,0.530701,0.526367,-0.092041,0.657898,up
452947,8.117188,3.773438,5.097656,-0.306641,0.048828,-0.046875,0.531128,0.526062,-0.092224,0.657776,up
452952,8.121094,3.851563,5.097656,-0.126953,0.011719,-0.087891,0.531494,0.525818,-0.092407,0.657654,up
452957,8.082031,3.964844,4.945312,-0.126953,0.011719,-0.087891,0.531799,0.525696,-0.092407,0.657532,up
452962,8.039063,4.042969,4.90625,-0.126953,0.011719,-0.087891,0.531982,0.525696,-0.092285,0.65741,up
452967,8.0,4.082031,4.867187,0.101563,0.033203,-0.152344,0.531982,0.525696,-0.092285,0.65741,up
452972,8.042969,4.195312,4.792969,0.101563,0.033203,-0.152344,0.532227,0.525879,-0.091431,0.657104,up
452977,8.082031,4.347656,4.714844,0.101563,0.033203,-0.152344,0.532227,0.525879,-0.091431,0.657104,up
452982,8.082031,4.464844,4.601562,0.193359,0.070312,-0.203125,0.532288,0.526123,-0.09082,0.656982,up
452987,8.003906,4.464844,4.5625,0.193359,0.070312,-0.203125,0.532532,0.526489,-0.089539,0.656677,up
452992,7.925781,4.578125,4.523437,0.193359,0.070312,-0.203125,0.532532,0.526489,-0.089539,0.656677,up
452997,7.960937,4.65625,4.484375,0.193359,0.070312,-0.203125,0.53302,0.526489,-0.088562,0.656372,up
453002,7.964844,4.695312,4.484375,0.193359,0.070312,-0.203125,0.53302,0.526489,-0.088562,0.656372,up
453007,7.851562,4.730469,4.484375,-0.138672,0.070312,-0.234375,0.53302,0.526489,-0.088562,0.656372,up
453013,7.777344,4.730469,4.484375,-0.138672,0.070312,-0.234375,0.534668,0.525879,-0.087891,0.65564,up
453019,7.660156,4.65625,4.5625,-0.138672,0.070312,-0.234375,0.535217,0.525635,-0.08783,0.655396,up
453024,7.660156,4.695312,4.523437,-0.220703,0.025391,-0.208984,0.53595,0.52533,-0.087891,0.655029,up
453030,7.621094,4.695312,4.523437,-0.201172,0.017578,-0.203125,0.53595,0.52533,-0.087891,0.655029,up
453035,7.65625,4.65625,4.640625,-0.201172,0.017578,-0.203125,0.53595,0.52533,-0.087891,0.655029,up
453040,7.621094,4.65625,4.601562,-0.201172,0.017578,-0.203125,0.537598,0.524719,-0.088074,0.654175,up
453045,7.621094,4.617187,4.601562,-0.123047,-0.021484,-0.162109,0.537598,0.524719,-0.088074,0.654175,up
453050,7.660156,4.578125,4.601562,-0.103516,-0.029297,-0.15625,0.537598,0.524719,-0.088074,0.654175,up
453055,7.777344,4.578125,4.5625,-0.103516,-0.029297,-0.15625,0.537598,0.524719,-0.088074,0.654175,up
453060,7.8125,4.578125,4.5625,-0.103516,-0.029297,-0.15625,0.539124,0.524475,-0.088074,0.653076,up
453065,7.855469,4.578125,4.523437,-0.054687,-0.029297,-0.160156,0.539124,0.524475,-0.088074,0.653076,up
453070,7.851562,4.65625,4.371094,-0.054687,-0.029297,-0.160156,0.539124,0.524475,-0.088074,0.653076,up
453076,7.851562,4.65625,4.332031,-0.054687,-0.029297,-0.160156,0.540161,0.524536,-0.08783,0.652222,up
453082,7.8125,4.769531,4.253906,-0.03125,-0.011719,-0.185547,0.540161,0.524536,-0.08783,0.652222,up
453087,7.8125,4.921875,4.179687,-0.03125,-0.011719,-0.185547,0.541138,0.524536,-0.087341,0.651428,up
453092,7.699219,4.960937,4.140625,-0.023437,0.007813,-0.179687,0.541138,0.524536,-0.087341,0.651428,up
453097,7.617187,5.039062,4.140625,-0.023437,0.007813,-0.179687,0.54187,0.524536,-0.086975,0.65094,up
453102,7.617187,5.039062,4.140625,-0.023437,0.007813,-0.179687,0.54187,0.524536,-0.086975,0.65094,up
453107,7.660156,5.113281,4.101562,-0.023437,0.017578,-0.169922,0.542419,0.524475,-0.086609,0.650574,up
453112,7.621094,5.113281,4.101562,-0.023437,0.017578,-0.169922,0.542419,0.524475,-0.086609,0.650574,up
453117,7.617187,5.113281,4.140625,-0.039063,0.046875,-0.132812,0.542419,0.524475,-0.086609,0.650574,up
453122,7.621094,5.113281,4.21875,-0.039063,0.046875,-0.132812,0.543274,0.524231,-0.08606,0.650146,up
453127,7.582031,5.078125,4.292969,-0.039063,0.046875,-0.132812,0.543518,0.524048,-0.085937,0.650024,up
453132,7.582031,5.078125,4.292969,-0.039063,0.046875,-0.132812,0.543518,0.524048,-0.085937,0.650024,up
453137,7.582031,5.039062,4.371094,-0.09375,0.068359,-0.087891,0.543518,0.524048,-0.085937,0.650024,up
453142,7.542969,5.0,4.445312,-0.09375,0.068359,-0.087891,0.544373,0.523437,-0.085754,0.649841,up
453147,7.539062,4.960937,4.484375,-0.09375,0.068359,-0.087891,0.544556,0.523254,-0.085693,0.649841,up
453152,7.433594,4.886719,4.523437,-0.09375,0.068359,-0.087891,0.544556,0.523254,-0.085693,0.649841,up
453157,7.5,4.847656,4.601562,-0.039063,0.060547,-0.064453,0.544556,0.523254,-0.085693,0.649841,up
453162,7.472656,4.847656,4.601562,-0.039063,0.060547,-0.064453,0.545044,0.522888,-0.085388,0.64978,up
453167,7.503906,4.808594,4.5625,0.025391,0.058594,-0.027344,0.545044,0.522888,-0.085388,0.64978,up
453172,7.542969,4.808594,4.5625,0.025391,0.058594,-0.027344,0.545105,0.522827,-0.085266,0.64978,up
453177,7.65625,4.695312,4.601562,0.017578,0.064453,-0.03125,0.545105,0.522827,-0.085266,0.64978,up
453182,7.617187,4.65625,4.640625,0.0,0.091797,-0.021484,0.545166,0.522705,-0.084961,0.649902,up
453187,7.578125,4.65625,4.640625,0.0,0.091797,-0.021484,0.545288,0.5224,-0.084717,0.650024,up
453192,7.621094,4.5,4.714844,0.0,0.091797,-0.021484,0.545288,0.5224,-0.084717,0.650024,up
453197,7.621094,4.539062,4.714844,0.0,0.091797,-0.021484,0.545593,0.521912,-0.084595,0.650208,up
453202,7.734375,4.464844,4.714844,0.0,0.091797,-0.021484,0.545593,0.521912,-0.084595,0.650208,up
453207,7.816406,4.425781,4.675781,-0.150391,0.111328,-0.027344,0.546143,0.521118,-0.084778,0.65033,up
453212,7.964844,4.464844,4.640625,-0.150391,0.111328,-0.027344,0.546143,0.521118,-0.084778,0.65033,up
453217,7.960937,4.425781,4.640625,-0.203125,0.117188,-0.066406,0.546509,0.520691,-0.084839,0.650391,up
453222,8.0,4.464844,4.640625,-0.203125,0.117188,-0.066406,0.546875,0.520203,-0.084961,0.650452,up
453228,7.925781,4.5,4.675781,-0.201172,0.119141,-0.074219,0.546875,0.520203,-0.084961,0.650452,up
453234,7.886719,4.464844,4.675781,-0.201172,0.119141,-0.074219,0.548096,0.518982,-0.085083,0.650391,up
453239,7.8125,4.5,4.753906,-0.140625,0.095703,-0.101563,0.548523,0.518616,-0.085083,0.65033,up
453244,7.773437,4.464844,4.792969,-0.107422,0.09375,-0.09375,0.548828,0.518311,-0.085022,0.65033,up
453250,7.734375,4.539062,4.90625,-0.078125,0.087891,-0.09375,0.548828,0.518311,-0.085022,0.65033,up
453255,7.734375,4.5,4.90625,-0.058594,0.089844,-0.082031,0.548828,0.518311,-0.085022,0.65033,up
453260,7.816406,4.539062,4.90625,-0.050781,0.091797,-0.078125,0.548828,0.518311,-0.085022,0.65033,up
453265,7.8125,4.539062,4.945312,-0.046875,0.09375,-0.068359,0.548828,0.518311,-0.085022,0.65033,up
453270,7.777344,4.578125,4.945312,-0.046875,0.09375,-0.068359,0.548828,0.518311,-0.085022,0.65033,up
453275,7.738281,4.578125,4.945312,-0.054687,0.087891,-0.060547,0.548828,0.518311,-0.085022,0.65033,up
453280,7.738281,4.578125,4.945312,-0.058594,0.080078,-0.0625,0.548828,0.518311,-0.085022,0.65033,up
453285,7.65625,4.617187,4.984375,-0.054687,0.082031,-0.0625,0.548828,0.518311,-0.085022,0.65033,up
453290,7.582031,4.695312,4.984375,-0.054687,0.082031,-0.0625,0.548828,0.518311,-0.085022,0.65033,up
453296,7.582031,4.730469,4.984375,-0.054687,0.082031,-0.0625,0.551025,0.516296,-0.083923,0.650208,up
453302,7.539062,4.769531,4.90625,-0.050781,0.058594,-0.074219,0.551025,0.516296,-0.083923,0.650208,up
453308,7.578125,4.808594,4.90625,-0.052734,0.066406,-0.080078,0.551636,0.515808,-0.083679,0.650085,up
453313,7.578125,4.847656,4.832031,-0.068359,0.054687,-0.087891,0.551941,0.515625,-0.083618,0.650024,up
453318,7.578125,4.847656,4.832031,-0.068359,0.054687,-0.087891,0.552185,0.515442,-0.083557,0.649902,up
453323,7.539062,4.886719,4.792969,-0.068359,0.054687,-0.087891,0.552429,0.51532,-0.083557,0.649841,up
453328,7.5,4.886719,4.832031,-0.142578,0.046875,-0.078125,0.552795,0.515015,-0.083557,0.64978,up
453333,7.5,4.886719,4.753906,-0.142578,0.046875,-0.078125,0.553101,0.514771,-0.083618,0.649658,up
453338,7.5,4.886719,4.832031,-0.142578,0.046875,-0.078125,0.553467,0.514465,-0.083801,0.649597,up
453344,7.46875,4.847656,4.867187,-0.142578,0.046875,-0.078125,0.553833,0.51416,-0.083984,0.649536,up
453349,7.5,4.808594,4.90625,-0.234375,0.042969,-0.054687,0.55426,0.513733,-0.084229,0.649414,up
453354,7.5,4.769531,4.90625,-0.236328,0.037109,-0.056641,0.55426,0.513733,-0.084229,0.649414,up
453359,7.539062,4.730469,4.945312,-0.236328,0.037109,-0.056641,0.55426,0.513733,-0.084229,0.649414,up
453364,7.621094,4.730469,4.90625,-0.220703,0.029297,-0.064453,0.55426,0.513733,-0.084229,0.649414,up
453369,7.65625,4.65625,4.90625,-0.191406,0.033203,-0.064453,0.55426,0.513733,-0.084229,0.649414,up
453375,7.582031,4.65625,4.945312,-0.166016,0.037109,-0.076172,0.55426,0.513733,-0.084229,0.649414,up
453380,7.503906,4.65625,4.945312,-0.140625,0.033203,-0.078125,0.55426,0.513733,-0.084229,0.649414,up
453386,7.503906,4.65625,4.945312,-0.105469,0.021484,-0.085937,0.55426,0.513733,-0.084229,0.649414,up
453391,7.472656,4.730469,4.945312,-0.068359,0.011719,-0.080078,0.55426,0.513733,-0.084229,0.649414,up
453397,7.5,4.769531,4.867187,-0.068359,0.011719,-0.080078,0.55426,0.513733,-0.084229,0.649414,up
453402,7.46875,4.808594,4.832031,0.007813,0.009766,-0.085937,0.55426,0.513733,-0.084229,0.649414,up
453407,7.46875,4.808594,4.832031,0.039063,0.017578,-0.080078,0.55426,0.513733,-0.084229,0.649414,up
453412,7.472656,4.886719,4.792969,0.039063,0.017578,-0.080078,0.557739,0.511414,-0.085144,0.648193,up
453417,7.472656,4.921875,4.753906,0.039063,0.017578,-0.080078,0.557861,0.511475,-0.084961,0.648071,up
453423,7.472656,4.886719,4.753906,0.015625,0.017578,-0.085937,0.557861,0.511475,-0.084961,0.648071,up
453428,7.539062,4.886719,4.753906,0.0,0.019531,-0.078125,0.557861,0.511475,-0.084961,0.648071,up
453434,7.582031,4.921875,4.675781,0.0,0.019531,-0.078125,0.558472,0.511353,-0.084534,0.647705,up
453439,7.582031,4.886719,4.640625,-0.134766,0.029297,-0.072266,0.558777,0.511169,-0.084595,0.647583,up
453444,7.578125,4.921875,4.5625,-0.171875,0.027344,-0.070312,0.559082,0.510925,-0.084717,0.647461,up
453449,7.578125,4.886719,4.5625,-0.171875,0.027344,-0.070312,0.559509,0.51062,-0.0849,0.647339,up
453455,7.539062,4.921875,4.601562,-0.171875,0.027344,-0.070312,0.559509,0.51062,-0.0849,0.647339,up
453460,7.5,4.886719,4.601562,-0.201172,-0.015625,-0.060547,0.559509,0.51062,-0.0849,0.647339,up
453465,7.503906,4.921875,4.523437,-0.181641,-0.021484,-0.056641,0.559509,0.51062,-0.0849,0.647339,up
453470,7.542969,4.921875,4.523437,-0.181641,-0.021484,-0.056641,0.560913,0.509644,-0.085937,0.646729,up
453476,7.539062,4.960937,4.523437,-0.115234,-0.029297,-0.052734,0.560913,0.509644,-0.085937,0.646729,up
453481,7.617187,4.921875,4.5625,-0.078125,-0.027344,-0.050781,0.560913,0.509644,-0.085937,0.646729,up
453486,7.617187,4.886719,4.601562,-0.046875,-0.013672,-0.044922,0.560913,0.509644,-0.085937,0.646729,up
453491,7.617187,4.886719,4.5625,-0.015625,0.009766,-0.046875,0.560913,0.509644,-0.085937,0.646729,up
453496,7.65625,4.886719,4.5625,-0.009766,0.023437,-0.041016,0.560913,0.509644,-0.085937,0.646729,up
453501,7.65625,4.847656,4.601562,-0.029297,0.037109,-0.042969,0.560913,0.509644,-0.085937,0.646729,up
453506,7.617187,4.808594,4.523437,-0.029297,0.037109,-0.042969,0.560913,0.509644,-0.085937,0.646729,up
453511,7.582031,4.730469,4.523437,-0.029297,0.037109,-0.042969,0.562195,0.508911,-0.086243,0.646118,up
453516,7.542969,4.730469,4.523437,-0.119141,0.052734,-0.017578,0.562195,0.508911,-0.086243,0.646118,up
453521,7.5,4.695312,4.5625,-0.119141,0.052734,-0.017578,0.562561,0.508423,-0.086487,0.646179,up
453527,7.5,4.65625,4.523437,-0.119141,0.052734,-0.003906,0.562561,0.508423,-0.086487,0.646179,up
453532,7.503906,4.617187,4.601562,-0.119141,0.052734,-0.003906,0.562988,0.507935,-0.086731,0.646179,up
453538,7.429687,4.617187,4.675781,-0.097656,0.054687,0.005859,0.562988,0.507935,-0.086731,0.646179,up
453543,7.394531,4.539062,4.753906,-0.052734,0.070312,0.0,0.563293,0.507446,-0.086914,0.64624,up
453548,7.433594,4.5,4.714844,-0.052734,0.070312,0.0,0.563477,0.50708,-0.086914,0.646423,up
453553,7.390625,4.464844,4.753906,-0.013672,0.087891,-0.003906,0.563477,0.50708,-0.086914,0.646423,up
453558,7.390625,4.425781,4.90625,-0.013672,0.087891,-0.003906,0.563599,0.506714,-0.086731,0.646545,up
453563,7.429687,4.425781,4.90625,-0.013672,0.087891,-0.003906,0.563599,0.506714,-0.086731,0.646545,up
453568,7.5,4.425781,4.984375,-0.035156,0.089844,-0.021484,0.563599,0.506714,-0.086731,0.646545,up
453574,7.503906,4.386719,4.984375,-0.035156,0.089844,-0.021484,0.563904,0.506165,-0.086487,0.64679,up
453580,7.5,4.386719,5.097656,-0.035156,0.089844,-0.021484,0.564026,0.505981,-0.086487,0.64679,up
453586,7.503906,4.425781,5.097656,-0.083984,0.070312,-0.03125,0.56427,0.505737,-0.086426,0.646851,up
453591,7.5,4.386719,5.097656,-0.087891,0.072266,-0.035156,0.56427,0.505737,-0.086426,0.646851,up
453597,7.5,4.464844,5.097656,-0.087891,0.072266,-0.035156,0.56427,0.505737,-0.086426,0.646851,up
453603,7.5,4.464844,5.097656,-0.064453,0.058594,-0.044922,0.56427,0.505737,-0.086426,0.646851,up
453608,7.539062,4.464844,5.136719,-0.035156,0.044922,-0.041016,0.56427,0.505737,-0.086426,0.646851,up
453613,7.617187,4.5,5.023437,-0.035156,0.044922,-0.041016,0.565247,0.5047,-0.086304,0.64679,up
453618,7.578125,4.5,5.023437,-0.035156,0.044922,-0.041016,0.565247,0.5047,-0.086304,0.64679,up
453623,7.617187,4.539062,5.023437,-0.029297,0.056641,-0.050781,0.565247,0.5047,-0.086304,0.64679,up
453628,7.542969,4.464844,4.984375,-0.03125,0.058594,-0.0625,0.565247,0.5047,-0.086304,0.64679,up
453634,7.542969,4.464844,5.023437,-0.054687,0.060547,-0.066406,0.565735,0.504272,-0.085999,0.646729,up
453639,7.5,4.5,5.023437,-0.054687,0.060547,-0.066406,0.566162,0.503967,-0.085876,0.646606,up
453644,7.472656,4.5,5.058594,-0.083984,0.048828,-0.078125,0.566467,0.503784,-0.085815,0.646545,up
453650,7.433594,4.539062,5.097656,-0.083984,0.048828,-0.078125,0.56665,0.503601,-0.085815,0.646484,up
453656,7.394531,4.578125,5.136719,-0.087891,0.042969,-0.082031,0.56665,0.503601,-0.085815,0.646484,up
453661,7.394531,4.617187,5.097656,-0.076172,0.033203,-0.087891,0.56665,0.503601,-0.085815,0.646484,up
453666,7.472656,4.695312,5.097656,-0.070312,0.037109,-0.089844,0.56665,0.503601,-0.085815,0.646484,up
453671,7.472656,4.695312,5.097656,-0.060547,0.033203,-0.099609,0.56665,0.503601,-0.085815,0.646484,up
453676,7.472656,4.730469,5.097656,-0.060547,0.033203,-0.109375,0.56665,0.503601,-0.085815,0.646484,up
