timestamp,ax,ay,az,gx,gy,gz,qw,qx,qy,qz,label
511465,0.1875,6.976562,6.578125,0.455078,-0.269531,-0.185547,0.906555,0.38678,0.066406,0.155334,up
511471,0.261719,7.054687,6.503906,0.474609,-0.248047,-0.183594,0.906555,0.38678,0.066406,0.155334,up
511476,0.226562,7.097656,6.503906,0.492187,-0.216797,-0.181641,0.906555,0.38678,0.066406,0.155334,up
511481,0.226562,7.136719,6.503906,0.492187,-0.216797,-0.181641,0.904785,0.392456,0.06543,0.151855,up
511486,0.226562,7.132812,6.425781,0.533203,-0.154297,-0.199219,0.904785,0.392456,0.06543,0.151855,up
511491,0.226562,7.164062,6.347656,0.558594,-0.103516,-0.208984,0.904785,0.392456,0.06543,0.151855,up
511496,0.148437,7.164062,6.273437,0.558594,-0.103516,-0.208984,0.903442,0.396179,0.065796,0.149902,up
511502,0.109375,7.242187,6.234375,0.558594,-0.103516,-0.208984,0.902527,0.398682,0.066345,0.148682,up
511507,0.148437,7.28125,6.234375,0.548828,-0.029297,-0.224609,0.902039,0.399902,0.066711,0.148071,up
511513,0.148437,7.28125,6.15625,0.548828,-0.029297,-0.224609,0.901611,0.401001,0.067078,0.147583,up
511518,-0.003906,7.398437,6.234375,0.548828,-0.029297,-0.224609,0.901184,0.402161,0.067566,0.147034,up
511523,-0.082031,7.480469,6.15625,0.523437,0.035156,-0.224609,0.901184,0.402161,0.067566,0.147034,up
511528,-0.15625,7.441406,6.121094,0.521484,0.044922,-0.232422,0.901184,0.402161,0.067566,0.147034,up
511534,-0.234375,7.4375,6.234375,0.501953,0.042969,-0.228516,0.901184,0.402161,0.067566,0.147034,up
511541,-0.15625,7.4375,6.15625,0.501953,0.042969,-0.228516,0.901184,0.402161,0.067566,0.147034,up
511546,-0.082031,7.476562,6.195312,0.433594,0.015625,-0.203125,0.901184,0.402161,0.067566,0.147034,up
511551,-0.042969,7.519531,6.195312,0.433594,0.015625,-0.203125,0.89856,0.408569,0.070618,0.143921,up
511557,-0.042969,7.515625,6.273437,0.4375,0.021484,-0.193359,0.897766,0.4104,0.071533,0.143005,up
511562,0.035156,7.519531,6.234375,0.453125,0.052734,-0.197266,0.897339,0.411438,0.072021,0.142517,up
511568,0.035156,7.585937,6.042969,0.453125,0.052734,-0.197266,0.896973,0.412292,0.07251,0.142151,up
511573,0.035156,7.625,5.964844,0.453125,0.052734,-0.197266,0.896545,0.413269,0.073181,0.141785,up
511578,0.035156,7.628906,5.925781,0.445312,0.142578,-0.216797,0.896545,0.413269,0.073181,0.141785,up
511585,-0.003906,7.625,5.890625,0.433594,0.171875,-0.232422,0.896545,0.413269,0.073181,0.141785,up
511590,0.035156,7.625,5.8125,0.433594,0.171875,-0.232422,0.895264,0.415955,0.0755,0.140625,up
511596,0.035156,7.667969,5.890625,0.410156,0.251953,-0.257813,0.895264,0.415955,0.0755,0.140625,up
511601,0.070312,7.707031,5.890625,0.376953,0.341797,-0.273438,0.895264,0.415955,0.0755,0.140625,up
511607,0.070312,7.707031,5.890625,0.376953,0.341797,-0.273438,0.893738,0.418823,0.079895,0.139343,up
511612,-0.15625,7.785156,5.773437,0.376953,0.341797,-0.273438,0.893372,0.419434,0.081238,0.139221,up
511617,-0.15625,7.785156,5.773437,0.347656,0.492187,-0.261719,0.892944,0.420105,0.082947,0.139038,up
511622,-0.234375,7.742187,5.660156,0.347656,0.492187,-0.261719,0.892517,0.420654,0.084473,0.138977,up
511627,-0.3125,7.824219,5.699219,0.347656,0.492187,-0.261719,0.892212,0.421082,0.085876,0.138916,up
511632,-0.347656,7.859375,5.773437,0.347656,0.492187,-0.261719,0.892212,0.421082,0.085876,0.138916,up
511637,-0.386719,7.941406,5.773437,0.275391,0.546875,-0.226562,0.892212,0.421082,0.085876,0.138916,up
511643,-0.386719,7.941406,5.773437,0.259766,0.541016,-0.230469,0.891113,0.422302,0.090576,0.139038,up
511648,-0.65625,8.050781,5.925781,0.259766,0.541016,-0.230469,0.890808,0.422668,0.092163,0.139038,up
511653,-0.695312,8.046875,5.925781,0.287109,0.507812,-0.199219,0.890442,0.423035,0.093628,0.139099,up
511659,-0.617187,8.011719,5.964844,0.279297,0.486328,-0.189453,0.890442,0.423035,0.093628,0.139099,up
511665,-0.617187,8.046875,5.964844,0.251953,0.466797,-0.171875,0.890442,0.423035,0.093628,0.139099,up
511670,-0.539062,8.046875,6.003906,0.214844,0.460937,-0.144531,0.890442,0.423035,0.093628,0.139099,up
511675,-0.464844,8.085938,6.003906,0.191406,0.466797,-0.134766,0.890442,0.423035,0.093628,0.139099,up
511681,-0.425781,8.089844,6.082031,0.160156,0.503906,-0.103516,0.890442,0.423035,0.093628,0.139099,up
511686,-0.386719,8.050781,6.042969,0.160156,0.503906,-0.103516,0.888611,0.424805,0.101624,0.140076,up
511691,-0.425781,8.046875,5.964844,0.113281,0.566406,-0.066406,0.888611,0.424805,0.101624,0.140076,up
511696,-0.464844,8.011719,5.925781,0.113281,0.566406,-0.066406,0.888062,0.424988,0.104309,0.140808,up
511701,-0.503906,8.046875,5.890625,0.113281,0.566406,-0.066406,0.887817,0.424988,0.105713,0.141296,up
511707,-0.539062,8.046875,6.003906,0.033203,0.660156,-0.041016,0.887817,0.424988,0.105713,0.141296,up
511712,-0.617187,8.089844,6.121094,0.033203,0.660156,-0.041016,0.887146,0.424561,0.110413,0.143127,up
511718,-0.730469,8.050781,6.042969,0.0,0.6875,-0.037109,0.886963,0.424316,0.111938,0.143738,up
511723,-0.847656,7.96875,6.234375,0.0,0.6875,-0.037109,0.886841,0.424072,0.113464,0.144409,up
511728,-0.808594,7.9375,6.273437,-0.041016,0.621094,-0.046875,0.886841,0.424072,0.113464,0.144409,up
511733,-0.847656,7.9375,6.3125,-0.046875,0.587891,-0.050781,0.886841,0.424072,0.113464,0.144409,up
511738,-0.808594,7.902344,6.425781,-0.046875,0.587891,-0.050781,0.886841,0.424072,0.113464,0.144409,up
511743,-0.808594,7.820312,6.425781,-0.044922,0.515625,-0.064453,0.886841,0.424072,0.113464,0.144409,up
511748,-0.769531,7.78125,6.464844,-0.027344,0.494141,-0.070312,0.88623,0.422485,0.120178,0.147095,up
511754,-0.769531,7.824219,6.464844,-0.027344,0.494141,-0.070312,0.886108,0.422241,0.121399,0.147461,up
511759,-0.769531,7.78125,6.3125,0.011719,0.484375,-0.085937,0.885986,0.422058,0.122559,0.147827,up
511765,-0.847656,7.820312,6.3125,0.011719,0.484375,-0.085937,0.885986,0.422058,0.122559,0.147827,up
511770,-0.847656,7.820312,6.386719,0.011719,0.484375,-0.085937,0.885742,0.421631,0.124939,0.148499,up
511775,-0.847656,7.863281,6.464844,-0.029297,0.466797,-0.082031,0.885742,0.421631,0.124939,0.148499,up
511780,-0.808594,7.820312,6.425781,-0.03125,0.478516,-0.078125,0.885742,0.421631,0.124939,0.148499,up
511786,-0.730469,7.863281,6.503906,-0.023437,0.492187,-0.064453,0.885742,0.421631,0.124939,0.148499,up
511791,-0.695312,7.863281,6.503906,-0.023437,0.492187,-0.064453,0.885315,0.420593,0.129578,0.150024,up
511797,-0.695312,7.820312,6.503906,0.027344,0.589844,-0.066406,0.885315,0.420593,0.129578,0.150024,up
511802,-0.65625,7.824219,6.464844,0.027344,0.589844,-0.066406,0.884949,0.420105,0.132324,0.151062,up
511808,-0.65625,7.824219,6.464844,0.060547,0.65625,-0.087891,0.884521,0.4198,0.135254,0.1521,up
511813,-0.695312,7.746094,6.503906,0.068359,0.681641,-0.101563,0.884216,0.419617,0.137085,0.152649,up
511819,-0.847656,7.785156,6.3125,0.068359,0.681641,-0.101563,0.883972,0.419495,0.13855,0.153076,up
511824,-1.152344,7.824219,6.195312,0.068359,0.681641,-0.101563,0.883667,0.419312,0.140381,0.153564,up
511830,-1.230469,7.902344,6.3125,0.054687,0.681641,-0.162109,0.883667,0.419312,0.140381,0.153564,up
511835,-1.308594,7.898437,6.347656,0.029297,0.625,-0.177734,0.883667,0.419312,0.140381,0.153564,up
511841,-1.421875,8.085938,6.386719,0.015625,0.558594,-0.1875,0.883667,0.419312,0.140381,0.153564,up
511846,-1.5,8.125,6.425781,-0.023437,0.396484,-0.201172,0.883667,0.419312,0.140381,0.153564,up
511851,-1.535156,8.164063,6.539062,-0.023437,0.396484,-0.201172,0.882812,0.418091,0.147888,0.154724,up
511857,-1.460938,8.285156,6.695312,-0.027344,0.28125,-0.193359,0.882812,0.418091,0.147888,0.154724,up
511862,-1.382813,8.320313,6.695312,-0.041016,0.091797,-0.15625,0.882812,0.417603,0.149597,0.154602,up
511867,-1.269531,8.320313,6.730469,-0.041016,0.091797,-0.15625,0.882812,0.417419,0.150146,0.154358,up
511872,-1.152344,8.28125,6.769531,-0.041016,0.091797,-0.15625,0.882935,0.417175,0.150391,0.154175,up
511877,-0.925781,8.203125,6.808594,-0.101563,-0.029297,-0.080078,0.882935,0.417175,0.150391,0.154175,up
511882,-0.847656,8.089844,6.769531,-0.105469,-0.042969,-0.011719,0.883179,0.416748,0.150452,0.153931,up
511887,-0.769531,8.011719,6.730469,-0.105469,-0.042969,-0.011719,0.883423,0.41626,0.150269,0.153992,up
511892,-0.65625,8.011719,6.695312,-0.128906,0.023437,0.033203,0.883423,0.41626,0.150269,0.153992,up
511897,-0.65625,7.863281,6.539062,-0.128906,0.023437,0.033203,0.883606,0.41571,0.150269,0.154297,up
511902,-0.65625,7.863281,6.539062,-0.128906,0.023437,0.033203,0.883606,0.41571,0.150269,0.154297,up
511907,-0.65625,7.820312,6.578125,-0.105469,0.125,0.013672,0.883606,0.41571,0.150269,0.154297,up
511912,-0.65625,7.746094,6.578125,-0.105469,0.125,0.013672,0.883789,0.414856,0.150879,0.155029,up
511917,-0.65625,7.707031,6.578125,-0.105469,0.125,0.013672,0.883728,0.414734,0.151245,0.155212,up
511922,-0.695312,7.78125,6.539062,-0.105469,0.125,0.013672,0.883728,0.414734,0.151245,0.155212,up
511927,-0.769531,7.785156,6.539062,0.070312,0.185547,-0.058594,0.883484,0.414856,0.152283,0.155334,up
511932,-0.808594,7.78125,6.464844,0.15625,0.179687,-0.087891,0.883484,0.414856,0.152283,0.155334,up
511937,-0.847656,7.785156,6.464844,0.205078,0.158203,-0.087891,0.883301,0.415039,0.152832,0.155334,up
511942,-0.847656,7.785156,6.464844,0.205078,0.158203,-0.087891,0.883057,0.415405,0.153442,0.155273,up
511947,-0.886719,7.863281,6.386719,0.228516,0.134766,-0.09375,0.883057,0.415405,0.153442,0.155273,up
511952,-0.960937,7.859375,6.347656,0.203125,0.107422,-0.080078,0.882568,0.416138,0.15448,0.15509,up
511957,-0.925781,7.898437,6.3125,0.203125,0.107422,-0.080078,0.88208,0.41687,0.155334,0.154846,up
511962,-1.0,7.941406,6.3125,0.203125,0.107422,-0.080078,0.88208,0.41687,0.155334,0.154846,up
511967,-1.039063,7.898437,6.386719,0.191406,0.046875,-0.058594,0.88208,0.41687,0.155334,0.154846,up
511972,-1.039063,7.96875,6.3125,0.203125,-0.009766,-0.048828,0.881714,0.417664,0.155884,0.154602,up
511977,-1.039063,7.972656,6.273437,0.203125,-0.009766,-0.048828,0.88147,0.41803,0.156006,0.15448,up
511983,-1.0,8.089844,6.3125,0.189453,-0.046875,-0.039063,0.881287,0.418518,0.156128,0.154236,up
511989,-1.0,8.125,6.273437,0.189453,-0.046875,-0.039063,0.88092,0.419312,0.156189,0.153931,up
511994,-1.039063,8.125,6.273437,0.166016,-0.0625,-0.017578,0.880798,0.419739,0.156189,0.153809,up
512001,-1.039063,8.050781,6.273437,0.160156,-0.074219,-0.013672,0.880798,0.419739,0.156189,0.153809,up
512006,-1.039063,8.085938,6.15625,0.160156,-0.074219,-0.013672,0.880798,0.419739,0.156189,0.153809,up
512012,-1.039063,8.089844,6.082031,0.144531,-0.074219,0.003906,0.880798,0.419739,0.156189,0.153809,up
512017,-1.078125,8.085938,6.15625,0.09375,-0.085937,0.015625,0.880798,0.419739,0.156189,0.153809,up
512023,-1.039063,8.089844,6.121094,0.09375,-0.085937,0.015625,0.880066,0.421631,0.15564,0.153259,up
512028,-1.039063,8.089844,6.121094,0.060547,-0.083984,0.013672,0.880005,0.421875,0.155457,0.153198,up
512034,-1.117188,8.007813,6.15625,0.060547,-0.083984,0.013672,0.879944,0.421997,0.155334,0.153137,up
512039,-1.117188,8.011719,6.082031,0.060547,-0.083984,0.013672,0.879944,0.42218,0.155212,0.153076,up
512046,-1.230469,7.972656,6.042969,0.060547,-0.083984,0.013672,0.879944,0.42218,0.155212,0.153076,up
512052,-1.191406,7.9375,6.121094,0.095703,-0.099609,-0.017578,0.879944,0.42218,0.155212,0.153076,up
512057,-1.230469,7.9375,6.042969,0.113281,-0.117188,-0.023437,0.879944,0.42218,0.155212,0.153076,up
512062,-1.269531,7.96875,6.042969,0.113281,-0.117188,-0.023437,0.879639,0.423157,0.154602,0.152527,up
512067,-1.230469,7.972656,6.082031,0.166016,-0.144531,-0.03125,0.879639,0.423157,0.154602,0.152527,up
512072,-1.191406,8.007813,6.082031,0.166016,-0.144531,-0.03125,0.879456,0.423889,0.154175,0.152039,up
512078,-1.269531,8.046875,6.003906,0.166016,-0.144531,-0.03125,0.87915,0.424866,0.153809,0.151489,up
512083,-1.230469,8.085938,6.003906,0.263672,-0.132812,-0.052734,0.878906,0.425476,0.153687,0.151184,up
512089,-1.308594,8.167969,5.964844,0.271484,-0.126953,-0.050781,0.878662,0.426147,0.153564,0.150818,up
512094,-1.308594,8.242188,5.890625,0.267578,-0.117188,-0.052734,0.878479,0.426636,0.153503,0.150574,up
512100,-1.382813,8.359375,5.890625,0.267578,-0.117188,-0.052734,0.878235,0.427246,0.153442,0.150269,up
512107,-1.382813,8.394531,5.925781,0.240234,-0.107422,-0.056641,0.878235,0.427246,0.153442,0.150269,up
512112,-1.421875,8.390625,5.925781,0.210937,-0.085937,-0.056641,0.878235,0.427246,0.153442,0.150269,up
512118,-1.421875,8.433594,5.851562,0.210937,-0.085937,-0.056641,0.877686,0.428833,0.153259,0.149414,up
512123,-1.421875,8.429688,5.890625,0.189453,-0.082031,-0.058594,0.877319,0.429687,0.153198,0.148926,up
512128,-1.421875,8.359375,5.851562,0.189453,-0.082031,-0.058594,0.877197,0.430115,0.153198,0.148682,up
512133,-1.460938,8.359375,5.773437,0.189453,-0.082031,-0.058594,0.877075,0.43042,0.153137,0.14856,up
512138,-1.421875,8.320313,5.773437,0.150391,-0.054687,-0.021484,0.877075,0.43042,0.153137,0.14856,up
512143,-1.460938,8.28125,5.734375,0.150391,-0.054687,-0.021484,0.87677,0.431152,0.153076,0.148254,up
512149,-1.421875,8.203125,5.660156,0.150391,-0.054687,-0.021484,0.876648,0.431396,0.153076,0.148193,up
512154,-1.421875,8.167969,5.699219,0.128906,-0.03125,-0.007813,0.876526,0.431702,0.153076,0.148132,up
512159,-1.421875,8.164063,5.621094,0.142578,-0.03125,0.005859,0.876526,0.431702,0.153076,0.148132,up
512164,-1.421875,8.125,5.542969,0.144531,-0.029297,0.005859,0.876526,0.431702,0.153076,0.148132,up
512170,-1.460938,8.128906,5.542969,0.144531,-0.029297,0.005859,0.876038,0.432678,0.153137,0.14801,up
512175,-1.460938,8.128906,5.542969,0.175781,-0.029297,0.003906,0.875854,0.433044,0.153137,0.147949,up
512180,-1.5,8.207031,5.542969,0.177734,-0.033203,0.007813,0.875854,0.433044,0.153137,0.147949,up
512185,-1.460938,8.207031,5.582031,0.177734,-0.033203,0.007813,0.875488,0.433838,0.153137,0.147888,up
512190,-1.421875,8.203125,5.582031,0.167969,-0.050781,0.003906,0.875488,0.433838,0.153137,0.147888,up
512195,-1.382813,8.167969,5.542969,0.158203,-0.0625,0.003906,0.875488,0.433838,0.153137,0.147888,up
512200,-1.421875,8.164063,5.542969,0.144531,-0.0625,0.001953,0.875488,0.433838,0.153137,0.147888,up
512205,-1.34375,8.207031,5.542969,0.144531,-0.0625,0.001953,0.874817,0.435303,0.152954,0.147583,up
512210,-1.34375,8.207031,5.507812,0.142578,-0.052734,-0.003906,0.874817,0.435303,0.152954,0.147583,up
512216,-1.34375,8.207031,5.507812,0.136719,-0.048828,-0.009766,0.874817,0.435303,0.152954,0.147583,up
512222,-1.269531,8.363281,5.46875,0.115234,-0.046875,-0.015625,0.874817,0.435303,0.152954,0.147583,up
512227,-1.269531,8.359375,5.429687,0.076172,-0.03125,-0.021484,0.874817,0.435303,0.152954,0.147583,up
512232,-1.269531,8.429688,5.351562,0.039063,-0.033203,-0.021484,0.874817,0.435303,0.152954,0.147583,up
512237,-1.308594,8.507813,5.390625,0.001953,-0.037109,-0.029297,0.874817,0.435303,0.152954,0.147583,up
512242,-1.308594,8.550781,5.390625,0.001953,-0.037109,-0.029297,0.874329,0.436584,0.152771,0.147034,up
512248,-1.308594,8.625,5.429687,-0.09375,-0.095703,-0.041016,0.874329,0.436584,0.152771,0.147034,up
512253,-1.34375,8.667969,5.507812,-0.09375,-0.095703,-0.041016,0.874695,0.436096,0.152344,0.146729,up
512258,-1.34375,8.667969,5.507812,-0.09375,-0.095703,-0.041016,0.874939,0.435791,0.152039,0.146606,up
512263,-1.308594,8.746094,5.542969,-0.189453,-0.1875,-0.013672,0.874939,0.435791,0.152039,0.146606,up
512268,-1.308594,8.746094,5.582031,-0.189453,-0.1875,-0.013672,0.875488,0.435059,0.151123,0.146362,up
512273,-1.269531,8.773438,5.621094,-0.189453,-0.1875,-0.013672,0.875793,0.434692,0.150635,0.14624,up
512278,-1.230469,8.746094,5.699219,-0.189453,-0.1875,-0.013672,0.87616,0.434204,0.149963,0.146118,up
512283,-1.230469,8.746094,5.773437,-0.189453,-0.1875,-0.013672,0.87616,0.434204,0.149963,0.146118,up
512288,-1.191406,8.707031,5.773437,-0.269531,-0.238281,0.048828,0.87616,0.434204,0.149963,0.146118,up
512293,-1.152344,8.628906,5.8125,-0.269531,-0.238281,0.048828,0.877136,0.432861,0.148071,0.146057,up
512298,-1.152344,8.625,5.890625,-0.269531,-0.238281,0.048828,0.877502,0.432373,0.147461,0.146057,up
512303,-1.152344,8.550781,5.890625,-0.269531,-0.238281,0.048828,0.877502,0.432373,0.147461,0.146057,up
512308,-1.117188,8.46875,5.890625,-0.207031,-0.208984,0.074219,0.877502,0.432373,0.147461,0.146057,up
512313,-1.152344,8.433594,5.890625,-0.207031,-0.208984,0.074219,0.878296,0.431213,0.14563,0.14624,up
512318,-1.152344,8.363281,5.8125,-0.207031,-0.208984,0.074219,0.878296,0.431213,0.14563,0.14624,up
512323,-1.191406,8.28125,5.8125,-0.138672,-0.195312,0.085937,0.878662,0.430847,0.14447,0.146362,up
512328,-1.191406,8.28125,5.851562,-0.138672,-0.195312,0.085937,0.878784,0.430786,0.143982,0.146423,up
512333,-1.191406,8.203125,5.851562,0.013672,-0.1875,0.080078,0.878784,0.430786,0.143982,0.146423,up
512338,-1.191406,8.203125,5.851562,0.013672,-0.1875,0.080078,0.878845,0.430847,0.143555,0.146423,up
512343,-1.152344,8.167969,5.8125,0.113281,-0.183594,0.083984,0.878845,0.430847,0.143555,0.146423,up
512349,-1.152344,8.167969,5.8125,0.166016,-0.189453,0.074219,0.878662,0.431702,0.142212,0.146362,up
512355,-1.191406,8.046875,5.699219,0.166016,-0.189453,0.074219,0.878479,0.43219,0.141785,0.146301,up
512361,-1.191406,8.007813,5.660156,0.248047,-0.195312,0.074219,0.878479,0.43219,0.141785,0.146301,up
512366,-1.191406,8.007813,5.582031,0.267578,-0.201172,0.078125,0.878479,0.43219,0.141785,0.146301,up
512371,-1.191406,7.9375,5.582031,0.285156,-0.201172,0.070312,0.878479,0.43219,0.141785,0.146301,up
512377,-1.230469,7.972656,5.542969,0.302734,-0.205078,0.076172,0.878479,0.43219,0.141785,0.146301,up
512382,-1.230469,7.972656,5.542969,0.308594,-0.212891,0.074219,0.878479,0.43219,0.141785,0.146301,up
512387,-1.191406,7.972656,5.542969,0.308594,-0.212891,0.074219,0.876831,0.436523,0.139343,0.145569,up
512393,-1.152344,7.96875,5.46875,0.337891,-0.226562,0.070312,0.876831,0.436523,0.139343,0.145569,up
512398,-1.152344,7.9375,5.429687,0.322266,-0.214844,0.0625,0.876831,0.436523,0.139343,0.145569,up
512404,-1.152344,7.972656,5.429687,0.322266,-0.214844,0.0625,0.875549,0.439819,0.137634,0.144897,up
512409,-1.152344,7.9375,5.429687,0.306641,-0.216797,0.056641,0.875244,0.440674,0.137207,0.144714,up
512415,-1.117188,7.898437,5.351562,0.306641,-0.216797,0.056641,0.875,0.441345,0.136841,0.144592,up
512420,-1.117188,7.898437,5.351562,0.306641,-0.216797,0.056641,0.874695,0.442139,0.136475,0.144409,up
512426,-1.117188,7.859375,5.277344,0.306641,-0.216797,0.056641,0.874695,0.442139,0.136475,0.144409,up
512431,-1.117188,7.859375,5.277344,0.261719,-0.160156,0.054687,0.874695,0.442139,0.136475,0.144409,up
512436,-1.152344,7.859375,5.351562,0.253906,-0.146484,0.044922,0.874695,0.442139,0.136475,0.144409,up
512441,-1.191406,7.898437,5.316406,0.253906,-0.146484,0.044922,0.873596,0.444702,0.135315,0.143921,up
512447,-1.230469,7.898437,5.316406,0.248047,-0.113281,0.039063,0.873596,0.444702,0.135315,0.143921,up
512452,-1.230469,7.941406,5.316406,0.236328,-0.113281,0.035156,0.873596,0.444702,0.135315,0.143921,up
512457,-1.230469,7.902344,5.351562,0.236328,-0.113281,0.027344,0.873596,0.444702,0.135315,0.143921,up
512463,-1.269531,7.941406,5.351562,0.21875,-0.089844,0.013672,0.873596,0.444702,0.135315,0.143921,up
512468,-1.230469,7.859375,5.390625,0.21875,-0.089844,0.013672,0.872375,0.447571,0.13446,0.143433,up
512473,-1.191406,7.898437,5.390625,0.207031,-0.082031,0.009766,0.872375,0.447571,0.13446,0.143433,up
512479,-1.230469,7.898437,5.390625,0.205078,-0.064453,0.003906,0.871704,0.449036,0.134216,0.143127,up
512484,-1.230469,7.898437,5.390625,0.207031,-0.03125,0.0,0.87146,0.449524,0.134277,0.143066,up
512489,-1.191406,7.898437,5.390625,0.207031,-0.03125,0.0,0.871216,0.450012,0.134277,0.142944,up
512494,-1.230469,7.859375,5.390625,0.207031,-0.03125,0.0,0.871033,0.450317,0.134399,0.142883,up
512499,-1.269531,7.902344,5.429687,0.179687,0.011719,-0.033203,0.87085,0.450745,0.134521,0.142761,up
512504,-1.269531,7.902344,5.390625,0.177734,0.023437,-0.041016,0.870605,0.451172,0.134705,0.1427,up
512509,-1.308594,7.859375,5.46875,0.177734,0.023437,-0.041016,0.870422,0.451477,0.134827,0.142578,up
512514,-1.308594,7.859375,5.582031,0.177734,0.023437,-0.041016,0.870178,0.451904,0.135071,0.142456,up
512520,-1.308594,7.941406,5.582031,0.177734,0.023437,-0.041016,0.869995,0.452271,0.135315,0.142395,up
512525,-1.308594,8.011719,5.582031,0.210937,0.037109,-0.042969,0.869751,0.452698,0.135559,0.142273,up
512530,-1.230469,7.972656,5.621094,0.210937,0.037109,-0.042969,0.869507,0.453125,0.135742,0.142212,up
512536,-1.269531,8.011719,5.582031,0.228516,0.042969,-0.039063,0.869202,0.453613,0.135986,0.14209,up
512542,-1.269531,7.96875,5.542969,0.244141,0.054687,-0.033203,0.869202,0.453613,0.135986,0.14209,up
512547,-1.230469,8.050781,5.621094,0.244141,0.056641,-0.033203,0.869202,0.453613,0.135986,0.14209,up
512553,-1.191406,8.050781,5.621094,0.244141,0.068359,-0.039063,0.869202,0.453613,0.135986,0.14209,up
512558,-1.191406,8.085938,5.542969,0.21875,0.083984,-0.046875,0.869202,0.453613,0.135986,0.14209,up
512563,-1.191406,8.164063,5.621094,0.21875,0.083984,-0.046875,0.867798,0.455994,0.137451,0.141846,up
512568,-1.191406,8.164063,5.621094,0.1875,0.101563,-0.066406,0.867493,0.456421,0.137756,0.141785,up
512573,-1.152344,8.167969,5.582031,0.1875,0.101563,-0.066406,0.867249,0.456787,0.138123,0.141724,up
512578,-1.191406,8.203125,5.660156,0.150391,0.111328,-0.078125,0.867249,0.456787,0.138123,0.141724,up
512583,-1.152344,8.167969,5.621094,0.150391,0.111328,-0.078125,0.866882,0.457397,0.138916,0.141602,up
512588,-1.152344,8.207031,5.621094,0.150391,0.111328,-0.078125,0.866699,0.457642,0.139343,0.141541,up
512593,-1.117188,8.167969,5.621094,0.099609,0.126953,-0.097656,0.866699,0.457642,0.139343,0.141541,up
512598,-1.152344,8.167969,5.582031,0.083984,0.128906,-0.099609,0.866272,0.458008,0.140625,0.141357,up
512603,-1.117188,8.207031,5.621094,0.083984,0.128906,-0.099609,0.866272,0.458008,0.140625,0.141357,up
512608,-1.152344,8.207031,5.621094,0.083984,0.128906,-0.099609,0.866211,0.458008,0.141113,0.141296,up
512614,-1.078125,8.207031,5.621094,0.015625,0.105469,-0.107422,0.866211,0.458008,0.141113,0.141296,up
512619,-1.117188,8.167969,5.621094,0.015625,0.105469,-0.107422,0.86615,0.457947,0.142212,0.141052,up
512624,-1.078125,8.128906,5.660156,-0.015625,0.083984,-0.103516,0.86615,0.457947,0.142212,0.141052,up
512629,-1.117188,8.167969,5.660156,-0.015625,0.083984,-0.103516,0.86615,0.457703,0.142883,0.140869,up
512634,-1.078125,8.167969,5.621094,-0.019531,0.080078,-0.099609,0.86615,0.457703,0.142883,0.140869,up
512639,-1.078125,8.207031,5.621094,-0.019531,0.080078,-0.099609,0.866211,0.45752,0.143433,0.140686,up
512644,-1.078125,8.246094,5.660156,-0.025391,0.064453,-0.117188,0.866211,0.45752,0.143433,0.140686,up
512649,-1.078125,8.320313,5.660156,-0.025391,0.064453,-0.117188,0.866211,0.457397,0.143799,0.140503,up
512654,-1.078125,8.285156,5.582031,-0.017578,0.068359,-0.117188,0.866211,0.457397,0.143799,0.140503,up
512659,-1.117188,8.320313,5.660156,-0.017578,0.068359,-0.117188,0.866333,0.457092,0.144653,0.140137,up
512664,-1.152344,8.363281,5.660156,0.0,0.076172,-0.117188,0.866333,0.457092,0.144653,0.140137,up
512669,-1.152344,8.390625,5.660156,-0.007813,0.076172,-0.111328,0.866333,0.457031,0.144958,0.139954,up
512674,-1.117188,8.363281,5.621094,-0.007813,0.076172,-0.111328,0.866333,0.456848,0.145569,0.139709,up
512679,-1.117188,8.390625,5.621094,-0.007813,0.076172,-0.111328,0.866333,0.456787,0.145874,0.139587,up
512684,-1.152344,8.363281,5.621094,-0.007813,0.076172,-0.111328,0.866333,0.456787,0.145874,0.139587,up
512689,-1.152344,8.390625,5.582031,0.005859,0.060547,-0.105469,0.866333,0.456787,0.145874,0.139587,up
512695,-1.152344,8.390625,5.582031,0.033203,0.052734,-0.117188,0.866333,0.456726,0.146667,0.13916,up
512700,-1.117188,8.390625,5.507812,0.033203,0.052734,-0.117188,0.866333,0.456726,0.146973,0.138977,up
512705,-1.117188,8.363281,5.507812,0.058594,0.042969,-0.119141,0.866333,0.456726,0.146973,0.138977,up
512710,-1.117188,8.320313,5.507812,0.058594,0.042969,-0.119141,0.866211,0.456848,0.147461,0.13855,up
512715,-1.117188,8.390625,5.46875,0.058594,0.042969,-0.119141,0.86615,0.45697,0.147705,0.138367,up
512720,-1.230469,8.359375,5.351562,0.058594,0.042969,-0.119141,0.866089,0.457092,0.147949,0.138123,up
512725,-1.191406,8.359375,5.351562,0.115234,0.019531,-0.125,0.866089,0.457092,0.147949,0.138123,up
512730,-1.191406,8.320313,5.316406,0.115234,0.019531,-0.125,0.865906,0.457458,0.148437,0.137573,up
512736,-1.230469,8.394531,5.238281,0.115234,0.019531,-0.125,0.865784,0.457703,0.148682,0.137268,up
512741,-1.191406,8.394531,5.238281,0.136719,-0.009766,-0.130859,0.865662,0.457947,0.148865,0.136963,up
512747,-1.230469,8.394531,5.238281,0.136719,-0.009766,-0.130859,0.86554,0.458191,0.149048,0.136658,up
512752,-1.191406,8.429688,5.199219,0.144531,-0.025391,-0.128906,0.86554,0.458191,0.149048,0.136658,up
512757,-1.191406,8.472656,5.199219,0.148437,-0.027344,-0.132812,0.86554,0.458191,0.149048,0.136658,up
512762,-1.230469,8.546875,5.199219,0.154297,-0.027344,-0.128906,0.86554,0.458191,0.149048,0.136658,up
512767,-1.191406,8.546875,5.199219,0.154297,-0.027344,-0.128906,0.86554,0.458191,0.149048,0.136658,up
512772,-1.191406,8.585938,5.125,0.154297,-0.027344,-0.128906,0.864929,0.459534,0.149902,0.134949,up
512777,-1.191406,8.625,5.125,0.126953,-0.001953,-0.138672,0.864929,0.459534,0.149902,0.134949,up
512782,-1.230469,8.625,5.085937,0.107422,0.009766,-0.144531,0.864929,0.459534,0.149902,0.134949,up
512787,-1.152344,8.589844,5.160156,0.107422,0.009766,-0.144531,0.864929,0.459534,0.149902,0.134949,up
512792,-1.191406,8.585938,5.085937,0.107422,0.009766,-0.144531,0.864624,0.460266,0.150818,0.133789,up
512798,-1.230469,8.550781,5.125,0.033203,0.033203,-0.134766,0.864624,0.460266,0.150818,0.133789,up
512804,-1.230469,8.550781,5.085937,0.001953,0.033203,-0.121094,0.864624,0.460205,0.151489,0.133118,up
512809,-1.269531,8.546875,5.125,0.001953,0.033203,-0.121094,0.864624,0.460205,0.151489,0.133118,up
512814,-1.308594,8.511719,5.085937,0.017578,0.033203,-0.113281,0.864624,0.460205,0.151489,0.133118,up
512819,-1.308594,8.511719,5.085937,0.017578,0.033203,-0.113281,0.864624,0.460083,0.152222,0.132629,up
512824,-1.34375,8.507813,5.046875,0.037109,0.041016,-0.105469,0.864624,0.460083,0.152222,0.132629,up
512829,-1.269531,8.511719,5.007812,0.037109,0.041016,-0.105469,0.864563,0.460144,0.152466,0.132446,up
512834,-1.34375,8.546875,5.007812,0.076172,0.035156,-0.097656,0.864563,0.460144,0.152466,0.132446,up
512840,-1.308594,8.546875,4.96875,0.076172,0.035156,-0.097656,0.86438,0.460388,0.153137,0.131958,up
512845,-1.308594,8.589844,4.96875,0.095703,0.042969,-0.089844,0.864319,0.460571,0.153381,0.131775,up
512850,-1.308594,8.628906,5.007812,0.099609,0.048828,-0.101563,0.864197,0.460754,0.153625,0.131592,up
512855,-1.308594,8.742188,5.046875,0.099609,0.048828,-0.101563,0.864075,0.460876,0.15387,0.131409,up
512860,-1.308594,8.746094,5.085937,0.099609,0.048828,-0.101563,0.863953,0.460999,0.154175,0.131287,up
512865,-1.34375,8.773438,5.007812,0.09375,0.080078,-0.09375,0.863831,0.461182,0.154541,0.131165,up
512871,-1.34375,8.746094,5.007812,0.09375,0.080078,-0.09375,0.86377,0.461243,0.154846,0.131042,up
512876,-1.34375,8.746094,5.085937,0.09375,0.080078,-0.09375,0.863647,0.461365,0.155151,0.130981,up
512882,-1.34375,8.746094,5.085937,0.039063,0.083984,-0.078125,0.863647,0.461365,0.155151,0.130981,up
512888,-1.308594,8.746094,5.085937,0.011719,0.089844,-0.072266,0.863647,0.461365,0.155151,0.130981,up
512893,-1.308594,8.746094,5.085937,-0.003906,0.095703,-0.074219,0.863525,0.461304,0.156067,0.130798,up
512898,-1.269531,8.746094,5.085937,-0.003906,0.099609,-0.0625,0.863525,0.461304,0.156067,0.130798,up
512903,-1.269531,8.746094,5.085937,-0.001953,0.117188,-0.060547,0.863525,0.461304,0.156067,0.130798,up
512908,-1.269531,8.707031,5.085937,-0.001953,0.117188,-0.060547,0.863464,0.461121,0.157104,0.130859,up
512913,-1.269531,8.707031,5.085937,-0.007813,0.146484,-0.068359,0.863464,0.461121,0.157104,0.130859,up
512918,-1.269531,8.707031,5.125,-0.005859,0.166016,-0.066406,0.863464,0.461121,0.157104,0.130859,up
512923,-1.308594,8.667969,5.125,-0.023437,0.1875,-0.072266,0.863464,0.461121,0.157104,0.130859,up
512928,-1.34375,8.707031,5.160156,-0.023437,0.1875,-0.072266,0.863464,0.461121,0.157104,0.130859,up
512933,-1.34375,8.746094,5.160156,-0.023437,0.1875,-0.072266,0.863281,0.460571,0.159424,0.131348,up
512939,-1.34375,8.777344,5.199219,-0.050781,0.210937,-0.064453,0.863281,0.460571,0.159424,0.131348,up
512944,-1.308594,8.773438,5.277344,-0.050781,0.210937,-0.064453,0.86322,0.460205,0.1604,0.131653,up
512949,-1.34375,8.816406,5.351562,-0.050781,0.210937,-0.064453,0.86322,0.459961,0.16095,0.131775,up
512954,-1.308594,8.855469,5.351562,-0.091797,0.21875,-0.052734,0.86322,0.459961,0.16095,0.131775,up
512960,-1.308594,8.851563,5.390625,-0.103516,0.228516,-0.042969,0.86322,0.459961,0.16095,0.131775,up
512966,-1.308594,8.851563,5.429687,-0.103516,0.228516,-0.042969,0.863342,0.45874,0.163086,0.132751,up
512971,-1.308594,8.8125,5.429687,-0.144531,0.267578,-0.023437,0.863403,0.458313,0.163635,0.133118,up
512977,-1.269531,8.8125,5.429687,-0.160156,0.283203,-0.019531,0.863403,0.458313,0.163635,0.133118,up
512982,-1.308594,8.773438,5.46875,-0.160156,0.283203,-0.019531,0.863525,0.457336,0.164917,0.133911,up
512988,-1.269531,8.742188,5.429687,-0.195312,0.332031,-0.019531,0.863525,0.457336,0.164917,0.133911,up
512993,-1.269531,8.773438,5.46875,-0.191406,0.337891,-0.019531,0.863525,0.457336,0.164917,0.133911,up
512999,-1.230469,8.742188,5.46875,-0.189453,0.357422,-0.021484,0.863525,0.457336,0.164917,0.133911,up
513004,-1.269531,8.773438,5.46875,-0.189453,0.357422,-0.021484,0.863831,0.455322,0.167664,0.135681,up
513009,-1.308594,8.816406,5.507812,-0.177734,0.419922,-0.027344,0.863831,0.455322,0.167664,0.135681,up
513014,-1.269531,8.816406,5.507812,-0.177734,0.419922,-0.027344,0.863892,0.454163,0.169434,0.136719,up
513020,-1.34375,8.890625,5.46875,-0.177734,0.419922,-0.027344,0.863892,0.453125,0.171265,0.137878,up
513025,-1.34375,8.890625,5.507812,-0.169922,0.482422,-0.009766,0.863892,0.453125,0.171265,0.137878,up
513030,-1.34375,8.972656,5.542969,-0.169922,0.482422,-0.009766,0.863892,0.451965,0.17334,0.13916,up
513035,-1.269531,8.972656,5.582031,-0.169922,0.482422,-0.009766,0.863892,0.451416,0.174255,0.139771,up
513040,-1.269531,8.929688,5.582031,-0.169922,0.482422,-0.009766,0.863892,0.450745,0.175354,0.140503,up
513045,-1.269531,8.929688,5.660156,-0.259766,0.544922,0.011719,0.863892,0.450745,0.175354,0.140503,up
513050,-1.230469,8.972656,5.699219,-0.259766,0.544922,0.011719,0.863953,0.449219,0.177612,0.142151,up
513055,-1.230469,8.929688,5.699219,-0.259766,0.544922,0.011719,0.864014,0.448425,0.178711,0.142944,up
513060,-1.191406,8.855469,5.734375,-0.324219,0.660156,0.013672,0.864014,0.448425,0.178711,0.142944,up
513065,-1.191406,8.816406,5.734375,-0.324219,0.660156,0.013672,0.864136,0.446472,0.181458,0.144958,up
513070,-1.152344,8.816406,5.8125,-0.324219,0.660156,0.013672,0.864136,0.446472,0.181458,0.144958,up
513075,-1.152344,8.816406,5.851562,-0.324219,0.660156,0.013672,0.864258,0.444458,0.184265,0.147034,up
513080,-1.117188,8.773438,5.851562,-0.423828,0.869141,0.013672,0.864258,0.444458,0.184265,0.147034,up
513085,-1.117188,8.742188,5.890625,-0.423828,0.869141,0.013672,0.864319,0.441895,0.187866,0.149536,up
513090,-1.078125,8.667969,5.964844,-0.423828,0.869141,0.013672,0.86438,0.440674,0.189636,0.150757,up
513095,-1.117188,8.628906,6.003906,-0.464844,1.091797,-0.017578,0.86438,0.439209,0.191895,0.152222,up
513100,-1.191406,8.585938,6.003906,-0.464844,1.091797,-0.017578,0.86438,0.439209,0.191895,0.152222,up
513105,-1.191406,8.585938,6.042969,-0.488281,1.162109,-0.039063,0.864319,0.437805,0.194092,0.153564,up
513110,-1.191406,8.46875,6.121094,-0.488281,1.162109,-0.039063,0.864319,0.436218,0.196472,0.155029,up
513115,-1.191406,8.46875,6.121094,-0.544922,1.300781,-0.083984,0.864319,0.434509,0.199158,0.156555,up
513120,-1.421875,8.433594,6.121094,-0.597656,1.375,-0.091797,0.864258,0.430603,0.205078,0.159912,up
513125,-1.691406,8.359375,5.964844,-0.597656,1.375,-0.091797,0.864258,0.430603,0.205078,0.159912,up
513130,-1.84375,8.28125,5.890625,-0.720703,1.566406,-0.123047,0.864258,0.428528,0.20813,0.161621,up
513135,-2.074219,8.167969,5.890625,-0.720703,1.566406,-0.123047,0.864197,0.424133,0.214355,0.165161,up
513140,-2.226563,8.167969,6.003906,-0.832031,1.537109,-0.105469,0.864197,0.424133,0.214355,0.165161,up
513145,-2.304688,8.203125,6.3125,-0.832031,1.537109,-0.105469,0.86438,0.419189,0.22052,0.168884,up
513150,-2.378906,8.207031,6.503906,-0.931641,1.505859,-0.099609,0.86438,0.419189,0.22052,0.168884,up
513155,-2.417969,8.242188,6.617187,-0.960937,1.486328,-0.09375,0.864502,0.416138,0.223938,0.171082,up
513160,-2.417969,8.242188,6.617187,-0.96875,1.498047,-0.099609,0.864868,0.411011,0.229431,0.174622,up
513165,-2.417969,8.164063,6.769531,-0.96875,1.498047,-0.099609,0.86499,0.408142,0.232422,0.176575,up
513170,-2.53125,8.125,6.886719,-0.925781,1.521484,-0.113281,0.86499,0.408142,0.232422,0.176575,up
513175,-2.609375,8.085938,6.886719,-0.925781,1.521484,-0.113281,0.865173,0.402588,0.238464,0.18042,up
513180,-2.6875,8.089844,6.886719,-0.925781,1.521484,-0.113281,0.865234,0.399658,0.241638,0.182312,up
513185,-2.722656,8.011719,6.847656,-0.925781,1.521484,-0.113281,0.865234,0.396973,0.24469,0.184082,up
513190,-2.761719,8.007813,6.769531,-0.925781,1.521484,-0.113281,0.865234,0.396973,0.24469,0.184082,up
513195,-2.878906,7.972656,6.808594,-1.070313,1.675781,-0.197266,0.865234,0.396973,0.24469,0.184082,up
513200,-2.914063,7.902344,6.847656,-1.070313,1.675781,-0.197266,0.865479,0.387512,0.254578,0.189758,up
513205,-2.914063,7.785156,6.730469,-1.212891,1.806641,-0.240234,0.865479,0.387512,0.254578,0.189758,up
513210,-3.03125,7.628906,6.730469,-1.212891,1.806641,-0.240234,0.865601,0.383606,0.258423,0.191956,up
513215,-3.105469,7.519531,6.769531,-1.355469,1.962891,-0.291016,0.865601,0.383606,0.258423,0.191956,up
513220,-3.300781,7.285156,6.847656,-1.355469,1.962891,-0.291016,0.865845,0.371948,0.269531,0.198181,up
513225,-3.414063,7.207031,6.695312,-1.466797,2.158203,-0.359375,0.865845,0.371948,0.269531,0.198181,up
513230,-3.566406,7.015625,6.3125,-1.466797,2.158203,-0.359375,0.865967,0.367188,0.273987,0.200562,up
513235,-4.027344,6.710937,5.964844,-1.492188,2.226563,-0.396484,0.865967,0.367188,0.273987,0.200562,up
513240,-4.027344,6.710937,5.964844,-1.53125,2.189453,-0.414062,0.865967,0.358276,0.282471,0.204895,up
513245,-4.066406,6.597656,6.082031,-1.53125,2.189453,-0.414062,0.866028,0.353577,0.286621,0.206909,up
513250,-4.066406,6.597656,6.082031,-1.503906,1.998047,-0.455078,0.866089,0.348999,0.290588,0.208862,up
513256,-4.292969,6.710937,6.847656,-1.503906,1.998047,-0.455078,0.866211,0.344299,0.294617,0.210693,up
513262,-4.332031,6.710937,7.003906,-1.386719,1.882813,-0.523437,0.866272,0.335449,0.302246,0.213745,up
513267,-4.410156,6.75,6.921875,-1.205078,1.787109,-0.601562,0.866272,0.335449,0.302246,0.213745,up
513273,-4.523437,6.710937,6.960937,-1.205078,1.787109,-0.601562,0.866211,0.327393,0.309631,0.216003,up
513278,-4.5625,6.710937,6.964844,-1.148438,1.666016,-0.699219,0.86615,0.323364,0.313354,0.216919,up
513283,-4.640625,6.785156,6.84375,-1.173828,1.607422,-0.730469,0.86615,0.323364,0.313354,0.216919,up
513289,-4.714844,6.859375,6.808594,-1.173828,1.607422,-0.730469,0.866272,0.315247,0.320251,0.218262,up
513295,-4.832031,6.785156,6.695312,-1.173828,1.607422,-0.730469,0.866272,0.315247,0.320251,0.218262,up
513300,-4.90625,6.785156,6.617187,-1.564453,1.425781,-0.800781,0.866272,0.315247,0.320251,0.218262,up
513305,-4.984375,6.714844,6.503906,-1.564453,1.425781,-0.800781,0.867126,0.301575,0.32959,0.220154,up
513310,-5.023437,6.59375,6.539062,-1.8125,1.429688,-0.84375,0.867615,0.29657,0.332397,0.220825,up
513315,-5.097656,6.480469,6.539062,-1.8125,1.429688,-0.84375,0.868164,0.291138,0.335205,0.221619,up
513320,-5.097656,6.480469,6.539062,-1.904297,1.439453,-0.871094,0.868774,0.285461,0.338013,0.222412,up
513325,-5.097656,6.480469,6.539062,-1.980469,1.462891,-0.900391,0.869324,0.280396,0.340393,0.223083,up
513330,-5.253906,6.25,6.386719,-1.980469,1.462891,-0.900391,0.869324,0.280396,0.340393,0.223083,up
513335,-5.328125,6.136719,6.3125,-2.025391,1.505859,-0.939453,0.869324,0.280396,0.340393,0.223083,up
513340,-5.445312,5.828125,6.347656,-2.042969,1.550781,-1.001953,0.871643,0.255981,0.351685,0.22583,up
513345,-5.445312,5.753906,6.34375,-2.042969,1.550781,-1.001953,0.872131,0.249695,0.354736,0.226318,up
513350,-5.597656,5.484375,6.386719,-2.042969,1.550781,-1.001953,0.872131,0.249695,0.354736,0.226318,up
513355,-5.558594,5.445312,6.421875,-1.869141,1.521484,-1.087891,0.872131,0.249695,0.354736,0.226318,up
513360,-5.75,5.253906,6.660156,-1.802734,1.490234,-1.126953,0.872131,0.249695,0.354736,0.226318,up
513365,-5.789062,5.214844,6.621094,-1.802734,1.490234,-1.126953,0.873596,0.226013,0.366638,0.226685,up
513370,-5.941406,5.179687,6.695312,-1.802734,1.490234,-1.126953,0.873596,0.226013,0.366638,0.226685,up
513375,-6.019531,5.214844,6.660156,-1.474609,1.320313,-1.177734,0.873596,0.226013,0.366638,0.226685,up
513381,-6.210937,5.214844,6.503906,-1.474609,1.320313,-1.177734,0.874268,0.210999,0.374512,0.225525,up
513386,-6.25,5.140625,6.539062,-1.367188,1.208984,-1.197266,0.874512,0.205627,0.377319,0.224854,up
513391,-6.324219,5.140625,6.542969,-1.326172,1.144531,-1.201172,0.874756,0.200745,0.379822,0.224121,up
513397,-6.324219,5.214844,6.539062,-1.326172,1.144531,-1.201172,0.875,0.196655,0.381836,0.223389,up
513402,-6.363281,5.214844,6.542969,-1.326172,1.144531,-1.201172,0.875,0.196655,0.381836,0.223389,up
513407,-6.402344,5.214844,6.542969,-1.253906,0.984375,-1.195313,0.875,0.196655,0.381836,0.223389,up
513413,-6.402344,5.179687,6.5,-1.224609,0.910156,-1.191406,0.875977,0.183472,0.387695,0.220581,up
513418,-6.363281,5.023437,6.5,-1.199219,0.728516,-1.167969,0.876465,0.179138,0.389282,0.219543,up
513425,-6.324219,4.949219,6.386719,-1.199219,0.728516,-1.167969,0.876465,0.179138,0.389282,0.219543,up
513430,-6.285156,4.910156,6.347656,-1.162109,0.482422,-1.113281,0.876465,0.179138,0.389282,0.219543,up
513435,-6.324219,4.871094,6.273437,-1.162109,0.482422,-1.113281,0.878052,0.166992,0.392822,0.21637,up
513441,-6.253906,4.757812,6.234375,-1.162109,0.482422,-1.113281,0.879395,0.15918,0.394287,0.214111,up
513446,-6.25,4.679687,6.316406,-1.078125,0.222656,-1.060547,0.880188,0.155457,0.394714,0.212952,up
513451,-6.25,4.71875,6.386719,-1.078125,0.222656,-1.060547,0.880188,0.155457,0.394714,0.212952,up
513456,-6.285156,4.679687,6.34375,-1.078125,0.222656,-1.060547,0.880981,0.151733,0.394958,0.211731,up
513461,-6.210937,4.566406,6.34375,-0.986328,-0.005859,-1.054688,0.880981,0.151733,0.394958,0.211731,up
513467,-6.210937,4.601562,6.347656,-0.986328,-0.005859,-1.054688,0.883667,0.141907,0.394714,0.207825,up
513473,-6.253906,4.566406,6.082031,-0.986328,-0.005859,-1.054688,0.884521,0.139099,0.39447,0.206604,up
513478,-6.175781,4.527344,6.082031,-0.974609,-0.154297,-1.123047,0.88562,0.13562,0.393982,0.204895,up
513483,-6.210937,4.527344,6.082031,-1.033203,-0.195312,-1.158203,0.88562,0.13562,0.393982,0.204895,up
513488,-6.171875,4.449219,6.042969,-1.083984,-0.226562,-1.193359,0.88562,0.13562,0.393982,0.204895,up
513493,-6.214844,4.296875,6.082031,-1.083984,-0.226562,-1.193359,0.88562,0.13562,0.393982,0.204895,up
513499,-6.25,4.21875,6.082031,-1.242188,-0.306641,-1.267578,0.88562,0.13562,0.393982,0.204895,up
513504,-6.25,4.144531,6.121094,-1.314453,-0.339844,-1.298828,0.88562,0.13562,0.393982,0.204895,up
513510,-6.171875,3.953125,6.199219,-1.314453,-0.339844,-1.298828,0.894348,0.109558,0.388123,0.193481,up
513515,-6.132812,3.875,6.277344,-1.314453,-0.339844,-1.298828,0.894348,0.109558,0.388123,0.193481,up
513520,-6.132812,3.875,6.277344,-1.466797,-0.435547,-1.404297,0.895813,0.105225,0.386902,0.191772,up
513525,-6.058594,3.414063,6.386719,-1.488281,-0.458984,-1.425781,0.897339,0.100647,0.385498,0.18988,up
513530,-6.058594,3.414063,6.386719,-1.488281,-0.482422,-1.449219,0.898804,0.096191,0.384094,0.188049,up
513535,-6.019531,3.339844,6.425781,-1.488281,-0.482422,-1.449219,0.900269,0.091736,0.38269,0.186157,up
513540,-5.941406,3.109375,6.5,-1.447266,-0.519531,-1.472656,0.900269,0.091736,0.38269,0.186157,up
513545,-5.941406,3.109375,6.5,-1.335938,-0.572266,-1.484375,0.900269,0.091736,0.38269,0.186157,up
513550,-5.941406,2.996094,6.542969,-1.335938,-0.572266,-1.484375,0.904785,0.07843,0.377991,0.179871,up
513556,-5.980469,2.957031,6.582031,-1.335938,-0.572266,-1.484375,0.907715,0.070435,0.374695,0.175354,up
513561,-5.902344,2.839844,6.65625,-1.335938,-0.572266,-1.484375,0.90918,0.066589,0.372864,0.172852,up
513566,-5.941406,2.804688,6.65625,-1.056641,-0.75,-1.544922,0.910828,0.062744,0.370911,0.170105,up
513571,-5.980469,2.726563,6.582031,-1.056641,-0.75,-1.544922,0.910828,0.062744,0.370911,0.170105,up
513576,-6.019531,2.648438,6.464844,-0.947266,-0.8125,-1.564453,0.910828,0.062744,0.370911,0.170105,up
513581,-6.019531,2.878906,6.5,-0.912109,-0.841797,-1.5625,0.913757,0.056091,0.367065,0.164856,up
513587,-6.019531,2.839844,6.539062,-0.912109,-0.841797,-1.5625,0.916748,0.049805,0.362915,0.159302,up
513592,-5.980469,2.839844,6.582031,-0.912109,-0.917969,-1.568359,0.916748,0.049805,0.362915,0.159302,up
513597,-5.980469,2.839844,6.542969,-0.912109,-0.917969,-1.568359,0.919861,0.043396,0.358337,0.153564,up
513603,-5.941406,2.839844,6.730469,-0.912109,-0.917969,-1.568359,0.921387,0.040222,0.355896,0.150757,up
513609,-5.867187,2.6875,6.84375,-0.935547,-1.050781,-1.568359,0.921387,0.040222,0.355896,0.150757,up
513614,-5.75,2.496094,6.769531,-0.951172,-1.105469,-1.564453,0.921387,0.040222,0.355896,0.150757,up
513619,-5.597656,2.304688,6.699219,-0.951172,-1.105469,-1.564453,0.926208,0.030701,0.347778,0.142212,up
513624,-5.519531,2.226563,6.726562,-0.972656,-1.224609,-1.550781,0.926208,0.030701,0.347778,0.142212,up
513629,-5.40625,2.113281,6.808594,-0.974609,-1.296875,-1.537109,0.926208,0.030701,0.347778,0.142212,up
513634,-5.289062,1.882813,6.726562,-0.962891,-1.357422,-1.527344,0.926208,0.030701,0.347778,0.142212,up
513640,-5.253906,1.460938,6.621094,-0.962891,-1.357422,-1.527344,0.932922,0.018127,0.334839,0.130981,up
513645,-5.253906,1.460938,6.621094,-0.828125,-1.4375,-1.582031,0.934692,0.015198,0.331238,0.12793,up
513650,-5.097656,0.847656,6.617187,-0.828125,-1.4375,-1.582031,0.936401,0.012573,0.327637,0.124817,up
513655,-4.832031,1.003906,6.808594,-0.828125,-1.4375,-1.582031,0.938171,0.010193,0.323975,0.12146,up
513660,-4.714844,1.15625,6.804687,-0.828125,-1.4375,-1.582031,0.938171,0.010193,0.323975,0.12146,up
513665,-4.679687,1.195313,6.886719,0.136719,-1.638672,-1.912109,0.938171,0.010193,0.323975,0.12146,up
513671,-4.488281,1.078125,6.804687,0.373047,-1.646484,-1.990234,0.943481,0.005615,0.312744,0.109253,up
513676,-4.371094,1.652344,6.765625,0.373047,-1.646484,-1.990234,0.947144,0.005127,0.305115,0.099121,up
513681,-4.371094,2.113281,6.621094,0.373047,-1.646484,-1.990234,0.947144,0.005127,0.305115,0.099121,up
513686,-4.488281,2.191406,6.578125,0.671875,-1.650391,-2.078125,0.947144,0.005127,0.305115,0.099121,up
513691,-4.410156,2.34375,6.464844,0.582031,-1.738281,-2.099609,0.950623,0.005798,0.297546,0.088318,up
513696,-4.257812,2.6875,6.503906,0.582031,-1.738281,-2.099609,0.952454,0.006104,0.293274,0.082336,up
513701,-4.292969,2.6875,6.582031,0.476562,-1.783203,-2.066406,0.955811,0.005981,0.285034,0.072021,up
513706,-4.257812,2.574219,6.65625,0.476562,-1.783203,-2.066406,0.957336,0.005615,0.280945,0.067505,up
513711,-4.179687,2.417969,6.65625,-0.023437,-2.042969,-1.847656,0.957336,0.005615,0.280945,0.067505,up
513716,-4.21875,2.304688,6.617187,-0.238281,-2.132813,-1.728516,0.959167,0.0047,0.275818,0.062622,up
513722,-4.140625,1.84375,6.5,-0.439453,-2.199219,-1.605469,0.960693,0.003601,0.27124,0.058777,up
513728,-3.875,1.15625,6.660156,-0.439453,-2.199219,-1.605469,0.964111,6.1e-05,0.260498,0.051575,up
513733,-3.757813,1.003906,6.726562,-0.539062,-2.279297,-1.433594,0.965698,-0.001892,0.255005,0.048462,up
513738,-3.757813,1.003906,6.726562,-0.410156,-2.283203,-1.376953,0.967346,-0.003723,0.249329,0.04541,up
513743,-3.414063,0.734375,6.847656,-0.410156,-2.283203,-1.376953,0.967346,-0.003723,0.249329,0.04541,up
513748,-3.414063,0.734375,6.847656,-0.189453,-2.316406,-1.345703,0.970459,-0.005798,0.237915,0.039124,up
513754,-3.261719,0.351563,6.964844,-0.189453,-2.316406,-1.345703,0.971985,-0.005859,0.2323,0.03595,up
513760,-3.03125,0.542969,6.769531,0.595703,-2.361328,-1.265625,0.971985,-0.005859,0.2323,0.03595,up
513765,-2.992188,0.65625,6.730469,0.595703,-2.361328,-1.265625,0.974854,-0.004028,0.220764,0.029297,up
513771,-2.953125,0.582031,6.460937,1.208984,-2.363281,-1.148438,0.974854,-0.004028,0.220764,0.029297,up
513776,-2.878906,1.078125,6.539062,1.208984,-2.363281,-1.148438,0.9776,0.0,0.209351,0.022461,up
513781,-2.800781,1.269531,6.621094,1.255859,-2.314453,-1.105469,0.978821,0.002502,0.203796,0.019165,up
513786,-2.761719,1.5,6.84375,1.255859,-2.314453,-1.105469,0.980042,0.005432,0.198059,0.015808,up
513791,-2.914063,1.578125,6.964844,1.458984,-2.183594,-0.992187,0.980042,0.005432,0.198059,0.015808,up
513796,-2.992188,1.730469,6.925781,1.458984,-2.183594,-0.992187,0.9823,0.011841,0.186829,0.009155,up
513802,-3.335938,1.882813,7.230469,1.458984,-2.183594,-0.992187,0.984192,0.018066,0.176147,0.003052,up
513807,-3.527344,1.691406,7.152344,1.109375,-2.056641,-0.855469,0.985046,0.020691,0.170959,0.000305,up
513813,-3.796875,1.691406,7.648437,1.109375,-2.056641,-0.855469,0.985718,0.022522,0.166748,-0.001831,up
513818,-3.796875,1.730469,7.953125,1.109375,-2.056641,-0.855469,0.986572,0.02417,0.161682,-0.004211,up
513823,-3.796875,1.730469,7.953125,0.585937,-2.078125,-0.808594,0.987305,0.025391,0.156677,-0.00647,up
513828,-3.757813,1.730469,8.574219,0.585937,-2.078125,-0.808594,0.987305,0.025391,0.156677,-0.00647,up
513833,-3.527344,1.460938,9.222656,0.533203,-2.113281,-0.847656,0.988098,0.026428,0.151428,-0.00885,up
513838,-3.414063,1.347656,9.453125,0.416016,-2.275391,-0.941406,0.988098,0.026428,0.151428,-0.00885,up
513844,-3.183594,1.078125,9.378906,0.416016,-2.275391,-0.941406,0.990295,0.028564,0.13501,-0.016357,up
513849,-3.261719,1.078125,9.300781,0.333984,-2.435547,-0.976562,0.990295,0.028564,0.13501,-0.016357,up
513855,-3.070313,1.039063,9.21875,0.333984,-2.435547,-0.976562,0.990295,0.028564,0.13501,-0.016357,up
513860,-2.953125,1.117188,9.222656,0.476562,-2.503906,-0.976562,0.990295,0.028564,0.13501,-0.016357,up
513866,-2.800781,1.117188,9.179688,0.636719,-2.556641,-0.896484,0.990295,0.028564,0.13501,-0.016357,up
513871,-2.339844,1.195313,9.457031,0.636719,-2.556641,-0.896484,0.994141,0.033203,0.098083,-0.031982,up
513876,-2.570313,1.539063,9.414063,0.636719,-2.556641,-0.896484,0.994141,0.033203,0.098083,-0.031982,up
513881,-2.378906,1.730469,8.6875,0.492187,-2.441406,-0.644531,0.994141,0.033203,0.098083,-0.031982,up
513887,-1.078125,1.539063,8.148438,0.384766,-2.279297,-0.603516,0.995056,0.035522,0.085388,-0.036133,up
513892,-0.960937,1.730469,8.957031,0.384766,-2.279297,-0.603516,0.995789,0.037109,0.073547,-0.039612,up
513898,-0.847656,1.195313,8.71875,0.384766,-2.279297,-0.603516,0.996033,0.038025,0.068909,-0.040833,up
513903,-0.847656,0.964844,8.875,0.537109,-1.800781,-0.294922,0.996277,0.039063,0.064331,-0.04187,up
513908,-0.464844,1.386719,9.144531,0.537109,-1.800781,-0.294922,0.99646,0.040222,0.059753,-0.042664,up
513914,-0.65625,1.386719,8.722656,0.451172,-1.591797,-0.150391,0.99646,0.040222,0.059753,-0.042664,up
513919,-0.65625,1.386719,8.722656,0.333984,-1.484375,-0.117188,0.996826,0.042053,0.051758,-0.043701,up
513924,-0.925781,0.847656,9.339844,0.333984,-1.484375,-0.117188,0.996826,0.042053,0.051758,-0.043701,up
513930,-0.808594,0.8125,9.179688,0.3125,-1.390625,-0.132812,0.996948,0.042664,0.047974,-0.044128,up
513936,-0.808594,0.964844,9.261719,0.345703,-1.369141,-0.125,0.996948,0.042664,0.047974,-0.044128,up
513942,-0.730469,1.078125,9.796875,0.535156,-1.355469,-0.117188,0.996948,0.042664,0.047974,-0.044128,up
513947,-0.503906,1.078125,10.066406,0.535156,-1.355469,-0.117188,0.997375,0.04718,0.030334,-0.046326,up
513952,-0.464844,1.195313,10.527344,0.798828,-1.4375,-0.068359,0.997375,0.048828,0.026672,-0.046631,up
513957,-0.347656,1.308594,10.867188,0.798828,-1.4375,-0.068359,0.997375,0.050537,0.023376,-0.046875,up
513962,-0.042969,1.652344,10.40625,0.798828,-1.4375,-0.068359,0.997314,0.052979,0.019226,-0.047119,up
513967,-0.234375,2.0,10.027344,0.798828,-1.4375,-0.068359,0.997314,0.052979,0.019226,-0.047119,up
513972,0.035156,1.882813,10.21875,0.609375,-1.398438,0.066406,0.997253,0.055725,0.012329,-0.046997,up
513977,0.109375,1.730469,10.332031,0.302734,-1.267578,0.275391,0.997314,0.056274,0.009216,-0.04657,up
513982,0.1875,1.730469,10.179688,0.302734,-1.267578,0.275391,0.997314,0.056885,0.006165,-0.045898,up
513987,0.226562,1.539063,10.332031,0.314453,-1.179688,0.443359,0.997314,0.056885,0.006165,-0.045898,up
513992,0.226562,1.539063,10.410156,0.361328,-1.175781,0.482422,0.997314,0.057617,0.002747,-0.044861,up
513997,0.339844,1.691406,10.40625,0.361328,-1.175781,0.482422,0.997314,0.059082,-0.003052,-0.042786,up
514002,0.417969,1.652344,10.371094,0.357422,-1.117188,0.451172,0.997314,0.059082,-0.003052,-0.042786,up
514007,0.378906,1.578125,10.332031,0.357422,-1.117188,0.451172,0.997314,0.059814,-0.00592,-0.041748,up
514012,0.300781,1.617188,10.449219,0.390625,-1.113281,0.412109,0.997314,0.059814,-0.00592,-0.041748,up
514018,0.300781,1.617188,10.449219,0.347656,-1.107422,0.322266,0.997192,0.062317,-0.014526,-0.039063,up
514023,0.457031,1.769531,10.527344,0.310547,-1.103516,0.275391,0.997131,0.06311,-0.017761,-0.03833,up
514028,0.839844,1.460938,10.601563,0.310547,-1.103516,0.275391,0.99707,0.06366,-0.020203,-0.037842,up
514034,0.953125,1.269531,10.640625,0.310547,-1.103516,0.275391,0.996948,0.064392,-0.02301,-0.037354,up
514039,1.105469,1.308594,10.683594,0.433594,-1.074219,0.214844,0.996826,0.065247,-0.025818,-0.036926,up
514045,1.222656,1.5,10.5625,0.539062,-1.039063,0.228516,0.996826,0.065247,-0.025818,-0.036926,up
514051,1.375,1.769531,10.679688,0.613281,-0.984375,0.261719,0.996399,0.069275,-0.03363,-0.035217,up
514056,1.335938,2.074219,10.601563,0.613281,-0.984375,0.261719,0.996399,0.069275,-0.03363,-0.035217,up
514062,1.488281,2.34375,10.523438,0.753906,-0.755859,0.304688,0.996399,0.069275,-0.03363,-0.035217,up
514067,1.488281,2.726563,10.523438,0.753906,-0.755859,0.304688,0.996033,0.072815,-0.037964,-0.033813,up
514072,1.488281,2.726563,10.640625,0.333984,-0.626953,0.300781,0.99585,0.074463,-0.039978,-0.03302,up
514077,1.488281,2.574219,10.644531,0.333984,-0.626953,0.300781,0.995667,0.07605,-0.043213,-0.031616,up
514082,1.488281,2.152344,10.949219,0.333984,-0.626953,0.300781,0.995667,0.07605,-0.043213,-0.031616,up
514087,1.566406,2.0,10.945313,0.333984,-0.626953,0.300781,0.995605,0.076294,-0.045654,-0.030273,up
514092,1.605469,1.921875,11.023438,0.111328,-0.333984,0.242187,0.995605,0.076294,-0.045654,-0.030273,up
514097,1.71875,1.921875,10.910156,0.136719,-0.265625,0.242187,0.995544,0.076477,-0.046692,-0.029602,up
514102,1.71875,1.921875,10.910156,0.136719,-0.265625,0.242187,0.995483,0.076721,-0.047424,-0.029053,up
514107,1.757813,2.035156,10.789063,0.167969,-0.207031,0.238281,0.995483,0.077087,-0.048096,-0.028442,up
514112,1.757813,2.035156,10.789063,0.214844,-0.144531,0.232422,0.995483,0.077087,-0.048096,-0.028442,up
514118,1.757813,1.960938,10.566406,0.289063,-0.076172,0.214844,0.9953,0.078918,-0.049072,-0.026672,up
514124,1.71875,2.074219,10.488281,0.289063,-0.076172,0.214844,0.995239,0.080017,-0.049072,-0.026184,up
514129,1.566406,2.113281,10.410156,0.460937,0.126953,0.078125,0.995239,0.080017,-0.049072,-0.026184,up
514134,1.488281,2.074219,10.488281,0.421875,0.201172,0.017578,0.995117,0.082275,-0.048523,-0.025513,up
514139,1.414063,2.152344,10.523438,0.388672,0.246094,-0.035156,0.995117,0.082275,-0.048523,-0.025513,up
514144,1.453125,2.265625,10.410156,0.347656,0.296875,-0.103516,0.995117,0.082275,-0.048523,-0.025513,up
514150,1.644531,2.496094,10.328125,0.296875,0.361328,-0.179687,0.995117,0.082275,-0.048523,-0.025513,up
514155,1.757813,2.613281,10.289063,0.216797,0.445312,-0.263672,0.995117,0.082275,-0.048523,-0.025513,up
514160,1.796875,2.878906,10.257813,0.216797,0.445312,-0.263672,0.994934,0.086243,-0.044128,-0.026611,up
514166,1.835938,3.070313,10.367188,-0.052734,0.724609,-0.4375,0.994934,0.086243,-0.044128,-0.026611,up
514172,1.835938,3.03125,10.601563,-0.203125,0.882812,-0.507812,0.995178,0.085693,-0.037659,-0.029541,up
514177,1.796875,2.765625,10.789063,-0.388672,1.193359,-0.552734,0.995178,0.085693,-0.037659,-0.029541,up
514182,1.453125,2.226563,11.476563,-0.361328,1.273438,-0.515625,0.9953,0.084961,-0.03479,-0.03064,up
514187,1.144531,1.808594,11.976563,-0.361328,1.273438,-0.515625,0.995483,0.084106,-0.031372,-0.031799,up
514193,0.722656,1.578125,12.171875,0.011719,1.261719,-0.363281,0.995544,0.083557,-0.028076,-0.032654,up
514198,0.722656,1.578125,12.171875,0.232422,1.201172,-0.285156,0.995667,0.083862,-0.021973,-0.033813,up
514203,0.378906,2.113281,12.171875,0.404297,1.132813,-0.224609,0.995605,0.084961,-0.018677,-0.03418,up
514209,0.109375,2.6875,12.019531,0.404297,1.132813,-0.224609,0.995544,0.08606,-0.016296,-0.034424,up
514214,0.109375,3.03125,11.898438,0.404297,1.132813,-0.224609,0.995422,0.087708,-0.01355,-0.034668,up
514219,0.148437,3.492188,11.636719,0.404297,1.132813,-0.224609,0.995361,0.089172,-0.011536,-0.035034,up
514226,0.300781,3.53125,11.371094,0.494141,0.804687,-0.314453,0.995361,0.089172,-0.011536,-0.035034,up
514231,0.53125,3.1875,11.25,0.289063,0.755859,-0.302734,0.995361,0.089172,-0.011536,-0.035034,up
514236,0.609375,3.070313,11.132813,0.289063,0.755859,-0.302734,0.994995,0.092712,-0.005493,-0.036621,up
514241,0.648437,3.070313,11.066406,0.236328,0.765625,-0.242187,0.994995,0.092712,-0.005493,-0.036621,up
514247,0.457031,3.03125,11.066406,0.185547,0.794922,-0.175781,0.994995,0.092712,-0.005493,-0.036621,up
514252,0.417969,3.070313,11.027344,0.185547,0.794922,-0.175781,0.994751,0.094971,0.002686,-0.037537,up
514257,0.417969,3.03125,11.066406,0.070312,0.853516,-0.019531,0.994751,0.094971,0.002686,-0.037537,up
514262,0.300781,2.878906,11.132813,0.070312,0.853516,-0.019531,0.994751,0.095276,0.004578,-0.037415,up
514267,0.1875,2.535156,11.292969,0.076172,0.851562,0.017578,0.994751,0.095276,0.004578,-0.037415,up
514273,0.148437,2.535156,11.25,0.277344,0.84375,0.085937,0.99469,0.095947,0.00885,-0.036865,up
514278,0.109375,2.535156,11.25,0.277344,0.84375,0.085937,0.994507,0.097473,0.013,-0.036011,up
514283,-0.042969,2.265625,11.253906,0.277344,0.84375,0.085937,0.994385,0.098572,0.015198,-0.035522,up
514290,-0.042969,2.191406,11.332031,0.277344,0.84375,0.085937,0.994263,0.099731,0.017151,-0.035156,up
514295,-0.121094,2.265625,11.171875,0.587891,0.902344,-0.003906,0.994263,0.099731,0.017151,-0.035156,up
514300,-0.042969,2.417969,11.09375,0.679687,0.919922,-0.050781,0.994263,0.099731,0.017151,-0.035156,up
514306,-0.425781,3.03125,11.066406,0.679687,0.919922,-0.050781,0.994263,0.099731,0.017151,-0.035156,up
514312,-0.65625,3.300781,11.066406,0.802734,0.910156,-0.052734,0.994263,0.099731,0.017151,-0.035156,up
514317,-0.847656,3.644531,11.027344,0.753906,0.753906,0.046875,0.994263,0.099731,0.017151,-0.035156,up
514323,-0.960937,4.027344,10.984375,0.753906,0.753906,0.046875,0.992554,0.112732,0.031738,-0.033752,up
514328,-1.117188,3.992188,11.023438,0.496094,0.564453,0.232422,0.99231,0.114319,0.033264,-0.033081,up
514344,-0.925781,3.605469,11.0625,0.371094,0.464844,0.3125,0.992126,0.116211,0.035339,-0.031372,up
514349,-0.847656,3.109375,11.097656,0.119141,0.373047,0.433594,0.992126,0.116211,0.035339,-0.031372,up
514355,-0.695312,2.957031,11.023438,0.074219,0.347656,0.457031,0.992004,0.11731,0.03772,-0.02771,up
514360,-0.695312,2.957031,11.023438,0.074219,0.347656,0.457031,0.992004,0.11731,0.03772,-0.02771,up
514366,-0.15625,1.882813,10.683594,0.177734,0.458984,0.443359,0.991821,0.118408,0.039673,-0.025269,up
514372,-0.234375,1.539063,10.445313,0.673828,0.818359,0.265625,0.991821,0.118408,0.039673,-0.025269,up
514377,-0.15625,1.195313,10.289063,0.673828,0.818359,0.265625,0.991455,0.12085,0.042847,-0.023193,up
514383,-0.347656,1.425781,10.179688,0.984375,0.949219,0.179687,0.990662,0.125916,0.047363,-0.021912,up
514388,-0.539062,1.84375,10.101563,1.578125,1.162109,0.013672,0.990051,0.129761,0.050171,-0.021545,up
514393,-1.117188,3.605469,9.945313,1.578125,1.162109,0.013672,0.989319,0.134033,0.053101,-0.021301,up
514398,-1.460938,4.144531,9.949219,1.578125,1.162109,0.013672,0.988647,0.137817,0.055664,-0.021179,up
514404,-1.574219,4.527344,9.757813,1.451172,1.037109,-0.009766,0.987915,0.14209,0.058472,-0.021057,up
514409,-1.996094,4.792969,9.878906,1.451172,1.037109,-0.009766,0.987244,0.145508,0.060913,-0.020813,up
514415,-1.996094,4.71875,9.984375,1.451172,1.037109,-0.009766,0.986816,0.147827,0.062683,-0.020386,up
514420,-1.917969,4.488281,10.066406,0.623047,0.652344,0.255859,0.98645,0.14978,0.064392,-0.019714,up
514426,-1.84375,4.183594,10.066406,0.376953,0.521484,0.367188,0.98645,0.14978,0.064392,-0.019714,up
514431,-1.613281,3.378906,10.101563,0.207031,0.410156,0.460937,0.98645,0.14978,0.064392,-0.019714,up
514437,-1.34375,3.070313,10.101563,0.085937,0.333984,0.519531,0.98645,0.14978,0.064392,-0.019714,up
514442,-1.152344,2.648438,10.105469,0.037109,0.287109,0.552734,0.98645,0.14978,0.064392,-0.019714,up
514447,-0.886719,2.304688,10.0625,0.083984,0.259766,0.568359,0.98645,0.14978,0.064392,-0.019714,up
514452,-0.808594,1.960938,9.988281,0.083984,0.259766,0.568359,0.985718,0.153381,0.068848,-0.01178,up
514457,-0.730469,1.539063,9.984375,0.333984,0.316406,0.453125,0.985718,0.153381,0.068848,-0.01178,up
514463,-0.503906,1.5,9.878906,0.634766,0.378906,0.34375,0.984924,0.157471,0.070984,-0.008545,up
514468,-0.386719,1.882813,9.484375,0.634766,0.378906,0.34375,0.984375,0.160461,0.072327,-0.007996,up
514473,-0.425781,2.113281,9.414063,0.634766,0.378906,0.34375,0.983765,0.163269,0.073669,-0.007751,up
514478,-0.425781,2.304688,9.261719,0.634766,0.378906,0.34375,0.983765,0.163269,0.073669,-0.007751,up
514483,-0.539062,2.957031,9.144531,1.535156,0.808594,-0.003906,0.983765,0.163269,0.073669,-0.007751,up
514489,-0.925781,3.570313,9.144531,1.535156,0.808594,-0.003906,0.981323,0.174805,0.079895,-0.007507,up
514494,-1.078125,3.722656,9.183594,1.630859,1.076172,-0.070312,0.980347,0.179016,0.08252,-0.007507,up
514500,-1.308594,3.953125,9.179688,1.595703,1.111328,-0.070312,0.980347,0.179016,0.08252,-0.007507,up
514505,-1.691406,4.257812,9.300781,1.595703,1.111328,-0.070312,0.978455,0.186707,0.08783,-0.007446,up
514511,-1.917969,4.21875,9.339844,1.353516,1.082031,-0.015625,0.978455,0.186707,0.08783,-0.007446,up
514516,-2.226563,4.449219,9.453125,1.283203,1.03125,0.019531,0.978455,0.186707,0.08783,-0.007446,up
514522,-2.378906,4.566406,9.5625,1.160156,0.9375,0.0625,0.978455,0.186707,0.08783,-0.007446,up
514527,-2.6875,4.640625,9.683594,1.041016,0.822266,0.099609,0.975037,0.19928,0.097534,-0.006287,up
514532,-2.6875,4.640625,9.683594,1.041016,0.822266,0.099609,0.975037,0.19928,0.097534,-0.006287,up
514537,-2.761719,4.679687,9.71875,0.832031,0.552734,0.201172,0.975037,0.19928,0.097534,-0.006287,up
514542,-2.761719,4.679687,9.71875,0.738281,0.419922,0.267578,0.973267,0.205933,0.101807,-0.004639,up
514548,-2.457031,4.488281,9.457031,0.738281,0.419922,0.267578,0.972351,0.209473,0.102966,-0.002991,up
514553,-2.304688,4.296875,9.378906,0.738281,0.419922,0.267578,0.972351,0.209473,0.102966,-0.002991,up
514558,-2.113281,4.183594,9.140625,0.583984,0.160156,0.427734,0.972351,0.209473,0.102966,-0.002991,up
514563,-1.957031,4.105469,9.074219,0.572266,0.140625,0.451172,0.971313,0.214172,0.103455,0.000122,up
514568,-1.84375,4.027344,9.035156,0.607422,0.152344,0.478516,0.971313,0.214172,0.103455,0.000122,up
514573,-1.574219,3.875,8.757813,0.607422,0.152344,0.478516,0.970947,0.21582,0.103577,0.001282,up
514578,-1.460938,3.875,8.722656,0.607422,0.152344,0.478516,0.970154,0.219116,0.104004,0.003479,up
514583,-1.34375,3.875,8.6875,0.607422,0.152344,0.478516,0.969604,0.22113,0.104553,0.0047,up
514588,-1.308594,3.800781,8.652344,0.607422,0.152344,0.478516,0.969604,0.22113,0.104553,0.0047,up
514593,-1.34375,3.761719,8.574219,0.853516,0.5,0.466797,0.969604,0.22113,0.104553,0.0047,up
514598,-1.460938,3.835938,8.652344,1.023438,0.746094,0.447266,0.968384,0.225525,0.106445,0.007141,up
514603,-1.574219,3.953125,8.609375,1.023438,0.746094,0.447266,0.966797,0.230591,0.109497,0.009705,up
514608,-1.957031,4.183594,8.613281,1.023438,0.746094,0.447266,0.966797,0.230591,0.109497,0.009705,up
514613,-2.074219,4.335937,8.71875,1.023438,0.746094,0.447266,0.964905,0.236389,0.113586,0.012329,up
514618,-2.1875,4.410156,8.722656,1.023438,0.746094,0.447266,0.964905,0.236389,0.113586,0.012329,up
514623,-2.304688,4.449219,8.761719,1.279297,1.005859,0.445312,0.962769,0.242798,0.117981,0.015076,up
514628,-2.457031,4.601562,8.761719,1.375,0.988281,0.472656,0.962769,0.242798,0.117981,0.015076,up
514633,-2.53125,4.71875,8.800781,1.375,0.988281,0.472656,0.961548,0.246338,0.120239,0.016479,up
514638,-2.609375,4.988281,8.800781,1.375,0.988281,0.472656,0.960266,0.250061,0.122559,0.018005,up
514644,-2.800781,5.484375,8.722656,1.34375,0.927734,0.478516,0.960266,0.250061,0.122559,0.018005,up
514650,-2.992188,5.90625,8.6875,1.34375,0.927734,0.478516,0.957031,0.259277,0.128052,0.021912,up
514655,-2.953125,6.019531,8.6875,1.058594,0.740234,0.521484,0.955994,0.262085,0.129639,0.023315,up
514660,-2.992188,6.058594,8.613281,0.898437,0.654297,0.548828,0.955078,0.264648,0.131042,0.02478,up
514666,-3.261719,6.25,8.648438,0.738281,0.574219,0.585937,0.955078,0.264648,0.131042,0.02478,up
514671,-2.992188,6.097656,8.757813,0.556641,0.505859,0.646484,0.955078,0.264648,0.131042,0.02478,up
514676,-2.648438,5.753906,8.691406,0.425781,0.4375,0.689453,0.955078,0.264648,0.131042,0.02478,up
514682,-2.953125,5.867187,8.613281,0.318359,0.390625,0.753906,0.955078,0.264648,0.131042,0.02478,up
514687,-2.496094,5.753906,8.613281,0.318359,0.390625,0.753906,0.955078,0.264648,0.131042,0.02478,up
514692,-2.417969,5.484375,8.609375,0.318359,0.390625,0.753906,0.951843,0.272766,0.135071,0.036072,up
514698,-2.304688,5.214844,8.648438,0.232422,0.443359,0.931641,0.951843,0.272766,0.135071,0.036072,up
514703,-2.265625,4.832031,8.574219,0.232422,0.443359,0.931641,0.951111,0.274292,0.135803,0.04071,up
514708,-2.265625,4.832031,8.574219,0.296875,0.505859,0.917969,0.950684,0.275208,0.136292,0.043274,up
514713,-2.074219,4.757812,8.375,0.296875,0.505859,0.917969,0.950684,0.275208,0.136292,0.043274,up
514718,-1.84375,4.601562,8.035156,0.414062,0.582031,0.900391,0.949524,0.27771,0.137939,0.047974,up
514724,-1.84375,4.601562,7.992187,0.787109,0.773437,0.818359,0.947632,0.28186,0.140747,0.05249,up
514729,-1.882813,5.023437,7.957031,1.15625,0.998047,0.732422,0.946289,0.284851,0.142761,0.05481,up
514734,-2.417969,6.441406,7.609375,1.15625,0.998047,0.732422,0.944885,0.287964,0.14502,0.057007,up
514739,-2.570313,6.863281,7.5,1.15625,0.998047,0.732422,0.943726,0.290405,0.146851,0.058777,up
514744,-2.6875,7.167969,7.460937,0.953125,1.082031,0.732422,0.942322,0.293213,0.149292,0.061157,up
514749,-2.914063,7.480469,7.382812,0.697266,1.044922,0.779297,0.941162,0.295349,0.151428,0.063477,up
514754,-3.300781,7.398437,7.6875,0.697266,1.044922,0.779297,0.940186,0.296875,0.15332,0.065979,up
514759,-3.414063,7.246094,7.847656,0.697266,1.044922,0.779297,0.939575,0.297668,0.154724,0.068298,up
514764,-3.527344,7.132812,8.035156,-0.039063,0.730469,0.96875,0.939575,0.297668,0.154724,0.068298,up
514769,-3.683594,6.976562,8.296875,-0.039063,0.730469,0.96875,0.93866,0.298096,0.156799,0.074219,up
514775,-3.71875,6.441406,8.453125,-0.039063,0.730469,0.96875,0.938477,0.297729,0.157043,0.076904,up
514780,-3.71875,6.441406,8.453125,-0.476562,0.244141,1.105469,0.938477,0.296997,0.156921,0.080322,up
514785,-3.375,6.25,8.417969,-0.476562,0.244141,1.105469,0.938538,0.296326,0.156494,0.082947,up
514792,-3.222656,6.210937,8.375,-0.521484,-0.019531,1.121094,0.938538,0.296326,0.156494,0.082947,up
514797,-2.761719,6.019531,8.230469,-0.521484,-0.019531,1.121094,0.938538,0.296326,0.156494,0.082947,up
514803,-2.496094,5.90625,8.109375,-0.4375,-0.154297,1.085938,0.938538,0.296326,0.156494,0.082947,up
514808,-2.1875,5.636719,7.992187,-0.394531,-0.171875,1.076172,0.938538,0.296326,0.156494,0.082947,up
514813,-1.996094,5.636719,7.914062,-0.394531,-0.171875,1.076172,0.939087,0.293274,0.150757,0.096497,up
514818,-1.804688,5.636719,7.808594,-0.394531,-0.171875,1.076172,0.939087,0.292969,0.149536,0.099365,up
514824,-1.613281,5.5625,7.765625,-0.126953,0.132812,1.078125,0.939087,0.292969,0.149536,0.099365,up
514829,-1.421875,5.40625,7.730469,-0.126953,0.132812,1.078125,0.938538,0.292969,0.147644,0.107178,up
514834,-1.269531,5.253906,7.609375,0.089844,0.414062,1.068359,0.938538,0.292969,0.147644,0.107178,up
514839,-1.269531,5.253906,7.648437,0.224609,0.556641,1.064453,0.938049,0.293396,0.147644,0.110291,up
514844,-1.269531,5.253906,7.648437,0.380859,0.683594,1.044922,0.936768,0.294861,0.148743,0.11554,up
514850,-1.691406,5.332031,7.613281,0.380859,0.683594,1.044922,0.935852,0.296143,0.149841,0.118347,up
514855,-1.804688,5.523437,7.609375,0.679687,0.882812,0.998047,0.935852,0.296143,0.149841,0.118347,up
514861,-1.957031,5.675781,7.570312,0.787109,0.947266,0.960937,0.935852,0.296143,0.149841,0.118347,up
514866,-2.226563,5.828125,7.570312,0.787109,0.947266,0.960937,0.932312,0.301453,0.154663,0.126465,up
514872,-2.226563,5.980469,7.691406,0.882812,0.992187,0.875,0.932312,0.301453,0.154663,0.126465,up
514877,-2.304688,6.097656,7.6875,0.896484,0.982422,0.849609,0.932312,0.301453,0.154663,0.126465,up
514882,-2.304688,6.097656,7.6875,0.892578,0.949219,0.830078,0.928223,0.3078,0.160461,0.133911,up
514887,-2.378906,6.25,7.726562,0.892578,0.949219,0.830078,0.928223,0.3078,0.160461,0.133911,up
514892,-2.457031,6.367187,7.726562,0.871094,0.916016,0.830078,0.925598,0.311829,0.16394,0.138428,up
514897,-2.457031,6.75,7.652344,0.785156,0.822266,0.859375,0.925598,0.311829,0.16394,0.138428,up
514902,-2.417969,7.09375,7.5,0.785156,0.822266,0.859375,0.923035,0.315613,0.166992,0.143127,up
514907,-2.417969,7.207031,7.460937,0.591797,0.71875,0.933594,0.923035,0.315613,0.166992,0.143127,up
514912,-2.339844,7.246094,7.5,0.451172,0.669922,0.964844,0.923035,0.315613,0.166992,0.143127,up
514917,-2.304688,7.285156,7.421875,0.283203,0.621094,0.998047,0.923035,0.315613,0.166992,0.143127,up
514923,-2.226563,7.324219,7.464844,0.283203,0.621094,0.998047,0.918335,0.320679,0.171265,0.156433,up
514928,-2.113281,7.285156,7.460937,0.283203,0.621094,0.998047,0.918335,0.320679,0.171265,0.156433,up
514933,-1.996094,7.167969,7.535156,-0.171875,0.574219,1.150391,0.918335,0.320679,0.171265,0.156433,up
514938,-1.804688,7.015625,7.652344,-0.171875,0.574219,1.150391,0.917114,0.32074,0.171997,0.162598,up
514944,-1.765625,6.902344,7.609375,-0.175781,0.662109,1.246094,0.917114,0.32074,0.171997,0.162598,up
514949,-1.726563,6.785156,7.652344,-0.175781,0.662109,1.246094,0.915894,0.320496,0.172729,0.169189,up
514954,-1.726563,6.671875,7.574219,-0.130859,0.732422,1.277344,0.915894,0.320496,0.172729,0.169189,up
514959,-1.804688,6.519531,7.53125,-0.130859,0.732422,1.277344,0.914246,0.320435,0.17395,0.176697,up
514964,-1.84375,6.402344,7.460937,0.261719,0.927734,1.328125,0.914246,0.320435,0.17395,0.176697,up
514969,-2.113281,6.402344,7.382812,0.261719,0.927734,1.328125,0.912048,0.32135,0.175964,0.184265,up
514974,-2.148438,6.59375,7.464844,0.261719,0.927734,1.328125,0.909363,0.323547,0.178467,0.191101,up
514979,-2.113281,6.75,7.570312,0.261719,0.927734,1.328125,0.909363,0.323547,0.178467,0.191101,up
514984,-2.113281,6.710937,7.535156,0.931641,1.021484,1.302734,0.909363,0.323547,0.178467,0.191101,up
514990,-1.957031,6.976562,7.460937,0.931641,1.021484,1.302734,0.90387,0.329712,0.183472,0.201599,up
514996,-1.882813,7.359375,7.191406,0.931641,1.021484,1.302734,0.902039,0.331909,0.185242,0.204651,up
515001,-1.957031,7.519531,7.113281,1.144531,1.162109,1.275391,0.89978,0.334656,0.187439,0.208191,up
515006,-1.996094,7.589844,7.039062,1.142578,1.210938,1.275391,0.89978,0.334656,0.187439,0.208191,up
515011,-2.265625,7.589844,6.847656,1.142578,1.210938,1.275391,0.89978,0.334656,0.187439,0.208191,up
515017,-2.339844,7.589844,6.808594,1.021484,1.277344,1.261719,0.89978,0.334656,0.187439,0.208191,up
515022,-2.339844,7.589844,6.808594,0.947266,1.28125,1.253906,0.891052,0.343933,0.196472,0.221558,up
515027,-2.339844,7.589844,6.808594,0.867187,1.279297,1.238281,0.888977,0.345886,0.198669,0.224976,up
515032,-2.457031,7.746094,6.769531,0.867187,1.279297,1.238281,0.888977,0.345886,0.198669,0.224976,up
515038,-2.457031,7.820312,6.808594,0.78125,1.251953,1.226563,0.884888,0.349182,0.203003,0.231873,up
515044,-2.378906,7.863281,6.808594,0.652344,1.1875,1.210938,0.881165,0.351868,0.206848,0.238586,up
515050,-2.339844,7.941406,6.730469,0.652344,1.1875,1.210938,0.879089,0.353271,0.208862,0.242432,up
515055,-2.378906,7.941406,6.730469,0.513672,1.060547,1.228516,0.877319,0.354431,0.210449,0.245728,up
515061,-2.417969,7.820312,6.65625,0.513672,1.060547,1.228516,0.875793,0.355408,0.211731,0.248718,up
515066,-2.417969,7.785156,6.65625,0.513672,1.060547,1.228516,0.873962,0.356506,0.213196,0.252258,up
515073,-2.496094,7.820312,6.65625,0.513672,1.060547,1.228516,0.873962,0.356506,0.213196,0.252258,up
515079,-2.417969,7.824219,6.695312,0.339844,0.802734,1.265625,0.873962,0.356506,0.213196,0.252258,up
515084,-2.339844,7.742187,6.730469,0.339844,0.802734,1.265625,0.867615,0.360229,0.217102,0.26532,up
515089,-2.304688,7.746094,6.695312,0.339844,0.802734,1.265625,0.867615,0.360229,0.217102,0.26532,up
515094,-2.265625,7.746094,6.730469,0.261719,0.683594,1.263672,0.867615,0.360229,0.217102,0.26532,up
515099,-2.226563,7.785156,6.65625,0.261719,0.683594,1.263672,0.864441,0.361938,0.218323,0.272095,up
515105,-2.1875,7.785156,6.578125,0.261719,0.683594,1.263672,0.86145,0.363464,0.21936,0.278625,up
515111,-2.113281,7.898437,6.386719,0.261719,0.683594,1.263672,0.860229,0.364075,0.219727,0.281433,up
515117,-2.035156,7.898437,6.3125,0.160156,0.664062,1.212891,0.860229,0.364075,0.219727,0.281433,up
515122,-1.957031,7.863281,6.234375,0.160156,0.664062,1.212891,0.857422,0.365173,0.220581,0.28772,up
515128,-1.917969,7.824219,6.195312,0.078125,0.671875,1.195313,0.857422,0.365173,0.220581,0.28772,up
515134,-1.917969,7.785156,6.234375,0.042969,0.673828,1.197266,0.853516,0.36615,0.22168,0.29718,up
515139,-1.917969,7.785156,6.234375,0.042969,0.673828,1.197266,0.852295,0.366272,0.222046,0.300232,up
515144,-1.917969,7.746094,6.15625,0.042969,0.673828,1.197266,0.852295,0.366272,0.222046,0.300232,up
515149,-1.882813,7.703125,6.195312,-0.046875,0.652344,1.162109,0.849854,0.366394,0.222595,0.306458,up
515154,-1.917969,7.625,6.347656,-0.072266,0.597656,1.132813,0.849854,0.366394,0.222595,0.306458,up
515159,-1.917969,7.628906,6.273437,-0.072266,0.597656,1.132813,0.848694,0.366455,0.222778,0.30957,up
515164,-1.917969,7.628906,6.273437,-0.068359,0.570312,1.123047,0.847595,0.366455,0.2229,0.3125,up
515169,-1.917969,7.625,6.3125,-0.068359,0.570312,1.123047,0.846436,0.366516,0.223022,0.315369,up
515174,-1.917969,7.824219,6.3125,-0.048828,0.503906,1.091797,0.845337,0.366577,0.223083,0.318237,up
515179,-1.882813,7.863281,6.273437,-0.046875,0.480469,1.087891,0.844238,0.366699,0.223083,0.320984,up
515185,-1.882813,7.972656,6.15625,-0.095703,0.451172,1.097656,0.844238,0.366699,0.223083,0.320984,up
515190,-1.84375,8.128906,6.042969,-0.095703,0.451172,1.097656,0.840942,0.366943,0.222717,0.329529,up
515195,-1.804688,8.125,6.003906,-0.095703,0.451172,1.097656,0.840027,0.36676,0.222473,0.332275,up
515200,-1.765625,8.125,6.042969,-0.333984,0.464844,1.111328,0.83905,0.366394,0.222168,0.335266,up
515206,-1.804688,8.085938,6.082031,-0.333984,0.464844,1.111328,0.838257,0.365845,0.221802,0.338074,up
515211,-1.84375,8.007813,6.15625,-0.333984,0.464844,1.111328,0.837463,0.365112,0.221375,0.341125,up
515217,-1.882813,7.78125,6.3125,-0.333984,0.464844,1.111328,0.837463,0.365112,0.221375,0.341125,up
515222,-1.84375,7.667969,6.425781,-0.556641,0.421875,1.09375,0.837463,0.365112,0.221375,0.341125,up
515227,-1.726563,7.558594,6.578125,-0.525391,0.384766,1.082031,0.835388,0.362427,0.219727,0.350037,up
515232,-1.691406,7.554687,6.65625,-0.484375,0.355469,1.068359,0.835388,0.362427,0.219727,0.350037,up
515237,-1.652344,7.628906,6.65625,-0.417969,0.316406,1.072266,0.835388,0.362427,0.219727,0.350037,up
515244,-1.574219,7.664062,6.578125,-0.333984,0.277344,1.085938,0.835388,0.362427,0.219727,0.350037,up
515250,-1.535156,7.746094,6.578125,-0.191406,0.244141,1.091797,0.835388,0.362427,0.219727,0.350037,up
515255,-1.460938,7.785156,6.578125,-0.191406,0.244141,1.091797,0.830322,0.360229,0.215576,0.366455,up
515260,-1.460938,7.78125,6.503906,-0.095703,0.212891,1.121094,0.830322,0.360229,0.215576,0.366455,up
515265,-1.308594,7.824219,6.464844,-0.095703,0.212891,1.121094,0.828308,0.360657,0.214294,0.37146,up
515270,-1.308594,7.824219,6.464844,-0.083984,0.220703,1.126953,0.828308,0.360657,0.214294,0.37146,up
515275,-1.308594,7.824219,6.464844,-0.083984,0.220703,1.126953,0.82605,0.361084,0.212891,0.37677,up
515281,-1.269531,7.859375,6.464844,-0.083984,0.220703,1.126953,0.825012,0.361267,0.21228,0.37915,up
515286,-1.191406,7.742187,6.578125,-0.083984,0.220703,1.126953,0.823975,0.361328,0.211609,0.381775,up
515291,-1.191406,7.664062,6.617187,-0.197266,0.242187,1.107422,0.823975,0.361328,0.211609,0.381775,up
515296,-1.152344,7.664062,6.695312,-0.224609,0.236328,1.099609,0.823975,0.361328,0.211609,0.381775,up
515301,-1.152344,7.664062,6.730469,-0.224609,0.236328,1.099609,0.820984,0.361145,0.209473,0.389526,up
515306,-1.078125,7.558594,6.769531,-0.224609,0.236328,1.099609,0.820007,0.361023,0.20874,0.39209,up
515311,-1.039063,7.558594,6.808594,-0.210937,0.220703,1.052734,0.820007,0.361023,0.20874,0.39209,up
515316,-1.039063,7.519531,6.808594,-0.210937,0.220703,1.052734,0.817993,0.36084,0.207214,0.397217,up
515321,-1.0,7.515625,6.730469,-0.210937,0.220703,1.052734,0.817078,0.36084,0.206604,0.399353,up
515326,-1.0,7.515625,6.730469,-0.099609,0.1875,1.023438,0.817078,0.36084,0.206604,0.399353,up
515331,-1.0,7.515625,6.730469,-0.099609,0.1875,1.023438,0.81604,0.360901,0.205933,0.401733,up
515336,-0.847656,7.628906,6.730469,-0.064453,0.175781,1.017578,0.815002,0.361084,0.205322,0.403992,up
515341,-0.847656,7.628906,6.730469,-0.064453,0.175781,1.017578,0.815002,0.361084,0.205322,0.403992,up
515346,-0.65625,7.746094,6.65625,-0.03125,0.158203,1.021484,0.812805,0.361633,0.203979,0.408569,up
515351,-0.65625,7.820312,6.617187,-0.035156,0.150391,1.035156,0.812805,0.361633,0.203979,0.408569,up
515356,-0.65625,7.863281,6.578125,-0.035156,0.150391,1.035156,0.812805,0.361633,0.203979,0.408569,up
515361,-0.617187,7.863281,6.539062,-0.0625,0.140625,1.044922,0.812805,0.361633,0.203979,0.408569,up
515366,-0.578125,7.785156,6.578125,-0.095703,0.146484,1.052734,0.807312,0.363037,0.2005,0.419861,up
515371,-0.539062,7.78125,6.503906,-0.095703,0.146484,1.052734,0.806152,0.363281,0.199646,0.422302,up
515377,-0.464844,7.742187,6.578125,-0.095703,0.146484,1.052734,0.805176,0.363403,0.198853,0.424438,up
515382,-0.464844,7.703125,6.65625,-0.138672,0.125,1.0625,0.804077,0.363525,0.197998,0.426819,up
515387,-0.464844,7.703125,6.65625,-0.140625,0.119141,1.064453,0.804077,0.363525,0.197998,0.426819,up
515392,-0.425781,7.707031,6.617187,-0.140625,0.119141,1.064453,0.804077,0.363525,0.197998,0.426819,up
515397,-0.386719,7.703125,6.578125,-0.140625,0.103516,1.048828,0.804077,0.363525,0.197998,0.426819,up
515403,-0.347656,7.667969,6.695312,-0.136719,0.105469,1.044922,0.804077,0.363525,0.197998,0.426819,up
515408,-0.273438,7.664062,6.695312,-0.136719,0.105469,1.044922,0.798645,0.364197,0.19342,0.438354,up
515413,-0.3125,7.585937,6.617187,-0.136719,0.105469,1.044922,0.798645,0.364197,0.19342,0.438354,up
515418,-0.234375,7.558594,6.578125,-0.136719,0.105469,1.044922,0.796631,0.36438,0.191711,0.442566,up
515424,-0.195312,7.554687,6.578125,-0.119141,0.111328,1.003906,0.796631,0.36438,0.191711,0.442566,up
515429,-0.15625,7.519531,6.65625,-0.117188,0.113281,1.001953,0.793457,0.364807,0.18927,0.448914,up
515434,-0.15625,7.585937,6.730469,-0.117188,0.113281,1.001953,0.793457,0.364807,0.18927,0.448914,up
515440,-0.121094,7.589844,6.730469,-0.064453,0.132812,0.986328,0.793457,0.364807,0.18927,0.448914,up
515445,-0.082031,7.589844,6.730469,-0.064453,0.132812,0.986328,0.790161,0.365295,0.187012,0.4552,up
515450,-0.121094,7.585937,6.769531,-0.013672,0.142578,0.978516,0.790161,0.365295,0.187012,0.4552,up
515455,-0.121094,7.554687,6.769531,-0.013672,0.142578,0.978516,0.788879,0.365601,0.186218,0.45752,up
515460,-0.121094,7.515625,6.808594,0.087891,0.152344,0.980469,0.788879,0.365601,0.186218,0.45752,up
515465,-0.121094,7.558594,6.847656,0.087891,0.152344,0.980469,0.785217,0.366821,0.184692,0.46344,up
515470,-0.082031,7.519531,6.847656,0.087891,0.152344,0.980469,0.785217,0.366821,0.184692,0.46344,up
515475,-0.042969,7.476562,6.847656,0.199219,0.164062,1.013672,0.785217,0.366821,0.184692,0.46344,up
515480,0.035156,7.480469,6.847656,0.199219,0.164062,1.013672,0.780945,0.368713,0.183411,0.469543,up
515485,0.070312,7.402344,6.808594,0.199219,0.164062,1.013672,0.77948,0.369446,0.183044,0.471558,up
515490,0.1875,7.359375,6.730469,0.199219,0.164062,1.013672,0.77948,0.369446,0.183044,0.471558,up
515495,0.261719,7.359375,6.695312,0.236328,0.167969,1.048828,0.77948,0.369446,0.183044,0.471558,up
515500,0.417969,7.363281,6.617187,0.236328,0.167969,1.048828,0.776428,0.370972,0.182251,0.475708,up
515505,0.457031,7.320312,6.539062,0.248047,0.167969,1.056641,0.773376,0.372498,0.181519,0.479797,up
515510,0.492187,7.28125,6.539062,0.285156,0.185547,1.044922,0.773376,0.372498,0.181519,0.479797,up
515515,0.53125,7.476562,6.503906,0.285156,0.185547,1.044922,0.771606,0.373352,0.181213,0.482056,up
515520,0.53125,7.476562,6.503906,0.285156,0.185547,1.044922,0.768494,0.375,0.180786,0.485962,up
515525,0.53125,7.476562,6.503906,0.285156,0.185547,1.044922,0.768494,0.375,0.180786,0.485962,up
515530,0.53125,7.519531,6.503906,0.402344,0.246094,1.033203,0.768494,0.375,0.180786,0.485962,up
515535,0.53125,7.519531,6.503906,0.462891,0.273438,1.037109,0.764954,0.376953,0.180725,0.48999,up
515540,0.457031,7.628906,6.539062,0.462891,0.273438,1.037109,0.764954,0.376953,0.180725,0.48999,up
515545,0.457031,7.628906,6.539062,0.589844,0.345703,1.050781,0.76123,0.379089,0.181213,0.494019,up
515550,0.492187,7.78125,6.539062,0.632812,0.380859,1.052734,0.757019,0.381531,0.18219,0.498169,up
515555,0.457031,7.703125,6.347656,0.632812,0.380859,1.052734,0.757019,0.381531,0.18219,0.498169,up
515560,0.492187,7.785156,6.347656,0.796875,0.480469,1.099609,0.754517,0.382996,0.182983,0.500549,up
515565,0.457031,7.820312,6.273437,0.796875,0.480469,1.099609,0.752502,0.384216,0.183655,0.502441,up
515570,0.53125,8.085938,6.3125,0.863281,0.507812,1.111328,0.752502,0.384216,0.183655,0.502441,up
515575,0.683594,8.128906,6.15625,0.863281,0.507812,1.111328,0.747437,0.387329,0.185608,0.506836,up
515580,0.761719,8.085938,5.890625,0.957031,0.525391,1.128906,0.747437,0.387329,0.185608,0.506836,up
515586,0.648437,8.089844,5.699219,0.943359,0.566406,1.128906,0.747437,0.387329,0.185608,0.506836,up
515592,0.683594,8.207031,5.925781,0.943359,0.566406,1.128906,0.737183,0.393494,0.190002,0.515381,up
515598,0.839844,8.207031,6.195312,0.902344,0.609375,1.126953,0.737183,0.393494,0.190002,0.515381,up
515603,0.914062,8.324219,5.851562,0.902344,0.609375,1.123047,0.731873,0.396423,0.192322,0.519836,up
515608,0.683594,8.246094,5.699219,0.867187,0.644531,1.119141,0.731873,0.396423,0.192322,0.519836,up
515614,0.800781,8.246094,5.773437,0.867187,0.644531,1.119141,0.726746,0.398987,0.19458,0.524231,up
515620,0.914062,8.242188,5.8125,0.673828,0.582031,1.117188,0.726746,0.398987,0.19458,0.524231,up
515625,0.875,8.167969,5.773437,0.607422,0.554687,1.115234,0.721619,0.401245,0.196472,0.528809,up
515630,0.914062,8.128906,5.773437,0.607422,0.554687,1.115234,0.719299,0.402161,0.197205,0.531006,up
515635,0.914062,7.972656,5.851562,0.527344,0.496094,1.134766,0.719299,0.402161,0.197205,0.531006,up
515640,0.953125,8.046875,5.890625,0.527344,0.496094,1.134766,0.714478,0.404053,0.198303,0.535645,up
515645,0.992187,8.011719,5.925781,0.527344,0.496094,1.134766,0.710083,0.405762,0.198975,0.539978,up
515650,1.183594,8.125,5.964844,0.527344,0.496094,1.134766,0.710083,0.405762,0.198975,0.539978,up
515655,1.257813,8.089844,5.890625,0.544922,0.378906,1.203125,0.710083,0.405762,0.198975,0.539978,up
515660,1.296875,8.164063,5.734375,0.544922,0.378906,1.203125,0.705444,0.407776,0.199402,0.544312,up
515665,1.335938,8.242188,5.582031,0.548828,0.361328,1.228516,0.705444,0.407776,0.199402,0.544312,up
515670,1.335938,8.242188,5.582031,0.544922,0.361328,1.246094,0.700623,0.409973,0.199646,0.548828,up
515675,1.375,8.28125,5.542969,0.544922,0.361328,1.246094,0.698181,0.411011,0.199707,0.551086,up
515680,1.375,8.28125,5.542969,0.488281,0.369141,1.271484,0.695801,0.411987,0.199707,0.553406,up
515685,1.414063,8.320313,5.390625,0.488281,0.369141,1.271484,0.695801,0.411987,0.199707,0.553406,up
515690,1.453125,8.324219,5.351562,0.320313,0.412109,1.273438,0.695801,0.411987,0.199707,0.553406,up
515695,1.527344,8.167969,5.316406,0.320313,0.412109,1.273438,0.688538,0.41449,0.199463,0.560669,up
515700,1.566406,8.089844,5.351562,0.320313,0.412109,1.273438,0.686096,0.4151,0.199219,0.563293,up
515705,1.644531,8.011719,5.390625,0.320313,0.412109,1.273438,0.684082,0.415405,0.198914,0.565613,up
515711,1.679688,7.96875,5.351562,0.048828,0.449219,1.244141,0.679932,0.415588,0.197937,0.57074,up
515716,1.71875,7.859375,5.429687,0.048828,0.449219,1.244141,0.678101,0.415466,0.197266,0.573242,up
515721,1.757813,7.78125,5.429687,-0.171875,0.451172,1.189453,0.676392,0.415222,0.196594,0.575684,up
515726,1.757813,7.707031,5.46875,-0.210937,0.435547,1.162109,0.676392,0.415222,0.196594,0.575684,up
515731,1.796875,7.664062,5.582031,-0.210937,0.435547,1.162109,0.672913,0.414368,0.194946,0.580933,up
515736,1.796875,7.625,5.621094,-0.210937,0.435547,1.162109,0.671509,0.414001,0.194214,0.58313,up
515741,1.796875,7.628906,5.699219,-0.210937,0.435547,1.162109,0.671509,0.414001,0.194214,0.58313,up
515746,1.796875,7.589844,5.699219,-0.179687,0.388672,1.105469,0.671509,0.414001,0.194214,0.58313,up
515751,1.871094,7.585937,5.773437,-0.179687,0.388672,1.105469,0.666565,0.412903,0.191772,0.590271,up
515756,1.871094,7.625,5.773437,-0.179687,0.388672,1.105469,0.6651,0.412659,0.191101,0.592346,up
515761,1.871094,7.667969,5.8125,-0.128906,0.392578,1.107422,0.6651,0.412659,0.191101,0.592346,up
515766,1.835938,7.742187,5.773437,-0.128906,0.392578,1.107422,0.66156,0.412048,0.189575,0.597168,up
515771,1.910156,7.742187,5.773437,-0.128906,0.392578,1.107422,0.660095,0.411804,0.188965,0.599182,up
515776,2.027344,7.707031,5.8125,-0.167969,0.433594,1.125,0.658203,0.411377,0.188171,0.601746,up
515782,2.027344,7.625,5.699219,-0.167969,0.433594,1.125,0.656677,0.411011,0.1875,0.603882,up
515787,2.027344,7.625,5.734375,-0.216797,0.480469,1.117188,0.655029,0.410522,0.186768,0.606262,up
515792,2.101563,7.554687,5.699219,-0.216797,0.480469,1.117188,0.65332,0.409912,0.186035,0.608704,up
515797,2.101563,7.480469,5.734375,-0.283203,0.537109,1.107422,0.65332,0.409912,0.186035,0.608704,up
515802,2.179688,7.4375,5.734375,-0.304688,0.550781,1.091797,0.65332,0.409912,0.186035,0.608704,up
515807,2.21875,7.359375,5.699219,-0.304688,0.550781,1.091797,0.648499,0.407593,0.183899,0.616028,up
515813,2.21875,7.203125,5.734375,-0.304688,0.550781,1.091797,0.646973,0.406616,0.183228,0.618408,up
515818,2.21875,7.136719,5.734375,-0.361328,0.597656,1.041016,0.645447,0.40564,0.182556,0.620911,up
515823,2.21875,7.136719,5.734375,-0.353516,0.597656,1.023438,0.643982,0.404602,0.181885,0.623291,up
515828,2.292969,7.09375,5.851562,-0.353516,0.597656,1.023438,0.643982,0.404602,0.181885,0.623291,up
515833,2.292969,7.09375,5.851562,-0.318359,0.591797,0.96875,0.640991,0.402588,0.180664,0.627991,up
515838,2.292969,7.097656,5.925781,-0.318359,0.591797,0.96875,0.640991,0.402588,0.180664,0.627991,up
515844,2.292969,7.097656,5.925781,-0.273438,0.5625,0.951172,0.638062,0.400696,0.179626,0.632507,up
515849,2.371094,7.132812,6.042969,-0.273438,0.5625,0.951172,0.638062,0.400696,0.179626,0.632507,up
515854,2.371094,7.132812,6.082031,-0.226562,0.554687,0.943359,0.638062,0.400696,0.179626,0.632507,up
515860,2.410156,7.132812,6.082031,-0.208984,0.558594,0.9375,0.638062,0.400696,0.179626,0.632507,up
515865,2.445313,7.058594,6.121094,-0.208984,0.558594,0.9375,0.638062,0.400696,0.179626,0.632507,up
515870,2.445313,7.058594,6.121094,-0.1875,0.576172,0.943359,0.638062,0.400696,0.179626,0.632507,up
515876,2.523438,7.09375,6.15625,-0.167969,0.597656,0.945312,0.638062,0.400696,0.179626,0.632507,up
515881,2.675781,7.097656,6.121094,-0.167969,0.597656,0.945312,0.627502,0.39502,0.176819,0.647278,up
515886,2.640625,7.097656,6.042969,-0.175781,0.611328,0.9375,0.624268,0.393372,0.17627,0.651489,up
515891,2.675781,7.097656,6.042969,-0.162109,0.642578,0.941406,0.624268,0.393372,0.17627,0.651489,up
515896,2.675781,7.136719,6.121094,-0.162109,0.642578,0.941406,0.622559,0.392456,0.176086,0.653748,up
515901,2.714844,7.09375,6.082031,-0.162109,0.642578,0.941406,0.619385,0.390686,0.17572,0.657959,up
515906,2.675781,7.136719,6.042969,-0.144531,0.705078,0.943359,0.619385,0.390686,0.17572,0.657959,up
515911,2.675781,7.054687,6.121094,-0.144531,0.705078,0.943359,0.617737,0.389709,0.175598,0.660095,up
515916,2.601563,6.898437,6.234375,-0.15625,0.732422,0.939453,0.617737,0.389709,0.175598,0.660095,up
515921,2.484375,6.859375,6.3125,-0.144531,0.740234,0.953125,0.614319,0.387695,0.175415,0.66449,up
515926,2.445313,6.863281,6.386719,-0.144531,0.740234,0.953125,0.610901,0.385681,0.175293,0.668823,up
515931,2.445313,6.820312,6.464844,-0.144531,0.740234,0.953125,0.609131,0.384644,0.175232,0.671021,up
515936,2.445313,6.78125,6.578125,-0.144531,0.740234,0.953125,0.607178,0.383606,0.175232,0.673401,up
515941,2.484375,6.820312,6.65625,-0.144531,0.740234,0.953125,0.607178,0.383606,0.175232,0.673401,up
515946,2.484375,6.824219,6.695312,-0.054687,0.701172,0.949219,0.607178,0.383606,0.175232,0.673401,up
515952,2.5625,6.824219,6.617187,-0.054687,0.701172,0.949219,0.601868,0.381165,0.175293,0.679504,up
515957,2.5625,6.898437,6.578125,-0.027344,0.695312,0.941406,0.599854,0.380249,0.175354,0.681763,up
515962,2.675781,6.820312,6.578125,-0.027344,0.695312,0.941406,0.598267,0.379578,0.175415,0.683533,up
515968,2.714844,6.824219,6.539062,-0.021484,0.693359,0.935547,0.596375,0.378784,0.175476,0.685608,up
515973,2.753906,6.714844,6.539062,-0.021484,0.693359,0.935547,0.594543,0.377991,0.175537,0.687622,up
515978,2.753906,6.675781,6.503906,-0.052734,0.685547,0.9375,0.594543,0.377991,0.175537,0.687622,up
515983,2.753906,6.675781,6.503906,-0.064453,0.671875,0.939453,0.590881,0.376343,0.175598,0.691711,up
515988,2.753906,6.632812,6.464844,-0.064453,0.671875,0.939453,0.590881,0.376343,0.175598,0.691711,up
515994,2.753906,6.632812,6.464844,-0.09375,0.664062,0.929687,0.58728,0.374634,0.175415,0.695679,up
516000,2.675781,6.519531,6.578125,-0.09375,0.664062,0.929687,0.58551,0.373779,0.175293,0.697693,up
516005,2.675781,6.59375,6.578125,-0.09375,0.664062,0.929687,0.58551,0.373779,0.175293,0.697693,up
516010,2.675781,6.632812,6.65625,-0.09375,0.664062,0.929687,0.582031,0.372192,0.174988,0.701538,up
516016,2.675781,6.632812,6.65625,-0.046875,0.583984,0.910156,0.582031,0.372192,0.174988,0.701538,up
516021,2.640625,6.632812,6.65625,-0.046875,0.583984,0.910156,0.576599,0.369995,0.174561,0.707214,up
516026,2.601563,6.59375,6.660156,-0.046875,0.583984,0.910156,0.57489,0.369446,0.1745,0.708923,up
516031,2.601563,6.59375,6.695312,-0.046875,0.583984,0.910156,0.57489,0.369446,0.1745,0.708923,up
516036,2.601563,6.59375,6.730469,0.015625,0.517578,0.931641,0.57489,0.369446,0.1745,0.708923,up
516041,2.601563,6.632812,6.730469,0.015625,0.517578,0.931641,0.571167,0.368347,0.174377,0.712524,up
516046,2.714844,6.558594,6.582031,-0.009766,0.509766,0.929687,0.567505,0.36731,0.174011,0.716064,up
516051,2.714844,6.597656,6.539062,-0.009766,0.509766,0.929687,0.567505,0.36731,0.174011,0.716064,up
516056,2.753906,6.597656,6.578125,-0.126953,0.496094,0.921875,0.567505,0.36731,0.174011,0.716064,up
516061,2.867188,6.519531,6.617187,-0.126953,0.496094,0.921875,0.563965,0.36615,0.173401,0.719543,up
516067,2.90625,6.480469,6.730469,-0.191406,0.474609,0.894531,0.563965,0.36615,0.173401,0.719543,up
516072,2.867188,6.480469,6.730469,-0.191406,0.474609,0.894531,0.558899,0.363892,0.171814,0.725037,up
516078,2.945313,6.402344,6.695312,-0.191406,0.474609,0.894531,0.557617,0.363281,0.171326,0.72644,up
516083,2.867188,6.289062,6.726562,-0.191406,0.474609,0.894531,0.556152,0.362427,0.170593,0.72821,up
516088,2.867188,6.25,6.808594,-0.310547,0.443359,0.847656,0.556152,0.362427,0.170593,0.72821,up
516094,2.867188,6.175781,6.882812,-0.322266,0.425781,0.853516,0.556152,0.362427,0.170593,0.72821,up
516099,2.90625,6.097656,6.964844,-0.322266,0.425781,0.853516,0.556152,0.362427,0.170593,0.72821,up
516105,2.90625,5.980469,7.003906,-0.335938,0.404297,0.859375,0.556152,0.362427,0.170593,0.72821,up
516111,2.945313,5.945312,7.039062,-0.341797,0.392578,0.863281,0.547791,0.357422,0.16571,0.738098,up
516117,2.984375,5.867187,7.113281,-0.341797,0.392578,0.863281,0.546326,0.356628,0.164734,0.739746,up
516122,3.023438,5.828125,7.113281,-0.320313,0.355469,0.849609,0.544983,0.355896,0.163879,0.741272,up
516127,3.023438,5.828125,7.039062,-0.308594,0.341797,0.845703,0.543518,0.355103,0.162903,0.74292,up
516133,2.984375,5.867187,7.039062,-0.308594,0.341797,0.845703,0.542236,0.354553,0.162109,0.744324,up
516138,2.90625,5.789062,7.0,-0.273438,0.296875,0.833984,0.542236,0.354553,0.162109,0.744324,up
516143,2.867188,5.867187,6.960937,-0.265625,0.277344,0.830078,0.53949,0.353394,0.160339,0.747253,up
516148,2.832031,5.828125,6.921875,-0.265625,0.277344,0.830078,0.537903,0.352844,0.159363,0.74884,up
516154,2.675781,5.867187,7.0,-0.265625,0.277344,0.830078,0.537903,0.352844,0.159363,0.74884,up
516160,2.714844,5.945312,7.0,-0.255859,0.189453,0.833984,0.537903,0.352844,0.159363,0.74884,up
516166,2.714844,5.945312,7.0,-0.283203,0.169922,0.837891,0.533997,0.351685,0.156555,0.752747,up
516171,2.714844,5.945312,7.0,-0.341797,0.148437,0.837891,0.532715,0.351318,0.155396,0.754089,up
516176,2.675781,6.136719,6.765625,-0.341797,0.148437,0.837891,0.532715,0.351318,0.155396,0.754089,up
516181,2.640625,6.175781,6.769531,-0.414062,0.125,0.839844,0.532715,0.351318,0.155396,0.754089,up
516186,2.753906,6.175781,6.886719,-0.533203,0.033203,0.847656,0.532715,0.351318,0.155396,0.754089,up
516191,2.792969,6.210937,6.886719,-0.533203,0.033203,0.847656,0.528076,0.349548,0.149231,0.759399,up
516196,2.792969,6.210937,6.847656,-0.677734,-0.105469,0.857422,0.528076,0.349548,0.149231,0.759399,up
516201,2.90625,6.210937,6.84375,-0.677734,-0.105469,0.857422,0.526001,0.348755,0.145081,0.761963,up
516207,3.023438,6.175781,6.882812,-0.677734,-0.105469,0.857422,0.524231,0.348083,0.140442,0.764404,up
516212,3.097656,6.058594,6.847656,-0.787109,-0.230469,0.890625,0.524231,0.348083,0.140442,0.764404,up
516217,3.175781,5.980469,6.804687,-0.787109,-0.230469,0.890625,0.522339,0.347534,0.134949,0.766907,up
516222,3.289063,5.789062,6.84375,-0.787109,-0.230469,0.890625,0.521545,0.347412,0.132507,0.767944,up
516227,3.367188,5.675781,6.925781,-0.787109,-0.230469,0.890625,0.520508,0.347412,0.129761,0.769104,up
516232,3.480469,5.597656,7.078125,-0.705078,-0.349609,0.984375,0.520508,0.347412,0.129761,0.769104,up
516237,3.519531,5.523437,7.113281,-0.654297,-0.367188,0.998047,0.519409,0.347412,0.126831,0.770325,up
516242,3.75,5.332031,7.148437,-0.654297,-0.367188,0.998047,0.517151,0.347717,0.121765,0.772522,up
516247,3.863281,5.292969,7.230469,-0.654297,-0.367188,0.998047,0.515869,0.347961,0.119202,0.773682,up
516252,3.980469,5.253906,7.269531,-0.535156,-0.316406,1.007813,0.515869,0.347961,0.119202,0.773682,up
516257,4.132812,5.140625,7.308594,-0.507812,-0.28125,0.988281,0.514465,0.348206,0.116638,0.774902,up
516262,4.246094,5.101562,7.265625,-0.507812,-0.28125,0.988281,0.511902,0.348572,0.112305,0.777039,up
516267,4.324219,5.101562,7.226562,-0.507812,-0.28125,0.988281,0.511902,0.348572,0.112305,0.777039,up
516272,4.402344,5.0625,7.230469,-0.470703,-0.195312,0.96875,0.509155,0.348694,0.108032,0.779419,up
516277,4.476562,4.871094,7.148437,-0.470703,-0.195312,0.96875,0.507874,0.348572,0.10614,0.780579,up
516282,4.515625,4.792969,7.226562,-0.470703,-0.195312,0.96875,0.506653,0.348328,0.104309,0.781738,up
516287,4.554687,4.71875,7.269531,-0.470703,-0.195312,0.96875,0.506653,0.348328,0.104309,0.781738,up
516292,4.554687,4.679687,7.386719,-0.451172,-0.017578,0.904297,0.506653,0.348328,0.104309,0.781738,up
516298,4.554687,4.679687,7.386719,-0.402344,-0.007813,0.902344,0.502747,0.347473,0.09906,0.785278,up
516303,4.59375,4.375,7.53125,-0.402344,-0.007813,0.902344,0.501404,0.34729,0.097534,0.786438,up
516308,4.554687,4.410156,7.570312,-0.238281,0.017578,0.912109,0.499939,0.347107,0.09613,0.787598,up
516313,4.59375,4.449219,7.613281,-0.238281,0.017578,0.912109,0.49823,0.347107,0.094849,0.788879,up
516319,4.628906,4.527344,7.574219,-0.238281,0.017578,0.912109,0.496704,0.347107,0.093933,0.789917,up
516324,4.667969,4.566406,7.535156,0.023437,0.048828,0.933594,0.494934,0.34729,0.09314,0.791016,up
516330,4.707031,4.566406,7.535156,0.078125,0.060547,0.939453,0.494934,0.34729,0.09314,0.791016,up
516336,4.746094,4.566406,7.5,0.078125,0.060547,0.939453,0.494934,0.34729,0.09314,0.791016,up
516342,4.785156,4.566406,7.5,0.167969,0.087891,0.919922,0.494934,0.34729,0.09314,0.791016,up
516347,4.785156,4.566406,7.5,0.189453,0.09375,0.90625,0.487366,0.348145,0.091125,0.795593,up
516352,4.820312,4.601562,7.464844,0.195312,0.099609,0.886719,0.485474,0.34845,0.09082,0.796631,up
516357,4.820312,4.601562,7.464844,0.195312,0.099609,0.886719,0.485474,0.34845,0.09082,0.796631,up
516362,4.820312,4.601562,7.464844,0.199219,0.105469,0.876953,0.481689,0.348877,0.090271,0.798828,up
516367,4.820312,4.601562,7.464844,0.130859,0.087891,0.84375,0.479919,0.34906,0.089905,0.799805,up
516372,4.746094,4.527344,7.503906,0.130859,0.087891,0.84375,0.47644,0.349365,0.088989,0.80188,up
516377,4.746094,4.449219,7.535156,0.130859,0.087891,0.84375,0.47644,0.349365,0.088989,0.80188,up
516382,4.667969,4.449219,7.570312,0.130859,0.087891,0.84375,0.473206,0.349548,0.087769,0.803833,up
516387,4.667969,4.410156,7.648437,0.130859,0.087891,0.84375,0.47168,0.349609,0.087097,0.80481,up
516392,4.707031,4.335937,7.804687,0.130859,0.087891,0.84375,0.47168,0.349609,0.087097,0.80481,up
516397,4.746094,4.257812,7.804687,-0.015625,0.019531,0.798828,0.47168,0.349609,0.087097,0.80481,up
516402,4.785156,4.21875,7.765625,0.017578,-0.035156,0.783203,0.47168,0.349609,0.087097,0.80481,up
516407,4.859375,4.183594,7.726562,0.017578,-0.035156,0.783203,0.465637,0.350403,0.084229,0.808289,up
516412,4.898437,4.066406,7.730469,0.017578,-0.035156,0.783203,0.465637,0.350403,0.084229,0.808289,up
516417,4.859375,4.105469,7.691406,0.169922,-0.148437,0.761719,0.465637,0.350403,0.084229,0.808289,up
516422,4.859375,4.105469,7.609375,0.169922,-0.148437,0.761719,0.460876,0.352234,0.08252,0.810364,up
516427,4.898437,4.066406,7.574219,0.169922,-0.148437,0.761719,0.460876,0.352234,0.08252,0.810364,up
516432,4.9375,4.066406,7.570312,0.359375,-0.265625,0.753906,0.460876,0.352234,0.08252,0.810364,up
516437,5.050781,4.183594,7.570312,0.359375,-0.265625,0.753906,0.457397,0.354309,0.081787,0.811523,up
516442,5.050781,4.257812,7.535156,0.359375,-0.265625,0.753906,0.455688,0.355469,0.081604,0.812012,up
516448,5.128906,4.296875,7.5,0.460937,-0.326172,0.728516,0.455688,0.355469,0.081604,0.812012,up
516453,5.167969,4.296875,7.570312,0.460937,-0.326172,0.728516,0.450378,0.359497,0.081177,0.813232,up
516459,5.242187,4.296875,7.421875,0.460937,-0.326172,0.728516,0.448914,0.360657,0.081055,0.813538,up
516464,5.242187,4.296875,7.421875,0.435547,-0.384766,0.716797,0.44696,0.362244,0.080811,0.813904,up
516469,5.167969,4.21875,7.265625,0.435547,-0.384766,0.716797,0.445496,0.363525,0.080566,0.814209,up
516476,5.207031,4.21875,7.230469,0.355469,-0.402344,0.742187,0.445496,0.363525,0.080566,0.814209,up
516481,5.167969,4.257812,7.304687,0.355469,-0.402344,0.742187,0.442139,0.366272,0.079712,0.81488,up
516486,5.167969,4.257812,7.464844,0.283203,-0.472656,0.767578,0.442139,0.366272,0.079712,0.81488,up
516492,5.128906,4.257812,7.574219,0.318359,-0.558594,0.808594,0.442139,0.366272,0.079712,0.81488,up
516497,5.242187,4.144531,7.5,0.326172,-0.597656,0.830078,0.437134,0.370728,0.077637,0.815735,up
516502,5.28125,4.105469,7.503906,0.326172,-0.597656,0.830078,0.435181,0.37262,0.076782,0.81604,up
516507,5.359375,4.105469,7.421875,0.441406,-0.658203,0.869141,0.435181,0.37262,0.076782,0.81604,up
516512,5.398437,4.105469,7.230469,0.441406,-0.658203,0.869141,0.431396,0.376343,0.075317,0.816467,up
516517,5.433594,4.144531,7.226562,0.552734,-0.716797,0.904297,0.429443,0.378357,0.074707,0.816589,up
516522,5.472656,4.105469,7.113281,0.552734,-0.716797,0.904297,0.427246,0.380554,0.074158,0.816772,up
516528,5.511719,4.144531,6.847656,0.603516,-0.724609,0.908203,0.427246,0.380554,0.074158,0.816772,up
516534,5.511719,4.183594,6.621094,0.603516,-0.724609,0.908203,0.420776,0.387329,0.072815,0.817078,up
516539,5.472656,4.21875,6.660156,0.630859,-0.761719,0.902344,0.420776,0.387329,0.072815,0.817078,up
516544,5.472656,4.183594,6.695312,0.640625,-0.802734,0.894531,0.41626,0.392151,0.072021,0.817139,up
516549,5.511719,4.144531,6.730469,0.640625,-0.802734,0.894531,0.41394,0.394836,0.071533,0.817139,up
516554,5.589844,3.953125,6.660156,0.640625,-0.802734,0.894531,0.41394,0.394836,0.071533,0.817139,up
516560,5.625,3.953125,6.578125,0.634766,-0.84375,0.871094,0.41394,0.394836,0.071533,0.817139,up
516565,5.625,3.953125,6.578125,0.634766,-0.851562,0.867187,0.407532,0.402283,0.070129,0.816833,up
516570,5.742187,3.835938,6.65625,0.634766,-0.851562,0.867187,0.407532,0.402283,0.070129,0.816833,up
516575,5.742187,3.835938,6.65625,0.666016,-0.876953,0.886719,0.402954,0.407471,0.069214,0.816589,up
516580,5.742187,3.835938,6.925781,0.666016,-0.876953,0.886719,0.400696,0.410095,0.068787,0.816406,up
516585,5.742187,3.835938,6.925781,0.748047,-0.884766,0.892578,0.398315,0.41272,0.06842,0.816284,up
516590,5.816406,3.761719,6.726562,0.748047,-0.884766,0.892578,0.395874,0.415527,0.068176,0.816101,up
516596,5.816406,3.800781,6.582031,0.855469,-0.873047,0.916016,0.395874,0.415527,0.068176,0.816101,up
516601,5.816406,3.835938,6.421875,0.912109,-0.871094,0.941406,0.395874,0.415527,0.068176,0.816101,up
516607,5.855469,3.800781,6.121094,0.912109,-0.871094,0.941406,0.385315,0.426819,0.068176,0.815308,up
516612,5.972656,3.835938,5.964844,0.912109,-0.871094,0.941406,0.385315,0.426819,0.068176,0.815308,up
516617,6.046875,3.914063,5.8125,1.181641,-0.837891,0.966797,0.385315,0.426819,0.068176,0.815308,up
516622,6.125,4.105469,5.507812,1.181641,-0.837891,0.966797,0.379456,0.4328,0.068909,0.814819,up
516628,6.085937,4.21875,5.390625,1.279297,-0.800781,0.929687,0.379456,0.4328,0.068909,0.814819,up
516633,6.128906,4.257812,5.277344,1.279297,-0.800781,0.929687,0.369812,0.442261,0.071228,0.813965,up
516638,6.128906,4.257812,5.277344,1.279297,-0.800781,0.929687,0.367188,0.444885,0.072021,0.81366,up
516643,6.125,4.257812,5.390625,1.294922,-0.835937,0.830078,0.367188,0.444885,0.072021,0.81366,up
516648,6.125,4.21875,5.390625,1.294922,-0.835937,0.830078,0.36145,0.450867,0.073792,0.812805,up
516653,6.164062,4.183594,5.429687,1.285156,-0.875,0.755859,0.36145,0.450867,0.073792,0.812805,up
516658,6.046875,4.21875,5.351562,1.285156,-0.875,0.755859,0.355652,0.457275,0.075745,0.811584,up
516663,5.96875,4.066406,5.277344,1.285156,-0.875,0.755859,0.355652,0.457275,0.075745,0.811584,up
516668,6.007812,3.953125,5.199219,1.212891,-0.980469,0.714844,0.350586,0.463379,0.077332,0.810181,up
516673,6.203125,3.761719,5.085937,1.212891,-0.980469,0.714844,0.347717,0.466919,0.078125,0.809326,up
516678,6.3125,3.761719,4.96875,1.212891,-0.980469,0.714844,0.345337,0.46991,0.078796,0.808533,up
516683,6.355469,3.835938,4.777344,1.294922,-0.990234,0.738281,0.34259,0.473267,0.079651,0.807678,up
516688,6.355469,3.835938,4.777344,1.294922,-0.990234,0.738281,0.34259,0.473267,0.079651,0.807678,up
516693,6.773437,4.296875,4.320312,1.34375,-0.964844,0.771484,0.339905,0.476318,0.080505,0.806885,up
516699,6.773437,4.296875,4.320312,1.396484,-0.931641,0.804687,0.336853,0.479675,0.081482,0.806091,up
516704,6.894531,4.488281,4.128906,1.396484,-0.931641,0.804687,0.33374,0.482788,0.082581,0.80542,up
516710,7.121094,4.792969,4.128906,1.539063,-0.740234,0.910156,0.326904,0.488953,0.085144,0.80426,up
516715,7.160156,4.871094,4.128906,1.539063,-0.740234,0.910156,0.323425,0.49176,0.086487,0.803772,up
516720,7.117187,4.871094,4.050781,1.503906,-0.546875,0.951172,0.323425,0.49176,0.086487,0.803772,up
516726,7.082031,4.832031,3.972656,1.435547,-0.449219,0.939453,0.323425,0.49176,0.086487,0.803772,up
516731,7.003906,4.832031,4.011719,1.355469,-0.390625,0.931641,0.323425,0.49176,0.086487,0.803772,up
516736,6.972656,4.679687,4.128906,1.269531,-0.380859,0.904297,0.323425,0.49176,0.086487,0.803772,up
516741,6.972656,4.527344,4.28125,1.1875,-0.400391,0.859375,0.323425,0.49176,0.086487,0.803772,up
516747,6.933594,4.449219,4.28125,1.101563,-0.416016,0.804687,0.323425,0.49176,0.086487,0.803772,up
516752,6.972656,4.335937,4.394531,1.035156,-0.439453,0.761719,0.298096,0.508606,0.095032,0.802124,up
516757,7.039062,4.296875,4.511719,1.035156,-0.439453,0.761719,0.298096,0.508606,0.095032,0.802124,up
516762,7.078125,4.257812,4.664062,0.972656,-0.525391,0.601562,0.298096,0.508606,0.095032,0.802124,up
516767,7.199219,4.21875,4.585937,0.972656,-0.525391,0.601562,0.293396,0.51239,0.096497,0.80127,up
516772,7.234375,4.257812,4.585937,0.972656,-0.525391,0.601562,0.291138,0.514343,0.097229,0.800781,up
516778,7.316406,4.296875,4.472656,0.941406,-0.457031,0.511719,0.291138,0.514343,0.097229,0.800781,up
516783,7.421875,4.21875,4.320312,0.941406,-0.457031,0.511719,0.28479,0.519714,0.099792,0.799255,up
516788,7.503906,4.144531,4.320312,0.941406,-0.457031,0.511719,0.282898,0.521301,0.100647,0.798828,up
516793,7.582031,4.144531,4.472656,0.941406,-0.457031,0.511719,0.282898,0.521301,0.100647,0.798828,up
516798,7.660156,4.183594,4.511719,1.050781,-0.328125,0.431641,0.282898,0.521301,0.100647,0.798828,up
516803,7.695312,4.296875,4.585937,1.050781,-0.328125,0.431641,0.276611,0.52594,0.104248,0.797485,up
516808,7.734375,4.335937,4.585937,1.050781,-0.328125,0.431641,0.274536,0.527344,0.105713,0.797119,up
516813,7.699219,4.488281,4.703125,1.050781,-0.328125,0.431641,0.274536,0.527344,0.105713,0.797119,up
516818,7.617187,4.527344,4.738281,1.150391,-0.150391,0.234375,0.274536,0.527344,0.105713,0.797119,up
516823,7.464844,4.566406,4.625,1.150391,-0.150391,0.234375,0.27063,0.529785,0.109009,0.796326,up
516828,7.464844,4.566406,4.625,1.177734,-0.101563,0.166016,0.268799,0.530884,0.110962,0.795959,up
516833,7.425781,4.601562,4.585937,1.1875,-0.052734,0.087891,0.268799,0.530884,0.110962,0.795959,up
516838,7.078125,4.871094,4.933594,1.199219,-0.035156,0.039063,0.26532,0.532776,0.115295,0.795227,up
516843,7.078125,4.871094,4.933594,1.199219,-0.035156,0.039063,0.26532,0.532776,0.115295,0.795227,up
516848,7.003906,5.023437,5.582031,1.052734,-0.109375,-0.042969,0.262268,0.534546,0.119934,0.794434,up
516853,7.078125,5.023437,5.925781,1.052734,-0.109375,-0.042969,0.260986,0.535461,0.122009,0.793884,up
516858,7.078125,5.023437,5.925781,1.052734,-0.109375,-0.042969,0.25885,0.537231,0.125732,0.792786,up
516863,7.082031,5.023437,5.621094,1.052734,-0.109375,-0.042969,0.25885,0.537231,0.125732,0.792786,up
516868,6.933594,5.023437,5.351562,0.652344,-0.296875,-0.052734,0.25885,0.537231,0.125732,0.792786,up
516873,6.734375,4.988281,4.96875,0.652344,-0.296875,-0.052734,0.257324,0.539124,0.128662,0.791565,up
516878,6.773437,4.988281,4.894531,0.509766,-0.503906,0.005859,0.256714,0.540222,0.1297,0.790833,up
516883,6.8125,4.949219,4.933594,0.509766,-0.503906,0.005859,0.256226,0.541504,0.130432,0.789978,up
516888,6.816406,4.910156,4.933594,0.470703,-0.587891,0.042969,0.25531,0.544312,0.131348,0.788208,up
516893,6.972656,5.0625,4.664062,0.470703,-0.587891,0.042969,0.25531,0.544312,0.131348,0.788208,up
516898,6.96875,5.023437,4.585937,0.470703,-0.587891,0.042969,0.2547,0.546082,0.131775,0.787109,up
516903,6.972656,4.949219,4.472656,0.509766,-0.689453,0.113281,0.2547,0.546082,0.131775,0.787109,up
516908,7.121094,4.988281,4.511719,0.556641,-0.705078,0.117188,0.2547,0.546082,0.131775,0.787109,up
516913,7.121094,4.988281,4.511719,0.556641,-0.705078,0.117188,0.252014,0.553162,0.133667,0.782715,up
516918,7.3125,4.949219,4.203125,0.556641,-0.705078,0.117188,0.252014,0.553162,0.133667,0.782715,up
516923,7.3125,4.988281,3.972656,0.785156,-0.761719,0.033203,0.252014,0.553162,0.133667,0.782715,up
516928,7.390625,5.179687,3.707031,0.824219,-0.777344,-0.001953,0.252014,0.553162,0.133667,0.782715,up
516933,7.394531,4.988281,3.820313,0.791016,-0.84375,-0.0625,0.249573,0.559204,0.136658,0.778687,up
516938,7.503906,4.988281,3.628906,0.791016,-0.84375,-0.0625,0.248779,0.561523,0.137878,0.777039,up
516943,7.421875,5.023437,3.550781,0.791016,-0.84375,-0.0625,0.248169,0.56366,0.138916,0.775513,up
516948,7.582031,5.179687,3.359375,0.753906,-0.867187,-0.089844,0.247192,0.567749,0.140869,0.772522,up
516953,7.699219,5.253906,3.359375,0.753906,-0.867187,-0.089844,0.247192,0.567749,0.140869,0.772522,up
516958,7.808594,5.332031,3.324219,0.462891,-0.896484,-0.107422,0.247192,0.567749,0.140869,0.772522,up
516963,7.921875,5.292969,3.285156,0.462891,-0.896484,-0.107422,0.246643,0.571838,0.142334,0.769348,up
516968,8.226563,5.523437,3.015625,0.324219,-0.890625,-0.097656,0.246826,0.575623,0.1427,0.766418,up
516973,8.386719,5.5625,3.054688,0.324219,-0.890625,-0.097656,0.246826,0.575623,0.1427,0.766418,up
516978,8.613281,5.597656,2.902344,-0.009766,-0.806641,-0.136719,0.246826,0.575623,0.1427,0.766418,up
516983,8.542969,5.5625,2.824219,-0.009766,-0.806641,-0.136719,0.247742,0.578857,0.142334,0.763733,up
516988,8.726563,5.714844,2.75,-0.054687,-0.789062,-0.150391,0.249146,0.581726,0.141541,0.76123,up
516993,8.808594,5.5625,2.75,-0.054687,-0.789062,-0.150391,0.249146,0.581726,0.141541,0.76123,up
516998,8.847656,5.40625,2.785156,-0.082031,-0.759766,-0.1875,0.249146,0.581726,0.141541,0.76123,up
517003,9.03125,5.40625,2.75,-0.082031,-0.759766,-0.1875,0.250793,0.584473,0.140564,0.758789,up
517009,9.03125,5.40625,2.785156,-0.064453,-0.724609,-0.181641,0.252258,0.587036,0.139893,0.756409,up
517014,9.109375,5.40625,2.785156,0.025391,-0.677734,-0.205078,0.252991,0.588318,0.139709,0.755249,up
517019,9.375,5.523437,2.785156,0.025391,-0.677734,-0.205078,0.253601,0.589539,0.139648,0.754089,up
517024,9.417969,5.597656,2.785156,0.025391,-0.677734,-0.205078,0.25415,0.590576,0.139709,0.753052,up
517029,9.492188,5.675781,2.785156,0.083984,-0.53125,-0.265625,0.254761,0.591675,0.139832,0.751953,up
517034,9.457031,5.753906,2.785156,0.083984,-0.53125,-0.265625,0.25531,0.592529,0.140015,0.751099,up
517039,9.378906,5.714844,2.75,0.083984,-0.53125,-0.265625,0.255981,0.593445,0.14032,0.750061,up
517044,9.304688,5.789062,2.710938,0.083984,-0.53125,-0.265625,0.255981,0.593445,0.14032,0.750061,up
517049,9.304688,5.789062,2.710938,0.058594,-0.445312,-0.324219,0.256653,0.594238,0.140625,0.749207,up
517054,9.265625,5.867187,2.710938,0.0,-0.417969,-0.34375,0.256653,0.594238,0.140625,0.749207,up
517059,9.070313,5.753906,2.59375,-0.054687,-0.400391,-0.339844,0.256653,0.594238,0.140625,0.749207,up
517064,9.070313,5.753906,2.59375,-0.125,-0.382813,-0.332031,0.259216,0.59613,0.141113,0.746704,up
517070,8.882813,5.828125,2.480469,-0.125,-0.382813,-0.332031,0.261292,0.597107,0.14093,0.745239,up
517075,8.992188,5.828125,2.363281,-0.125,-0.382813,-0.332031,0.261292,0.597107,0.14093,0.745239,up
517080,8.921875,5.90625,2.402344,-0.292969,-0.347656,-0.318359,0.261292,0.597107,0.14093,0.745239,up
517086,8.992188,6.019531,2.25,-0.292969,-0.345703,-0.292969,0.264771,0.598267,0.140076,0.743225,up
517092,8.847656,5.945312,2.136719,-0.273438,-0.310547,-0.287109,0.264771,0.598267,0.140076,0.743225,up
517098,8.84375,6.136719,2.25,-0.273438,-0.310547,-0.287109,0.264771,0.598267,0.140076,0.743225,up
517103,8.769531,6.097656,2.402344,-0.175781,-0.304688,-0.271484,0.264771,0.598267,0.140076,0.743225,up
517109,8.582031,6.019531,2.363281,-0.191406,-0.259766,-0.263672,0.264771,0.598267,0.140076,0.743225,up
517115,8.539063,5.945312,2.519531,-0.191406,-0.259766,-0.263672,0.270508,0.600037,0.138916,0.739929,up
517120,8.464844,5.945312,2.554688,-0.208984,-0.181641,-0.224609,0.271301,0.600159,0.138733,0.739563,up
517126,8.382813,5.980469,2.519531,-0.224609,-0.142578,-0.216797,0.271301,0.600159,0.138733,0.739563,up
517131,8.226563,5.867187,2.441406,-0.224609,-0.142578,-0.216797,0.27301,0.60022,0.138306,0.738953,up
517136,8.15625,5.867187,2.441406,-0.337891,-0.130859,-0.205078,0.27301,0.60022,0.138306,0.738953,up
517141,8.117188,5.867187,2.480469,-0.421875,-0.144531,-0.203125,0.274902,0.600098,0.137451,0.738525,up
517146,8.160156,5.753906,2.480469,-0.507812,-0.150391,-0.201172,0.274902,0.600098,0.137451,0.738525,up
517151,8.121094,5.714844,2.441406,-0.507812,-0.150391,-0.201172,0.274902,0.600098,0.137451,0.738525,up
517156,8.160156,5.714844,2.441406,-0.578125,-0.160156,-0.201172,0.274902,0.600098,0.137451,0.738525,up
517163,8.15625,5.636719,2.59375,-0.576172,-0.173828,-0.208984,0.274902,0.600098,0.137451,0.738525,up
517168,8.082031,5.636719,2.554688,-0.558594,-0.171875,-0.216797,0.274902,0.600098,0.137451,0.738525,up
517174,8.078125,5.636719,2.59375,-0.521484,-0.173828,-0.195312,0.274902,0.600098,0.137451,0.738525,up
517179,8.078125,5.636719,2.710938,-0.521484,-0.173828,-0.195312,0.283936,0.599121,0.131592,0.737,up
517184,8.121094,5.675781,2.75,-0.5,-0.15625,-0.189453,0.283936,0.599121,0.131592,0.737,up
517189,8.121094,5.675781,2.75,-0.482422,-0.154297,-0.175781,0.287354,0.598755,0.129333,0.736328,up
517194,8.078125,5.597656,2.75,-0.482422,-0.154297,-0.175781,0.287354,0.598755,0.129333,0.736328,up
517199,8.15625,5.523437,2.671875,-0.458984,-0.119141,-0.169922,0.287354,0.598755,0.129333,0.736328,up
517204,8.15625,5.484375,2.671875,-0.458984,-0.119141,-0.169922,0.290527,0.598267,0.127319,0.73584,up
517209,8.15625,5.445312,2.632813,-0.458984,-0.119141,-0.169922,0.290527,0.598267,0.127319,0.73584,up
517214,8.078125,5.445312,2.632813,-0.40625,-0.107422,-0.177734,0.292603,0.597961,0.12616,0.735474,up
517219,8.042969,5.484375,2.59375,-0.40625,-0.107422,-0.177734,0.293579,0.597778,0.125671,0.735291,up
517224,8.082031,5.523437,2.59375,-0.40625,-0.107422,-0.177734,0.294495,0.597717,0.125244,0.735107,up
517229,8.082031,5.5625,2.554688,-0.40625,-0.107422,-0.177734,0.294495,0.597717,0.125244,0.735107,up
517234,8.117188,5.597656,2.59375,-0.292969,-0.121094,-0.228516,0.294495,0.597717,0.125244,0.735107,up
517239,8.117188,5.636719,2.632813,-0.292969,-0.121094,-0.228516,0.297302,0.597473,0.124207,0.734314,up
517244,8.117188,5.675781,2.554688,-0.292969,-0.121094,-0.228516,0.297302,0.597473,0.124207,0.734314,up
517249,8.039063,5.675781,2.554688,-0.21875,-0.101563,-0.244141,0.297302,0.597473,0.124207,0.734314,up
517255,7.960937,5.753906,2.441406,-0.21875,-0.101563,-0.244141,0.299927,0.59729,0.123718,0.733459,up
517261,7.925781,5.753906,2.441406,-0.21875,-0.101563,-0.244141,0.300659,0.597229,0.123535,0.733215,up
517267,7.921875,5.753906,2.402344,-0.292969,-0.125,-0.216797,0.301697,0.597168,0.12323,0.73291,up
517272,8.003906,5.753906,2.441406,-0.318359,-0.142578,-0.212891,0.301697,0.597168,0.12323,0.73291,up
517277,7.925781,5.675781,2.363281,-0.318359,-0.142578,-0.212891,0.301697,0.597168,0.12323,0.73291,up
517282,7.925781,5.675781,2.363281,-0.318359,-0.142578,-0.212891,0.304382,0.597046,0.12207,0.732117,up
517287,7.925781,5.675781,2.328125,-0.330078,-0.179687,-0.175781,0.304382,0.597046,0.12207,0.732117,up
517292,7.964844,5.714844,2.363281,-0.322266,-0.208984,-0.162109,0.304382,0.597046,0.12207,0.732117,up
517297,7.964844,5.753906,2.289063,-0.322266,-0.208984,-0.162109,0.304382,0.597046,0.12207,0.732117,up
517302,8.0,5.753906,2.289063,-0.322266,-0.208984,-0.162109,0.307739,0.597351,0.120056,0.730774,up
517308,7.960937,5.828125,2.328125,-0.25,-0.203125,-0.113281,0.307739,0.597351,0.120056,0.730774,up
517313,7.960937,5.828125,2.289063,-0.25,-0.203125,-0.113281,0.309082,0.597595,0.119141,0.730164,up
517318,7.960937,5.867187,2.328125,-0.25,-0.203125,-0.113281,0.309692,0.597778,0.118713,0.729858,up
517324,7.882812,5.90625,2.328125,-0.226562,-0.169922,-0.103516,0.309692,0.597778,0.118713,0.729858,up
517329,7.925781,5.90625,2.328125,-0.226562,-0.169922,-0.103516,0.311462,0.598083,0.117554,0.729004,up
517334,7.960937,5.90625,2.328125,-0.296875,-0.150391,-0.103516,0.311462,0.598083,0.117554,0.729004,up
517339,7.925781,5.867187,2.25,-0.296875,-0.150391,-0.103516,0.312195,0.598145,0.117065,0.72876,up
517344,7.960937,5.828125,2.289063,-0.388672,-0.123047,-0.089844,0.312195,0.598145,0.117065,0.72876,up
517349,8.039063,5.753906,2.289063,-0.388672,-0.123047,-0.089844,0.314392,0.597961,0.115173,0.728271,up
517354,8.039063,5.753906,2.363281,-0.414062,-0.074219,-0.078125,0.314392,0.597961,0.115173,0.728271,up
517359,8.039063,5.714844,2.363281,-0.414062,-0.074219,-0.078125,0.315308,0.597717,0.11438,0.728149,up
517364,8.078125,5.714844,2.402344,-0.388672,-0.027344,-0.080078,0.315308,0.597717,0.11438,0.728149,up
517369,8.078125,5.636719,2.519531,-0.388672,-0.027344,-0.080078,0.316833,0.597229,0.113098,0.728088,up
517374,8.042969,5.597656,2.441406,-0.298828,0.019531,-0.085937,0.316833,0.597229,0.113098,0.728088,up
517379,7.960937,5.597656,2.480469,-0.298828,0.019531,-0.085937,0.318237,0.596619,0.112,0.728149,up
517384,7.925781,5.5625,2.554688,-0.298828,0.019531,-0.085937,0.318848,0.596375,0.111694,0.72821,up
517389,7.921875,5.597656,2.59375,-0.125,0.048828,-0.101563,0.318848,0.596375,0.111694,0.72821,up
517394,7.921875,5.5625,2.59375,-0.125,0.048828,-0.101563,0.319763,0.595886,0.111389,0.72821,up
517400,7.84375,5.597656,2.671875,-0.056641,0.044922,-0.095703,0.320068,0.595642,0.111328,0.72821,up
517405,7.84375,5.597656,2.671875,-0.037109,0.039063,-0.09375,0.320618,0.595398,0.11145,0.72821,up
517410,7.773437,5.636719,2.671875,-0.039063,0.027344,-0.083984,0.320618,0.595398,0.11145,0.72821,up
517415,7.65625,5.675781,2.710938,-0.039063,0.027344,-0.083984,0.321106,0.595154,0.111572,0.72821,up
517421,7.578125,5.714844,2.824219,-0.039063,0.027344,-0.083984,0.321289,0.595093,0.111633,0.728149,up
517426,7.578125,5.714844,2.824219,-0.074219,-0.003906,-0.068359,0.321533,0.595032,0.111572,0.728088,up
517431,7.542969,5.753906,2.902344,-0.103516,-0.015625,-0.068359,0.321533,0.595032,0.111572,0.728088,up
517437,7.503906,5.714844,2.976563,-0.134766,-0.017578,-0.070312,0.321533,0.595032,0.111572,0.728088,up
517443,7.464844,5.714844,2.976563,-0.162109,-0.015625,-0.070312,0.321533,0.595032,0.111572,0.728088,up
517448,7.425781,5.675781,3.09375,-0.197266,-0.003906,-0.082031,0.321533,0.595032,0.111572,0.728088,up
517453,7.390625,5.675781,3.132813,-0.226562,0.011719,-0.095703,0.321533,0.595032,0.111572,0.728088,up
517459,7.351562,5.5625,3.246094,-0.226562,0.011719,-0.095703,0.321533,0.595032,0.111572,0.728088,up
517464,7.351562,5.597656,3.246094,-0.318359,0.046875,-0.107422,0.321533,0.595032,0.111572,0.728088,up
517469,7.3125,5.5625,3.246094,-0.412109,0.060547,-0.121094,0.321533,0.595032,0.111572,0.728088,up
517475,7.394531,5.445312,3.246094,-0.412109,0.060547,-0.121094,0.327087,0.592407,0.108521,0.72821,up
517480,7.421875,5.371094,3.207031,-0.482422,0.066406,-0.140625,0.328125,0.591858,0.107849,0.728271,up
517486,7.542969,5.292969,3.167969,-0.482422,0.066406,-0.140625,0.329041,0.591309,0.1073,0.728394,up
517493,7.582031,5.214844,3.132813,-0.482422,0.066406,-0.140625,0.330078,0.590698,0.106689,0.728516,up
517498,7.617187,5.140625,3.132813,-0.482422,0.066406,-0.140625,0.330078,0.590698,0.106689,0.728516,up
517503,7.582031,5.101562,3.09375,-0.429687,0.078125,-0.181641,0.330078,0.590698,0.106689,0.728516,up
517509,7.582031,5.101562,3.09375,-0.375,0.072266,-0.193359,0.330078,0.590698,0.106689,0.728516,up
517514,7.621094,5.0625,3.132813,-0.375,0.072266,-0.193359,0.333923,0.588562,0.104858,0.72876,up
517519,7.621094,5.0625,3.09375,-0.162109,0.017578,-0.236328,0.333923,0.588562,0.104858,0.72876,up
517524,7.660156,5.101562,3.09375,-0.162109,0.017578,-0.236328,0.33551,0.587891,0.104675,0.728577,up
517530,7.695312,5.214844,2.976563,-0.162109,0.017578,-0.236328,0.336731,0.587708,0.105103,0.728149,up
517535,7.804687,5.332031,2.976563,0.037109,-0.066406,-0.291016,0.33728,0.587708,0.10553,0.727783,up
517540,7.847656,5.40625,2.941406,0.0625,-0.089844,-0.304688,0.33783,0.58783,0.106018,0.727356,up
517545,7.960937,5.597656,2.824219,0.0625,-0.089844,-0.304688,0.33783,0.58783,0.106018,0.727356,up
517550,7.960937,5.597656,2.824219,0.072266,-0.09375,-0.324219,0.338257,0.587952,0.106445,0.72699,up
517555,7.964844,5.636719,2.785156,0.072266,-0.09375,-0.324219,0.338806,0.588135,0.106995,0.726562,up
517560,7.964844,5.636719,2.785156,0.015625,-0.09375,-0.339844,0.339355,0.588257,0.107483,0.726074,up
517565,8.003906,5.789062,2.785156,0.015625,-0.09375,-0.339844,0.339355,0.588257,0.107483,0.726074,up
517570,7.925781,5.90625,2.75,-0.03125,-0.076172,-0.339844,0.340637,0.58844,0.108398,0.72522,up
517575,7.886719,5.945312,2.75,-0.076172,-0.070312,-0.333984,0.342285,0.588318,0.109009,0.724426,up
517580,7.804687,5.980469,2.75,-0.076172,-0.070312,-0.333984,0.342285,0.588318,0.109009,0.724426,up
517585,7.847656,5.980469,2.785156,-0.076172,-0.070312,-0.333984,0.343079,0.588196,0.109131,0.724121,up
517590,7.84375,6.019531,2.785156,-0.167969,-0.017578,-0.298828,0.344604,0.58783,0.109375,0.723694,up
517595,7.84375,6.019531,2.785156,-0.179687,0.013672,-0.291016,0.34552,0.587585,0.109497,0.72345,up
517601,7.734375,6.019531,2.785156,-0.179687,0.013672,-0.291016,0.346252,0.587341,0.109558,0.723328,up
517606,7.738281,5.980469,2.785156,-0.167969,0.041016,-0.277344,0.347046,0.587036,0.10968,0.723145,up
517611,7.734375,5.945312,2.824219,-0.162109,0.023437,-0.263672,0.347046,0.587036,0.10968,0.723145,up
517616,7.734375,5.945312,2.824219,-0.164062,0.007813,-0.259766,0.347046,0.587036,0.10968,0.723145,up
517621,7.738281,5.980469,2.863281,-0.164062,0.007813,-0.259766,0.347046,0.587036,0.10968,0.723145,up
517626,7.734375,6.019531,2.863281,-0.15625,-0.017578,-0.236328,0.347046,0.587036,0.10968,0.723145,up
517631,7.738281,6.058594,2.941406,-0.150391,-0.050781,-0.214844,0.347046,0.587036,0.10968,0.723145,up
517637,7.886719,6.097656,2.902344,-0.150391,-0.050781,-0.214844,0.351257,0.585876,0.109985,0.721985,up
517642,7.886719,6.097656,2.976563,-0.130859,-0.078125,-0.207031,0.351257,0.585876,0.109985,0.721985,up
517647,7.921875,6.136719,2.976563,-0.09375,-0.089844,-0.185547,0.352478,0.585815,0.109985,0.721436,up
517652,7.925781,6.175781,2.976563,-0.064453,-0.085937,-0.169922,0.352478,0.585815,0.109985,0.721436,up
517657,7.886719,6.175781,2.941406,-0.064453,-0.085937,-0.169922,0.353394,0.585937,0.110107,0.720886,up
517663,7.886719,6.210937,2.941406,-0.023437,-0.082031,-0.158203,0.353394,0.585937,0.110107,0.720886,up
517669,7.84375,6.210937,2.863281,-0.013672,-0.074219,-0.146484,0.353394,0.585937,0.110107,0.720886,up
517674,7.847656,6.210937,2.824219,-0.001953,-0.082031,-0.140625,0.353394,0.585937,0.110107,0.720886,up
517679,7.804687,6.175781,2.824219,-0.001953,-0.082031,-0.140625,0.354797,0.586243,0.110535,0.719849,up
517685,7.804687,6.175781,2.824219,0.0,-0.078125,-0.117188,0.354797,0.586243,0.110535,0.719849,up
517690,7.777344,6.25,2.824219,0.0,-0.078125,-0.117188,0.355591,0.586548,0.110779,0.719177,up
517695,7.617187,6.25,2.863281,0.0,-0.078125,-0.117188,0.355835,0.586731,0.11084,0.718933,up
517700,7.617187,6.25,2.863281,0.0,-0.078125,-0.117188,0.355835,0.586731,0.11084,0.718933,up
517705,7.621094,6.289062,2.824219,0.009766,-0.119141,-0.085937,0.355835,0.586731,0.11084,0.718933,up
