timestamp,ax,ay,az,gx,gy,gz,qw,qx,qy,qz,label
237898,-1.199219,5.730469,8.308594,1.25,0.794922,-0.097656,0.918396,0.325806,0.042542,-0.220337,up
237903,-1.199219,5.804687,8.1875,1.267578,0.761719,-0.050781,0.918396,0.325806,0.042542,-0.220337,up
237908,-1.199219,5.921875,8.152344,1.283203,0.746094,-0.009766,0.918396,0.325806,0.042542,-0.220337,up
237915,-1.199219,6.074219,7.886719,1.283203,0.746094,-0.009766,0.912537,0.342407,0.048096,-0.218506,up
237920,-1.238281,6.113281,7.730469,1.283203,0.746094,-0.009766,0.912537,0.342407,0.048096,-0.218506,up
237925,-1.160156,6.152344,7.695312,1.154297,0.755859,0.078125,0.912537,0.342407,0.048096,-0.218506,up
237930,-1.238281,6.152344,7.582031,1.154297,0.755859,0.078125,0.910278,0.348816,0.050049,-0.217285,up
237935,-1.238281,6.152344,7.582031,1.068359,0.765625,0.078125,0.909241,0.351746,0.051147,-0.216675,up
237940,-1.351563,6.265625,7.382812,0.966797,0.775391,0.074219,0.908264,0.354614,0.052307,-0.215942,up
237945,-1.507813,6.34375,7.195312,0.966797,0.775391,0.074219,0.907349,0.357056,0.053467,-0.215271,up
237951,-1.507813,6.34375,7.195312,0.765625,0.763672,0.054687,0.906555,0.359375,0.054749,-0.2146,up
237956,-1.582031,6.457031,7.277344,0.765625,0.763672,0.054687,0.906555,0.359375,0.054749,-0.2146,up
237961,-1.582031,6.457031,7.277344,0.439453,0.710937,0.021484,0.906555,0.359375,0.054749,-0.2146,up
237966,-1.621094,6.457031,7.195312,0.439453,0.710937,0.021484,0.904114,0.366028,0.06012,-0.212036,up
237971,-1.660156,6.457031,7.238281,0.439453,0.710937,0.021484,0.903748,0.367065,0.061523,-0.211487,up
237976,-1.660156,6.457031,7.277344,0.193359,0.626953,0.019531,0.903381,0.368103,0.062988,-0.210876,up
237982,-1.660156,6.34375,7.195312,0.193359,0.626953,0.019531,0.903137,0.368713,0.064148,-0.210388,up
237987,-1.660156,6.304687,7.15625,0.193359,0.626953,0.019531,0.903015,0.369202,0.065369,-0.209778,up
237992,-1.699219,6.265625,7.121094,-0.080078,0.546875,0.09375,0.903015,0.369202,0.065369,-0.209778,up
237997,-1.773438,6.265625,7.082031,-0.160156,0.525391,0.121094,0.903015,0.369202,0.065369,-0.209778,up
238003,-1.8125,6.152344,7.160156,-0.160156,0.525391,0.121094,0.903137,0.369446,0.068909,-0.207581,up
238008,-1.8125,6.035156,7.160156,-0.304688,0.472656,0.197266,0.903137,0.369446,0.068909,-0.207581,up
238014,-1.851563,6.035156,7.160156,-0.335938,0.462891,0.220703,0.903137,0.369446,0.068909,-0.207581,up
238020,-1.964844,5.996094,7.195312,-0.367188,0.458984,0.246094,0.904419,0.367615,0.07312,-0.203796,up
238025,-2.003906,5.960937,7.195312,-0.367188,0.458984,0.246094,0.904419,0.367615,0.07312,-0.203796,up
238030,-2.042969,5.921875,7.15625,-0.386719,0.451172,0.273438,0.904419,0.367615,0.07312,-0.203796,up
238035,-2.15625,5.84375,7.078125,-0.376953,0.453125,0.277344,0.904419,0.367615,0.07312,-0.203796,up
238040,-2.15625,5.84375,7.15625,-0.376953,0.453125,0.277344,0.905579,0.365967,0.07605,-0.200562,up
238045,-2.121094,5.84375,7.195312,-0.376953,0.453125,0.277344,0.905945,0.365417,0.077026,-0.199402,up
238050,-2.121094,5.804687,7.117187,-0.289063,0.392578,0.220703,0.905945,0.365417,0.077026,-0.199402,up
238055,-2.042969,5.730469,7.15625,-0.289063,0.392578,0.220703,0.906555,0.364624,0.078735,-0.197571,up
238060,-1.964844,5.804687,7.078125,-0.234375,0.369141,0.183594,0.906799,0.364258,0.07959,-0.196716,up
238065,-2.003906,5.804687,7.039062,-0.234375,0.369141,0.183594,0.907043,0.363892,0.080383,-0.195862,up
238070,-2.082031,5.882812,6.921875,-0.234375,0.369141,0.183594,0.907227,0.363647,0.081238,-0.195129,up
238076,-2.082031,5.921875,6.925781,-0.208984,0.376953,0.140625,0.907593,0.363098,0.082947,-0.193787,up
238082,-2.15625,5.996094,6.960937,-0.208984,0.376953,0.140625,0.907715,0.362854,0.083679,-0.193237,up
238088,-2.15625,5.996094,6.960937,-0.253906,0.392578,0.091797,0.907898,0.362549,0.084595,-0.192627,up
238093,-2.195313,6.113281,6.964844,-0.253906,0.392578,0.091797,0.908081,0.362183,0.085571,-0.192078,up
238099,-2.195313,6.152344,6.921875,-0.300781,0.404297,0.076172,0.908081,0.362183,0.085571,-0.192078,up
238104,-2.3125,6.1875,6.894531,-0.339844,0.416016,0.064453,0.908081,0.362183,0.085571,-0.192078,up
238109,-2.386719,6.265625,6.890625,-0.369141,0.427734,0.083984,0.908081,0.362183,0.085571,-0.192078,up
238114,-2.464844,6.226562,6.964844,-0.378906,0.412109,0.097656,0.908081,0.362183,0.085571,-0.192078,up
238119,-2.578125,6.265625,7.042969,-0.382813,0.421875,0.109375,0.908081,0.362183,0.085571,-0.192078,up
238125,-2.578125,6.34375,7.078125,-0.363281,0.416016,0.152344,0.908081,0.362183,0.085571,-0.192078,up
238131,-2.734375,6.457031,7.199219,-0.351563,0.410156,0.177734,0.910217,0.357727,0.093689,-0.186584,up
238136,-2.769531,6.457031,7.273437,-0.320313,0.423828,0.208984,0.910461,0.357239,0.094666,-0.185669,up
238141,-2.847656,6.496094,7.277344,-0.285156,0.423828,0.21875,0.910461,0.357239,0.094666,-0.185669,up
238146,-2.886719,6.496094,7.304687,-0.285156,0.423828,0.21875,0.91095,0.356445,0.096436,-0.183838,up
238152,-3.039063,6.574219,7.304687,-0.285156,0.423828,0.21875,0.911194,0.35614,0.09729,-0.182922,up
238157,-3.078125,6.574219,7.347656,-0.232422,0.445312,0.234375,0.911194,0.35614,0.09729,-0.182922,up
238163,-3.078125,6.574219,7.386719,-0.208984,0.427734,0.232422,0.911194,0.35614,0.09729,-0.182922,up
238168,-3.0,6.574219,7.386719,-0.208984,0.427734,0.232422,0.911743,0.355469,0.099976,-0.180054,up
238173,-3.0,6.648437,7.386719,-0.189453,0.408203,0.21875,0.911743,0.355469,0.099976,-0.180054,up
238178,-2.960938,6.609375,7.464844,-0.183594,0.410156,0.210937,0.911743,0.355469,0.099976,-0.180054,up
238183,-2.925781,6.609375,7.464844,-0.183594,0.410156,0.210937,0.91217,0.35498,0.102478,-0.17749,up
238190,-2.925781,6.648437,7.503906,-0.164062,0.410156,0.167969,0.91217,0.35498,0.102478,-0.17749,up
238196,-2.925781,6.6875,7.5,-0.166016,0.412109,0.150391,0.91217,0.35498,0.102478,-0.17749,up
238201,-2.925781,6.609375,7.464844,-0.166016,0.412109,0.150391,0.912537,0.354431,0.105957,-0.174438,up
238206,-2.925781,6.496094,7.382812,-0.166016,0.412109,0.150391,0.912659,0.354187,0.106812,-0.173706,up
238211,-3.0,6.457031,7.425781,-0.248047,0.40625,0.171875,0.912659,0.354187,0.106812,-0.173706,up
238216,-3.078125,6.304687,7.195312,-0.248047,0.40625,0.171875,0.912842,0.353821,0.107788,-0.172852,up
238222,-3.117188,6.265625,7.195312,-0.248047,0.40625,0.171875,0.913208,0.353149,0.109497,-0.171265,up
238228,-3.152344,6.304687,7.195312,-0.25,0.355469,0.242187,0.913452,0.352844,0.110229,-0.170349,up
238234,-3.117188,6.34375,7.234375,-0.208984,0.322266,0.257813,0.913452,0.352844,0.110229,-0.170349,up
238240,-3.078125,6.304687,7.277344,-0.208984,0.322266,0.257813,0.91394,0.352295,0.111877,-0.167603,up
238245,-3.0,6.226562,7.199219,-0.208984,0.322266,0.257813,0.91394,0.352295,0.111877,-0.167603,up
238250,-3.0,6.226562,7.117187,-0.017578,0.285156,0.3125,0.91394,0.352295,0.111877,-0.167603,up
238255,-2.960938,6.1875,7.0,0.070312,0.279297,0.322266,0.91394,0.352295,0.111877,-0.167603,up
238260,-2.925781,6.226562,6.960937,0.070312,0.279297,0.322266,0.914001,0.353149,0.112915,-0.164734,up
238266,-2.886719,6.226562,6.964844,0.216797,0.259766,0.34375,0.914001,0.353149,0.112915,-0.164734,up
238271,-2.734375,6.226562,6.890625,0.271484,0.246094,0.361328,0.914001,0.353149,0.112915,-0.164734,up
238277,-2.617188,6.304687,6.851562,0.271484,0.246094,0.361328,0.91333,0.356323,0.113525,-0.161011,up
238282,-2.578125,6.265625,6.777344,0.277344,0.240234,0.376953,0.913208,0.357178,0.113586,-0.160095,up
238287,-2.578125,6.265625,6.777344,0.263672,0.238281,0.386719,0.913025,0.358032,0.113708,-0.159058,up
238292,-2.503906,6.34375,6.695312,0.263672,0.238281,0.386719,0.913025,0.358032,0.113708,-0.159058,up
238298,-2.503906,6.34375,6.695312,0.25,0.238281,0.40625,0.91272,0.359619,0.113831,-0.156921,up
238303,-2.425781,6.265625,6.695312,0.25,0.238281,0.40625,0.91272,0.359619,0.113831,-0.156921,up
238308,-2.3125,6.1875,6.621094,0.175781,0.238281,0.464844,0.912598,0.360962,0.113953,-0.154663,up
238313,-2.347656,6.226562,6.507812,0.175781,0.238281,0.464844,0.912537,0.361633,0.114014,-0.153381,up
238319,-2.3125,6.304687,6.511719,0.125,0.265625,0.517578,0.912537,0.361633,0.114014,-0.153381,up
238324,-2.234375,6.265625,6.46875,0.103516,0.287109,0.529297,0.912537,0.361633,0.114014,-0.153381,up
238329,-2.234375,6.304687,6.433594,0.103516,0.287109,0.529297,0.912537,0.363281,0.114319,-0.149231,up
238334,-2.195313,6.34375,6.433594,0.128906,0.34375,0.533203,0.912537,0.363281,0.114319,-0.149231,up
238339,-2.234375,6.34375,6.511719,0.154297,0.369141,0.541016,0.912537,0.363281,0.114319,-0.149231,up
238344,-2.195313,6.417969,6.433594,0.175781,0.400391,0.539062,0.912537,0.363281,0.114319,-0.149231,up
238349,-2.273438,6.492187,6.46875,0.175781,0.400391,0.539062,0.912537,0.363281,0.114319,-0.149231,up
238354,-2.234375,6.417969,6.539062,0.175781,0.400391,0.539062,0.912109,0.366699,0.115967,-0.141663,up
238359,-2.234375,6.457031,6.539062,0.167969,0.501953,0.537109,0.912109,0.366699,0.115967,-0.141663,up
238364,-2.273438,6.496094,6.539062,0.167969,0.501953,0.537109,0.912109,0.366699,0.115967,-0.141663,up
238369,-2.273438,6.496094,6.511719,0.121094,0.576172,0.53125,0.912109,0.366699,0.115967,-0.141663,up
238374,-2.347656,6.570312,6.46875,0.082031,0.621094,0.537109,0.912109,0.366699,0.115967,-0.141663,up
238380,-2.425781,6.609375,6.46875,0.082031,0.621094,0.537109,0.911621,0.369995,0.119629,-0.133301,up
238386,-2.617188,6.648437,6.542969,0.082031,0.621094,0.537109,0.911621,0.369995,0.119629,-0.133301,up
238391,-2.734375,6.691406,6.582031,-0.048828,0.736328,0.494141,0.911621,0.369995,0.119629,-0.133301,up
238396,-2.960938,6.765625,6.921875,-0.048828,0.736328,0.494141,0.911438,0.371155,0.122986,-0.127869,up
238402,-2.960938,6.765625,6.921875,-0.066406,0.755859,0.451172,0.911377,0.371704,0.125488,-0.124329,up
238407,-3.152344,6.957031,7.234375,-0.058594,0.779297,0.410156,0.911316,0.371948,0.127014,-0.122437,up
238413,-3.421875,7.109375,7.425781,-0.058594,0.779297,0.410156,0.911255,0.372192,0.128296,-0.120911,up
238419,-3.574219,7.183594,7.539062,-0.058594,0.779297,0.410156,0.911133,0.372498,0.129883,-0.119324,up
238424,-3.652344,7.070312,7.578125,-0.054687,0.845703,0.322266,0.911133,0.372498,0.129883,-0.119324,up
238430,-3.691406,7.070312,7.660156,-0.078125,0.851562,0.304688,0.911133,0.372498,0.129883,-0.119324,up
238435,-3.691406,6.957031,7.660156,-0.103516,0.853516,0.302734,0.911133,0.372498,0.129883,-0.119324,up
238440,-3.726563,6.878906,7.617187,-0.103516,0.853516,0.302734,0.910645,0.37323,0.136475,-0.113281,up
238446,-3.726563,6.765625,7.542969,-0.193359,0.828125,0.314453,0.910645,0.37323,0.136475,-0.113281,up
238451,-3.691406,6.6875,7.421875,-0.234375,0.816406,0.339844,0.910645,0.372864,0.141296,-0.108521,up
238456,-3.613281,6.417969,7.382812,-0.234375,0.816406,0.339844,0.910645,0.372864,0.141296,-0.108521,up
238461,-3.574219,6.34375,7.347656,-0.244141,0.714844,0.439453,0.910706,0.37262,0.142883,-0.106628,up
238466,-3.535156,6.265625,7.304687,-0.244141,0.714844,0.439453,0.910767,0.372437,0.144165,-0.10498,up
238472,-3.421875,6.152344,7.121094,-0.244141,0.714844,0.439453,0.910889,0.372253,0.146362,-0.101624,up
238478,-3.34375,6.074219,7.042969,-0.244141,0.714844,0.439453,0.910889,0.372314,0.147461,-0.099609,up
238483,-3.230469,5.960937,6.8125,-0.015625,0.603516,0.529297,0.910828,0.372559,0.148376,-0.0979,up
238488,-3.230469,5.960937,6.8125,0.076172,0.5625,0.529297,0.910706,0.372986,0.14917,-0.096191,up
238494,-3.0,6.035156,6.578125,0.076172,0.5625,0.529297,0.910522,0.373535,0.14978,-0.094666,up
238499,-2.886719,6.074219,6.578125,0.238281,0.480469,0.511719,0.910522,0.373535,0.14978,-0.094666,up
238504,-2.847656,6.074219,6.472656,0.279297,0.447266,0.5,0.910522,0.373535,0.14978,-0.094666,up
238509,-2.769531,6.152344,6.355469,0.3125,0.429687,0.496094,0.910522,0.373535,0.14978,-0.094666,up
238515,-2.734375,6.1875,6.273437,0.3125,0.429687,0.496094,0.909302,0.377197,0.151733,-0.088806,up
238520,-2.695313,6.226562,6.277344,0.306641,0.417969,0.466797,0.909302,0.377197,0.151733,-0.088806,up
238525,-2.695313,6.269531,6.238281,0.271484,0.412109,0.464844,0.909302,0.377197,0.151733,-0.088806,up
238531,-2.734375,6.34375,6.199219,0.212891,0.412109,0.460937,0.908081,0.380676,0.153442,-0.083435,up
238536,-2.734375,6.378906,6.199219,0.212891,0.412109,0.460937,0.908081,0.380676,0.153442,-0.083435,up
238541,-2.769531,6.414062,6.238281,-0.041016,0.416016,0.427734,0.908081,0.380676,0.153442,-0.083435,up
238546,-2.886719,6.414062,6.316406,-0.041016,0.416016,0.427734,0.907837,0.381409,0.154419,-0.080688,up
238551,-2.886719,6.414062,6.316406,-0.117188,0.429687,0.400391,0.907837,0.381409,0.154419,-0.080688,up
238557,-2.960938,6.378906,6.316406,-0.117188,0.429687,0.400391,0.907837,0.381531,0.154968,-0.079346,up
238562,-3.078125,6.378906,6.429687,-0.236328,0.4375,0.363281,0.907959,0.381165,0.15625,-0.076599,up
238567,-3.078125,6.378906,6.429687,-0.236328,0.4375,0.363281,0.907959,0.381165,0.15625,-0.076599,up
238572,-3.078125,6.378906,6.429687,-0.347656,0.400391,0.300781,0.908264,0.380371,0.157654,-0.074036,up
238578,-3.269531,6.304687,6.695312,-0.347656,0.400391,0.300781,0.908752,0.37915,0.159119,-0.071594,up
238584,-3.382813,6.265625,6.8125,-0.347656,0.400391,0.300781,0.908997,0.37854,0.159729,-0.070557,up
238590,-3.460938,6.265625,6.8125,-0.373047,0.369141,0.234375,0.908997,0.37854,0.159729,-0.070557,up
238595,-3.535156,6.304687,6.8125,-0.367188,0.373047,0.216797,0.908997,0.37854,0.159729,-0.070557,up
238601,-3.613281,6.265625,6.851562,-0.353516,0.351563,0.203125,0.908997,0.37854,0.159729,-0.070557,up
238606,-3.691406,6.304687,6.960937,-0.339844,0.324219,0.189453,0.908997,0.37854,0.159729,-0.070557,up
238611,-3.726563,6.304687,6.921875,-0.308594,0.285156,0.175781,0.908997,0.37854,0.159729,-0.070557,up
238616,-3.765625,6.304687,6.925781,-0.308594,0.285156,0.175781,0.910339,0.374634,0.163513,-0.064941,up
238621,-3.84375,6.34375,6.960937,-0.308594,0.285156,0.175781,0.910522,0.374084,0.164001,-0.064209,up
238626,-3.84375,6.34375,7.039062,-0.265625,0.267578,0.154297,0.910522,0.374084,0.164001,-0.064209,up
238631,-3.84375,6.378906,7.0,-0.197266,0.238281,0.125,0.910522,0.374084,0.164001,-0.064209,up
238636,-3.882813,6.34375,6.890625,-0.197266,0.238281,0.125,0.91095,0.372681,0.165466,-0.062195,up
238642,-3.882813,6.34375,6.890625,-0.15625,0.226562,0.115234,0.91095,0.372681,0.165466,-0.062195,up
238647,-3.882813,6.304687,6.894531,-0.091797,0.177734,0.091797,0.91095,0.372681,0.165466,-0.062195,up
238652,-3.84375,6.34375,6.699219,-0.091797,0.177734,0.091797,0.911133,0.371887,0.16687,-0.060303,up
238657,-3.765625,6.304687,6.699219,-0.091797,0.177734,0.091797,0.911133,0.371887,0.167175,-0.059937,up
238662,-3.726563,6.34375,6.617187,0.021484,0.140625,0.076172,0.911133,0.371887,0.167175,-0.059937,up
238667,-3.691406,6.304687,6.578125,0.021484,0.140625,0.076172,0.911011,0.372131,0.167603,-0.059326,up
238672,-3.652344,6.304687,6.507812,0.021484,0.140625,0.076172,0.910889,0.372314,0.167786,-0.059082,up
238678,-3.652344,6.304687,6.3125,0.117188,0.119141,0.085937,0.910767,0.372681,0.167969,-0.058838,up
238683,-3.691406,6.308594,6.277344,0.144531,0.115234,0.087891,0.910583,0.373047,0.168091,-0.058594,up
238688,-3.652344,6.375,6.160156,0.144531,0.115234,0.087891,0.9104,0.373413,0.168213,-0.05835,up
238694,-3.613281,6.453125,6.121094,0.144531,0.115234,0.087891,0.910217,0.373901,0.168274,-0.058167,up
238700,-3.574219,6.496094,6.121094,0.226562,0.070312,0.091797,0.910217,0.373901,0.168274,-0.058167,up
238705,-3.535156,6.492187,6.085937,0.240234,0.076172,0.089844,0.910217,0.373901,0.168274,-0.058167,up
238710,-3.535156,6.535156,6.046875,0.240234,0.076172,0.089844,0.909485,0.375671,0.168396,-0.057678,up
238715,-3.5,6.574219,6.007812,0.273438,0.089844,0.078125,0.909485,0.375671,0.168396,-0.057678,up
238720,-3.5,6.53125,5.96875,0.273438,0.097656,0.056641,0.909485,0.375671,0.168396,-0.057678,up
238725,-3.574219,6.648437,5.929687,0.261719,0.111328,0.060547,0.909485,0.375671,0.168396,-0.057678,up
238731,-3.574219,6.691406,5.816406,0.205078,0.132812,0.050781,0.909485,0.375671,0.168396,-0.057678,up
238736,-3.574219,6.691406,5.855469,0.205078,0.132812,0.050781,0.908142,0.378845,0.168945,-0.057007,up
238741,-3.574219,6.730469,5.855469,0.123047,0.164062,0.035156,0.908142,0.378845,0.168945,-0.057007,up
238746,-3.574219,6.726562,5.894531,0.123047,0.164062,0.035156,0.907654,0.3797,0.169495,-0.056702,up
238751,-3.574219,6.796875,5.894531,0.056641,0.191406,0.041016,0.907654,0.3797,0.169495,-0.056702,up
238756,-3.613281,6.765625,5.894531,0.056641,0.191406,0.041016,0.907349,0.380249,0.170105,-0.056274,up
238762,-3.652344,6.765625,5.738281,0.041016,0.214844,0.03125,0.907349,0.380249,0.170105,-0.056274,up
238767,-3.652344,6.726562,5.855469,0.041016,0.214844,0.03125,0.907104,0.380554,0.170959,-0.055786,up
238772,-3.652344,6.652344,5.816406,-0.033203,0.261719,0.056641,0.907104,0.380554,0.170959,-0.055786,up
238777,-3.652344,6.609375,5.777344,-0.033203,0.261719,0.056641,0.906921,0.380554,0.171936,-0.055115,up
238783,-3.691406,6.570312,5.777344,-0.033203,0.261719,0.056641,0.90686,0.380493,0.172974,-0.05426,up
238788,-3.691406,6.570312,5.777344,-0.035156,0.271484,0.083984,0.906738,0.380493,0.173523,-0.053772,up
238794,-3.652344,6.535156,5.816406,-0.035156,0.271484,0.083984,0.906677,0.380554,0.174072,-0.053345,up
238799,-3.652344,6.53125,5.777344,-0.035156,0.271484,0.083984,0.906555,0.380676,0.174622,-0.052856,up
238804,-3.652344,6.53125,5.703125,0.054687,0.298828,0.095703,0.906555,0.380676,0.174622,-0.052856,up
238810,-3.726563,6.453125,5.664062,0.072266,0.316406,0.113281,0.906555,0.380676,0.174622,-0.052856,up
238815,-3.726563,6.414062,5.585937,0.074219,0.324219,0.134766,0.906555,0.380676,0.174622,-0.052856,up
238821,-3.726563,6.453125,5.664062,0.072266,0.322266,0.150391,0.906555,0.380676,0.174622,-0.052856,up
238827,-3.765625,6.496094,5.664062,0.070312,0.306641,0.166016,0.906555,0.380676,0.174622,-0.052856,up
238832,-3.691406,6.496094,5.625,0.078125,0.304688,0.173828,0.906555,0.380676,0.174622,-0.052856,up
238838,-3.691406,6.496094,5.625,0.095703,0.310547,0.181641,0.905029,0.382874,0.178955,-0.048218,up
238843,-3.613281,6.492187,5.585937,0.101563,0.314453,0.183594,0.904785,0.38324,0.179504,-0.047485,up
238848,-3.613281,6.496094,5.546875,0.101563,0.314453,0.183594,0.904602,0.383545,0.179932,-0.046875,up
238854,-3.574219,6.492187,5.511719,0.101563,0.314453,0.183594,0.904358,0.383911,0.180481,-0.046204,up
238859,-3.574219,6.496094,5.394531,0.060547,0.34375,0.201172,0.904358,0.383911,0.180481,-0.046204,up
238865,-3.535156,6.414062,5.394531,0.039063,0.351563,0.212891,0.904358,0.383911,0.180481,-0.046204,up
238870,-3.5,6.375,5.394531,0.025391,0.363281,0.226562,0.903809,0.384705,0.18219,-0.043884,up
238876,-3.5,6.34375,5.472656,-0.005859,0.365234,0.234375,0.903809,0.384705,0.18219,-0.043884,up
238881,-3.5,6.265625,5.433594,-0.021484,0.371094,0.251953,0.903809,0.384705,0.18219,-0.043884,up
238887,-3.5,6.265625,5.394531,-0.044922,0.402344,0.259766,0.903809,0.384705,0.18219,-0.043884,up
238892,-3.5,6.269531,5.355469,-0.054687,0.423828,0.257813,0.903198,0.385193,0.185364,-0.039124,up
238897,-3.5,6.226562,5.320312,-0.054687,0.423828,0.257813,0.903198,0.385193,0.185364,-0.039124,up
238902,-3.5,6.226562,5.320312,-0.052734,0.453125,0.277344,0.903198,0.385193,0.185364,-0.039124,up
238907,-3.5,6.269531,5.355469,-0.052734,0.453125,0.277344,0.902771,0.385376,0.187561,-0.035889,up
238912,-3.5,6.265625,5.433594,-0.052734,0.453125,0.277344,0.902588,0.385498,0.188293,-0.034851,up
238917,-3.460938,6.226562,5.511719,-0.052734,0.453125,0.277344,0.902588,0.385498,0.188293,-0.034851,up
238922,-3.5,6.1875,5.472656,0.072266,0.472656,0.279297,0.902588,0.385498,0.188293,-0.034851,up
238927,-3.460938,6.265625,5.394531,0.072266,0.472656,0.279297,0.902161,0.386047,0.189819,-0.032776,up
238933,-3.460938,6.230469,5.394531,0.109375,0.460937,0.287109,0.90155,0.386902,0.191284,-0.030701,up
238938,-3.460938,6.265625,5.394531,0.171875,0.386719,0.294922,0.901184,0.387451,0.191956,-0.029663,up
238943,-3.421875,6.414062,5.511719,0.171875,0.386719,0.294922,0.900818,0.388062,0.192505,-0.028687,up
238948,-3.421875,6.492187,5.546875,0.171875,0.386719,0.294922,0.900513,0.388672,0.192932,-0.027954,up
238953,-3.382813,6.648437,5.625,0.255859,0.353516,0.269531,0.900085,0.389465,0.193481,-0.026978,up
238959,-3.5,6.800781,5.777344,0.255859,0.353516,0.269531,0.899719,0.390198,0.193909,-0.026245,up
238964,-3.691406,7.074219,5.855469,0.255859,0.353516,0.269531,0.899292,0.390991,0.194458,-0.025513,up
238970,-3.765625,7.179687,5.894531,0.291016,0.412109,0.208984,0.899292,0.390991,0.194458,-0.025513,up
238975,-3.957031,7.257812,6.007812,0.273438,0.445312,0.195312,0.899292,0.390991,0.194458,-0.025513,up
238980,-4.265625,7.683594,6.199219,0.248047,0.484375,0.15625,0.899292,0.390991,0.194458,-0.025513,up
238985,-4.457031,7.839844,6.316406,0.203125,0.535156,0.119141,0.899292,0.390991,0.194458,-0.025513,up
238990,-4.609375,7.984375,6.46875,0.152344,0.587891,0.078125,0.899292,0.390991,0.194458,-0.025513,up
238995,-4.722656,8.105469,6.582031,0.087891,0.626953,0.015625,0.899292,0.390991,0.194458,-0.025513,up
239001,-4.992187,8.257813,6.851562,0.087891,0.626953,0.015625,0.899292,0.390991,0.194458,-0.025513,up
239006,-5.109375,8.300781,7.003906,0.087891,0.626953,0.015625,0.895752,0.394897,0.203125,-0.020203,up
239012,-5.222656,8.339844,7.042969,-0.144531,0.722656,-0.132812,0.895752,0.394897,0.203125,-0.020203,up
239018,-5.375,8.367188,7.117187,-0.144531,0.722656,-0.132812,0.894958,0.394104,0.208191,-0.018677,up
239023,-5.414062,8.367188,7.15625,-0.246094,0.660156,-0.138672,0.894836,0.393494,0.210022,-0.018188,up
239028,-5.414062,8.300781,7.195312,-0.246094,0.660156,-0.138672,0.894775,0.392944,0.211426,-0.017761,up
239033,-5.527344,8.179688,7.234375,-0.246094,0.660156,-0.138672,0.894714,0.392212,0.212891,-0.017273,up
239039,-5.414062,8.066406,7.234375,-0.246094,0.660156,-0.138672,0.894775,0.391541,0.214111,-0.016846,up
239044,-5.375,7.988281,7.15625,-0.267578,0.425781,-0.078125,0.894775,0.391541,0.214111,-0.016846,up
239049,-5.375,7.988281,7.15625,-0.210937,0.357422,-0.056641,0.894775,0.390381,0.216064,-0.016113,up
239054,-5.183594,7.796875,7.082031,-0.210937,0.357422,-0.056641,0.894775,0.390381,0.216064,-0.016113,up
239059,-5.183594,7.796875,7.082031,-0.162109,0.289063,-0.042969,0.894775,0.389648,0.217468,-0.015564,up
239064,-5.03125,7.722656,6.964844,-0.162109,0.289063,-0.042969,0.894775,0.389648,0.217468,-0.015564,up
239070,-5.03125,7.722656,6.964844,-0.017578,0.177734,-0.005859,0.894592,0.389587,0.218262,-0.015259,up
239076,-4.417969,7.296875,6.390625,-0.017578,0.177734,-0.005859,0.89447,0.389771,0.218506,-0.015137,up
239081,-4.304687,7.296875,6.238281,0.160156,0.085937,0.03125,0.89447,0.389771,0.218506,-0.015137,up
239087,-4.074219,7.222656,6.085937,0.212891,0.058594,0.048828,0.89447,0.389771,0.218506,-0.015137,up
239093,-4.035156,7.152344,5.929687,0.271484,0.087891,0.068359,0.89447,0.389771,0.218506,-0.015137,up
239098,-3.957031,7.152344,5.855469,0.271484,0.087891,0.068359,0.893127,0.392578,0.218994,-0.014832,up
239103,-3.84375,7.183594,5.777344,0.271484,0.087891,0.068359,0.893127,0.392578,0.218994,-0.014832,up
239108,-3.804688,7.222656,5.777344,0.271484,0.087891,0.068359,0.892456,0.393982,0.219177,-0.014648,up
239114,-3.765625,7.261719,5.703125,0.271484,0.087891,0.068359,0.89209,0.394714,0.219421,-0.014526,up
239119,-3.765625,7.222656,5.703125,0.277344,0.173828,0.072266,0.89209,0.394714,0.219421,-0.014526,up
239124,-3.804688,7.222656,5.703125,0.277344,0.173828,0.072266,0.891357,0.396118,0.219971,-0.01416,up
239129,-3.804688,7.222656,5.664062,0.277344,0.173828,0.072266,0.891052,0.396667,0.220337,-0.013977,up
239135,-3.921875,7.261719,5.664062,0.277344,0.173828,0.072266,0.890747,0.397095,0.220764,-0.013733,up
239141,-3.957031,7.257812,5.585937,0.113281,0.220703,0.052734,0.890747,0.397095,0.220764,-0.013733,up
239146,-3.957031,7.21875,5.664062,0.052734,0.220703,0.048828,0.890747,0.397095,0.220764,-0.013733,up
239151,-3.996094,7.183594,5.777344,-0.011719,0.208984,0.042969,0.890747,0.397095,0.220764,-0.013733,up
239156,-4.035156,7.183594,5.738281,-0.085937,0.197266,0.048828,0.890747,0.397095,0.220764,-0.013733,up
239161,-4.113281,7.113281,5.816406,-0.164062,0.183594,0.058594,0.890747,0.397095,0.220764,-0.013733,up
239167,-4.148437,7.074219,5.816406,-0.232422,0.179687,0.064453,0.890747,0.397095,0.220764,-0.013733,up
239172,-4.1875,7.035156,5.855469,-0.347656,0.140625,0.072266,0.890747,0.397095,0.220764,-0.013733,up
239178,-4.1875,6.878906,5.929687,-0.347656,0.140625,0.072266,0.890564,0.395935,0.223572,-0.010925,up
239183,-4.226562,6.800781,5.894531,-0.410156,0.097656,0.082031,0.890869,0.395142,0.223816,-0.010376,up
239188,-4.226562,6.765625,5.96875,-0.410156,0.097656,0.082031,0.891541,0.393494,0.22406,-0.00946,up
239193,-4.148437,6.652344,6.007812,-0.410156,0.097656,0.082031,0.891541,0.393494,0.22406,-0.00946,up
239198,-4.148437,6.613281,6.007812,-0.410156,0.097656,0.082031,0.892334,0.391663,0.224121,-0.008484,up
239203,-4.148437,6.535156,6.007812,-0.410156,0.097656,0.082031,0.892334,0.391663,0.224121,-0.008484,up
239208,-4.148437,6.492187,6.046875,-0.455078,0.015625,0.050781,0.892334,0.391663,0.224121,-0.008484,up
239213,-4.113281,6.375,6.007812,-0.455078,0.015625,0.050781,0.89325,0.389648,0.224121,-0.00769,up
239219,-4.113281,6.308594,6.046875,-0.455078,0.015625,0.050781,0.894104,0.387756,0.223999,-0.007019,up
239224,-4.113281,6.308594,6.046875,-0.416016,-0.015625,0.017578,0.894531,0.386841,0.223938,-0.006775,up
239229,-4.113281,6.308594,6.046875,-0.410156,-0.017578,0.003906,0.894897,0.385925,0.223877,-0.006531,up
239236,-4.035156,6.269531,6.046875,-0.410156,-0.017578,0.003906,0.895325,0.38501,0.223877,-0.006348,up
239241,-4.074219,6.226562,6.007812,-0.386719,-0.019531,-0.003906,0.895325,0.38501,0.223877,-0.006348,up
239246,-4.074219,6.152344,5.96875,-0.388672,-0.021484,-0.003906,0.895325,0.38501,0.223877,-0.006348,up
239251,-4.148437,6.269531,5.96875,-0.378906,-0.021484,-0.011719,0.895325,0.38501,0.223877,-0.006348,up
239256,-4.148437,6.265625,6.046875,-0.378906,-0.021484,-0.011719,0.896851,0.381653,0.223633,-0.005676,up
239261,-4.148437,6.191406,6.046875,-0.341797,-0.021484,-0.037109,0.896851,0.381653,0.223633,-0.005676,up
239266,-4.148437,6.1875,6.007812,-0.320313,-0.037109,-0.056641,0.896851,0.381653,0.223633,-0.005676,up
239271,-4.226562,6.1875,5.929687,-0.320313,-0.037109,-0.056641,0.896851,0.381653,0.223633,-0.005676,up
239276,-4.1875,6.152344,5.929687,-0.320313,-0.037109,-0.056641,0.898132,0.378601,0.22345,-0.005676,up
239281,-4.148437,6.1875,5.96875,-0.283203,-0.132812,-0.119141,0.898132,0.378601,0.22345,-0.005676,up
239286,-4.113281,6.191406,5.96875,-0.259766,-0.158203,-0.152344,0.898132,0.378601,0.22345,-0.005676,up
239291,-4.074219,6.109375,5.855469,-0.259766,-0.158203,-0.152344,0.898132,0.378601,0.22345,-0.005676,up
239296,-4.035156,6.113281,5.855469,-0.259766,-0.158203,-0.152344,0.899414,0.376099,0.222534,-0.00708,up
239301,-3.996094,6.113281,5.855469,-0.150391,-0.244141,-0.232422,0.899414,0.376099,0.222534,-0.00708,up
239306,-3.957031,6.109375,5.738281,-0.150391,-0.244141,-0.232422,0.899963,0.375122,0.221863,-0.008484,up
239311,-3.882813,6.109375,5.664062,-0.150391,-0.244141,-0.232422,0.899963,0.375122,0.221863,-0.008484,up
239316,-3.921875,6.152344,5.703125,-0.083984,-0.320313,-0.308594,0.899963,0.375122,0.221863,-0.008484,up
239321,-3.882813,6.148437,5.625,-0.058594,-0.353516,-0.332031,0.899963,0.375122,0.221863,-0.008484,up
239326,-3.84375,6.230469,5.625,-0.058594,-0.353516,-0.332031,0.899963,0.375122,0.221863,-0.008484,up
239332,-3.84375,6.265625,5.625,-0.058594,-0.353516,-0.332031,0.901123,0.373535,0.219604,-0.013489,up
239337,-3.84375,6.304687,5.625,0.041016,-0.371094,-0.410156,0.901123,0.373535,0.219604,-0.013489,up
239343,-3.804688,6.34375,5.664062,0.146484,-0.355469,-0.466797,0.901428,0.373291,0.218689,-0.016174,up
239348,-3.804688,6.378906,5.664062,0.146484,-0.355469,-0.466797,0.901489,0.373413,0.217896,-0.019043,up
239353,-3.84375,6.414062,5.664062,0.146484,-0.355469,-0.466797,0.901428,0.373718,0.21759,-0.02063,up
239358,-3.882813,6.492187,5.625,0.353516,-0.291016,-0.511719,0.901428,0.373718,0.21759,-0.02063,up
239363,-3.84375,6.53125,5.664062,0.353516,-0.291016,-0.511719,0.901245,0.374207,0.217346,-0.022339,up
239368,-3.882813,6.574219,5.664062,0.353516,-0.291016,-0.511719,0.901001,0.374817,0.217163,-0.024048,up
239374,-3.921875,6.726562,5.585937,0.513672,-0.246094,-0.513672,0.901001,0.374817,0.217163,-0.024048,up
239380,-3.957031,6.875,5.625,0.513672,-0.246094,-0.513672,0.899719,0.377686,0.216858,-0.028992,up
239385,-3.957031,6.953125,5.625,0.787109,-0.203125,-0.501953,0.899719,0.377686,0.216858,-0.028992,up
239391,-3.957031,7.070312,5.546875,0.882812,-0.189453,-0.490234,0.899719,0.377686,0.216858,-0.028992,up
239396,-3.996094,7.179687,5.511719,0.966797,-0.1875,-0.478516,0.899719,0.377686,0.216858,-0.028992,up
239402,-3.996094,7.300781,5.433594,1.068359,-0.181641,-0.460937,0.899719,0.377686,0.216858,-0.028992,up
239407,-3.996094,7.417969,5.355469,1.152344,-0.191406,-0.441406,0.899719,0.377686,0.216858,-0.028992,up
239413,-4.035156,7.601562,5.242187,1.212891,-0.189453,-0.423828,0.899719,0.377686,0.216858,-0.028992,up
239418,-3.957031,7.683594,5.203125,1.289063,-0.228516,-0.392578,0.893372,0.391663,0.216248,-0.041443,up
239423,-3.957031,7.800781,5.164062,1.289063,-0.228516,-0.392578,0.89209,0.394531,0.216003,-0.043457,up
239428,-3.921875,7.875,5.089844,1.289063,-0.228516,-0.392578,0.890869,0.397156,0.215698,-0.045227,up
239433,-3.921875,8.0625,4.933594,1.326172,-0.273438,-0.351563,0.88855,0.402466,0.214905,-0.048645,up
239438,-3.882813,8.222656,4.933594,1.326172,-0.273438,-0.351563,0.88855,0.402466,0.214905,-0.048645,up
239443,-3.882813,8.257813,4.972656,1.271484,-0.316406,-0.304688,0.88855,0.402466,0.214905,-0.048645,up
239448,-3.804688,8.300781,4.898437,1.228516,-0.322266,-0.298828,0.886108,0.407837,0.213867,-0.052063,up
239454,-3.804688,8.371094,4.742187,1.228516,-0.322266,-0.298828,0.88385,0.412903,0.212708,-0.05542,up
239459,-3.765625,8.40625,4.707031,1.123047,-0.333984,-0.271484,0.88269,0.415466,0.212036,-0.057129,up
239464,-3.691406,8.449219,4.628906,1.123047,-0.333984,-0.271484,0.881653,0.417847,0.211365,-0.058716,up
239469,-3.691406,8.488281,4.550781,1.123047,-0.333984,-0.271484,0.881653,0.417847,0.211365,-0.058716,up
239474,-3.652344,8.527344,4.589844,0.996094,-0.34375,-0.25,0.880005,0.421509,0.210144,-0.06134,up
239479,-3.652344,8.5625,4.589844,0.845703,-0.355469,-0.220703,0.87915,0.423462,0.209412,-0.062866,up
239484,-3.613281,8.484375,4.550781,0.845703,-0.355469,-0.220703,0.87915,0.423462,0.209412,-0.062866,up
239489,-3.613281,8.484375,4.550781,0.6875,-0.341797,-0.205078,0.877808,0.426453,0.208069,-0.065247,up
239494,-3.574219,8.449219,4.4375,0.609375,-0.345703,-0.191406,0.877197,0.427856,0.207336,-0.066528,up
239499,-3.535156,8.445313,4.4375,0.609375,-0.345703,-0.191406,0.876831,0.428833,0.206787,-0.067444,up
239504,-3.535156,8.445313,4.4375,0.609375,-0.345703,-0.191406,0.876343,0.429932,0.206055,-0.068604,up
239509,-3.535156,8.445313,4.4375,0.609375,-0.345703,-0.191406,0.876038,0.430725,0.205444,-0.069458,up
239514,-3.5,8.410156,4.4375,0.351563,-0.320313,-0.150391,0.876038,0.430725,0.205444,-0.069458,up
239519,-3.5,8.371094,4.4375,0.351563,-0.320313,-0.150391,0.875488,0.432068,0.204163,-0.071289,up
239525,-3.382813,8.222656,4.550781,0.351563,-0.320313,-0.150391,0.875366,0.432556,0.203674,-0.07196,up
239530,-3.421875,8.140625,4.589844,0.195312,-0.253906,-0.128906,0.875244,0.432922,0.203186,-0.072693,up
239535,-3.421875,8.066406,4.589844,0.154297,-0.224609,-0.107422,0.875244,0.432922,0.203186,-0.072693,up
239541,-3.421875,7.953125,4.667969,0.154297,-0.224609,-0.107422,0.875244,0.432922,0.203186,-0.072693,up
239547,-3.421875,7.917969,4.742187,0.154297,-0.224609,-0.107422,0.875,0.433594,0.202026,-0.07428,up
239553,-3.460938,7.800781,4.742187,0.039063,-0.138672,-0.066406,0.875,0.433594,0.202026,-0.07428,up
239558,-3.535156,7.71875,4.859375,0.011719,-0.115234,-0.052734,0.875,0.433594,0.202026,-0.07428,up
239563,-3.5,7.71875,4.933594,0.011719,-0.115234,-0.052734,0.875061,0.433655,0.201294,-0.075134,up
239568,-3.5,7.679687,4.972656,-0.009766,-0.074219,-0.021484,0.875061,0.433655,0.201294,-0.075134,up
239574,-3.535156,7.605469,4.972656,-0.011719,-0.044922,0.0,0.875061,0.433655,0.201294,-0.075134,up
239579,-3.535156,7.535156,5.011719,-0.011719,-0.044922,0.0,0.875244,0.433533,0.200806,-0.0755,up
239584,-3.574219,7.53125,5.011719,-0.011719,-0.044922,0.0,0.875244,0.433533,0.200806,-0.0755,up
239589,-3.574219,7.535156,5.050781,-0.013672,0.003906,0.041016,0.875244,0.433533,0.200806,-0.0755,up
239594,-3.613281,7.5625,5.050781,-0.013672,0.003906,0.041016,0.875244,0.433533,0.200684,-0.075256,up
239599,-3.613281,7.496094,5.089844,-0.013672,0.003906,0.041016,0.875305,0.433533,0.200623,-0.075134,up
239604,-3.613281,7.496094,5.089844,-0.039063,0.035156,0.076172,0.875305,0.433533,0.200623,-0.075134,up
239609,-3.613281,7.535156,5.128906,-0.039063,0.035156,0.076172,0.875366,0.433472,0.200623,-0.074646,up
239614,-3.613281,7.496094,5.128906,-0.039063,0.035156,0.076172,0.875427,0.433411,0.200684,-0.074341,up
239620,-3.691406,7.453125,5.128906,-0.109375,0.074219,0.099609,0.875488,0.433228,0.200684,-0.073975,up
239625,-3.613281,7.457031,5.128906,-0.138672,0.085937,0.107422,0.87561,0.433044,0.200806,-0.073608,up
239630,-3.691406,7.378906,5.164062,-0.138672,0.085937,0.107422,0.875732,0.432861,0.200867,-0.073242,up
239636,-3.691406,7.378906,5.242187,-0.138672,0.085937,0.107422,0.875916,0.432556,0.200989,-0.072815,up
239642,-3.726563,7.335937,5.242187,-0.197266,0.091797,0.126953,0.875916,0.432556,0.200989,-0.072815,up
239647,-3.726563,7.300781,5.242187,-0.210937,0.09375,0.125,0.875916,0.432556,0.200989,-0.072815,up
239652,-3.691406,7.257812,5.320312,-0.210937,0.09375,0.125,0.876465,0.431519,0.201233,-0.071411,up
239657,-3.652344,7.222656,5.320312,-0.214844,0.089844,0.138672,0.876465,0.431519,0.201233,-0.071411,up
239662,-3.652344,7.148437,5.28125,-0.203125,0.085937,0.144531,0.876465,0.431519,0.201233,-0.071411,up
239667,-3.613281,7.152344,5.320312,-0.210937,0.082031,0.146484,0.876465,0.431519,0.201233,-0.071411,up
239672,-3.574219,7.148437,5.320312,-0.210937,0.082031,0.146484,0.876465,0.431519,0.201233,-0.071411,up
239677,-3.535156,7.070312,5.320312,-0.203125,0.074219,0.167969,0.876465,0.431519,0.201233,-0.071411,up
239682,-3.535156,7.070312,5.355469,-0.195312,0.070312,0.169922,0.876465,0.431519,0.201233,-0.071411,up
239687,-3.535156,7.070312,5.320312,-0.191406,0.072266,0.173828,0.876465,0.431519,0.201233,-0.071411,up
239693,-3.460938,7.070312,5.320312,-0.191406,0.072266,0.173828,0.876465,0.431519,0.201233,-0.071411,up
239699,-3.460938,7.035156,5.320312,-0.207031,0.089844,0.175781,0.876465,0.431519,0.201233,-0.071411,up
239704,-3.421875,7.035156,5.28125,-0.207031,0.089844,0.175781,0.878662,0.427856,0.201599,-0.065369,up
239709,-3.382813,7.03125,5.242187,-0.21875,0.103516,0.175781,0.878662,0.427856,0.201599,-0.065369,up
239714,-3.382813,7.03125,5.242187,-0.21875,0.103516,0.175781,0.878845,0.427551,0.20166,-0.064758,up
239719,-3.34375,7.03125,5.28125,-0.226562,0.109375,0.171875,0.878845,0.427551,0.20166,-0.064758,up
239724,-3.34375,7.03125,5.28125,-0.226562,0.109375,0.171875,0.879456,0.426392,0.201904,-0.062927,up
239729,-3.34375,7.074219,5.394531,-0.226562,0.109375,0.171875,0.879456,0.426392,0.201904,-0.062927,up
239734,-3.34375,7.070312,5.355469,-0.246094,0.144531,0.169922,0.879456,0.426392,0.201904,-0.062927,up
239740,-3.34375,7.035156,5.511719,-0.246094,0.144531,0.169922,0.880127,0.425171,0.202393,-0.060913,up
239746,-3.269531,6.992187,5.625,-0.246094,0.144531,0.169922,0.88031,0.424744,0.202576,-0.060303,up
239751,-3.230469,6.996094,5.664062,-0.244141,0.167969,0.181641,0.880493,0.424316,0.202759,-0.05957,up
239756,-3.230469,7.035156,5.894531,-0.21875,0.177734,0.195312,0.880493,0.424316,0.202759,-0.05957,up
239762,-3.230469,7.035156,5.96875,-0.21875,0.177734,0.195312,0.880798,0.423645,0.203186,-0.058167,up
239767,-3.269531,7.035156,6.046875,-0.169922,0.189453,0.214844,0.880798,0.423645,0.203186,-0.058167,up
239772,-3.269531,7.03125,6.121094,-0.142578,0.193359,0.238281,0.880798,0.423645,0.203186,-0.058167,up
239778,-3.230469,6.992187,6.316406,-0.142578,0.193359,0.238281,0.880798,0.423645,0.203186,-0.058167,up
239783,-3.230469,6.992187,6.390625,-0.142578,0.193359,0.238281,0.881165,0.423035,0.203918,-0.054871,up
239788,-3.191406,6.957031,6.46875,-0.085937,0.21875,0.306641,0.881165,0.423035,0.203918,-0.054871,up
239793,-3.152344,6.992187,6.542969,-0.087891,0.224609,0.341797,0.881165,0.423035,0.203918,-0.054871,up
239798,-3.152344,6.957031,6.699219,-0.087891,0.224609,0.341797,0.881165,0.423035,0.203918,-0.054871,up
239803,-3.191406,7.074219,6.734375,-0.087891,0.224609,0.341797,0.881226,0.423096,0.204468,-0.05072,up
239808,-3.191406,7.148437,6.773437,-0.044922,0.226562,0.404297,0.881226,0.423096,0.204468,-0.05072,up
239814,-3.308594,7.378906,6.925781,-0.035156,0.208984,0.429687,0.881165,0.423584,0.204529,-0.047363,up
239819,-3.34375,7.492187,6.964844,-0.035156,0.208984,0.429687,0.881165,0.423584,0.204529,-0.047363,up
239824,-3.382813,7.5625,7.082031,-0.052734,0.177734,0.453125,0.881165,0.423584,0.204529,-0.047363,up
239829,-3.382813,7.679687,7.117187,-0.052734,0.177734,0.453125,0.881165,0.424072,0.204346,-0.043701,up
239834,-3.421875,7.722656,7.042969,-0.052734,0.177734,0.453125,0.881226,0.424133,0.204224,-0.04248,up
239839,-3.421875,7.917969,7.195312,-0.052734,0.177734,0.453125,0.881226,0.424133,0.204224,-0.04248,up
239844,-3.421875,7.953125,7.234375,-0.181641,0.173828,0.498047,0.881226,0.424133,0.204224,-0.04248,up
239849,-3.460938,8.023438,7.347656,-0.181641,0.173828,0.498047,0.88147,0.424072,0.203979,-0.039856,up
239855,-3.574219,8.296875,7.578125,-0.230469,0.203125,0.525391,0.881897,0.423584,0.203735,-0.036682,up
239860,-3.574219,8.367188,7.65625,-0.378906,0.261719,0.585937,0.882141,0.423157,0.203735,-0.034973,up
239865,-3.726563,8.566406,7.921875,-0.378906,0.261719,0.585937,0.882507,0.422546,0.203735,-0.033081,up
239870,-3.765625,8.640625,7.960937,-0.378906,0.261719,0.585937,0.882874,0.421936,0.203796,-0.031372,up
239875,-3.882813,8.722656,8.039063,-0.611328,0.404297,0.6875,0.883362,0.420959,0.203979,-0.028931,up
239880,-3.921875,8.832031,8.152344,-0.683594,0.453125,0.722656,0.883911,0.419922,0.204224,-0.026611,up
239886,-4.1875,9.0625,8.304688,-0.683594,0.453125,0.722656,0.884338,0.418884,0.204468,-0.024414,up
239891,-4.226562,9.027344,8.304688,-0.84375,0.507812,0.787109,0.88501,0.417603,0.204773,-0.021851,up
239897,-4.1875,8.949219,8.34375,-0.927734,0.529297,0.820312,0.88501,0.417603,0.204773,-0.021851,up
239902,-4.265625,8.71875,8.34375,-0.994141,0.537109,0.859375,0.88501,0.417603,0.204773,-0.021851,up
239908,-4.265625,8.566406,8.304688,-1.044922,0.544922,0.880859,0.88501,0.417603,0.204773,-0.021851,up
239913,-4.265625,8.566406,8.304688,-1.080078,0.537109,0.900391,0.888062,0.410767,0.206116,-0.009949,up
239918,-4.226562,8.488281,8.230469,-1.080078,0.537109,0.900391,0.888916,0.408813,0.20636,-0.006897,up
239923,-4.148437,8.21875,8.226563,-1.080078,0.537109,0.900391,0.888916,0.408813,0.20636,-0.006897,up
239928,-4.148437,8.21875,8.226563,-1.076172,0.451172,0.935547,0.890686,0.404907,0.206665,-0.00061,up
239934,-4.035156,7.875,8.1875,-1.054688,0.433594,0.945312,0.892395,0.401184,0.206665,0.005615,up
239939,-3.957031,7.722656,8.148438,-1.001953,0.380859,0.953125,0.892395,0.401184,0.206665,0.005615,up
239944,-3.996094,7.722656,8.109375,-1.001953,0.380859,0.953125,0.893127,0.399475,0.206543,0.008606,up
239949,-3.957031,7.683594,8.039063,-1.001953,0.380859,0.953125,0.893982,0.397583,0.20636,0.011963,up
239955,-3.84375,7.566406,7.84375,-0.978516,0.355469,0.951172,0.893982,0.397583,0.20636,0.011963,up
239961,-3.882813,7.453125,7.621094,-0.978516,0.355469,0.951172,0.896179,0.392517,0.205811,0.020691,up
239966,-3.882813,7.375,7.582031,-1.087891,0.376953,0.962891,0.896973,0.390686,0.205627,0.023743,up
239971,-3.804688,7.222656,7.464844,-1.167969,0.394531,0.966797,0.897766,0.388672,0.205444,0.026794,up
239976,-3.804688,7.109375,7.382812,-1.167969,0.394531,0.966797,0.898743,0.386292,0.205261,0.030212,up
239982,-3.804688,6.878906,7.277344,-1.167969,0.394531,0.966797,0.898743,0.386292,0.205261,0.030212,up
239987,-3.804688,6.726562,7.195312,-1.404297,0.449219,1.005859,0.900574,0.38147,0.205017,0.036743,up
239993,-3.765625,6.417969,7.082031,-1.480469,0.46875,1.007813,0.900574,0.38147,0.205017,0.036743,up
239998,-3.691406,6.34375,7.003906,-1.560547,0.484375,1.0,0.900574,0.38147,0.205017,0.036743,up
240004,-3.691406,6.265625,6.960937,-1.636719,0.494141,0.980469,0.900574,0.38147,0.205017,0.036743,up
240009,-3.652344,6.1875,6.890625,-1.636719,0.494141,0.980469,0.904968,0.369385,0.204834,0.050842,up
240014,-3.613281,5.960937,6.773437,-1.636719,0.494141,0.980469,0.906128,0.36615,0.204834,0.05426,up
240019,-3.574219,5.921875,6.699219,-1.636719,0.494141,0.980469,0.907349,0.362488,0.204956,0.058105,up
240025,-3.613281,5.921875,6.621094,-1.732422,0.597656,0.892578,0.907349,0.362488,0.204956,0.058105,up
240030,-3.613281,5.84375,6.539062,-1.732422,0.597656,0.892578,0.910522,0.352051,0.205566,0.068298,up
240036,-3.574219,5.613281,6.277344,-1.732422,0.597656,0.892578,0.911621,0.348511,0.205933,0.071594,up
240041,-3.535156,5.578125,6.273437,-1.886719,0.650391,0.835937,0.912781,0.344482,0.206299,0.075134,up
240047,-3.535156,5.5,6.273437,-1.912109,0.640625,0.826172,0.912781,0.344482,0.206299,0.075134,up
240052,-3.535156,5.5,6.273437,-1.912109,0.640625,0.826172,0.912781,0.344482,0.206299,0.075134,up
240058,-3.535156,5.5,6.273437,-1.947266,0.642578,0.792969,0.916199,0.332092,0.207458,0.085327,up
240063,-3.535156,5.5,6.273437,-1.986328,0.636719,0.732422,0.917297,0.327881,0.207886,0.088562,up
240068,-3.574219,5.386719,6.15625,-1.986328,0.636719,0.732422,0.917297,0.327881,0.207886,0.088562,up
240073,-3.652344,5.308594,6.199219,-1.972656,0.630859,0.679687,0.919556,0.319153,0.20874,0.094849,up
240078,-3.613281,5.269531,6.117187,-1.9375,0.654297,0.576172,0.919556,0.319153,0.20874,0.094849,up
240083,-3.613281,5.230469,6.160156,-1.9375,0.654297,0.576172,0.921631,0.310486,0.209839,0.100586,up
240088,-3.574219,5.308594,6.160156,-1.878906,0.673828,0.470703,0.921631,0.310486,0.209839,0.100586,up
240093,-3.535156,5.308594,6.199219,-1.849609,0.669922,0.416016,0.921631,0.310486,0.209839,0.100586,up
240099,-3.535156,5.230469,6.277344,-1.849609,0.6875,0.337891,0.921631,0.310486,0.209839,0.100586,up
240104,-3.613281,5.230469,6.195312,-1.849609,0.6875,0.337891,0.925415,0.293518,0.212769,0.110413,up
240109,-3.613281,5.347656,6.238281,-1.849609,0.6875,0.337891,0.92627,0.289307,0.213562,0.112671,up
240115,-3.652344,5.308594,6.316406,-1.953125,0.667969,0.300781,0.92627,0.289307,0.213562,0.112671,up
240120,-3.765625,5.117187,6.351562,-1.953125,0.667969,0.300781,0.929077,0.275635,0.215881,0.119385,up
240125,-3.765625,5.039062,6.351562,-2.013672,0.667969,0.283203,0.929077,0.275635,0.215881,0.119385,up
240130,-3.765625,4.964844,6.511719,-2.03125,0.65625,0.259766,0.930054,0.270447,0.216736,0.121826,up
240135,-3.84375,4.734375,6.855469,-2.046875,0.65625,0.238281,0.930908,0.266296,0.217346,0.123718,up
240141,-3.921875,4.617187,6.894531,-2.046875,0.65625,0.238281,0.932739,0.256592,0.21875,0.12793,up
240146,-3.957031,4.582031,7.003906,-2.011719,0.644531,0.15625,0.933594,0.251831,0.219482,0.129822,up
240151,-3.957031,4.582031,7.003906,-1.955078,0.599609,0.121094,0.934448,0.246948,0.220215,0.131653,up
240156,-3.957031,4.351562,7.277344,-1.955078,0.599609,0.121094,0.934448,0.246948,0.220215,0.131653,up
240161,-3.957031,4.351562,7.277344,-1.882813,0.539062,0.09375,0.935303,0.242371,0.220764,0.133301,up
240166,-3.996094,4.3125,7.347656,-1.882813,0.539062,0.09375,0.936035,0.238037,0.221313,0.134766,up
240171,-3.996094,4.3125,7.347656,-1.546875,0.34375,0.003906,0.937561,0.229858,0.222046,0.137268,up
240177,-4.035156,4.390625,7.539062,-1.546875,0.34375,0.003906,0.938232,0.226318,0.222229,0.138245,up
240182,-4.035156,4.425781,7.539062,-1.328125,0.195312,-0.082031,0.938232,0.226318,0.222229,0.138245,up
240188,-4.074219,4.503906,7.460937,-1.253906,0.140625,-0.132812,0.938232,0.226318,0.222229,0.138245,up
240193,-4.148437,4.734375,7.304687,-1.214844,0.091797,-0.167969,0.940247,0.216797,0.222229,0.139893,up
240199,-4.148437,4.808594,7.277344,-1.208984,0.060547,-0.222656,0.940247,0.216797,0.222229,0.139893,up
240204,-4.148437,4.886719,7.308594,-1.246094,0.035156,-0.269531,0.940247,0.216797,0.222229,0.139893,up
240209,-4.148437,4.925781,7.304687,-1.269531,0.007813,-0.316406,0.940247,0.216797,0.222229,0.139893,up
240214,-4.226562,4.886719,7.347656,-1.269531,0.007813,-0.316406,0.943176,0.204346,0.221313,0.140198,up
240219,-4.148437,4.886719,7.425781,-1.392578,-0.003906,-0.386719,0.943176,0.204346,0.221313,0.140198,up
240224,-4.1875,4.925781,7.460937,-1.466797,0.001953,-0.40625,0.943176,0.204346,0.221313,0.140198,up
240230,-4.148437,5.0,7.386719,-1.513672,-0.001953,-0.40625,0.943176,0.204346,0.221313,0.140198,up
240235,-4.148437,4.925781,7.386719,-1.550781,-0.007813,-0.410156,0.94751,0.185791,0.219482,0.139526,up
240240,-4.113281,4.847656,7.464844,-1.617188,-0.029297,-0.386719,0.94751,0.185791,0.219482,0.139526,up
240245,-4.074219,4.695312,7.578125,-1.617188,-0.029297,-0.386719,0.948486,0.18158,0.218994,0.139465,up
240250,-4.074219,4.617187,7.621094,-1.617188,-0.029297,-0.386719,0.950195,0.173767,0.217957,0.139404,up
240255,-4.035156,4.390625,7.699219,-1.617188,-0.029297,-0.386719,0.950195,0.173767,0.217957,0.139404,up
240260,-3.84375,4.234375,7.617187,-1.554688,-0.111328,-0.328125,0.951904,0.165955,0.216553,0.139404,up
240265,-3.765625,3.890625,7.621094,-1.554688,-0.111328,-0.328125,0.951904,0.165955,0.216553,0.139404,up
240270,-3.726563,3.777344,7.621094,-1.554688,-0.111328,-0.328125,0.952698,0.162537,0.215759,0.139343,up
240275,-3.726563,3.777344,7.621094,-1.208984,-0.234375,-0.326172,0.95343,0.159363,0.214905,0.13916,up
240280,-3.726563,3.777344,7.621094,-1.078125,-0.259766,-0.320313,0.954102,0.156677,0.21405,0.138916,up
240285,-3.691406,3.277344,7.617187,-1.078125,-0.259766,-0.320313,0.954773,0.154175,0.213196,0.13855,up
240290,-3.691406,3.277344,7.617187,-1.078125,-0.259766,-0.320313,0.954773,0.154175,0.213196,0.13855,up
240295,-3.652344,3.238281,7.621094,-0.773437,-0.40625,-0.416016,0.954773,0.154175,0.213196,0.13855,up
240300,-3.613281,3.46875,7.386719,-0.773437,-0.40625,-0.416016,0.956665,0.147766,0.210205,0.136841,up
240306,-3.613281,3.46875,7.386719,-0.736328,-0.496094,-0.484375,0.958008,0.144043,0.207825,0.135132,up
240311,-3.765625,3.660156,7.308594,-0.736328,-0.523437,-0.517578,0.958008,0.144043,0.207825,0.135132,up
240316,-3.765625,3.660156,7.308594,-0.767578,-0.519531,-0.548828,0.959473,0.140259,0.205139,0.132996,up
240322,-3.765625,3.8125,6.855469,-0.767578,-0.519531,-0.548828,0.960205,0.138306,0.203796,0.131836,up
240327,-3.84375,3.929688,6.855469,-0.849609,-0.554687,-0.607422,0.960205,0.138306,0.203796,0.131836,up
240332,-3.84375,3.890625,6.816406,-0.914062,-0.564453,-0.625,0.961731,0.133911,0.200989,0.129333,up
240338,-3.726563,3.738281,6.921875,-1.019531,-0.566406,-0.646484,0.961731,0.133911,0.200989,0.129333,up
240343,-3.652344,3.621094,6.851562,-1.099609,-0.582031,-0.65625,0.961731,0.133911,0.200989,0.129333,up
240348,-3.652344,3.546875,6.773437,-1.197266,-0.582031,-0.679687,0.961731,0.133911,0.200989,0.129333,up
240353,-3.652344,3.394531,6.738281,-1.287109,-0.601562,-0.705078,0.961731,0.133911,0.200989,0.129333,up
240358,-3.574219,3.125,6.699219,-1.287109,-0.601562,-0.705078,0.961731,0.133911,0.200989,0.129333,up
240364,-3.535156,3.007813,6.695312,-1.392578,-0.626953,-0.742187,0.961731,0.133911,0.200989,0.129333,up
240370,-3.460938,2.894531,6.660156,-1.412109,-0.644531,-0.765625,0.961731,0.133911,0.200989,0.129333,up
240375,-3.34375,2.664063,6.660156,-1.416016,-0.648437,-0.798828,0.969849,0.105164,0.185974,0.117371,up
240380,-3.269531,2.589844,6.578125,-1.416016,-0.648437,-0.798828,0.969849,0.105164,0.185974,0.117371,up
240385,-3.191406,2.742188,6.539062,-1.400391,-0.667969,-0.927734,0.969849,0.105164,0.185974,0.117371,up
240390,-3.117188,2.78125,6.46875,-1.412109,-0.671875,-0.990234,0.97168,0.097961,0.182373,0.114014,up
240396,-3.0,2.816406,6.390625,-1.466797,-0.666016,-1.039063,0.972595,0.094238,0.180542,0.112061,up
240401,-2.886719,2.894531,6.390625,-1.466797,-0.666016,-1.039063,0.974548,0.086182,0.176758,0.107788,up
240406,-2.769531,3.046875,6.390625,-1.466797,-0.666016,-1.039063,0.975464,0.081909,0.174927,0.10553,up
240411,-2.734375,2.933594,6.433594,-1.466797,-0.666016,-1.039063,0.975464,0.081909,0.174927,0.10553,up
240416,-2.734375,2.933594,6.433594,-1.765625,-0.605469,-1.216797,0.976257,0.077942,0.173401,0.103516,up
240421,-2.695313,2.855469,6.582031,-1.765625,-0.605469,-1.216797,0.977173,0.07312,0.171753,0.101196,up
240426,-2.695313,2.855469,6.582031,-2.076172,-0.546875,-1.298828,0.979004,0.062073,0.168457,0.096313,up
240431,-2.617188,2.550781,6.8125,-2.076172,-0.546875,-1.298828,0.979004,0.062073,0.168457,0.096313,up
240436,-2.578125,2.472656,6.960937,-2.371094,-0.474609,-1.402344,0.980774,0.049438,0.165344,0.091248,up
240441,-2.503906,2.320313,7.042969,-2.685547,-0.425781,-1.501953,0.980774,0.049438,0.165344,0.091248,up
240446,-2.425781,1.628906,7.234375,-2.685547,-0.425781,-1.501953,0.982361,0.034973,0.162292,0.085815,up
240451,-2.425781,1.363281,7.234375,-2.685547,-0.425781,-1.501953,0.983032,0.027771,0.161011,0.083252,up
240456,-2.347656,1.019531,7.238281,-2.888672,-0.248047,-1.552734,0.983032,0.027771,0.161011,0.083252,up
240461,-2.347656,0.863281,7.347656,-2.888672,-0.248047,-1.552734,0.984192,0.011902,0.158691,0.077637,up
240466,-2.273438,0.789062,7.460937,-2.888672,-0.248047,-1.552734,0.984558,0.005005,0.157898,0.075134,up
240471,-2.195313,0.828125,7.277344,-2.724609,-0.060547,-1.546875,0.984924,-0.002808,0.157104,0.072266,up
240477,-2.082031,0.480469,7.578125,-2.724609,-0.060547,-1.546875,0.985168,-0.009705,0.156555,0.06958,up
240482,-2.082031,0.328125,7.621094,-2.603516,0.025391,-1.525391,0.985352,-0.016724,0.156006,0.066833,up
240488,-2.121094,0.058594,7.582031,-2.603516,0.025391,-1.525391,0.985474,-0.023743,0.15564,0.064026,up
240493,-2.042969,0.058594,7.621094,-2.322266,0.119141,-1.478516,0.985474,-0.030151,0.155396,0.061279,up
240499,-2.042969,0.136719,7.617187,-2.177734,0.166016,-1.445313,0.985474,-0.030151,0.155396,0.061279,up
240505,-2.121094,0.289063,7.542969,-2.177734,0.166016,-1.445313,0.985474,-0.030151,0.155396,0.061279,up
240510,-2.15625,0.328125,7.578125,-1.982422,0.257813,-1.410156,0.985474,-0.030151,0.155396,0.061279,up
240515,-2.15625,0.328125,7.578125,-1.964844,0.318359,-1.394531,0.985107,-0.053162,0.155762,0.050171,up
240520,-2.347656,0.175781,7.660156,-1.9375,0.384766,-1.384766,0.984863,-0.058533,0.156128,0.047485,up
240525,-2.347656,0.175781,7.660156,-1.894531,0.464844,-1.371094,0.984558,-0.063721,0.156738,0.044739,up
240530,-2.425781,0.136719,7.695312,-1.849609,0.554687,-1.341797,0.984558,-0.063721,0.156738,0.044739,up
240535,-2.425781,0.136719,7.695312,-1.806641,0.617187,-1.3125,0.983765,-0.074097,0.15863,0.039368,up
240540,-2.617188,0.136719,8.269531,-1.806641,0.617187,-1.3125,0.983276,-0.078979,0.15979,0.036743,up
240546,-2.65625,0.175781,8.386719,-1.693359,0.730469,-1.201172,0.983276,-0.078979,0.15979,0.036743,up
240551,-2.734375,0.097656,8.5,-1.693359,0.730469,-1.201172,0.981628,-0.093201,0.163818,0.029297,up
240557,-2.847656,-0.285156,8.84375,-1.693359,0.730469,-1.201172,0.981018,-0.0979,0.165222,0.026978,up
240562,-2.886719,-0.476562,8.917969,-1.599609,0.662109,-1.021484,0.981018,-0.0979,0.165222,0.026978,up
240567,-2.925781,-0.554687,8.957031,-1.494141,0.630859,-0.955078,0.981018,-0.0979,0.165222,0.026978,up
240572,-2.925781,-0.554687,8.957031,-1.359375,0.578125,-0.886719,0.979187,-0.110535,0.168884,0.021057,up
240578,-2.886719,-0.628906,9.226563,-1.359375,0.578125,-0.886719,0.978638,-0.114014,0.169922,0.019348,up
240584,-2.847656,-0.515625,9.191406,-1.09375,0.486328,-0.726562,0.978638,-0.114014,0.169922,0.019348,up
240589,-2.847656,-0.359375,9.265625,-0.943359,0.435547,-0.660156,0.978638,-0.114014,0.169922,0.019348,up
240594,-2.847656,-0.359375,9.375,-0.943359,0.435547,-0.660156,0.977234,-0.122375,0.172607,0.014954,up
240599,-2.886719,-0.324219,9.335938,-0.699219,0.318359,-0.554687,0.977234,-0.122375,0.172607,0.014954,up
240604,-2.886719,-0.285156,9.269531,-0.578125,0.285156,-0.511719,0.977234,-0.122375,0.172607,0.014954,up
240609,-2.847656,-0.167969,9.226563,-0.578125,0.285156,-0.511719,0.976257,-0.127991,0.174316,0.011414,up
240614,-2.886719,-0.132812,9.296875,-0.578125,0.285156,-0.511719,0.976257,-0.127991,0.174316,0.011414,up
240620,-2.886719,-0.167969,9.269531,-0.578125,0.285156,-0.511719,0.97583,-0.130249,0.175171,0.009521,up
240626,-2.960938,-0.167969,9.300781,-0.353516,0.226562,-0.369141,0.97583,-0.130249,0.175171,0.009521,up
240631,-3.039063,-0.246094,9.335938,-0.353516,0.226562,-0.369141,0.97522,-0.133179,0.176514,0.00708,up
240636,-3.117188,-0.324219,9.378906,-0.353516,0.226562,-0.369141,0.97522,-0.133179,0.176514,0.00708,up
240641,-3.152344,-0.246094,9.414063,-0.337891,0.220703,-0.236328,0.974792,-0.135071,0.177429,0.005981,up
240646,-3.34375,-0.246094,9.53125,-0.337891,0.220703,-0.236328,0.974609,-0.135803,0.177917,0.005615,up
240651,-3.421875,-0.285156,9.570313,-0.337891,0.220703,-0.236328,0.974426,-0.136536,0.178406,0.005371,up
240656,-3.421875,-0.4375,9.613281,-0.337891,0.220703,-0.236328,0.974426,-0.136536,0.178406,0.005371,up
240661,-3.460938,-0.476562,9.574219,-0.25,0.203125,-0.033203,0.97406,-0.137756,0.179382,0.005188,up
240666,-3.535156,-0.476562,9.53125,-0.25,0.203125,-0.033203,0.973938,-0.138123,0.179871,0.005249,up
240671,-3.574219,-0.515625,9.53125,-0.060547,0.125,0.101563,0.973938,-0.138123,0.179871,0.005249,up
240676,-3.613281,-0.554687,9.570313,-0.060547,0.125,0.101563,0.973816,-0.138245,0.180542,0.005676,up
240681,-3.691406,-0.628906,9.652344,-0.060547,0.125,0.101563,0.973755,-0.138062,0.180725,0.005981,up
240686,-3.804688,-0.820312,9.761719,0.089844,-0.015625,0.257813,0.973755,-0.138062,0.180725,0.005981,up
240691,-3.996094,-0.78125,9.796875,0.089844,-0.015625,0.257813,0.973816,-0.137756,0.180847,0.006531,up
240696,-4.113281,-0.746094,9.875,0.130859,-0.076172,0.3125,0.973938,-0.13678,0.180725,0.007935,up
240701,-4.226562,-0.667969,9.835938,0.130859,-0.076172,0.3125,0.97406,-0.13623,0.18042,0.008789,up
240706,-4.417969,-0.707031,9.875,0.130859,-0.076172,0.3125,0.97406,-0.13623,0.18042,0.008789,up
240711,-4.417969,-0.746094,9.835938,0.173828,-0.234375,0.453125,0.97406,-0.13623,0.18042,0.008789,up
240716,-4.53125,-0.898437,9.800781,0.183594,-0.261719,0.496094,0.97406,-0.13623,0.18042,0.008789,up
240721,-4.496094,-0.972656,9.800781,0.183594,-0.261719,0.496094,0.974548,-0.134216,0.179138,0.012207,up
240726,-4.457031,-1.089844,9.757813,0.160156,-0.318359,0.587891,0.974548,-0.134216,0.179138,0.012207,up
240731,-4.457031,-1.203125,9.6875,0.164062,-0.355469,0.666016,0.974548,-0.134216,0.179138,0.012207,up
240737,-4.417969,-1.242188,9.722656,0.164062,-0.355469,0.666016,0.975281,-0.131348,0.176758,0.018372,up
240743,-4.226562,-1.585938,9.6875,0.164062,-0.355469,0.666016,0.975525,-0.13031,0.176086,0.020386,up
240748,-4.113281,-1.777344,9.652344,0.322266,-0.369141,0.816406,0.975708,-0.129333,0.175476,0.022156,up
240753,-4.035156,-1.777344,9.652344,0.443359,-0.341797,0.867187,0.975952,-0.127991,0.174927,0.024109,up
240759,-3.84375,-1.816406,9.757813,0.443359,-0.341797,0.867187,0.976196,-0.126221,0.174438,0.026184,up
240765,-3.765625,-1.816406,9.796875,0.720703,-0.269531,0.951172,0.976196,-0.126221,0.174438,0.026184,up
240770,-3.726563,-1.816406,9.800781,0.861328,-0.226562,0.992187,0.976196,-0.126221,0.174438,0.026184,up
240775,-3.691406,-1.816406,9.796875,1.001953,-0.183594,1.044922,0.976196,-0.126221,0.174438,0.026184,up
240780,-3.613281,-1.777344,9.839844,1.113281,-0.132812,1.089844,0.976196,-0.126221,0.174438,0.026184,up
240785,-3.535156,-1.625,9.878906,1.199219,-0.091797,1.140625,0.976196,-0.126221,0.174438,0.026184,up
240790,-3.574219,-1.472656,9.917969,1.257813,-0.060547,1.181641,0.976196,-0.126221,0.174438,0.026184,up
240796,-3.535156,-1.242188,9.917969,1.257813,-0.060547,1.181641,0.978333,-0.101746,0.174866,0.043884,up
240801,-3.574219,-1.050781,10.074219,1.257813,-0.060547,1.181641,0.978333,-0.101746,0.174866,0.043884,up
240806,-3.574219,-0.972656,10.222656,1.173828,0.011719,1.242188,0.978333,-0.101746,0.174866,0.043884,up
240811,-3.535156,-1.242188,10.417969,1.173828,0.011719,1.242188,0.97876,-0.090881,0.176331,0.051575,up
240816,-3.535156,-1.242188,10.484375,1.173828,0.011719,1.242188,0.978821,-0.087952,0.176697,0.053833,up
240821,-3.574219,-1.128906,10.640625,1.173828,0.011719,1.242188,0.978821,-0.087952,0.176697,0.053833,up
240826,-3.652344,-1.089844,10.875,0.982422,-0.007813,1.207031,0.978821,-0.087952,0.176697,0.053833,up
240831,-3.613281,-1.203125,10.984375,0.888672,-0.068359,1.183594,0.978943,-0.08197,0.177429,0.058838,up
240836,-3.574219,-1.28125,10.910156,0.888672,-0.068359,1.183594,0.979004,-0.078979,0.177734,0.061462,up
240841,-3.574219,-1.28125,10.910156,0.882812,-0.117188,1.181641,0.979004,-0.076416,0.177856,0.063843,up
240846,-3.652344,-1.28125,10.949219,0.882812,-0.117188,1.181641,0.979004,-0.07373,0.177979,0.066345,up
240851,-3.726563,-1.128906,11.0625,0.882812,-0.117188,1.181641,0.979004,-0.07373,0.177979,0.066345,up
240856,-3.726563,-1.128906,11.0625,0.902344,-0.142578,1.166016,0.979126,-0.065369,0.177917,0.073669,up
240861,-3.804688,-0.667969,11.289063,0.902344,-0.142578,1.166016,0.979126,-0.065369,0.177917,0.073669,up
240867,-3.84375,-0.667969,11.410156,0.902344,-0.142578,1.166016,0.979187,-0.059448,0.177429,0.07843,up
240872,-3.84375,-0.78125,11.449219,0.933594,-0.308594,1.005859,0.979187,-0.059448,0.177429,0.07843,up
240877,-3.804688,-0.589844,11.40625,0.908203,-0.324219,0.980469,0.979248,-0.05658,0.177063,0.080566,up
240883,-3.726563,-0.554687,11.449219,0.908203,-0.324219,0.980469,0.97937,-0.05127,0.176147,0.084534,up
240888,-3.804688,-0.476562,11.449219,0.849609,-0.341797,0.9375,0.97937,-0.05127,0.176147,0.084534,up
240893,-3.882813,-0.476562,11.488281,0.828125,-0.34375,0.931641,0.979492,-0.045959,0.175049,0.08844,up
240898,-3.804688,-0.476562,11.484375,0.828125,-0.34375,0.931641,0.979553,-0.043152,0.174438,0.090698,up
240903,-3.804688,-0.476562,11.640625,0.828125,-0.34375,0.931641,0.979553,-0.043152,0.174438,0.090698,up
240908,-3.804688,-0.476562,11.640625,0.800781,-0.337891,0.998047,0.979553,-0.043152,0.174438,0.090698,up
240913,-3.765625,-0.515625,11.601563,0.800781,-0.337891,0.998047,0.979553,-0.03595,0.172852,0.096619,up
240919,-3.84375,-0.246094,11.601563,0.800781,-0.337891,0.998047,0.979492,-0.033325,0.172302,0.098938,up
240924,-3.957031,-0.132812,11.5625,0.902344,-0.341797,1.115234,0.979492,-0.033325,0.172302,0.098938,up
240929,-3.957031,-0.054687,11.605469,0.972656,-0.363281,1.154297,0.979492,-0.033325,0.172302,0.098938,up
240934,-4.074219,-0.054687,11.601563,1.042969,-0.384766,1.191406,0.979492,-0.033325,0.172302,0.098938,up
240940,-3.996094,0.25,11.5625,1.042969,-0.384766,1.191406,0.979492,-0.033325,0.172302,0.098938,up
240945,-4.035156,0.40625,11.5625,1.042969,-0.384766,1.191406,0.979126,-0.017822,0.169373,0.111145,up
240950,-4.035156,0.519531,11.445313,1.199219,-0.507812,1.28125,0.979126,-0.017822,0.169373,0.111145,up
240956,-3.921875,0.789062,11.328125,1.199219,-0.507812,1.28125,0.97876,-0.006653,0.166626,0.119263,up
240961,-3.726563,0.902344,11.257813,1.199219,-0.507812,1.28125,0.97876,-0.006653,0.166626,0.119263,up
240966,-3.613281,0.902344,11.257813,1.123047,-0.65625,1.396484,0.97876,-0.006653,0.166626,0.119263,up
240971,-3.5,0.828125,11.144531,1.123047,-0.65625,1.396484,0.978455,0.000732,0.164246,0.124939,up
240976,-3.382813,0.828125,10.988281,1.123047,-0.65625,1.396484,0.978455,0.000732,0.164246,0.124939,up
240981,-3.269531,0.863281,10.945313,1.048828,-0.671875,1.4375,0.978455,0.000732,0.164246,0.124939,up
240986,-3.269531,0.863281,10.945313,0.947266,-0.65625,1.539063,0.977844,0.010803,0.160278,0.134338,up
240991,-3.078125,0.828125,10.875,0.947266,-0.65625,1.539063,0.977539,0.014038,0.158936,0.137817,up
240996,-2.960938,0.671875,10.839844,0.900391,-0.591797,1.640625,0.977173,0.01709,0.157715,0.141357,up
241002,-2.886719,0.40625,10.839844,0.894531,-0.546875,1.697266,0.976257,0.023499,0.155518,0.148926,up
241007,-2.847656,0.441406,10.835938,0.894531,-0.546875,1.697266,0.976257,0.023499,0.155518,0.148926,up
241012,-2.847656,0.632812,10.761719,1.046875,-0.388672,1.830078,0.975708,0.026855,0.154602,0.152893,up
241017,-2.925781,0.632812,10.757813,1.046875,-0.388672,1.830078,0.974426,0.033813,0.153198,0.16095,up
241022,-3.039063,0.75,10.71875,1.046875,-0.388672,1.830078,0.974426,0.033813,0.153198,0.16095,up
241027,-3.078125,0.828125,10.644531,1.046875,-0.388672,1.830078,0.972961,0.040771,0.152222,0.168884,up
241032,-3.152344,0.863281,10.527344,1.121094,-0.271484,2.003906,0.972961,0.040771,0.152222,0.168884,up
241037,-3.191406,0.902344,10.484375,1.121094,-0.271484,2.003906,0.971191,0.048218,0.151367,0.177612,up
241042,-3.269531,0.980469,10.417969,1.105469,-0.205078,2.042969,0.971191,0.048218,0.151367,0.177612,up
241048,-3.152344,1.132813,10.527344,1.105469,-0.205078,2.042969,0.969238,0.055481,0.150818,0.186523,up
241053,-3.152344,1.132813,10.527344,1.083984,-0.158203,2.068359,0.96814,0.059143,0.150574,0.191162,up
241059,-3.308594,1.171875,10.417969,1.083984,-0.158203,2.068359,0.967041,0.062622,0.150452,0.195618,up
241065,-3.230469,1.210938,10.640625,1.083984,-0.158203,2.068359,0.965881,0.066101,0.150391,0.200134,up
241070,-3.34375,1.285156,10.5625,1.097656,-0.082031,2.087891,0.965881,0.066101,0.150391,0.200134,up
241075,-3.460938,1.363281,10.527344,1.117188,-0.056641,2.089844,0.965881,0.066101,0.150391,0.200134,up
241080,-3.308594,1.476563,10.601563,1.148438,-0.060547,2.085938,0.965881,0.066101,0.150391,0.200134,up
241086,-3.574219,2.207031,10.179688,1.148438,-0.060547,2.085938,0.965881,0.066101,0.150391,0.200134,up
241091,-3.574219,2.359375,10.335938,1.148438,-0.060547,2.085938,0.95929,0.084534,0.150574,0.22345,up
241096,-3.574219,2.359375,10.335938,1.072266,-0.09375,2.027344,0.95813,0.087646,0.150513,0.227356,up
241101,-3.574219,2.855469,10.296875,1.072266,-0.09375,2.027344,0.95813,0.087646,0.150513,0.227356,up
241106,-3.613281,3.046875,10.257813,0.984375,-0.121094,1.994141,0.955444,0.094055,0.150146,0.236084,up
241111,-3.613281,3.046875,10.257813,0.984375,-0.121094,1.994141,0.955444,0.094055,0.150146,0.236084,up
241116,-3.421875,3.316406,10.070313,0.566406,-0.212891,1.912109,0.955444,0.094055,0.150146,0.236084,up
241122,-3.460938,3.238281,9.996094,0.410156,-0.228516,1.898438,0.950562,0.102966,0.147644,0.253113,up
241127,-3.421875,3.164063,10.074219,0.410156,-0.228516,1.898438,0.950562,0.102966,0.147644,0.253113,up
241132,-3.382813,3.164063,10.105469,0.074219,-0.279297,1.898438,0.950562,0.102966,0.147644,0.253113,up
241137,-3.382813,2.816406,10.144531,0.074219,-0.279297,1.898438,0.947083,0.106567,0.144409,0.266174,up
241142,-3.269531,2.703125,10.296875,0.074219,-0.279297,1.898438,0.947083,0.106567,0.144409,0.266174,up
241147,-3.152344,2.742188,10.378906,0.138672,-0.287109,1.966797,0.947083,0.106567,0.144409,0.266174,up
241152,-3.117188,2.742188,10.296875,0.138672,-0.287109,1.966797,0.943298,0.110168,0.14093,0.279602,up
241157,-3.0,2.78125,10.261719,0.138672,-0.287109,1.966797,0.941895,0.111816,0.139954,0.284119,up
241162,-2.65625,2.933594,10.457031,0.138672,-0.287109,1.966797,0.941895,0.111816,0.139954,0.284119,up
241167,-2.617188,3.125,10.457031,0.488281,-0.21875,2.095703,0.938721,0.115967,0.138367,0.293518,up
241172,-2.578125,3.429688,10.300781,0.488281,-0.21875,2.095703,0.937073,0.118408,0.137878,0.298157,up
241177,-2.65625,3.621094,10.261719,0.488281,-0.21875,2.095703,0.937073,0.118408,0.137878,0.298157,up
241182,-2.65625,3.8125,10.261719,0.742187,-0.097656,2.203125,0.937073,0.118408,0.137878,0.298157,up
241187,-2.769531,4.195312,10.296875,0.722656,-0.089844,2.210938,0.93335,0.123596,0.137024,0.307861,up
241192,-2.886719,4.351562,10.257813,0.722656,-0.089844,2.210938,0.931396,0.126282,0.136658,0.312805,up
241198,-2.886719,4.351562,10.257813,0.673828,-0.085937,2.226563,0.929565,0.128662,0.136292,0.317444,up
241203,-2.960938,4.425781,10.144531,0.609375,-0.087891,2.214844,0.929565,0.128662,0.136292,0.317444,up
241208,-3.152344,4.582031,10.035156,0.525391,-0.111328,2.228516,0.92572,0.133118,0.135376,0.327087,up
241213,-3.152344,4.582031,10.035156,0.314453,-0.152344,2.25,0.92572,0.133118,0.135376,0.327087,up
241218,-3.039063,4.617187,10.101563,0.314453,-0.152344,2.25,0.921814,0.136841,0.133911,0.337036,up
241223,-3.039063,4.542969,10.105469,0.314453,-0.152344,2.25,0.921814,0.136841,0.133911,0.337036,up
241229,-2.769531,4.464844,10.222656,0.314453,-0.152344,2.25,0.921814,0.136841,0.133911,0.337036,up
241234,-2.769531,4.464844,10.222656,0.146484,-0.261719,2.318359,0.91394,0.142761,0.129517,0.357178,up
241240,-2.769531,4.425781,10.144531,0.146484,-0.261719,2.318359,0.91394,0.142761,0.129517,0.357178,up
241245,-2.65625,4.273437,10.183594,0.146484,-0.261719,2.318359,0.90979,0.145569,0.12677,0.367432,up
241250,-2.769531,4.3125,9.996094,0.189453,-0.332031,2.367188,0.90979,0.145569,0.12677,0.367432,up
241256,-2.769531,4.160156,10.070313,0.207031,-0.347656,2.388672,0.90979,0.145569,0.12677,0.367432,up
241261,-2.617188,4.3125,9.996094,0.314453,-0.410156,2.4375,0.90979,0.145569,0.12677,0.367432,up
241266,-2.65625,4.390625,9.835938,0.314453,-0.410156,2.4375,0.90094,0.152161,0.120667,0.388123,up
241271,-2.578125,4.503906,9.761719,0.345703,-0.431641,2.451172,0.90094,0.152161,0.120667,0.388123,up
241276,-2.578125,4.503906,9.761719,0.357422,-0.458984,2.46875,0.896179,0.156128,0.117432,0.398376,up
241281,-2.578125,4.503906,9.761719,0.333984,-0.476562,2.478516,0.893738,0.158142,0.115784,0.403503,up
241286,-2.503906,4.847656,9.492188,0.333984,-0.476562,2.478516,0.893738,0.158142,0.115784,0.403503,up
241291,-2.425781,4.886719,9.457031,0.289063,-0.486328,2.480469,0.893738,0.158142,0.115784,0.403503,up
241296,-2.425781,4.886719,9.457031,0.169922,-0.472656,2.46875,0.886108,0.163635,0.110229,0.419312,up
241301,-2.15625,4.773437,9.265625,0.169922,-0.472656,2.46875,0.883667,0.1651,0.108337,0.424438,up
241306,-2.003906,4.695312,9.300781,-0.025391,-0.4375,2.433594,0.883667,0.1651,0.108337,0.424438,up
241312,-2.003906,4.617187,9.1875,-0.121094,-0.423828,2.443359,0.883667,0.1651,0.108337,0.424438,up
241317,-2.003906,4.234375,9.226563,-0.236328,-0.396484,2.431641,0.883667,0.1651,0.108337,0.424438,up
241323,-1.964844,4.042969,9.300781,-0.341797,-0.40625,2.435547,0.87384,0.168579,0.099854,0.445007,up
241328,-1.890625,3.851563,9.296875,-0.341797,-0.40625,2.435547,0.868652,0.169373,0.095032,0.45575,up
241333,-1.851563,3.699219,9.296875,-0.34375,-0.423828,2.435547,0.866089,0.169678,0.09259,0.46106,up
241339,-1.582031,3.46875,9.335938,-0.34375,-0.423828,2.435547,0.863831,0.170044,0.090515,0.465515,up
241344,-1.429688,3.507813,9.378906,-0.259766,-0.451172,2.451172,0.863831,0.170044,0.090515,0.465515,up
241350,-1.316406,3.546875,9.375,-0.201172,-0.449219,2.457031,0.863831,0.170044,0.090515,0.465515,up
241355,-1.199219,3.546875,9.335938,-0.201172,-0.449219,2.457031,0.863831,0.170044,0.090515,0.465515,up
241361,-1.199219,3.546875,9.335938,-0.126953,-0.433594,2.46875,0.852844,0.172791,0.081482,0.485962,up
241367,-1.199219,3.546875,9.335938,0.0,-0.359375,2.5,0.849915,0.173706,0.07959,0.491028,up
241372,-0.855469,3.777344,9.457031,0.0,-0.359375,2.5,0.846863,0.174744,0.077698,0.496277,up
241377,-0.703125,3.851563,9.574219,0.025391,-0.294922,2.537109,0.843811,0.175659,0.075989,0.501404,up
241383,-0.664062,3.699219,9.652344,-0.001953,-0.269531,2.560547,0.837341,0.177429,0.072449,0.512024,up
241388,-0.816406,3.660156,9.722656,-0.001953,-0.269531,2.560547,0.833984,0.178101,0.070618,0.517395,up
241393,-0.894531,3.660156,9.691406,-0.001953,-0.269531,2.560547,0.830933,0.17865,0.068909,0.5224,up
241399,-1.085938,3.546875,9.761719,-0.001953,-0.269531,2.560547,0.827637,0.179199,0.067078,0.527588,up
241404,-1.085938,3.585938,9.71875,-0.197266,-0.238281,2.621094,0.823914,0.179687,0.06488,0.533569,up
241410,-1.125,3.546875,9.496094,-0.197266,-0.238281,2.621094,0.820984,0.179993,0.063171,0.538208,up
241415,-1.199219,3.585938,9.457031,-0.294922,-0.25,2.628906,0.817627,0.180237,0.061096,0.543335,up
241421,-1.277344,3.394531,9.492188,-0.328125,-0.269531,2.638672,0.817627,0.180237,0.061096,0.543335,up
241426,-1.351563,3.203125,9.335938,-0.328125,-0.269531,2.638672,0.810791,0.180542,0.056641,0.553894,up
241432,-1.351563,3.164063,9.265625,-0.304688,-0.341797,2.701172,0.810791,0.180542,0.056641,0.553894,up
241437,-1.351563,3.164063,9.265625,-0.251953,-0.384766,2.728516,0.803772,0.181091,0.052002,0.564331,up
241442,-0.96875,3.316406,9.035156,-0.195312,-0.419922,2.748047,0.799988,0.181641,0.049561,0.569763,up
241447,-0.96875,3.316406,9.035156,-0.150391,-0.455078,2.744141,0.796265,0.182251,0.04718,0.57489,up
241452,-0.894531,3.429688,8.957031,-0.150391,-0.455078,2.744141,0.792358,0.183044,0.044739,0.5802,up
241457,-0.894531,3.429688,8.957031,-0.085937,-0.537109,2.736328,0.788513,0.183838,0.042358,0.585388,up
241462,-0.703125,3.546875,8.5,-0.085937,-0.537109,2.736328,0.784607,0.184692,0.039917,0.590454,up
241468,-0.625,3.46875,8.421875,-0.101563,-0.578125,2.712891,0.784607,0.184692,0.039917,0.590454,up
241473,-0.511719,3.507813,8.308594,-0.101563,-0.578125,2.712891,0.772522,0.187622,0.032104,0.605774,up
241478,-0.320313,3.546875,8.109375,-0.101563,-0.578125,2.712891,0.772522,0.187622,0.032104,0.605774,up
241483,-0.164062,3.546875,8.078125,-0.265625,-0.601562,2.634766,0.772522,0.187622,0.032104,0.605774,up
241488,0.0625,3.546875,7.921875,-0.265625,-0.601562,2.634766,0.760864,0.189636,0.023804,0.620117,up
241493,0.253906,3.546875,7.886719,-0.265625,-0.601562,2.634766,0.760864,0.189636,0.023804,0.620117,up
241498,0.601562,3.394531,7.699219,-0.431641,-0.583984,2.568359,0.753601,0.190186,0.018005,0.628967,up
241503,0.753906,3.394531,7.617187,-0.431641,-0.583984,2.568359,0.753601,0.190186,0.018005,0.628967,up
241508,0.945312,3.429688,7.621094,-0.595703,-0.519531,2.421875,0.753601,0.190186,0.018005,0.628967,up
241513,1.097656,3.46875,7.578125,-0.595703,-0.519531,2.421875,0.742798,0.189819,0.008667,0.641968,up
241518,1.214844,3.316406,7.421875,-0.595703,-0.519531,2.421875,0.742798,0.189819,0.008667,0.641968,up
241523,1.214844,3.316406,7.421875,-0.6875,-0.488281,2.339844,0.739563,0.189453,0.005737,0.645874,up
241528,1.136719,3.238281,7.460937,-0.71875,-0.486328,2.328125,0.739563,0.189453,0.005737,0.645874,up
241533,1.058594,3.007813,7.464844,-0.728516,-0.484375,2.314453,0.732727,0.188477,-0.000671,0.653931,up
241539,1.058594,3.007813,7.464844,-0.732422,-0.494141,2.310547,0.729248,0.187988,-0.003906,0.657898,up
241545,1.058594,2.972656,7.539062,-0.732422,-0.494141,2.310547,0.722412,0.18689,-0.010315,0.665649,up
241551,1.328125,2.933594,7.660156,-0.738281,-0.517578,2.322266,0.722412,0.18689,-0.010315,0.665649,up
241556,1.328125,2.972656,7.65625,-0.724609,-0.521484,2.324219,0.722412,0.18689,-0.010315,0.665649,up
241561,1.480469,3.007813,7.726562,-0.685547,-0.53125,2.341797,0.722412,0.18689,-0.010315,0.665649,up
241566,1.597656,3.046875,7.730469,-0.638672,-0.535156,2.355469,0.722412,0.18689,-0.010315,0.665649,up
241571,1.597656,3.007813,7.726562,-0.638672,-0.535156,2.355469,0.722412,0.18689,-0.010315,0.665649,up
241576,1.597656,2.894531,7.726562,-0.582031,-0.542969,2.386719,0.722412,0.18689,-0.010315,0.665649,up
241581,1.558594,2.816406,7.726562,-0.570312,-0.560547,2.404297,0.722412,0.18689,-0.010315,0.665649,up
241587,1.480469,2.550781,7.769531,-0.570312,-0.560547,2.404297,0.692444,0.184082,-0.035767,0.696655,up
241593,1.519531,2.398438,7.765625,-0.539062,-0.603516,2.445313,0.692444,0.184082,-0.035767,0.696655,up
241598,1.480469,2.28125,7.808594,-0.462891,-0.625,2.482422,0.692444,0.184082,-0.035767,0.696655,up
241603,1.519531,2.28125,7.847656,-0.462891,-0.625,2.482422,0.680115,0.184021,-0.045044,0.708191,up
241608,1.632813,2.359375,7.847656,-0.462891,-0.625,2.482422,0.671509,0.184265,-0.051086,0.715942,up
241613,1.75,2.359375,7.921875,-0.462891,-0.625,2.482422,0.671509,0.184265,-0.051086,0.715942,up
241618,1.75,2.359375,7.921875,-0.335938,-0.632812,2.488281,0.667175,0.184509,-0.053894,0.719666,up
241623,1.980469,2.398438,7.726562,-0.318359,-0.609375,2.486328,0.663208,0.184753,-0.056396,0.723083,up
241628,1.980469,2.398438,7.726562,-0.291016,-0.599609,2.488281,0.658875,0.184998,-0.059082,0.726746,up
241633,2.210938,2.359375,7.765625,-0.291016,-0.599609,2.488281,0.654236,0.185303,-0.061768,0.730652,up
241638,2.210938,2.359375,7.765625,-0.226562,-0.613281,2.53125,0.654236,0.185303,-0.061768,0.730652,up
241644,2.285156,2.207031,7.726562,-0.226562,-0.613281,2.53125,0.640442,0.18634,-0.06958,0.741821,up
241649,2.324219,2.128906,7.730469,-0.244141,-0.648437,2.576172,0.635071,0.186768,-0.072632,0.745972,up
241655,2.210938,1.667969,7.726562,-0.244141,-0.648437,2.576172,0.630859,0.187073,-0.075012,0.749268,up
241660,2.210938,1.4375,7.769531,-0.244141,-0.648437,2.576172,0.625549,0.187439,-0.078003,0.753296,up
241667,2.324219,1.09375,7.964844,-0.244141,-0.648437,2.576172,0.625549,0.187439,-0.078003,0.753296,up
241673,2.476563,1.019531,8.109375,-0.185547,-0.677734,2.695313,0.625549,0.187439,-0.078003,0.753296,up
241678,2.820313,0.980469,8.269531,-0.119141,-0.667969,2.708984,0.625549,0.187439,-0.078003,0.753296,up
241683,2.898438,0.980469,8.265625,-0.021484,-0.603516,2.71875,0.605652,0.18927,-0.088196,0.767883,up
241688,3.011719,0.980469,8.308594,-0.021484,-0.603516,2.71875,0.599792,0.189819,-0.090759,0.771973,up
241693,3.207031,1.09375,8.230469,0.125,-0.542969,2.724609,0.594299,0.19043,-0.092896,0.775818,up
241699,3.589844,1.363281,8.191406,0.125,-0.542969,2.724609,0.583923,0.191589,-0.096436,0.782959,up
241704,3.703125,1.476563,8.113281,0.222656,-0.464844,2.744141,0.57782,0.192261,-0.098145,0.787109,up
241709,3.703125,1.515625,8.042969,0.232422,-0.423828,2.765625,0.572083,0.19281,-0.099731,0.790955,up
241714,3.589844,1.363281,8.042969,0.232422,-0.423828,2.765625,0.572083,0.19281,-0.099731,0.790955,up
241719,3.589844,1.363281,8.042969,0.232422,-0.402344,2.791016,0.567078,0.193237,-0.101013,0.794312,up
241724,3.550781,1.324219,8.109375,0.232422,-0.402344,2.791016,0.561401,0.193665,-0.102417,0.798035,up
241729,3.550781,1.324219,8.109375,0.275391,-0.355469,2.880859,0.549255,0.194336,-0.105103,0.805908,up
241734,3.320313,1.09375,8.191406,0.275391,-0.355469,2.880859,0.549255,0.194336,-0.105103,0.805908,up
241739,2.820313,0.941406,8.269531,0.287109,-0.320313,3.097656,0.549255,0.194336,-0.105103,0.805908,up
241744,2.746094,0.902344,8.265625,0.287109,-0.320313,3.097656,0.529358,0.195129,-0.109192,0.81842,up
241749,2.746094,0.828125,8.191406,0.287109,-0.320313,3.097656,0.522461,0.19519,-0.110718,0.822632,up
241754,2.707031,0.75,8.042969,0.287109,-0.320313,3.097656,0.516357,0.195129,-0.112061,0.826294,up
241759,2.707031,0.632812,7.925781,0.142578,-0.234375,3.369141,0.508667,0.194946,-0.113831,0.830872,up
241764,2.554688,0.328125,7.660156,0.142578,-0.234375,3.369141,0.501038,0.19458,-0.11554,0.835327,up
241769,2.402344,0.136719,7.621094,0.142578,-0.234375,3.369141,0.494934,0.194214,-0.116882,0.838806,up
241774,2.246094,0.175781,7.699219,0.205078,-0.152344,3.548828,0.494934,0.194214,-0.116882,0.838806,up
241779,2.132813,0.214844,7.921875,0.205078,-0.152344,3.548828,0.479675,0.193298,-0.119751,0.847473,up
241784,1.789063,0.058594,8.230469,0.205078,-0.152344,3.548828,0.470886,0.192932,-0.121094,0.852295,up
241789,1.632813,-0.09375,8.148438,0.205078,-0.152344,3.548828,0.463318,0.192627,-0.122009,0.856323,up
241794,1.480469,-0.207031,8.152344,0.568359,-0.074219,3.927734,0.454529,0.1922,-0.122864,0.861023,up
241800,1.214844,-0.4375,8.535156,0.568359,-0.074219,3.927734,0.446106,0.191895,-0.123535,0.865417,up
241805,1.058594,-0.667969,8.804688,0.568359,-0.074219,3.927734,0.436768,0.191589,-0.124207,0.870117,up
241811,0.90625,-1.050781,9.035156,0.568359,-0.074219,3.927734,0.427551,0.191345,-0.124756,0.874634,up
241816,0.90625,-1.050781,9.035156,0.748047,-0.160156,4.193359,0.418152,0.191162,-0.125244,0.87915,up
241821,0.867187,-1.394531,9.070313,0.853516,-0.228516,4.210937,0.408264,0.191101,-0.125671,0.883728,up
241826,0.867187,-1.394531,9.070313,0.853516,-0.228516,4.210937,0.408264,0.191101,-0.125671,0.883728,up
241831,0.945312,-1.546875,9.457031,0.947266,-0.333984,4.207031,0.408264,0.191101,-0.125671,0.883728,up
241836,0.945312,-1.546875,9.457031,1.332031,-0.558594,4.205078,0.378357,0.192932,-0.125854,0.896545,up
241842,0.90625,-2.199219,9.835938,1.332031,-0.558594,4.205078,0.378357,0.192932,-0.125854,0.896545,up
241847,0.714844,-2.160156,9.875,1.769531,-0.798828,4.185547,0.378357,0.192932,-0.125854,0.896545,up
241852,0.523437,-2.085938,9.878906,1.945313,-0.939453,4.175781,0.378357,0.192932,-0.125854,0.896545,up
241858,0.523437,-2.085938,9.878906,2.070313,-1.083984,4.167969,0.336365,0.201172,-0.121399,0.911926,up
241863,0.292969,-2.160156,9.875,2.070313,-1.083984,4.167969,0.336365,0.201172,-0.121399,0.911926,up
241868,0.0625,-2.125,9.835938,2.648438,-1.375,4.185547,0.314026,0.208252,-0.11676,0.918884,up
241873,0.0625,-2.125,9.835938,2.648438,-1.375,4.185547,0.314026,0.208252,-0.11676,0.918884,up
241878,0.371094,-2.085938,9.375,3.003906,-1.837891,4.212891,0.314026,0.208252,-0.11676,0.918884,up
241884,0.5625,-2.125,9.414063,3.052734,-2.001953,4.169922,0.279175,0.221985,-0.107483,0.92804,up
241889,0.714844,-2.316406,9.496094,3.052734,-2.001953,4.169922,0.254333,0.233643,-0.100342,0.933105,up
241894,0.753906,-2.238281,9.375,3.080078,-2.119141,4.115234,0.242554,0.239441,-0.096924,0.93512,up
241899,0.601562,-2.238281,9.03125,3.080078,-2.119141,4.115234,0.23175,0.244812,-0.09375,0.936829,up
241904,0.523437,-2.621094,8.113281,2.886719,-2.189453,3.996094,0.23175,0.244812,-0.09375,0.936829,up
241909,0.601562,-2.773438,7.730469,2.886719,-2.189453,3.996094,0.207153,0.257263,-0.087158,0.939819,up
241914,0.90625,-2.8125,7.542969,2.886719,-2.189453,3.996094,0.207153,0.257263,-0.087158,0.939819,up
241919,0.90625,-2.8125,7.542969,2.595703,-2.550781,3.820313,0.196838,0.263062,-0.084839,0.940674,up
241924,1.328125,-2.964844,7.847656,2.595703,-2.550781,3.820313,0.185974,0.269592,-0.082703,0.941223,up
241929,1.328125,-2.964844,7.847656,2.345703,-2.703125,3.560547,0.164856,0.282898,-0.078735,0.941589,up
241934,1.328125,-2.964844,7.847656,2.345703,-2.703125,3.560547,0.164856,0.282898,-0.078735,0.941589,up
241939,1.441406,-3.15625,7.730469,2.345703,-2.703125,3.560547,0.154907,0.289124,-0.076294,0.941589,up
241944,1.597656,-3.234375,7.347656,2.345703,-2.703125,3.560547,0.134644,0.302124,-0.070007,0.941101,up
241949,1.75,-3.273438,7.425781,2.345703,-2.703125,3.560547,0.126282,0.307922,-0.066895,0.940613,up
241955,2.746094,-3.234375,7.769531,2.646484,-2.501953,2.582031,0.117004,0.314636,-0.063232,0.93988,up
241960,3.128906,-3.15625,8.082031,2.646484,-2.501953,2.582031,0.117004,0.314636,-0.063232,0.93988,up
241966,3.128906,-3.15625,8.082031,2.621094,-2.404297,2.396484,0.101563,0.326294,-0.056213,0.93811,up
241971,3.625,-2.582031,8.042969,2.621094,-2.404297,2.396484,0.101563,0.326294,-0.056213,0.93811,up
241976,3.625,-2.582031,8.042969,2.513672,-2.050781,1.802734,0.08728,0.337158,-0.048462,0.936157,up
241983,3.855469,-2.085938,7.765625,2.513672,-2.050781,1.802734,0.08728,0.337158,-0.048462,0.936157,up
241988,3.589844,-1.933594,7.695312,2.005859,-1.728516,1.279297,0.08728,0.337158,-0.048462,0.936157,up
241993,3.664063,-1.96875,7.699219,2.005859,-1.728516,1.279297,0.07019,0.351196,-0.037292,0.932922,up
241999,3.972656,-2.160156,7.765625,1.414063,-1.755859,0.990234,0.07019,0.351196,-0.037292,0.932922,up
242005,4.699219,-1.664063,8.078125,1.414063,-1.755859,0.990234,0.058228,0.364136,-0.029846,0.929016,up
242010,5.195312,-1.742188,8.265625,0.904297,-1.648438,0.613281,0.055359,0.368591,-0.02832,0.92749,up
242016,4.8125,-2.390625,7.886719,0.904297,-1.648438,0.613281,0.05365,0.372009,-0.027222,0.92627,up
242021,4.851562,-2.390625,7.582031,-0.042969,-1.632813,0.294922,0.05365,0.372009,-0.027222,0.92627,up
242026,4.8125,-2.46875,7.617187,-0.65625,-1.640625,0.171875,0.05365,0.372009,-0.027222,0.92627,up
242031,4.929687,-2.621094,7.621094,-1.011719,-1.609375,0.064453,0.05365,0.372009,-0.027222,0.92627,up
242037,5.082031,-2.890625,7.765625,-1.181641,-1.539063,-0.052734,0.05365,0.372009,-0.027222,0.92627,up
242043,5.386719,-3.273438,8.34375,-1.181641,-1.539063,-0.052734,0.05365,0.372009,-0.027222,0.92627,up
242049,5.351562,-3.386719,8.464844,-1.095703,-1.380859,-0.548828,0.05365,0.372009,-0.027222,0.92627,up
242054,5.503906,-3.464844,8.464844,-1.095703,-1.380859,-0.548828,0.061157,0.399475,-0.042603,0.913696,up
242059,5.734375,-3.425781,8.304688,-1.095703,-1.380859,-0.548828,0.061157,0.399475,-0.042603,0.913696,up
242064,5.773437,-3.273438,8.042969,-0.65625,-1.306641,-0.992187,0.063782,0.402466,-0.043701,0.91217,up
242069,5.773437,-3.273438,8.042969,-0.421875,-1.261719,-1.189453,0.06665,0.405396,-0.044006,0.910645,up
242074,5.808594,-3.003906,7.730469,-0.421875,-1.261719,-1.189453,0.069763,0.408386,-0.043762,0.909058,up
242079,6.191406,-2.390625,7.304687,-0.183594,-1.25,-1.431641,0.072998,0.411316,-0.04303,0.907532,up
242084,6.15625,-2.125,7.386719,-0.03125,-1.197266,-1.582031,0.072998,0.411316,-0.04303,0.907532,up
242089,5.886719,-1.96875,7.382812,-0.03125,-1.197266,-1.582031,0.079773,0.417175,-0.040771,0.904358,up
242095,5.617187,-1.472656,7.699219,-0.03125,-1.197266,-1.582031,0.086731,0.423035,-0.037598,0.901184,up
242100,5.617187,-1.816406,7.539062,0.21875,-1.242188,-1.830078,0.090881,0.426514,-0.0354,0.899231,up
242105,5.386719,-1.433594,7.578125,0.087891,-1.365234,-1.84375,0.094788,0.429687,-0.033264,0.8974,up
242111,6.0,-1.089844,7.425781,0.087891,-1.365234,-1.84375,0.098206,0.432495,-0.031433,0.895691,up
242116,5.886719,-0.746094,7.121094,0.087891,-1.365234,-1.84375,0.102112,0.435791,-0.029053,0.893799,up
242121,6.730469,-0.246094,7.238281,0.087891,-1.365234,-1.84375,0.106079,0.439087,-0.026794,0.891724,up
242126,6.652344,-0.359375,6.964844,0.027344,-1.404297,-1.996094,0.106079,0.439087,-0.026794,0.891724,up
242131,6.613281,-0.167969,6.773437,0.027344,-1.404297,-1.996094,0.114807,0.445801,-0.022705,0.887451,up
242137,6.421875,0.367188,6.433594,0.027344,-1.404297,-1.996094,0.118896,0.448669,-0.020691,0.885498,up
242142,6.265625,0.710937,6.160156,0.285156,-1.230469,-2.146484,0.118896,0.448669,-0.020691,0.885498,up
242147,6.425781,1.054688,6.085937,0.349609,-1.232422,-2.214844,0.118896,0.448669,-0.020691,0.885498,up
242152,6.425781,1.628906,6.046875,0.349609,-1.232422,-2.214844,0.118896,0.448669,-0.020691,0.885498,up
242157,6.425781,1.628906,6.046875,0.107422,-1.248047,-2.330078,0.136902,0.460327,-0.009644,0.877075,up
242162,6.382812,1.859375,5.96875,0.023437,-1.263672,-2.378906,0.141785,0.463135,-0.007202,0.874878,up
242167,6.382812,1.859375,5.96875,0.023437,-1.263672,-2.378906,0.141785,0.463135,-0.007202,0.874878,up
242172,6.039062,2.128906,5.472656,-0.017578,-1.263672,-2.435547,0.141785,0.463135,-0.007202,0.874878,up
242178,6.039062,2.128906,5.472656,0.03125,-1.248047,-2.511719,0.157593,0.471375,0.000305,0.867737,up
242184,6.230469,2.972656,4.742187,0.03125,-1.248047,-2.511719,0.157593,0.471375,0.000305,0.867737,up
242189,6.34375,3.203125,4.78125,0.416016,-1.140625,-2.580078,0.168152,0.476685,0.006165,0.862854,up
242195,6.421875,3.238281,4.972656,0.416016,-1.140625,-2.580078,0.173401,0.47937,0.009949,0.860229,up
242200,6.539062,3.738281,4.898437,0.359375,-1.146484,-2.564453,0.173401,0.47937,0.009949,0.860229,up
242206,6.425781,4.082031,4.898437,0.359375,-1.146484,-2.564453,0.187744,0.486755,0.020264,0.852905,up
242212,6.386719,4.195312,5.089844,0.435547,-1.181641,-2.527344,0.187744,0.486755,0.020264,0.852905,up
242217,6.382812,4.3125,5.164062,0.291016,-1.216797,-2.519531,0.187744,0.486755,0.020264,0.852905,up
242222,6.082031,4.351562,5.011719,0.291016,-1.216797,-2.519531,0.202209,0.494263,0.030396,0.84491,up
242228,6.003906,4.351562,5.011719,0.054687,-1.271484,-2.484375,0.202209,0.494263,0.030396,0.84491,up
242233,5.882812,4.273437,5.089844,0.035156,-1.275391,-2.464844,0.202209,0.494263,0.030396,0.84491,up
242238,5.882812,4.273437,5.089844,0.044922,-1.277344,-2.447266,0.217224,0.501587,0.038574,0.836487,up
242243,5.84375,4.503906,5.203125,0.044922,-1.277344,-2.447266,0.217224,0.501587,0.038574,0.836487,up
242248,5.882812,4.351562,5.28125,0.101563,-1.265625,-2.433594,0.227234,0.50647,0.043945,0.830627,up
242253,5.882812,4.351562,5.28125,0.101563,-1.265625,-2.433594,0.227234,0.50647,0.043945,0.830627,up
242258,6.539062,4.65625,4.820312,0.181641,-1.269531,-2.410156,0.227234,0.50647,0.043945,0.830627,up
242263,6.648437,4.964844,4.820312,0.181641,-1.269531,-2.410156,0.241455,0.513672,0.052307,0.821655,up
242268,6.808594,5.191406,4.78125,0.097656,-1.330078,-2.353516,0.241455,0.513672,0.052307,0.821655,up
242273,6.808594,5.308594,4.820312,0.027344,-1.359375,-2.310547,0.241455,0.513672,0.052307,0.821655,up
242279,6.691406,5.578125,4.515625,0.027344,-1.359375,-2.310547,0.255249,0.520874,0.059937,0.812378,up
242284,6.609375,5.652344,4.359375,0.027344,-1.359375,-2.310547,0.259766,0.523254,0.062195,0.809204,up
242290,6.574219,5.804687,4.207031,0.173828,-1.517578,-2.234375,0.259766,0.523254,0.062195,0.809204,up
242295,6.304687,5.921875,4.09375,0.173828,-1.517578,-2.234375,0.272949,0.531372,0.069458,0.79895,up
242300,6.039062,5.882812,4.09375,0.21875,-1.632813,-2.201172,0.272949,0.531372,0.069458,0.79895,up
242305,5.882812,5.84375,4.09375,0.21875,-1.632813,-2.201172,0.281433,0.537354,0.074463,0.791504,up
242311,5.777344,5.730469,3.785156,0.21875,-1.632813,-2.201172,0.285706,0.540649,0.077087,0.787476,up
242316,5.925781,5.652344,3.59375,0.21875,-1.632813,-2.201172,0.285706,0.540649,0.077087,0.787476,up
242321,6.308594,5.652344,3.519531,0.355469,-1.859375,-2.113281,0.289124,0.543457,0.079224,0.784058,up
242326,6.308594,5.652344,3.519531,0.355469,-1.859375,-2.113281,0.289124,0.543457,0.079224,0.784058,up
242331,7.34375,6.226562,2.90625,0.347656,-1.871094,-2.082031,0.289124,0.543457,0.079224,0.784058,up
242336,7.34375,6.226562,2.90625,0.326172,-1.861328,-2.056641,0.300659,0.553589,0.086182,0.771851,up
242342,7.957031,6.726562,2.484375,0.326172,-1.861328,-2.056641,0.308289,0.56012,0.090393,0.763611,up
242347,8.074219,6.839844,2.367188,0.326172,-1.861328,-2.056641,0.312439,0.563538,0.092773,0.759094,up
242354,8.152344,7.339844,2.292969,0.326172,-1.861328,-2.056641,0.312439,0.563538,0.092773,0.759094,up
242359,8.074219,7.453125,2.292969,0.322266,-1.541016,-1.867188,0.319031,0.56897,0.096924,0.75177,up
242364,7.800781,7.605469,2.253906,0.322266,-1.541016,-1.867188,0.321899,0.571228,0.098999,0.748535,up
242370,7.496094,7.640625,2.40625,0.208984,-1.259766,-1.716797,0.321899,0.571228,0.098999,0.748535,up
242375,7.304687,7.683594,2.484375,0.142578,-1.1875,-1.650391,0.328247,0.575867,0.103394,0.741577,up
242380,7.304687,7.683594,2.484375,0.082031,-1.146484,-1.595703,0.333923,0.579346,0.107056,0.735779,up
242385,7.113281,7.605469,2.523438,0.082031,-1.146484,-1.595703,0.336853,0.580933,0.108643,0.732971,up
242390,7.648437,7.566406,2.332031,-0.099609,-1.128906,-1.5,0.336853,0.580933,0.108643,0.732971,up
242395,7.839844,7.683594,2.214844,-0.099609,-1.128906,-1.5,0.342773,0.583862,0.111084,0.727478,up
242400,8.257813,7.644531,1.832031,-0.367188,-1.175781,-1.40625,0.342773,0.583862,0.111084,0.727478,up
242406,8.722656,7.722656,1.488281,-0.367188,-1.175781,-1.40625,0.349426,0.58667,0.112122,0.721924,up
242411,8.875,7.875,1.335938,-0.583984,-1.242188,-1.322266,0.349426,0.58667,0.112122,0.721924,up
242416,8.875,7.875,1.335938,-0.636719,-1.238281,-1.287109,0.356384,0.589294,0.112,0.71637,up
242421,8.988281,7.988281,1.257813,-0.636719,-1.238281,-1.287109,0.356384,0.589294,0.112,0.71637,up
242426,8.988281,7.988281,1.257813,-0.660156,-1.246094,-1.251953,0.359802,0.590454,0.111694,0.713745,up
242431,8.914063,7.953125,1.257813,-0.652344,-1.232422,-1.212891,0.359802,0.590454,0.111694,0.713745,up
242436,8.914063,7.953125,1.257813,-0.640625,-1.21875,-1.162109,0.369995,0.594238,0.110352,0.705566,up
242442,8.417969,7.722656,1.257813,-0.640625,-1.21875,-1.162109,0.373047,0.595398,0.109924,0.703003,up
242448,8.417969,7.605469,1.335938,-0.566406,-1.191406,-1.048828,0.373047,0.595398,0.109924,0.703003,up
242453,8.417969,7.566406,1.257813,-0.503906,-1.160156,-1.011719,0.373047,0.595398,0.109924,0.703003,up
242459,8.683594,7.492187,1.144531,-0.503906,-1.160156,-1.011719,0.381531,0.59906,0.108765,0.695496,up
242465,8.796875,7.492187,1.105469,-0.275391,-1.041016,-0.935547,0.381531,0.59906,0.108765,0.695496,up
242470,8.878906,7.492187,1.066406,-0.275391,-1.041016,-0.935547,0.386292,0.601562,0.108643,0.690735,up
242475,9.023438,7.796875,0.835937,-0.185547,-0.986328,-0.896484,0.386292,0.601562,0.108643,0.690735,up
242480,9.066406,7.914062,0.796875,0.046875,-0.873047,-0.835937,0.386292,0.601562,0.108643,0.690735,up
242485,9.140625,7.953125,0.761719,0.046875,-0.873047,-0.835937,0.391785,0.605164,0.109619,0.684265,up
242491,9.101563,8.144531,0.796875,0.232422,-0.763672,-0.740234,0.393311,0.606628,0.110413,0.682007,up
242496,8.988281,8.296875,0.875,0.232422,-0.763672,-0.740234,0.395142,0.608948,0.112122,0.678589,up
242502,8.878906,8.410156,0.835937,0.347656,-0.667969,-0.65625,0.395874,0.610168,0.11322,0.676941,up
242508,8.605469,8.527344,0.953125,0.355469,-0.617187,-0.605469,0.395874,0.610168,0.11322,0.676941,up
242513,8.605469,8.527344,0.953125,0.341797,-0.5625,-0.560547,0.396973,0.612427,0.115295,0.673828,up
242519,8.492188,8.523438,0.988281,0.341797,-0.5625,-0.560547,0.396973,0.612427,0.115295,0.673828,up
242525,8.496094,8.371094,1.027344,0.246094,-0.513672,-0.457031,0.398254,0.615295,0.117737,0.670044,up
242530,8.417969,8.410156,0.988281,0.246094,-0.513672,-0.457031,0.398743,0.616089,0.118164,0.668945,up
242535,8.378906,8.335938,1.027344,0.001953,-0.439453,-0.300781,0.398743,0.616089,0.118164,0.668945,up
242540,8.457031,8.21875,1.027344,0.001953,-0.439453,-0.300781,0.399292,0.61676,0.118408,0.667969,up
242545,8.335938,7.988281,0.988281,-0.103516,-0.414062,-0.255859,0.399292,0.61676,0.118408,0.667969,up
242550,8.300781,7.953125,1.027344,-0.103516,-0.414062,-0.255859,0.400452,0.617676,0.118286,0.666443,up
242555,8.21875,7.835937,1.027344,-0.271484,-0.367188,-0.160156,0.400452,0.617676,0.118286,0.666443,up
242561,8.152344,7.722656,1.027344,-0.328125,-0.332031,-0.121094,0.402527,0.618164,0.116882,0.664978,up
242567,7.914062,7.453125,1.179688,-0.328125,-0.332031,-0.121094,0.403137,0.618103,0.116272,0.664795,up
242572,7.875,7.339844,1.257813,-0.494141,-0.226562,-0.001953,0.403137,0.618103,0.116272,0.664795,up
242577,7.769531,7.183594,1.410156,-0.529297,-0.1875,0.035156,0.403137,0.618103,0.116272,0.664795,up
242583,7.652344,7.070312,1.449219,-0.544922,-0.158203,0.054687,0.403137,0.618103,0.116272,0.664795,up
242590,7.535156,6.839844,1.640625,-0.544922,-0.158203,0.054687,0.403137,0.618103,0.116272,0.664795,up
242595,7.417969,6.765625,1.71875,-0.529297,-0.091797,0.078125,0.403137,0.618103,0.116272,0.664795,up
242600,7.347656,6.496094,1.757813,-0.482422,-0.066406,0.085937,0.403137,0.618103,0.116272,0.664795,up
242606,7.347656,6.417969,1.792969,-0.392578,-0.021484,0.087891,0.407837,0.615906,0.109497,0.6651,up
242611,7.378906,6.304687,1.832031,-0.392578,-0.021484,0.087891,0.408569,0.615051,0.108093,0.665649,up
242617,7.347656,6.226562,1.910156,-0.392578,-0.021484,0.087891,0.408813,0.614685,0.107605,0.665894,up
242622,7.230469,6.1875,1.871094,-0.392578,-0.021484,0.087891,0.408997,0.614319,0.107178,0.666199,up
242628,7.226562,6.152344,1.949219,-0.226562,0.046875,0.068359,0.408997,0.614319,0.107178,0.666199,up
242633,7.1875,6.1875,2.023438,-0.191406,0.070312,0.050781,0.408997,0.614319,0.107178,0.666199,up
242638,7.152344,6.152344,2.023438,-0.160156,0.085937,0.035156,0.409363,0.61322,0.106445,0.667114,up
242643,7.035156,6.1875,2.023438,-0.142578,0.117188,0.027344,0.409363,0.61322,0.106445,0.667114,up
242649,6.882812,6.152344,1.949219,-0.132812,0.144531,0.009766,0.409363,0.61322,0.106445,0.667114,up
242654,6.765625,6.152344,1.910156,-0.136719,0.160156,-0.001953,0.409363,0.61322,0.106445,0.667114,up
242660,6.609375,6.074219,2.175781,-0.152344,0.152344,0.0,0.40979,0.611084,0.106445,0.668823,up
242665,6.609375,6.035156,2.253906,-0.152344,0.152344,0.0,0.40979,0.611084,0.106445,0.668823,up
242670,6.652344,6.035156,2.367188,-0.226562,0.070312,-0.005859,0.40979,0.611084,0.106445,0.668823,up
242675,6.6875,6.074219,2.445313,-0.226562,0.070312,-0.005859,0.410156,0.610229,0.106262,0.669434,up
242681,6.765625,6.035156,2.445313,-0.269531,0.035156,-0.007813,0.410828,0.609497,0.105591,0.669739,up
242686,6.765625,5.960937,2.445313,-0.353516,-0.023437,-0.007813,0.411438,0.609131,0.105042,0.669861,up
242691,6.808594,5.804687,2.445313,-0.353516,-0.023437,-0.007813,0.411987,0.608765,0.104431,0.669922,up
242696,6.84375,5.769531,2.484375,-0.353516,-0.023437,-0.007813,0.412537,0.608459,0.103882,0.669922,up
242701,6.882812,5.769531,2.484375,-0.363281,-0.048828,-0.03125,0.412537,0.608459,0.103882,0.669922,up
242706,6.847656,5.730469,2.484375,-0.363281,-0.048828,-0.03125,0.413635,0.607727,0.102844,0.670105,up
242712,6.921875,5.691406,2.484375,-0.363281,-0.048828,-0.03125,0.414062,0.607422,0.102478,0.670166,up
242717,6.921875,5.691406,2.523438,-0.298828,-0.046875,-0.0625,0.414551,0.607117,0.102112,0.670166,up
242722,6.882812,5.769531,2.523438,-0.253906,-0.025391,-0.082031,0.414551,0.607117,0.102112,0.670166,up
242728,6.84375,5.769531,2.484375,-0.253906,-0.025391,-0.082031,0.415527,0.606567,0.101563,0.670166,up
242733,6.726562,5.691406,2.445313,-0.253906,-0.025391,-0.082031,0.415527,0.606567,0.101563,0.670166,up
242739,6.691406,5.691406,2.40625,-0.087891,0.021484,-0.136719,0.415527,0.606567,0.101563,0.670166,up
242744,6.613281,5.769531,2.40625,-0.03125,0.035156,-0.128906,0.415527,0.606567,0.101563,0.670166,up
242750,6.574219,5.921875,2.484375,-0.03125,0.035156,-0.128906,0.416748,0.605713,0.102478,0.670044,up
242755,6.570312,6.035156,2.484375,-0.03125,0.035156,-0.128906,0.416748,0.605713,0.102478,0.670044,up
