timestamp,ax,ay,az,gx,gy,gz,qw,qx,qy,qz,label
60549,-3.765625,3.585938,8.042969,0.154297,0.021484,0.208984,0.935913,0.172974,0.242249,0.188416,up
60554,-3.84375,3.660156,8.039063,0.154297,0.021484,0.208984,0.935913,0.172974,0.242249,0.188416,up
60559,-3.804688,3.660156,8.082031,0.232422,0.068359,0.207031,0.935913,0.172974,0.242249,0.188416,up
60564,-3.804688,3.738281,8.042969,0.251953,0.083984,0.21875,0.935913,0.172974,0.242249,0.188416,up
60569,-3.765625,3.8125,8.042969,0.251953,0.083984,0.21875,0.93512,0.174927,0.242859,0.189636,up
60574,-3.84375,3.890625,8.042969,0.302734,0.109375,0.226562,0.93512,0.174927,0.242859,0.189636,up
60579,-3.84375,3.890625,8.042969,0.302734,0.109375,0.226562,0.934509,0.176514,0.243469,0.190491,up
60584,-3.921875,4.003906,8.082031,0.302734,0.109375,0.226562,0.934204,0.177307,0.243713,0.190857,up
60589,-3.957031,3.96875,8.039063,0.302734,0.109375,0.226562,0.933899,0.17804,0.244019,0.191223,up
60594,-3.996094,4.003906,8.039063,0.236328,0.054687,0.195312,0.933899,0.17804,0.244019,0.191223,up
60599,-3.921875,4.042969,8.082031,0.236328,0.054687,0.195312,0.93335,0.179504,0.244446,0.192017,up
60604,-3.921875,4.003906,7.960937,0.236328,0.054687,0.195312,0.933105,0.180115,0.244568,0.192383,up
60610,-3.921875,4.003906,7.960937,0.140625,-0.007813,0.132812,0.932983,0.180603,0.244629,0.192688,up
60615,-3.921875,4.042969,8.003906,0.140625,-0.007813,0.132812,0.932678,0.181458,0.244568,0.193176,up
60620,-3.921875,4.121094,7.882812,0.140625,-0.007813,0.132812,0.932617,0.181702,0.244568,0.193298,up
60625,-3.921875,4.121094,7.882812,0.140625,-0.007813,0.132812,0.932617,0.181885,0.244507,0.193481,up
60630,-3.957031,4.121094,7.886719,0.03125,-0.025391,0.03125,0.932556,0.182007,0.244446,0.193542,up
60635,-3.957031,4.082031,7.886719,0.03125,-0.025391,0.03125,0.932556,0.182007,0.244446,0.193542,up
60640,-3.957031,4.082031,7.886719,0.025391,-0.017578,0.019531,0.932556,0.18219,0.244324,0.193604,up
60645,-3.882813,4.003906,7.921875,0.015625,-0.011719,0.017578,0.932556,0.18219,0.244324,0.193604,up
60650,-3.84375,3.890625,7.925781,0.015625,-0.011719,0.017578,0.932495,0.182312,0.244263,0.193726,up
60655,-3.804688,3.851563,7.960937,0.015625,-0.011719,0.017578,0.932495,0.182434,0.244263,0.193726,up
60660,-3.84375,3.851563,8.0,0.015625,-0.011719,0.017578,0.932434,0.182617,0.244324,0.193726,up
60665,-3.84375,3.929688,8.003906,0.146484,0.0,0.017578,0.932434,0.182617,0.244324,0.193726,up
60670,-3.84375,3.96875,7.964844,0.146484,0.0,0.017578,0.932251,0.183289,0.244446,0.193665,up
60676,-3.84375,4.042969,7.964844,0.146484,0.0,0.017578,0.93219,0.183655,0.244507,0.193665,up
60681,-3.84375,4.042969,7.921875,0.162109,-0.001953,0.037109,0.932129,0.184021,0.244568,0.193665,up
60686,-3.84375,4.121094,7.921875,0.189453,-0.003906,0.041016,0.932129,0.184021,0.244568,0.193665,up
60692,-3.882813,4.160156,7.886719,0.208984,0.009766,0.048828,0.932129,0.184021,0.244568,0.193665,up
60697,-3.84375,4.160156,7.886719,0.208984,0.009766,0.048828,0.932129,0.184021,0.244568,0.193665,up
60703,-3.84375,4.160156,7.886719,0.212891,0.029297,0.0625,0.932129,0.184021,0.244568,0.193665,up
60708,-3.84375,4.160156,7.847656,0.216797,0.035156,0.064453,0.932129,0.184021,0.244568,0.193665,up
60714,-3.882813,4.160156,7.921875,0.216797,0.035156,0.064453,0.931152,0.187622,0.245422,0.193787,up
60719,-3.882813,4.234375,7.882812,0.216797,0.035156,0.064453,0.931152,0.187622,0.245422,0.193787,up
60725,-3.882813,4.273437,7.84375,0.242187,0.054687,0.050781,0.931152,0.187622,0.245422,0.193787,up
60730,-3.84375,4.390625,7.882812,0.242187,0.054687,0.050781,0.930603,0.189392,0.246094,0.193787,up
60735,-3.84375,4.425781,7.882812,0.242187,0.054687,0.050781,0.930603,0.189392,0.246094,0.193787,up
60740,-3.84375,4.425781,7.84375,0.224609,0.027344,0.029297,0.930603,0.189392,0.246094,0.193787,up
60745,-3.804688,4.425781,7.847656,0.224609,0.027344,0.029297,0.930298,0.19043,0.24646,0.193726,up
60751,-3.804688,4.425781,7.847656,0.226562,0.021484,0.013672,0.930054,0.191467,0.246704,0.193604,up
60756,-3.84375,4.425781,7.882812,0.228516,0.019531,0.013672,0.929932,0.192078,0.246887,0.193481,up
60761,-3.882813,4.390625,7.925781,0.228516,0.019531,0.013672,0.92981,0.192566,0.247009,0.193359,up
60766,-3.84375,4.3125,7.921875,0.228516,0.019531,0.013672,0.929687,0.193054,0.247192,0.193237,up
60772,-3.804688,4.3125,7.960937,0.228516,0.019531,0.013672,0.929565,0.193542,0.247314,0.193115,up
60778,-3.804688,4.3125,7.960937,0.214844,0.033203,-0.009766,0.929565,0.193542,0.247314,0.193115,up
60784,-3.804688,4.351562,7.960937,0.224609,0.033203,-0.011719,0.929565,0.193542,0.247314,0.193115,up
60789,-3.765625,4.351562,8.003906,0.244141,0.025391,-0.021484,0.929565,0.193542,0.247314,0.193115,up
60794,-3.765625,4.351562,8.042969,0.302734,0.007813,-0.003906,0.929565,0.193542,0.247314,0.193115,up
60799,-3.804688,4.351562,8.003906,0.302734,0.007813,-0.003906,0.928894,0.196289,0.24823,0.192261,up
60805,-3.804688,4.351562,8.042969,0.302734,0.007813,-0.003906,0.928589,0.197876,0.248535,0.191895,up
60810,-3.765625,4.351562,8.082031,0.302734,0.007813,-0.003906,0.928589,0.197876,0.248535,0.191895,up
60815,-3.765625,4.3125,8.042969,0.394531,-0.033203,0.042969,0.928162,0.19989,0.248718,0.191528,up
60820,-3.804688,4.425781,8.0,0.394531,-0.033203,0.042969,0.927979,0.200867,0.248779,0.191406,up
60825,-3.804688,4.503906,7.960937,0.394531,-0.033203,0.042969,0.927979,0.200867,0.248779,0.191406,up
60830,-3.765625,4.542969,7.960937,0.478516,-0.087891,0.066406,0.927979,0.200867,0.248779,0.191406,up
60836,-3.726563,4.734375,7.960937,0.478516,-0.087891,0.066406,0.927307,0.204529,0.248779,0.190857,up
60842,-3.765625,4.773437,8.0,0.478516,-0.087891,0.066406,0.927063,0.205688,0.248718,0.190613,up
60847,-3.765625,4.773437,8.0,0.539062,-0.132812,0.048828,0.92688,0.207092,0.248596,0.190308,up
60852,-3.765625,4.847656,8.003906,0.539062,-0.132812,0.048828,0.92688,0.207092,0.248596,0.190308,up
60857,-3.691406,5.078125,7.886719,0.535156,-0.130859,0.050781,0.92688,0.207092,0.248596,0.190308,up
60863,-3.652344,5.078125,7.925781,0.513672,-0.150391,0.046875,0.92627,0.210999,0.248291,0.189392,up
60869,-3.574219,5.0,7.730469,0.513672,-0.150391,0.046875,0.926086,0.212158,0.248108,0.189148,up
60875,-3.535156,4.964844,7.765625,0.392578,-0.132812,0.050781,0.925781,0.214233,0.247803,0.188721,up
60880,-3.535156,4.886719,7.660156,0.392578,-0.132812,0.050781,0.925781,0.214233,0.247803,0.188721,up
60885,-3.535156,4.847656,7.660156,0.291016,-0.101563,0.064453,0.925781,0.214233,0.247803,0.188721,up
60890,-3.574219,4.964844,7.65625,0.291016,-0.101563,0.064453,0.925537,0.215881,0.247498,0.188416,up
60895,-3.574219,4.964844,7.726562,0.300781,-0.103516,0.080078,0.925415,0.216736,0.247375,0.188354,up
60900,-3.535156,5.0,7.84375,0.300781,-0.103516,0.080078,0.925232,0.21759,0.247253,0.188232,up
60905,-3.535156,5.039062,7.882812,0.353516,-0.125,0.099609,0.92511,0.218262,0.24707,0.188171,up
60911,-3.535156,4.964844,7.886719,0.353516,-0.125,0.099609,0.924805,0.220154,0.246704,0.188049,up
60916,-3.5,5.0,7.925781,0.427734,-0.152344,0.134766,0.924622,0.221375,0.24646,0.187988,up
60922,-3.460938,5.0,7.882812,0.427734,-0.152344,0.134766,0.924438,0.222473,0.246277,0.187927,up
60927,-3.421875,5.0,7.847656,0.498047,-0.152344,0.158203,0.924194,0.223755,0.246033,0.187866,up
60932,-3.382813,5.078125,7.808594,0.498047,-0.152344,0.158203,0.923889,0.225159,0.245789,0.187866,up
60938,-3.34375,5.117187,7.84375,0.521484,-0.152344,0.205078,0.923889,0.225159,0.245789,0.187866,up
60943,-3.308594,5.117187,7.769531,0.541016,-0.134766,0.232422,0.923889,0.225159,0.245789,0.187866,up
60949,-3.308594,5.15625,7.769531,0.541016,-0.134766,0.232422,0.923889,0.225159,0.245789,0.187866,up
60955,-3.34375,5.15625,7.769531,0.570312,-0.113281,0.283203,0.923889,0.225159,0.245789,0.187866,up
60960,-3.308594,5.191406,7.730469,0.585937,-0.101563,0.308594,0.923889,0.225159,0.245789,0.187866,up
60965,-3.382813,5.191406,7.582031,0.607422,-0.087891,0.322266,0.921265,0.235901,0.244629,0.189026,up
60970,-3.382813,5.269531,7.539062,0.607422,-0.087891,0.322266,0.921265,0.235901,0.244629,0.189026,up
60975,-3.382813,5.421875,7.542969,0.646484,-0.09375,0.298828,0.921265,0.235901,0.244629,0.189026,up
60980,-3.382813,5.5,7.578125,0.632812,-0.117188,0.236328,0.921265,0.235901,0.244629,0.189026,up
60986,-3.382813,5.652344,7.539062,0.632812,-0.117188,0.236328,0.919556,0.242676,0.244202,0.189514,up
60991,-3.421875,5.691406,7.539062,0.576172,-0.160156,0.167969,0.919128,0.244385,0.243958,0.189453,up
60996,-3.308594,5.652344,7.5,0.576172,-0.160156,0.167969,0.918823,0.245972,0.243713,0.189331,up
61001,-3.269531,5.652344,7.539062,0.576172,-0.160156,0.167969,0.91864,0.247131,0.24353,0.189148,up
61006,-3.269531,5.652344,7.5,0.419922,-0.210937,0.085937,0.918396,0.248413,0.243164,0.188965,up
61011,-3.191406,5.652344,7.542969,0.367188,-0.220703,0.072266,0.918274,0.249512,0.242798,0.188721,up
61017,-3.191406,5.5,7.582031,0.367188,-0.220703,0.072266,0.918152,0.250366,0.242432,0.188477,up
61022,-3.152344,5.421875,7.421875,0.367188,-0.220703,0.072266,0.918091,0.25116,0.242004,0.188232,up
61027,-3.152344,5.421875,7.542969,0.367188,-0.220703,0.072266,0.918091,0.251831,0.241577,0.188049,up
61032,-3.152344,5.421875,7.582031,0.220703,-0.199219,0.050781,0.918091,0.251831,0.241577,0.188049,up
61037,-3.152344,5.460937,7.5,0.220703,-0.199219,0.050781,0.917969,0.253174,0.240784,0.187683,up
61043,-3.152344,5.578125,7.460937,0.220703,-0.199219,0.050781,0.917908,0.253906,0.240417,0.187561,up
61048,-3.152344,5.578125,7.5,0.326172,-0.162109,0.107422,0.917908,0.253906,0.240417,0.187561,up
61053,-3.191406,5.578125,7.503906,0.380859,-0.150391,0.126953,0.917908,0.253906,0.240417,0.187561,up
61058,-3.191406,5.578125,7.503906,0.4375,-0.138672,0.164062,0.917358,0.256836,0.239624,0.187317,up
61063,-3.152344,5.652344,7.34375,0.4375,-0.138672,0.164062,0.917053,0.258057,0.239441,0.187317,up
61070,-3.117188,5.652344,7.308594,0.5625,-0.111328,0.222656,0.917053,0.258057,0.239441,0.187317,up
61076,-3.117188,5.691406,7.304687,0.630859,-0.068359,0.292969,0.917053,0.258057,0.239441,0.187317,up
61081,-3.078125,5.730469,7.277344,0.634766,-0.050781,0.330078,0.91571,0.262878,0.239014,0.187683,up
61087,-3.039063,5.652344,7.15625,0.634766,-0.050781,0.330078,0.914734,0.265991,0.238953,0.188293,up
61092,-2.960938,5.578125,7.078125,0.634766,-0.050781,0.330078,0.914124,0.2677,0.238953,0.188782,up
61098,-2.925781,5.613281,7.078125,0.601562,0.041016,0.412109,0.914124,0.2677,0.238953,0.188782,up
61104,-2.925781,5.578125,7.0,0.599609,0.082031,0.421875,0.912903,0.270874,0.239197,0.189941,up
61110,-2.886719,5.539062,7.003906,0.599609,0.082031,0.421875,0.912903,0.270874,0.239197,0.189941,up
61115,-2.847656,5.613281,7.042969,0.652344,0.240234,0.439453,0.912903,0.270874,0.239197,0.189941,up
61120,-2.847656,5.652344,6.964844,0.652344,0.240234,0.439453,0.910645,0.275818,0.240295,0.192078,up
61125,-2.847656,5.84375,6.921875,0.652344,0.240234,0.439453,0.909851,0.277405,0.240906,0.19281,up
61131,-2.925781,5.996094,6.925781,0.667969,0.4375,0.453125,0.909851,0.277405,0.240906,0.19281,up
61136,-2.925781,6.113281,6.890625,0.667969,0.4375,0.453125,0.907043,0.282349,0.243652,0.195435,up
61141,-2.925781,6.152344,6.855469,0.667969,0.4375,0.453125,0.907043,0.282349,0.243652,0.195435,up
61146,-2.886719,6.226562,6.851562,0.695312,0.578125,0.464844,0.904968,0.2854,0.246216,0.197388,up
61151,-2.847656,6.226562,6.8125,0.582031,0.753906,0.496094,0.904968,0.2854,0.246216,0.197388,up
61156,-2.886719,6.035156,6.695312,0.582031,0.753906,0.496094,0.902649,0.288025,0.249634,0.199951,up
61162,-2.886719,5.882812,6.738281,0.582031,0.753906,0.496094,0.901611,0.28894,0.251282,0.201233,up
61167,-2.847656,5.882812,6.777344,0.582031,0.753906,0.496094,0.901611,0.28894,0.251282,0.201233,up
61172,-2.769531,5.921875,6.851562,0.361328,0.929687,0.455078,0.901611,0.28894,0.251282,0.201233,up
61177,-2.769531,5.921875,6.851562,0.283203,1.007813,0.402344,0.898376,0.290649,0.257263,0.205627,up
61182,-2.769531,5.804687,6.851562,0.283203,1.007813,0.402344,0.898376,0.290649,0.257263,0.205627,up
61187,-2.886719,5.84375,6.738281,0.279297,1.041016,0.371094,0.897339,0.291016,0.259399,0.20697,up
61193,-3.039063,5.804687,6.660156,0.279297,1.041016,0.371094,0.897339,0.291016,0.259399,0.20697,up
61199,-3.152344,5.996094,6.472656,0.404297,1.089844,0.244141,0.897339,0.291016,0.259399,0.20697,up
61204,-3.269531,6.152344,6.472656,0.486328,1.095703,0.21875,0.897339,0.291016,0.259399,0.20697,up
61209,-3.382813,6.34375,6.472656,0.556641,1.082031,0.203125,0.897339,0.291016,0.259399,0.20697,up
61215,-3.5,6.574219,6.507812,0.556641,1.082031,0.203125,0.89032,0.294434,0.274109,0.213379,up
61221,-3.613281,6.726562,6.390625,0.654297,1.097656,0.1875,0.89032,0.294434,0.274109,0.213379,up
61226,-3.726563,6.839844,6.316406,0.654297,1.097656,0.1875,0.886414,0.297424,0.281677,0.215515,up
61231,-3.804688,6.953125,6.199219,0.619141,1.117188,0.234375,0.886414,0.297424,0.281677,0.215515,up
61236,-3.921875,6.992187,6.390625,0.619141,1.117188,0.234375,0.883667,0.299316,0.286987,0.217285,up
61241,-3.921875,7.109375,6.429687,0.619141,1.117188,0.234375,0.883667,0.299316,0.286987,0.217285,up
61246,-3.957031,7.183594,6.542969,0.382813,1.017578,0.291016,0.883667,0.299316,0.286987,0.217285,up
61251,-3.921875,7.222656,6.621094,0.296875,0.994141,0.306641,0.881104,0.30072,0.291809,0.219299,up
61257,-3.765625,7.152344,6.582031,0.296875,0.994141,0.306641,0.878906,0.301392,0.295898,0.221619,up
61262,-3.765625,7.152344,6.582031,0.115234,0.943359,0.337891,0.87793,0.301453,0.297852,0.2229,up
61267,-3.804688,6.917969,6.582031,0.050781,0.916016,0.322266,0.876831,0.301392,0.299927,0.224426,up
61273,-3.765625,6.765625,6.773437,0.050781,0.916016,0.322266,0.876099,0.30127,0.301331,0.225525,up
61279,-3.726563,6.835937,6.8125,0.035156,0.773437,0.271484,0.876099,0.30127,0.301331,0.225525,up
61284,-3.804688,6.835937,6.773437,0.052734,0.726562,0.226562,0.874573,0.300964,0.304443,0.227722,up
61289,-3.84375,6.691406,6.542969,0.078125,0.689453,0.179687,0.874573,0.300964,0.304443,0.227722,up
61294,-3.84375,6.691406,6.46875,0.103516,0.652344,0.130859,0.874573,0.300964,0.304443,0.227722,up
61299,-3.882813,6.6875,6.390625,0.125,0.636719,0.056641,0.874573,0.300964,0.304443,0.227722,up
61304,-3.921875,6.6875,6.351562,0.15625,0.601562,0.003906,0.874573,0.300964,0.304443,0.227722,up
61309,-3.882813,6.765625,6.277344,0.15625,0.601562,0.003906,0.874573,0.300964,0.304443,0.227722,up
61314,-3.921875,6.917969,6.238281,0.15625,0.601562,0.003906,0.870911,0.300781,0.312805,0.230591,up
61319,-3.921875,6.992187,6.199219,0.121094,0.619141,-0.152344,0.870911,0.300781,0.312805,0.230591,up
61324,-3.957031,7.03125,6.238281,0.042969,0.640625,-0.207031,0.870911,0.300781,0.312805,0.230591,up
61329,-3.957031,6.992187,6.238281,0.042969,0.640625,-0.207031,0.870911,0.300781,0.312805,0.230591,up
61335,-4.035156,6.992187,6.238281,0.042969,0.640625,-0.207031,0.869263,0.299011,0.319031,0.230591,up
61341,-4.074219,6.953125,6.199219,-0.371094,0.794922,-0.287109,0.869263,0.299011,0.319031,0.230591,up
61346,-4.148437,6.839844,6.160156,-0.371094,0.794922,-0.287109,0.868652,0.294983,0.324097,0.23114,up
61351,-4.1875,6.730469,6.160156,-0.371094,0.794922,-0.287109,0.868652,0.294983,0.324097,0.23114,up
61356,-4.1875,6.609375,6.160156,-0.580078,0.958984,-0.330078,0.868652,0.294983,0.324097,0.23114,up
61361,-4.1875,6.570312,6.199219,-0.580078,0.958984,-0.330078,0.868164,0.289063,0.329834,0.2323,up
61366,-4.226562,6.496094,6.199219,-0.580078,0.958984,-0.330078,0.867981,0.286804,0.33197,0.232727,up
61371,-4.265625,6.378906,6.238281,-0.580078,0.958984,-0.330078,0.867981,0.286804,0.33197,0.232727,up
61376,-4.226562,6.265625,6.277344,-0.626953,1.113281,-0.378906,0.867981,0.286804,0.33197,0.232727,up
61381,-4.226562,6.074219,6.3125,-0.626953,1.113281,-0.378906,0.867493,0.282166,0.336487,0.233643,up
61386,-4.226562,6.074219,6.3125,-0.585937,1.126953,-0.384766,0.867249,0.279968,0.338684,0.23407,up
61391,-4.1875,5.996094,6.390625,-0.550781,1.130859,-0.402344,0.867249,0.279968,0.338684,0.23407,up
61396,-4.339844,5.921875,6.394531,-0.513672,1.132813,-0.417969,0.866577,0.275574,0.343506,0.234802,up
61401,-4.417969,5.960937,6.390625,-0.449219,1.121094,-0.431641,0.86615,0.27356,0.345947,0.235046,up
61407,-4.53125,6.035156,6.394531,-0.386719,1.113281,-0.445312,0.865295,0.269836,0.350891,0.235168,up
61412,-4.53125,6.113281,6.46875,-0.255859,1.050781,-0.466797,0.864807,0.268127,0.353516,0.235046,up
61418,-4.761719,6.265625,6.507812,-0.255859,1.050781,-0.466797,0.86438,0.266724,0.355713,0.234863,up
61423,-4.800781,6.304687,6.65625,-0.175781,0.949219,-0.482422,0.863953,0.265381,0.357971,0.234619,up
61430,-4.878906,6.378906,6.734375,-0.160156,0.859375,-0.466797,0.863953,0.265381,0.357971,0.234619,up
61435,-4.992187,6.34375,6.695312,-0.183594,0.78125,-0.458984,0.863953,0.265381,0.357971,0.234619,up
61440,-4.992187,6.34375,6.660156,-0.216797,0.697266,-0.447266,0.863953,0.265381,0.357971,0.234619,up
61446,-5.070312,6.34375,6.699219,-0.291016,0.5,-0.421875,0.863953,0.265381,0.357971,0.234619,up
61451,-5.070312,6.226562,6.699219,-0.291016,0.5,-0.421875,0.862671,0.259155,0.366638,0.232727,up
61457,-5.183594,6.035156,6.660156,-0.386719,0.339844,-0.416016,0.862732,0.257813,0.367737,0.232361,up
61462,-5.109375,5.882812,6.507812,-0.386719,0.339844,-0.416016,0.863098,0.255066,0.369202,0.231567,up
61467,-5.109375,5.882812,6.351562,-0.386719,0.339844,-0.416016,0.863464,0.253479,0.369751,0.231201,up
61473,-5.070312,5.882812,6.234375,-0.386719,0.339844,-0.416016,0.863831,0.252136,0.370056,0.230835,up
61478,-5.070312,5.882812,6.199219,-0.494141,0.097656,-0.455078,0.863831,0.252136,0.370056,0.230835,up
61483,-5.070312,5.882812,6.199219,-0.466797,0.0625,-0.488281,0.864807,0.249146,0.370483,0.229797,up
61488,-5.070312,5.882812,6.199219,-0.466797,0.0625,-0.488281,0.865356,0.247681,0.370605,0.229126,up
61494,-5.03125,5.921875,6.199219,-0.367188,0.021484,-0.523437,0.865356,0.247681,0.370605,0.229126,up
61499,-5.070312,5.882812,6.199219,-0.353516,0.015625,-0.525391,0.865356,0.247681,0.370605,0.229126,up
61504,-5.03125,5.84375,6.085937,-0.376953,0.003906,-0.539062,0.865356,0.247681,0.370605,0.229126,up
61509,-5.03125,5.769531,6.085937,-0.402344,0.009766,-0.541016,0.865356,0.247681,0.370605,0.229126,up
61515,-4.992187,5.652344,6.050781,-0.412109,0.021484,-0.552734,0.865356,0.247681,0.370605,0.229126,up
61521,-5.03125,5.578125,6.085937,-0.398438,0.035156,-0.542969,0.865356,0.247681,0.370605,0.229126,up
61526,-5.03125,5.5,6.085937,-0.388672,0.050781,-0.542969,0.869568,0.237122,0.371765,0.222351,up
61531,-5.03125,5.460937,6.085937,-0.388672,0.050781,-0.542969,0.869568,0.237122,0.371765,0.222351,up
61536,-5.03125,5.386719,6.117187,-0.443359,0.103516,-0.595703,0.869568,0.237122,0.371765,0.222351,up
61541,-5.070312,5.421875,6.085937,-0.443359,0.103516,-0.595703,0.870544,0.234131,0.372314,0.220642,up
61546,-5.109375,5.421875,6.046875,-0.439453,0.125,-0.628906,0.871521,0.230957,0.373108,0.218872,up
61551,-5.144531,5.347656,6.046875,-0.439453,0.125,-0.628906,0.871521,0.230957,0.373108,0.218872,up
61556,-5.183594,5.308594,6.050781,-0.457031,0.160156,-0.740234,0.871521,0.230957,0.373108,0.218872,up
61561,-5.222656,5.421875,6.085937,-0.457031,0.160156,-0.740234,0.872559,0.2276,0.374023,0.216736,up
61567,-5.144531,5.386719,6.046875,-0.466797,0.148437,-0.796875,0.873657,0.223999,0.375,0.214172,up
61572,-5.183594,5.386719,6.011719,-0.470703,0.140625,-0.873047,0.874329,0.221924,0.37561,0.212646,up
61577,-5.261719,5.5,5.972656,-0.470703,0.140625,-0.873047,0.875,0.21991,0.376099,0.211121,up
61582,-5.335937,5.5,6.007812,-0.470703,0.140625,-0.873047,0.87561,0.218079,0.376526,0.209778,up
61587,-5.261719,5.421875,6.007812,-0.617187,0.097656,-0.978516,0.87561,0.218079,0.376526,0.209778,up
61592,-5.300781,5.460937,5.96875,-0.617187,0.097656,-0.978516,0.877197,0.213318,0.377319,0.206543,up
61598,-5.414062,5.5,6.195312,-0.617187,0.097656,-0.978516,0.877991,0.210999,0.377625,0.205078,up
61603,-5.414062,5.5,6.195312,-0.783203,0.052734,-1.017578,0.878906,0.208252,0.377869,0.203491,up
61608,-5.414062,5.5,6.195312,-0.783203,0.052734,-1.017578,0.878906,0.208252,0.377869,0.203491,up
61613,-5.414062,5.386719,6.199219,-0.820312,0.033203,-1.017578,0.878906,0.208252,0.377869,0.203491,up
61618,-5.492187,5.191406,6.273437,-0.875,0.013672,-1.0,0.880676,0.202881,0.378174,0.200623,up
61623,-5.492187,5.0,6.238281,-0.898437,-0.005859,-0.996094,0.881592,0.200012,0.378235,0.19928,up
61628,-5.453125,4.964844,6.273437,-0.884766,-0.058594,-0.962891,0.881592,0.200012,0.378235,0.19928,up
61633,-5.453125,5.0,6.394531,-0.884766,-0.058594,-0.962891,0.884521,0.191528,0.377991,0.19519,up
61639,-5.492187,4.886719,6.316406,-0.884766,-0.058594,-0.962891,0.885498,0.188721,0.377808,0.193787,up
61644,-5.492187,4.808594,6.351562,-0.833984,-0.115234,-0.929687,0.886414,0.186096,0.377563,0.192444,up
61650,-5.527344,4.847656,6.316406,-0.794922,-0.136719,-0.912109,0.886414,0.186096,0.377563,0.192444,up
61655,-5.527344,4.847656,6.390625,-0.755859,-0.150391,-0.904297,0.886414,0.186096,0.377563,0.192444,up
61661,-5.566406,4.808594,6.355469,-0.722656,-0.160156,-0.894531,0.886414,0.186096,0.377563,0.192444,up
61667,-5.605469,4.695312,6.3125,-0.689453,-0.169922,-0.890625,0.886414,0.186096,0.377563,0.192444,up
61672,-5.605469,4.65625,6.316406,-0.662109,-0.164062,-0.863281,0.891052,0.173889,0.376038,0.185303,up
61677,-5.605469,4.542969,6.3125,-0.662109,-0.164062,-0.863281,0.892822,0.169373,0.375366,0.182373,up
61682,-5.683594,4.503906,6.199219,-0.662109,-0.164062,-0.863281,0.893555,0.16748,0.375122,0.181152,up
61687,-5.644531,4.425781,6.277344,-0.662109,-0.164062,-0.863281,0.894348,0.165283,0.374878,0.179871,up
61692,-5.644531,4.351562,6.390625,-0.662109,-0.164062,-0.863281,0.895142,0.162781,0.374634,0.178467,up
61697,-5.605469,4.3125,6.507812,-0.6875,-0.089844,-0.814453,0.895142,0.162781,0.374634,0.178467,up
61702,-5.644531,4.273437,6.433594,-0.6875,-0.089844,-0.814453,0.896606,0.158447,0.374268,0.176025,up
61707,-5.605469,4.160156,6.46875,-0.6875,-0.089844,-0.814453,0.897278,0.156189,0.374084,0.174805,up
61712,-5.644531,4.003906,6.472656,-0.6875,-0.089844,-0.814453,0.897278,0.156189,0.374084,0.174805,up
61717,-5.605469,3.96875,6.46875,-0.630859,-0.048828,-0.792969,0.897278,0.156189,0.374084,0.174805,up
61722,-5.644531,3.929688,6.46875,-0.630859,-0.048828,-0.792969,0.899231,0.149719,0.373718,0.171021,up
61727,-5.683594,3.929688,6.542969,-0.630859,-0.048828,-0.792969,0.899841,0.147766,0.373657,0.169678,up
61732,-5.605469,4.042969,6.695312,-0.630859,-0.048828,-0.792969,0.899841,0.147766,0.373657,0.169678,up
61737,-5.566406,3.96875,6.738281,-0.501953,-0.103516,-0.826172,0.899841,0.147766,0.373657,0.169678,up
61742,-5.492187,4.042969,6.699219,-0.501953,-0.103516,-0.826172,0.901794,0.142212,0.37323,0.165222,up
61747,-5.527344,4.082031,6.578125,-0.501953,-0.103516,-0.826172,0.902466,0.14032,0.372986,0.163757,up
61752,-5.566406,4.003906,6.542969,-0.613281,-0.160156,-0.867187,0.902466,0.14032,0.372986,0.163757,up
61757,-5.605469,3.699219,6.539062,-0.613281,-0.160156,-0.867187,0.903198,0.138184,0.37262,0.16217,up
61762,-5.605469,3.777344,6.542969,-0.613281,-0.160156,-0.867187,0.904663,0.133789,0.371948,0.159241,up
61767,-5.566406,3.777344,6.433594,-0.613281,-0.160156,-0.867187,0.905457,0.131165,0.371521,0.157715,up
61772,-5.644531,3.738281,6.472656,-0.613281,-0.160156,-0.867187,0.905457,0.131165,0.371521,0.157715,up
61777,-5.644531,3.621094,6.578125,-0.925781,-0.189453,-1.023438,0.905457,0.131165,0.371521,0.157715,up
61782,-5.605469,3.546875,6.699219,-0.925781,-0.189453,-1.023438,0.907288,0.125244,0.370544,0.15448,up
61787,-5.605469,3.546875,6.699219,-1.037109,-0.234375,-1.117188,0.908203,0.122192,0.369995,0.152893,up
61792,-5.644531,3.429688,6.695312,-1.037109,-0.234375,-1.117188,0.90918,0.118774,0.369324,0.151184,up
61797,-5.71875,3.007813,6.65625,-1.091797,-0.267578,-1.164063,0.910156,0.115417,0.368652,0.149475,up
61802,-5.71875,2.933594,6.699219,-1.111328,-0.302734,-1.189453,0.911194,0.112061,0.36792,0.147644,up
61808,-5.683594,2.972656,6.695312,-1.111328,-0.302734,-1.189453,0.913513,0.10437,0.366089,0.143555,up
61813,-5.796875,3.007813,6.695312,-1.111328,-0.302734,-1.189453,0.914551,0.100891,0.365173,0.141541,up
61819,-5.683594,2.894531,6.734375,-1.111328,-0.302734,-1.189453,0.915527,0.097961,0.364319,0.139648,up
61824,-5.683594,2.894531,6.734375,-0.884766,-0.402344,-1.333984,0.916687,0.09436,0.363281,0.137024,up
61830,-5.644531,2.933594,6.699219,-0.884766,-0.402344,-1.333984,0.916687,0.09436,0.363281,0.137024,up
61836,-5.566406,2.855469,6.699219,-0.759766,-0.431641,-1.373047,0.916687,0.09436,0.363281,0.137024,up
61841,-5.527344,2.664063,6.65625,-0.746094,-0.414062,-1.396484,0.916687,0.09436,0.363281,0.137024,up
61847,-5.492187,2.472656,6.507812,-0.753906,-0.351563,-1.462891,0.916687,0.09436,0.363281,0.137024,up
61852,-5.453125,2.472656,6.507812,-0.753906,-0.351563,-1.462891,0.922607,0.077148,0.358093,0.121033,up
61857,-5.453125,2.589844,6.507812,-0.753906,-0.351563,-1.462891,0.922607,0.077148,0.358093,0.121033,up
61862,-5.453125,2.742188,6.539062,-0.759766,-0.210937,-1.574219,0.922607,0.077148,0.358093,0.121033,up
61868,-5.683594,2.972656,6.660156,-0.759766,-0.210937,-1.574219,0.924988,0.068115,0.356567,0.112305,up
61874,-5.835937,2.625,6.578125,-0.759766,-0.210937,-1.574219,0.925781,0.064575,0.356262,0.109009,up
61879,-5.835937,2.398438,6.578125,-0.876953,-0.076172,-1.630859,0.926331,0.061584,0.356079,0.106323,up
61884,-5.835937,2.359375,6.734375,-0.923828,-0.082031,-1.652344,0.927002,0.058044,0.355896,0.10321,up
61889,-5.796875,2.398438,7.082031,-0.923828,-0.082031,-1.652344,0.927612,0.054382,0.355652,0.100159,up
61895,-5.757812,2.242188,7.15625,-1.042969,-0.066406,-1.714844,0.927612,0.054382,0.355652,0.100159,up
61900,-5.683594,2.050781,7.234375,-1.128906,-0.068359,-1.751953,0.927612,0.054382,0.355652,0.100159,up
61905,-5.566406,1.898438,7.304687,-1.128906,-0.068359,-1.751953,0.927612,0.054382,0.355652,0.100159,up
61910,-5.453125,1.9375,7.386719,-1.220703,-0.083984,-1.789063,0.927612,0.054382,0.355652,0.100159,up
61915,-5.414062,1.898438,7.460937,-1.275391,-0.095703,-1.851563,0.930725,0.033264,0.354309,0.084412,up
61921,-5.335937,1.746094,7.421875,-1.298828,-0.103516,-1.890625,0.930725,0.033264,0.354309,0.084412,up
61926,-5.375,1.363281,7.421875,-1.273438,-0.089844,-1.941406,0.930725,0.033264,0.354309,0.084412,up
61932,-5.414062,1.363281,7.464844,-1.154297,-0.044922,-2.035156,0.930725,0.033264,0.354309,0.084412,up
61937,-5.875,1.210938,7.160156,-1.154297,-0.044922,-2.035156,0.932861,0.015015,0.352966,0.070557,up
61942,-5.71875,1.09375,6.3125,-1.154297,-0.044922,-2.035156,0.933289,0.010071,0.352783,0.066406,up
61947,-5.605469,1.324219,6.050781,-1.458984,0.328125,-2.251953,0.933533,0.005676,0.352844,0.062866,up
61952,-5.605469,1.746094,6.511719,-1.458984,0.328125,-2.251953,0.933655,0.000488,0.353271,0.058899,up
61957,-5.757812,2.089844,7.238281,-1.441406,0.375,-2.289063,0.933655,0.000488,0.353271,0.058899,up
61962,-5.796875,2.28125,7.121094,-1.441406,0.375,-2.289063,0.933533,-0.01062,0.354675,0.050537,up
61967,-5.835937,2.511719,7.160156,-1.521484,0.822266,-2.330078,0.933533,-0.01062,0.354675,0.050537,up
61972,-5.949219,2.398438,7.238281,-1.693359,0.958984,-2.349609,0.932739,-0.021606,0.357361,0.042236,up
61978,-6.488281,1.746094,7.804687,-1.693359,0.958984,-2.349609,0.931274,-0.033813,0.361084,0.034058,up
61983,-6.601562,1.554688,8.191406,-1.978516,1.064453,-2.402344,0.931274,-0.033813,0.361084,0.034058,up
61988,-6.832031,1.363281,8.535156,-1.978516,1.064453,-2.402344,0.930298,-0.041138,0.363342,0.029663,up
61993,-7.097656,1.132813,9.113281,-2.035156,1.072266,-2.447266,0.929382,-0.047241,0.365112,0.026184,up
61998,-7.097656,1.132813,9.113281,-2.035156,1.072266,-2.447266,0.929382,-0.047241,0.365112,0.026184,up
62003,-7.484375,0.789062,9.074219,-2.048828,1.042969,-2.488281,0.927185,-0.061401,0.369141,0.017944,up
62008,-7.675781,0.519531,9.335938,-2.048828,1.042969,-2.488281,0.926025,-0.06842,0.371033,0.013489,up
62013,-7.828125,0.597656,9.339844,-2.048828,1.042969,-2.488281,0.923767,-0.080994,0.374268,0.004211,up
62018,-7.902344,0.632812,9.230469,-2.048828,1.042969,-2.488281,0.922668,-0.086792,0.375732,-0.000916,up
62023,-7.980469,0.632812,9.070313,-1.142578,0.876953,-2.628906,0.922668,-0.086792,0.375732,-0.000916,up
62028,-8.132813,0.710937,8.6875,-1.142578,0.876953,-2.628906,0.920288,-0.097351,0.378723,-0.01178,up
62033,-8.324219,0.789062,8.730469,-1.142578,0.876953,-2.628906,0.91925,-0.101379,0.380066,-0.016602,up
62038,-8.441406,0.902344,8.691406,-1.142578,0.876953,-2.628906,0.91803,-0.105347,0.381653,-0.021851,up
62044,-8.824219,1.019531,8.765625,-1.142578,0.876953,-2.628906,0.916748,-0.108887,0.383362,-0.027039,up
62049,-9.015625,0.980469,8.957031,-1.142578,0.876953,-2.628906,0.915405,-0.112183,0.385315,-0.032227,up
62055,-9.664063,1.132813,9.148438,-1.142578,0.876953,-2.628906,0.914001,-0.115112,0.387329,-0.037048,up
62061,-9.859375,1.019531,9.53125,-0.414062,1.177734,-1.966797,0.914001,-0.115112,0.387329,-0.037048,up
62066,-9.859375,1.019531,9.53125,-0.427734,1.119141,-1.832031,0.911072,-0.120544,0.391602,-0.046021,up
62071,-10.589844,0.671875,9.914063,-0.427734,1.119141,-1.832031,0.911072,-0.120544,0.391602,-0.046021,up
62076,-10.589844,0.671875,9.914063,-0.546875,1.058594,-1.556641,0.908142,-0.125854,0.395691,-0.053528,up
62082,-10.546875,-1.242188,11.027344,-0.546875,1.058594,-1.556641,0.908142,-0.125854,0.395691,-0.053528,up
62087,-11.734375,-0.398438,9.492188,-0.53125,1.029297,-1.279297,0.904114,-0.133057,0.401245,-0.062134,up
62092,-10.929688,-0.707031,10.296875,-0.53125,1.029297,-1.279297,0.904114,-0.133057,0.401245,-0.062134,up
62097,-11.433594,-0.515625,9.417969,-0.615234,0.671875,-0.900391,0.904114,-0.133057,0.401245,-0.062134,up
62102,-11.695313,-0.628906,8.691406,-0.615234,0.671875,-0.900391,0.902039,-0.137878,0.403687,-0.066162,up
62107,-11.773438,-0.476562,8.613281,-0.615234,0.671875,-0.900391,0.901062,-0.139893,0.404907,-0.067688,up
62112,-11.617188,-0.515625,8.804688,-0.615234,0.671875,-0.900391,0.900146,-0.141907,0.406067,-0.06897,up
62118,-11.695313,-0.707031,8.191406,-0.722656,0.535156,-0.412109,0.900146,-0.141907,0.406067,-0.06897,up
62123,-11.621094,-1.128906,8.230469,-0.722656,0.535156,-0.412109,0.897644,-0.147095,0.409607,-0.06958,up
62128,-11.773438,-1.355469,8.652344,-0.802734,0.548828,0.167969,0.897644,-0.147095,0.409607,-0.06958,up
62133,-11.734375,-1.777344,8.804688,-0.802734,0.548828,0.167969,0.895935,-0.150146,0.412598,-0.067627,up
62138,-11.882813,-2.351563,8.574219,-0.802734,0.548828,0.167969,0.895935,-0.150146,0.412598,-0.067627,up
62143,-12.078125,-2.316406,8.726563,-0.802734,0.548828,0.167969,0.895081,-0.151428,0.414246,-0.065857,up
62148,-12.082031,-2.160156,8.84375,-0.587891,0.453125,1.060547,0.895081,-0.151428,0.414246,-0.065857,up
62154,-12.121094,-2.125,8.996094,-0.587891,0.453125,1.060547,0.893311,-0.152405,0.418823,-0.058105,up
62160,-12.238281,-1.933594,8.652344,-0.587891,0.453125,1.060547,0.893066,-0.151855,0.419983,-0.054871,up
62165,-12.265625,-1.894531,8.34375,-0.28125,0.078125,1.818359,0.893066,-0.151855,0.419983,-0.054871,up
62171,-12.265625,-1.703125,8.113281,-0.216797,-0.076172,2.082031,0.893066,-0.151855,0.419983,-0.054871,up
62177,-12.160156,-1.585938,7.464844,-0.125,-0.267578,2.566406,0.893066,-0.151855,0.419983,-0.054871,up
62182,-12.195313,-1.511719,7.234375,-0.125,-0.267578,2.566406,0.893921,-0.144897,0.422607,-0.0354,up
62188,-11.925781,-1.585938,7.273437,-0.123047,-0.326172,2.994141,0.893921,-0.144897,0.422607,-0.0354,up
62193,-12.042969,-1.511719,7.308594,-0.123047,-0.326172,2.994141,0.895386,-0.136414,0.423645,-0.014954,up
62198,-12.039063,-1.625,7.273437,-0.150391,-0.349609,3.416016,0.895386,-0.136414,0.423645,-0.014954,up
62203,-12.121094,-1.625,7.386719,-0.150391,-0.349609,3.416016,0.895813,-0.132935,0.424072,-0.006531,up
62208,-12.121094,-1.625,7.386719,-0.171875,-0.384766,3.630859,0.896118,-0.129944,0.424377,0.00061,up
62213,-12.34375,-1.355469,7.347656,-0.199219,-0.419922,3.861328,0.896118,-0.129944,0.424377,0.00061,up
62218,-12.34375,-1.355469,7.347656,-0.257813,-0.492187,4.085937,0.896729,-0.122559,0.424805,0.018433,up
62223,-12.652344,-1.242188,7.15625,-0.292969,-0.578125,4.306641,0.897217,-0.114502,0.424805,0.038757,up
62228,-12.886719,-1.128906,6.734375,-0.292969,-0.578125,4.306641,0.897217,-0.114502,0.424805,0.038757,up
62233,-12.726563,-1.089844,6.851562,-0.244141,-0.839844,4.910156,0.897339,-0.110107,0.4245,0.049561,up
62238,-12.6875,-0.9375,6.660156,-0.244141,-0.839844,4.910156,0.897522,-0.099854,0.423096,0.073914,up
62243,-12.6875,-1.011719,6.351562,-0.244141,-0.839844,4.910156,0.897522,-0.099854,0.423096,0.073914,up
62248,-12.460938,-1.320313,6.007812,-0.337891,-1.070313,5.179687,0.897522,-0.094727,0.421936,0.086304,up
62253,-12.460938,-1.320313,6.007812,-0.396484,-1.171875,5.275391,0.897461,-0.090332,0.420715,0.097168,up
62258,-12.34375,-1.433594,5.929687,-0.396484,-1.171875,5.275391,0.897278,-0.085327,0.419067,0.109558,up
62263,-12.34375,-1.433594,5.929687,-0.353516,-1.40625,5.326172,0.897034,-0.080078,0.416992,0.122498,up
62268,-12.039063,-1.546875,5.664062,-0.3125,-1.525391,5.316406,0.897034,-0.080078,0.416992,0.122498,up
62273,-11.429688,-1.242188,5.320312,-0.3125,-1.525391,5.316406,0.896545,-0.069458,0.411926,0.147217,up
62278,-11.238281,-1.242188,5.164062,-0.376953,-1.832031,5.224609,0.89624,-0.063904,0.408813,0.159912,up
62284,-10.894531,-1.050781,4.742187,-0.376953,-1.832031,5.224609,0.895813,-0.058167,0.405212,0.173157,up
62290,-10.625,-1.203125,4.933594,-0.429687,-1.912109,5.179687,0.894775,-0.048096,0.397827,0.197021,up
62295,-10.355469,-0.898437,4.972656,-0.476562,-2.085938,5.111328,0.894775,-0.048096,0.397827,0.197021,up
62300,-10.394531,-0.859375,4.742187,-0.460937,-2.1875,5.091797,0.894775,-0.048096,0.397827,0.197021,up
62305,-10.429688,-1.050781,4.589844,-0.460937,-2.1875,5.091797,0.894775,-0.048096,0.397827,0.197021,up
62310,-10.429688,-1.050781,4.589844,-0.486328,-2.240234,5.095703,0.891785,-0.027344,0.379272,0.245178,up
62315,-10.429688,-1.050781,4.589844,-0.470703,-2.330078,5.142578,0.891785,-0.027344,0.379272,0.245178,up
62320,-9.585938,-1.050781,4.933594,-0.470703,-2.330078,5.142578,0.890686,-0.022034,0.374023,0.257507,up
62325,-9.585938,-1.050781,4.933594,-0.269531,-2.423828,5.259766,0.889465,-0.016602,0.368774,0.269409,up
62331,-9.054688,-0.78125,4.933594,-0.269531,-2.423828,5.259766,0.886414,-0.004578,0.357849,0.293579,up
62336,-8.859375,-0.667969,4.972656,0.029297,-2.498047,5.429687,0.886414,-0.004578,0.357849,0.293579,up
62342,-8.402344,-0.476562,5.164062,0.029297,-2.498047,5.429687,0.886414,-0.004578,0.357849,0.293579,up
62347,-8.402344,-0.476562,5.164062,0.384766,-2.509766,5.609375,0.880188,0.016785,0.341187,0.329468,up
62352,-8.28125,-0.359375,5.242187,0.537109,-2.498047,5.6875,0.880188,0.016785,0.341187,0.329468,up
62357,-8.28125,-0.359375,5.242187,0.537109,-2.498047,5.6875,0.880188,0.016785,0.341187,0.329468,up
62362,-7.867187,-0.359375,5.394531,0.835937,-2.519531,5.804687,0.87146,0.04187,0.324951,0.364929,up
62367,-7.636719,-0.207031,5.433594,1.0,-2.527344,5.865234,0.87146,0.04187,0.324951,0.364929,up
62373,-7.332031,-0.015625,5.546875,1.333984,-2.542969,5.955078,0.87146,0.04187,0.324951,0.364929,up
62378,-7.027344,0.289063,5.894531,1.333984,-2.542969,5.955078,0.860107,0.070557,0.309021,0.399719,up
62383,-6.828125,0.441406,6.351562,1.333984,-2.542969,5.955078,0.855286,0.081909,0.303223,0.412048,up
62388,-6.828125,0.441406,6.351562,1.707031,-2.720703,6.046875,0.851074,0.091858,0.29834,0.42218,up
62393,-6.445312,0.597656,6.390625,1.904297,-2.822266,6.111328,0.846252,0.103088,0.292908,0.432922,up
62398,-6.445312,0.597656,6.390625,1.904297,-2.822266,6.111328,0.846252,0.103088,0.292908,0.432922,up
62403,-6.179687,1.363281,6.925781,2.150391,-2.939453,6.208984,0.835571,0.127441,0.28186,0.453979,up
62408,-6.179687,1.363281,6.925781,2.78125,-3.318359,6.458984,0.829468,0.141479,0.275818,0.464661,up
62413,-5.988281,2.359375,8.503906,2.78125,-3.318359,6.458984,0.823059,0.156006,0.269836,0.474731,up
62418,-5.949219,2.589844,8.804688,3.966797,-4.339844,7.230469,0.823059,0.156006,0.269836,0.474731,up
62423,-5.910156,2.089844,9.226563,3.966797,-4.339844,7.230469,0.807739,0.190857,0.255859,0.495667,up
62428,-5.910156,2.089844,9.226563,3.966797,-4.339844,7.230469,0.799988,0.207947,0.248779,0.504883,up
62433,-6.179687,0.863281,8.847656,3.966797,-4.339844,7.230469,0.799988,0.207947,0.248779,0.504883,up
62438,-6.21875,0.367188,8.460938,5.029297,-5.5,8.421875,0.799988,0.207947,0.248779,0.504883,up
62443,-6.21875,0.367188,8.460938,5.351562,-5.744141,8.798828,0.768555,0.271729,0.221619,0.535156,up
62448,-5.335937,0.558594,5.96875,5.351562,-5.744141,8.798828,0.75531,0.295654,0.211365,0.545349,up
62454,-5.414062,1.246094,5.433594,6.71875,-6.515625,10.166016,0.75531,0.295654,0.211365,0.545349,up
62459,-5.300781,0.828125,5.164062,6.71875,-6.515625,10.166016,0.704834,0.375488,0.177307,0.575134,up
62464,-4.992187,7.152344,1.335938,6.71875,-6.515625,10.166016,0.704834,0.375488,0.177307,0.575134,up
62469,-4.992187,7.152344,1.335938,7.294922,-6.800781,11.138672,0.687561,0.399353,0.166626,0.58313,up
62474,-6.21875,7.152344,-0.464844,7.294922,-6.800781,11.138672,0.665466,0.42627,0.153931,0.593079,up
62479,-6.21875,7.152344,-0.464844,6.597656,-6.490234,11.996094,0.619141,0.475586,0.126282,0.612,up
62484,-5.839844,1.515625,0.53125,6.597656,-6.490234,11.996094,0.619141,0.475586,0.126282,0.612,up
62489,-5.839844,1.515625,0.53125,7.017578,-6.714844,13.144531,0.592346,0.50116,0.110352,0.621094,up
62494,-6.101562,1.285156,1.335938,7.017578,-6.714844,13.144531,0.530823,0.547546,0.078552,0.64209,up
62499,-5.683594,-2.316406,0.914062,7.017578,-6.714844,13.144531,0.504822,0.563599,0.065186,0.650574,up
62504,-1.8125,-4.152344,1.21875,7.017578,-6.714844,13.144531,0.472839,0.581848,0.047302,0.660034,up
62509,0.636719,-2.199219,2.253906,7.017578,-6.714844,13.144531,0.472839,0.581848,0.047302,0.660034,up
62514,0.636719,-2.199219,2.253906,4.648437,-6.058594,12.662109,0.447388,0.596008,0.031982,0.666077,up
62519,2.820313,-1.089844,3.746094,4.648437,-6.058594,12.662109,0.447388,0.596008,0.031982,0.666077,up
62524,6.421875,-1.128906,7.277344,4.648437,-6.058594,12.662109,0.447388,0.596008,0.031982,0.666077,up
62529,6.421875,-1.128906,7.277344,6.419922,-2.15625,9.892578,0.362488,0.639221,-0.016968,0.67804,up
62534,9.640625,-1.546875,0.835937,6.419922,-2.15625,9.892578,0.335327,0.648865,-0.026062,0.682556,up
62540,10.214844,0.980469,1.410156,6.419922,-2.15625,9.892578,0.281677,0.662659,-0.03302,0.693115,up
62545,10.214844,0.980469,1.410156,7.533203,-0.699219,6.068359,0.257629,0.668396,-0.031738,0.697083,up
62550,10.214844,0.980469,1.410156,7.214844,-0.554687,4.597656,0.257629,0.668396,-0.031738,0.697083,up
62555,9.605469,3.429688,2.332031,7.214844,-0.554687,4.597656,0.236145,0.673584,-0.028259,0.699829,up
62560,7.835937,3.546875,1.371094,6.507812,-0.220703,3.263672,0.217163,0.67804,-0.022949,0.701843,up
62565,7.835937,3.546875,1.371094,6.507812,-0.220703,3.263672,0.202393,0.681091,-0.01709,0.703491,up
62571,6.117187,0.597656,0.644531,3.273438,-0.091797,0.707031,0.1828,0.684875,-0.006348,0.705322,up
62576,7.414062,-2.773438,6.277344,3.273438,-0.091797,0.707031,0.176819,0.686462,-0.002136,0.705383,up
62582,7.769531,-2.660156,7.195312,2.033203,0.0,0.224609,0.176819,0.686462,-0.002136,0.705383,up
62587,8.03125,-2.046875,6.390625,0.957031,0.484375,0.330078,0.176819,0.686462,-0.002136,0.705383,up
62593,7.378906,-0.820312,4.667969,-1.904297,0.701172,0.875,0.176819,0.686462,-0.002136,0.705383,up
62599,7.34375,-0.398438,4.859375,-1.904297,0.701172,0.875,0.168701,0.685059,0.000671,0.708679,up
62604,7.613281,-0.4375,5.128906,-4.443359,0.283203,1.207031,0.168701,0.685059,0.000671,0.708679,up
62609,8.109375,-1.28125,4.859375,-4.443359,0.283203,1.207031,0.181641,0.67804,-0.023865,0.711853,up
62614,7.992187,-1.472656,4.359375,-4.443359,0.283203,1.207031,0.188354,0.675049,-0.034607,0.712463,up
62619,7.796875,-1.894531,3.480469,-4.443359,0.283203,1.207031,0.188354,0.675049,-0.034607,0.712463,up
62624,7.6875,-2.238281,2.636719,-2.251953,0.345703,0.208984,0.188354,0.675049,-0.034607,0.712463,up
62629,8.296875,-2.238281,2.558594,-2.251953,0.345703,0.208984,0.197632,0.670593,-0.047729,0.71344,up
62634,8.296875,-2.238281,2.558594,-1.244141,0.275391,-0.015625,0.200378,0.669189,-0.050781,0.713745,up
62639,8.644531,-2.238281,3.136719,-1.244141,0.275391,-0.015625,0.202026,0.668213,-0.052002,0.714111,up
62644,8.914063,-1.511719,3.019531,-0.033203,0.464844,-0.316406,0.202942,0.667419,-0.051819,0.714661,up
62649,8.914063,-1.511719,3.019531,0.232422,0.480469,-0.412109,0.203491,0.666687,-0.050781,0.71521,up
62655,8.914063,-1.011719,2.828125,0.361328,0.439453,-0.498047,0.204285,0.665527,-0.047424,0.716248,up
62660,8.800781,-0.285156,2.523438,0.361328,0.439453,-0.498047,0.204285,0.665527,-0.047424,0.716248,up
62666,8.917969,0.519531,1.757813,0.361328,0.439453,-0.498047,0.205444,0.664734,-0.043884,0.716919,up
62671,9.027344,0.863281,1.566406,-0.054687,0.259766,-0.632812,0.205444,0.664734,-0.043884,0.716919,up
62676,9.066406,1.09375,1.527344,-0.375,0.158203,-0.634766,0.205444,0.664734,-0.043884,0.716919,up
62681,9.183594,1.402344,1.449219,-0.375,0.158203,-0.634766,0.210083,0.663513,-0.041382,0.716919,up
62686,9.339844,1.746094,0.988281,-0.375,0.158203,-0.634766,0.210083,0.663513,-0.041382,0.716919,up
62692,9.449219,1.976563,0.835937,-0.826172,0.052734,-0.683594,0.210083,0.663513,-0.041382,0.716919,up
62698,9.753906,2.398438,0.683594,-0.826172,0.052734,-0.683594,0.217529,0.66217,-0.041992,0.71582,up
62704,9.867188,2.664063,0.796875,-0.09375,-0.003906,-0.746094,0.217529,0.66217,-0.041992,0.71582,up
62709,9.910156,2.933594,0.835937,-0.09375,-0.003906,-0.746094,0.222717,0.661926,-0.039673,0.7146,up
62714,9.910156,3.125,0.914062,0.548828,0.123047,-0.708984,0.222717,0.661926,-0.039673,0.7146,up
62719,9.75,3.46875,0.796875,0.548828,0.123047,-0.708984,0.223694,0.66217,-0.035339,0.714294,up
62724,9.605469,3.660156,0.761719,0.775391,0.255859,-0.662109,0.223694,0.66217,-0.035339,0.714294,up
62729,9.5625,3.890625,0.796875,0.775391,0.255859,-0.662109,0.223694,0.662231,-0.032654,0.714355,up
62734,9.484375,4.082031,0.761719,0.714844,0.263672,-0.636719,0.223694,0.662231,-0.032654,0.714355,up
62739,9.523438,4.003906,0.796875,0.259766,0.246094,-0.587891,0.223755,0.66217,-0.027649,0.714661,up
62744,9.484375,3.96875,0.722656,0.259766,0.246094,-0.587891,0.224243,0.661926,-0.025635,0.714783,up
62749,9.410156,3.890625,0.796875,-0.365234,0.154297,-0.519531,0.225037,0.661621,-0.024536,0.714844,up
62755,9.367188,3.546875,0.953125,-0.365234,0.154297,-0.519531,0.228149,0.660706,-0.023804,0.714722,up
62761,9.335938,3.429688,1.066406,-0.365234,0.154297,-0.519531,0.230103,0.660217,-0.024292,0.7146,up
62767,9.371094,3.316406,1.105469,-0.900391,0.019531,-0.382813,0.2323,0.659607,-0.025146,0.714355,up
62772,9.335938,3.164063,1.21875,-0.951172,-0.03125,-0.341797,0.2323,0.659607,-0.025146,0.714355,up
62777,9.367188,2.855469,1.21875,-0.951172,-0.03125,-0.341797,0.236572,0.65863,-0.027283,0.713745,up
62782,9.445313,2.550781,1.21875,-0.800781,-0.054687,-0.294922,0.236572,0.65863,-0.027283,0.713745,up
62787,9.523438,2.433594,1.179688,-0.613281,-0.035156,-0.279297,0.236572,0.65863,-0.027283,0.713745,up
62793,9.640625,2.320313,1.21875,-0.613281,-0.035156,-0.279297,0.236572,0.65863,-0.027283,0.713745,up
62799,9.75,2.320313,1.335938,0.087891,0.089844,-0.271484,0.236572,0.65863,-0.027283,0.713745,up
62804,9.792969,2.511719,1.449219,0.087891,0.089844,-0.271484,0.243225,0.657227,-0.028198,0.712769,up
62809,9.871094,2.589844,1.640625,0.087891,0.089844,-0.271484,0.243225,0.657166,-0.026978,0.712891,up
62814,9.90625,2.703125,1.179688,0.087891,0.089844,-0.271484,0.243225,0.657166,-0.026978,0.712891,up
62819,9.640625,2.855469,1.027344,0.476562,0.324219,-0.345703,0.243225,0.657166,-0.026978,0.712891,up
62824,9.601563,2.933594,1.144531,0.476562,0.324219,-0.345703,0.24292,0.656677,-0.023865,0.713562,up
62829,9.601563,3.085938,1.371094,0.464844,0.273438,-0.386719,0.242859,0.656189,-0.020569,0.714111,up
62834,9.445313,3.164063,1.410156,0.464844,0.273438,-0.386719,0.242859,0.656189,-0.020569,0.714111,up
62839,9.257813,3.277344,1.410156,0.298828,0.326172,-0.400391,0.242859,0.656189,-0.020569,0.714111,up
62844,9.140625,3.316406,1.410156,0.298828,0.326172,-0.400391,0.24353,0.65509,-0.016113,0.715027,up
62849,9.023438,3.316406,1.371094,0.298828,0.326172,-0.400391,0.244019,0.654663,-0.015137,0.715271,up
62854,8.957031,3.316406,1.527344,0.298828,0.326172,-0.400391,0.244019,0.654663,-0.015137,0.715271,up
62859,8.917969,3.355469,1.527344,-0.117188,0.1875,-0.316406,0.245605,0.653809,-0.014221,0.715576,up
62864,8.878906,3.164063,1.640625,-0.117188,0.1875,-0.316406,0.245605,0.653809,-0.014221,0.715576,up
62870,8.917969,3.007813,1.640625,-0.347656,0.115234,-0.253906,0.245605,0.653809,-0.014221,0.715576,up
62875,8.914063,2.933594,1.601563,-0.347656,0.115234,-0.253906,0.24884,0.652405,-0.014343,0.715698,up
62880,8.914063,2.742188,1.527344,-0.347656,0.115234,-0.253906,0.249695,0.652039,-0.014526,0.715759,up
62885,8.953125,2.472656,1.640625,-0.328125,0.113281,-0.236328,0.250854,0.651489,-0.014648,0.71582,up
62891,9.140625,2.511719,1.757813,-0.328125,0.113281,-0.236328,0.251709,0.651184,-0.014709,0.71582,up
62896,9.335938,2.433594,1.757813,-0.152344,0.103516,-0.267578,0.251709,0.651184,-0.014709,0.71582,up
