timestamp,ax,ay,az,gx,gy,gz,qw,qx,qy,qz,label
230895,2.667969,5.804687,7.082031,0.400391,0.892578,-0.322266,0.927979,0.333008,-0.144958,-0.083801,up
230901,2.628906,5.960937,7.039062,0.400391,0.892578,-0.322266,0.927795,0.335449,-0.140442,-0.083557,up
230906,2.554688,6.074219,7.078125,0.361328,0.867187,-0.345703,0.927795,0.335449,-0.140442,-0.083557,up
230911,2.554688,6.152344,7.082031,0.335938,0.855469,-0.359375,0.927795,0.335449,-0.140442,-0.083557,up
230916,2.515625,6.226562,7.082031,0.335938,0.855469,-0.359375,0.927551,0.338806,-0.133789,-0.083557,up
230923,2.476563,6.417969,7.117187,0.335938,0.855469,-0.359375,0.92749,0.339844,-0.131531,-0.083618,up
230929,2.4375,6.535156,7.117187,0.214844,0.816406,-0.363281,0.92749,0.339844,-0.131531,-0.083618,up
230934,2.363281,6.648437,7.082031,0.214844,0.816406,-0.363281,0.927429,0.341614,-0.127258,-0.083862,up
230939,2.402344,6.648437,7.082031,0.214844,0.816406,-0.363281,0.927429,0.342468,-0.124695,-0.083984,up
230945,2.363281,6.6875,7.039062,0.023437,0.857422,-0.318359,0.927429,0.342468,-0.124695,-0.083984,up
230950,2.285156,6.765625,7.003906,0.023437,0.857422,-0.318359,0.927795,0.343689,-0.118225,-0.084106,up
230956,2.285156,6.726562,7.039062,0.023437,0.857422,-0.318359,0.92804,0.343811,-0.115967,-0.084106,up
230961,2.285156,6.726562,7.117187,-0.148437,0.929687,-0.279297,0.928345,0.34375,-0.113647,-0.084045,up
230966,2.171875,6.726562,7.082031,-0.171875,0.976562,-0.269531,0.928345,0.34375,-0.113647,-0.084045,up
230971,1.941406,6.648437,7.117187,-0.171875,0.976562,-0.269531,0.929077,0.343506,-0.108521,-0.083801,up
230977,1.632813,6.648437,7.082031,-0.171875,0.976562,-0.269531,0.929504,0.343262,-0.105896,-0.083557,up
230983,1.519531,6.535156,7.0,-0.308594,1.083984,-0.181641,0.929504,0.343262,-0.105896,-0.083557,up
230989,1.175781,6.378906,7.039062,-0.310547,1.085938,-0.167969,0.929504,0.343262,-0.105896,-0.083557,up
230994,0.984375,6.417969,7.234375,-0.173828,0.962891,-0.171875,0.929504,0.343262,-0.105896,-0.083557,up
230999,0.945312,6.378906,7.347656,-0.173828,0.962891,-0.171875,0.931335,0.341736,-0.095154,-0.08197,up
231005,0.714844,6.496094,7.386719,-0.066406,0.888672,-0.173828,0.931335,0.341736,-0.095154,-0.08197,up
231010,0.636719,6.535156,7.421875,0.216797,0.722656,-0.173828,0.931763,0.341919,-0.090759,-0.08136,up
231015,0.636719,6.609375,7.460937,0.216797,0.722656,-0.173828,0.931641,0.343323,-0.087097,-0.080933,up
231020,0.714844,6.726562,7.503906,0.460937,0.525391,-0.169922,0.931641,0.343323,-0.087097,-0.080933,up
231025,0.867187,7.03125,7.503906,0.460937,0.525391,-0.169922,0.93103,0.345703,-0.084534,-0.080688,up
231030,0.945312,7.109375,7.460937,0.460937,0.525391,-0.169922,0.93103,0.345703,-0.084534,-0.080688,up
231035,1.097656,7.261719,7.347656,0.474609,0.353516,-0.160156,0.93103,0.345703,-0.084534,-0.080688,up
231041,1.328125,7.378906,7.273437,0.474609,0.353516,-0.160156,0.929871,0.349487,-0.081665,-0.080627,up
231047,1.40625,7.300781,7.082031,0.474609,0.353516,-0.160156,0.929565,0.350464,-0.080872,-0.080566,up
231053,1.480469,7.378906,7.082031,0.308594,0.382813,-0.148437,0.929321,0.35144,-0.079895,-0.080566,up
231058,1.519531,7.300781,7.003906,0.195312,0.417969,-0.126953,0.929321,0.35144,-0.079895,-0.080566,up
231063,1.519531,7.183594,6.964844,0.195312,0.417969,-0.126953,0.929321,0.35144,-0.079895,-0.080566,up
231068,1.480469,7.152344,7.003906,0.195312,0.417969,-0.126953,0.929138,0.352783,-0.076599,-0.080261,up
231073,1.441406,7.113281,7.082031,-0.064453,0.576172,-0.097656,0.929138,0.352783,-0.076599,-0.080261,up
231078,1.328125,7.070312,7.117187,-0.089844,0.640625,-0.105469,0.929138,0.352783,-0.076599,-0.080261,up
231083,1.058594,6.878906,6.773437,-0.099609,0.722656,-0.113281,0.929138,0.352783,-0.076599,-0.080261,up
231088,0.832031,6.726562,6.582031,-0.082031,0.791016,-0.134766,0.929138,0.352783,-0.076599,-0.080261,up
231093,0.832031,6.726562,6.582031,-0.050781,0.785156,-0.146484,0.929871,0.352783,-0.068176,-0.078857,up
231098,0.5625,6.574219,6.578125,-0.050781,0.785156,-0.146484,0.929871,0.352783,-0.068176,-0.078857,up
231103,0.5625,6.574219,6.578125,0.107422,0.648437,-0.179687,0.930054,0.35321,-0.064514,-0.078369,up
231109,0.5625,6.648437,6.816406,0.107422,0.648437,-0.179687,0.930054,0.35321,-0.064514,-0.078369,up
231114,0.636719,6.800781,7.039062,0.316406,0.546875,-0.228516,0.930054,0.35321,-0.064514,-0.078369,up
231119,0.675781,6.878906,7.117187,0.316406,0.546875,-0.228516,0.929443,0.355469,-0.06012,-0.078369,up
231124,0.675781,6.878906,7.15625,0.507812,0.513672,-0.265625,0.929443,0.355469,-0.06012,-0.078369,up
231129,0.714844,6.992187,7.039062,0.582031,0.509766,-0.279297,0.929443,0.355469,-0.06012,-0.078369,up
231135,0.714844,7.179687,7.003906,0.617187,0.498047,-0.263672,0.927551,0.361206,-0.054871,-0.078857,up
231140,0.714844,7.261719,7.003906,0.617187,0.498047,-0.263672,0.927551,0.361206,-0.054871,-0.078857,up
231145,0.753906,7.296875,6.964844,0.560547,0.5,-0.228516,0.927551,0.361206,-0.054871,-0.078857,up
231150,0.714844,7.335937,6.925781,0.560547,0.5,-0.228516,0.925964,0.365662,-0.051147,-0.078979,up
231155,0.753906,7.375,6.890625,0.560547,0.5,-0.228516,0.925537,0.366882,-0.049866,-0.078979,up
231160,0.636719,7.457031,6.8125,0.560547,0.5,-0.228516,0.925537,0.366882,-0.049866,-0.078979,up
231165,0.601562,7.375,6.773437,0.316406,0.580078,-0.154297,0.925537,0.366882,-0.049866,-0.078979,up
231170,0.601562,7.339844,6.582031,0.316406,0.580078,-0.154297,0.924927,0.368958,-0.047119,-0.078735,up
231176,0.484375,7.335937,6.507812,0.263672,0.605469,-0.146484,0.9245,0.370483,-0.044189,-0.078308,up
231181,0.445312,7.296875,6.507812,0.185547,0.634766,-0.091797,0.924316,0.371155,-0.042542,-0.077942,up
231186,0.371094,7.261719,6.351562,0.185547,0.634766,-0.091797,0.924194,0.371765,-0.041016,-0.077576,up
231191,0.292969,7.261719,6.351562,0.185547,0.634766,-0.091797,0.924072,0.372192,-0.039673,-0.077148,up
231196,0.292969,7.183594,6.390625,0.154297,0.664062,-0.027344,0.924011,0.372742,-0.037964,-0.076599,up
231202,0.21875,7.152344,6.46875,0.154297,0.664062,-0.027344,0.923889,0.373169,-0.036621,-0.07605,up
231207,0.140625,7.113281,6.390625,0.154297,0.664062,-0.027344,0.923767,0.373779,-0.035156,-0.075439,up
231213,-0.050781,7.070312,6.351562,0.154297,0.664062,-0.027344,0.923645,0.374329,-0.033691,-0.074707,up
231218,-0.164062,7.03125,6.199219,0.201172,0.640625,0.078125,0.923645,0.374329,-0.033691,-0.074707,up
231224,-0.28125,7.035156,6.121094,0.21875,0.609375,0.111328,0.923645,0.374329,-0.033691,-0.074707,up
231229,-0.359375,7.183594,6.199219,0.21875,0.609375,0.111328,0.923645,0.374329,-0.033691,-0.074707,up
231234,-0.28125,7.257812,6.316406,0.287109,0.486328,0.162109,0.923035,0.376831,-0.02887,-0.071594,up
231240,-0.089844,7.335937,6.542969,0.335938,0.4375,0.181641,0.923035,0.376831,-0.02887,-0.071594,up
231245,-0.050781,7.378906,6.621094,0.378906,0.419922,0.193359,0.922546,0.37854,-0.027283,-0.069946,up
231250,0.027344,7.339844,6.660156,0.378906,0.419922,0.193359,0.92218,0.379578,-0.026489,-0.069031,up
231255,0.0625,7.378906,6.621094,0.386719,0.453125,0.207031,0.921936,0.380432,-0.025818,-0.068298,up
231260,0.179687,7.492187,6.660156,0.386719,0.453125,0.207031,0.92157,0.38147,-0.025024,-0.067322,up
231265,0.21875,7.457031,6.660156,0.386719,0.453125,0.207031,0.921326,0.382324,-0.024292,-0.066528,up
231270,0.179687,7.453125,6.621094,0.294922,0.564453,0.195312,0.921326,0.382324,-0.024292,-0.066528,up
231275,0.027344,7.457031,6.542969,0.294922,0.564453,0.195312,0.920776,0.384094,-0.022339,-0.064636,up
231280,0.027344,7.457031,6.542969,0.173828,0.611328,0.197266,0.920532,0.384888,-0.021118,-0.063538,up
231285,-0.089844,7.53125,6.582031,0.173828,0.611328,0.197266,0.92041,0.385376,-0.020081,-0.062622,up
231290,-0.164062,7.566406,6.621094,0.101563,0.640625,0.173828,0.92041,0.385376,-0.020081,-0.062622,up
231296,-0.359375,7.535156,6.621094,0.101563,0.640625,0.173828,0.920227,0.386536,-0.016296,-0.059631,up
231301,-0.394531,7.457031,6.660156,0.052734,0.634766,0.140625,0.920166,0.38678,-0.014893,-0.058655,up
231306,-0.511719,7.457031,6.699219,0.041016,0.595703,0.136719,0.920166,0.38678,-0.014893,-0.058655,up
231311,-0.550781,7.492187,6.734375,0.041016,0.595703,0.136719,0.920166,0.387207,-0.012512,-0.056946,up
231317,-0.625,7.417969,6.964844,0.041016,0.595703,0.136719,0.920105,0.38739,-0.011475,-0.056152,up
231322,-0.625,7.457031,7.003906,0.095703,0.462891,0.146484,0.920044,0.387695,-0.010498,-0.05542,up
231328,-0.625,7.457031,7.042969,0.111328,0.423828,0.148437,0.920044,0.387695,-0.010498,-0.05542,up
231334,-0.625,7.414062,7.117187,0.111328,0.423828,0.148437,0.919922,0.388306,-0.008911,-0.053955,up
231339,-0.550781,7.414062,7.117187,0.119141,0.347656,0.179687,0.919922,0.388306,-0.008911,-0.053955,up
231344,-0.511719,7.417969,7.15625,0.111328,0.314453,0.193359,0.919922,0.388306,-0.008911,-0.053955,up
231349,-0.472656,7.417969,7.15625,0.082031,0.296875,0.195312,0.919922,0.388306,-0.008911,-0.053955,up
231354,-0.472656,7.417969,7.117187,0.082031,0.296875,0.195312,0.919617,0.389465,-0.006775,-0.051086,up
231360,-0.472656,7.339844,7.117187,0.052734,0.289063,0.191406,0.919617,0.389465,-0.006775,-0.051086,up
231365,-0.433594,7.296875,7.042969,0.052734,0.294922,0.171875,0.919617,0.389465,-0.006775,-0.051086,up
231370,-0.433594,7.183594,6.925781,0.052734,0.294922,0.171875,0.919495,0.389954,-0.005371,-0.049072,up
231375,-0.472656,7.222656,6.925781,0.052734,0.294922,0.171875,0.919434,0.390137,-0.004883,-0.048401,up
231381,-0.511719,7.179687,6.925781,0.09375,0.285156,0.123047,0.919434,0.390137,-0.004883,-0.048401,up
231386,-0.625,7.183594,6.925781,0.09375,0.285156,0.123047,0.91925,0.39093,-0.003357,-0.046753,up
231391,-0.625,7.183594,6.890625,0.09375,0.285156,0.123047,0.919128,0.391296,-0.00293,-0.046265,up
231396,-0.625,7.21875,6.925781,0.193359,0.234375,0.095703,0.918945,0.391724,-0.002502,-0.045837,up
231401,-0.585937,7.21875,6.890625,0.193359,0.234375,0.095703,0.918762,0.392212,-0.002075,-0.04541,up
231406,-0.550781,7.183594,6.890625,0.193359,0.234375,0.095703,0.918579,0.3927,-0.001709,-0.045105,up
231411,-0.511719,7.148437,6.851562,0.185547,0.1875,0.089844,0.918579,0.3927,-0.001709,-0.045105,up
231416,-0.511719,7.148437,6.851562,0.185547,0.1875,0.089844,0.918396,0.393188,-0.001404,-0.044739,up
231421,-0.433594,7.109375,6.734375,0.189453,0.1875,0.089844,0.918213,0.393616,-0.001099,-0.044373,up
231426,-0.433594,7.109375,6.734375,0.173828,0.179687,0.087891,0.91803,0.394104,-0.000854,-0.044006,up
231432,-0.394531,7.074219,6.734375,0.160156,0.185547,0.097656,0.917725,0.394836,-0.000244,-0.043274,up
231438,-0.394531,7.070312,6.660156,0.160156,0.185547,0.097656,0.917603,0.395142,0.000122,-0.042847,up
231443,-0.359375,7.03125,6.699219,0.160156,0.185547,0.097656,0.917542,0.395386,0.000488,-0.04248,up
231449,-0.320313,6.996094,6.699219,0.046875,0.244141,0.095703,0.917542,0.395386,0.000488,-0.04248,up
231454,-0.359375,6.996094,6.621094,0.039063,0.267578,0.091797,0.917542,0.395386,0.000488,-0.04248,up
231459,-0.394531,6.878906,6.582031,0.029297,0.285156,0.083984,0.917542,0.395386,0.000488,-0.04248,up
231464,-0.433594,6.878906,6.582031,0.029297,0.298828,0.074219,0.917542,0.395386,0.000488,-0.04248,up
231469,-0.472656,6.835937,6.621094,0.025391,0.306641,0.078125,0.917542,0.395386,0.000488,-0.04248,up
231474,-0.472656,6.875,6.660156,0.03125,0.306641,0.078125,0.917542,0.395386,0.000488,-0.04248,up
231479,-0.433594,6.875,6.699219,0.03125,0.306641,0.078125,0.917542,0.395386,0.000488,-0.04248,up
231485,-0.394531,6.878906,6.660156,0.03125,0.306641,0.078125,0.917236,0.396362,0.004822,-0.03894,up
231491,-0.394531,6.839844,6.660156,-0.011719,0.314453,0.070312,0.917236,0.396362,0.004822,-0.03894,up
231496,-0.394531,6.796875,6.621094,-0.011719,0.314453,0.070312,0.917236,0.396484,0.006714,-0.037659,up
231501,-0.394531,6.839844,6.660156,-0.011719,0.314453,0.070312,0.917236,0.396484,0.006714,-0.037659,up
231506,-0.433594,6.800781,6.699219,-0.048828,0.337891,0.060547,0.917236,0.396484,0.006714,-0.037659,up
231511,-0.394531,6.796875,6.660156,-0.048828,0.337891,0.060547,0.917358,0.396362,0.008789,-0.036255,up
231516,-0.394531,6.796875,6.660156,-0.048828,0.337891,0.060547,0.917419,0.39624,0.00946,-0.035828,up
231521,-0.472656,6.800781,6.582031,-0.048828,0.337891,0.060547,0.917419,0.39624,0.00946,-0.035828,up
231526,-0.433594,6.796875,6.582031,-0.099609,0.400391,0.039063,0.917419,0.39624,0.00946,-0.035828,up
231531,-0.394531,6.769531,6.621094,-0.099609,0.400391,0.039063,0.917603,0.395752,0.012085,-0.034424,up
231536,-0.359375,6.6875,6.660156,-0.099609,0.400391,0.039063,0.917725,0.395569,0.013062,-0.033997,up
231541,-0.320313,6.648437,6.582031,-0.099609,0.400391,0.039063,0.917725,0.395569,0.013062,-0.033997,up
231546,-0.320313,6.691406,6.582031,-0.097656,0.546875,-0.048828,0.917725,0.395569,0.013062,-0.033997,up
231551,-0.28125,6.6875,6.621094,-0.097656,0.546875,-0.048828,0.917908,0.395081,0.016846,-0.032776,up
231556,-0.320313,6.691406,6.542969,-0.097656,0.546875,-0.048828,0.917908,0.395081,0.016846,-0.032776,up
231561,-0.359375,6.652344,6.582031,-0.070312,0.648437,-0.089844,0.917969,0.394897,0.02002,-0.031982,up
231566,-0.472656,6.648437,6.621094,-0.070312,0.648437,-0.089844,0.917969,0.394897,0.02002,-0.031982,up
231571,-0.511719,6.691406,6.621094,-0.001953,0.761719,-0.115234,0.917969,0.394836,0.021667,-0.031555,up
231576,-0.550781,6.726562,6.660156,-0.001953,0.761719,-0.115234,0.917847,0.394958,0.025269,-0.030701,up
231581,-0.664062,6.800781,6.699219,-0.001953,0.761719,-0.115234,0.917847,0.394958,0.025269,-0.030701,up
231586,-0.816406,6.957031,6.734375,0.027344,0.802734,-0.091797,0.917847,0.394958,0.025269,-0.030701,up
231591,-0.894531,7.070312,6.8125,0.027344,0.802734,-0.091797,0.917664,0.395203,0.029114,-0.029602,up
231597,-0.933594,7.152344,6.8125,0.023437,0.828125,-0.070312,0.917664,0.395203,0.029114,-0.029602,up
231602,-1.085938,7.296875,6.8125,0.023437,0.828125,-0.070312,0.917358,0.395569,0.035156,-0.02771,up
231608,-1.199219,7.457031,6.773437,0.023437,0.828125,-0.070312,0.917236,0.395691,0.036865,-0.0271,up
231613,-1.199219,7.457031,6.773437,0.001953,0.773437,-0.050781,0.917114,0.395752,0.038879,-0.026428,up
231618,-1.277344,7.457031,6.851562,-0.009766,0.734375,-0.050781,0.917053,0.395813,0.040405,-0.025879,up
231624,-1.277344,7.535156,6.851562,-0.009766,0.734375,-0.050781,0.916992,0.395874,0.042114,-0.02533,up
231629,-1.277344,7.566406,6.851562,-0.042969,0.671875,-0.046875,0.916992,0.395874,0.042114,-0.02533,up
231635,-1.199219,7.566406,6.890625,-0.066406,0.638672,-0.056641,0.916992,0.395874,0.042114,-0.02533,up
231641,-1.199219,7.601562,6.8125,-0.066406,0.638672,-0.056641,0.916931,0.395569,0.046875,-0.023804,up
231646,-1.199219,7.601562,6.8125,-0.175781,0.591797,-0.083984,0.916931,0.395386,0.048218,-0.023437,up
231651,-1.199219,7.601562,6.8125,-0.175781,0.591797,-0.083984,0.916992,0.395081,0.049805,-0.02301,up
231657,-1.199219,7.566406,6.734375,-0.25,0.578125,-0.097656,0.917114,0.394653,0.051147,-0.022644,up
231663,-1.199219,7.640625,6.890625,-0.25,0.578125,-0.097656,0.917419,0.393616,0.053955,-0.021973,up
231669,-1.238281,7.644531,6.890625,-0.337891,0.585937,-0.101563,0.917419,0.393616,0.053955,-0.021973,up
231674,-1.316406,7.683594,6.8125,-0.378906,0.597656,-0.091797,0.917419,0.393616,0.053955,-0.021973,up
231680,-1.390625,7.601562,6.851562,-0.416016,0.603516,-0.091797,0.917419,0.393616,0.053955,-0.021973,up
231686,-1.390625,7.640625,6.890625,-0.443359,0.609375,-0.080078,0.917419,0.393616,0.053955,-0.021973,up
231691,-1.429688,7.679687,6.925781,-0.447266,0.609375,-0.064453,0.917419,0.393616,0.053955,-0.021973,up
231697,-1.507813,7.722656,7.042969,-0.447266,0.609375,-0.064453,0.919495,0.387329,0.064209,-0.018982,up
231702,-1.546875,7.71875,7.082031,-0.425781,0.595703,-0.050781,0.919861,0.386292,0.065735,-0.018433,up
231707,-1.546875,7.722656,7.15625,-0.425781,0.595703,-0.050781,0.920105,0.385437,0.067017,-0.018005,up
231712,-1.546875,7.679687,7.15625,-0.371094,0.580078,-0.033203,0.92041,0.384583,0.068481,-0.017456,up
231718,-1.546875,7.496094,7.117187,-0.371094,0.580078,-0.033203,0.920593,0.383789,0.069824,-0.016968,up
231723,-1.507813,7.492187,7.15625,-0.328125,0.566406,-0.041016,0.920837,0.383057,0.071106,-0.016479,up
231729,-1.46875,7.492187,7.15625,-0.314453,0.548828,-0.033203,0.920837,0.383057,0.071106,-0.016479,up
231735,-1.429688,7.496094,7.15625,-0.314453,0.548828,-0.033203,0.921204,0.381653,0.07373,-0.015564,up
231741,-1.429688,7.492187,7.042969,-0.292969,0.542969,-0.029297,0.921204,0.381653,0.07373,-0.015564,up
231746,-1.507813,7.457031,7.003906,-0.294922,0.546875,-0.019531,0.921204,0.381653,0.07373,-0.015564,up
231751,-1.507813,7.457031,6.964844,-0.294922,0.546875,-0.019531,0.921753,0.3797,0.077576,-0.014099,up
231756,-1.507813,7.496094,6.964844,-0.300781,0.544922,-0.017578,0.921936,0.378967,0.078979,-0.01355,up
231761,-1.507813,7.496094,6.964844,-0.296875,0.550781,-0.007813,0.922058,0.378357,0.080078,-0.013062,up
231766,-1.507813,7.492187,6.925781,-0.296875,0.550781,-0.007813,0.922241,0.377686,0.08136,-0.012512,up
231771,-1.546875,7.414062,7.003906,-0.298828,0.548828,0.001953,0.922424,0.377075,0.082642,-0.011963,up
231777,-1.46875,7.417969,7.042969,-0.287109,0.552734,0.003906,0.922729,0.375793,0.085144,-0.010864,up
231782,-1.46875,7.339844,7.082031,-0.287109,0.552734,0.003906,0.922729,0.375793,0.085144,-0.010864,up
231788,-1.507813,7.296875,6.964844,-0.287109,0.552734,0.003906,0.922974,0.374573,0.087708,-0.009705,up
231793,-1.507813,7.296875,6.964844,-0.255859,0.576172,0.001953,0.923096,0.374023,0.088989,-0.009094,up
231799,-1.507813,7.300781,6.890625,-0.238281,0.570312,0.0,0.923218,0.373413,0.090393,-0.008484,up
231804,-1.46875,7.296875,6.851562,-0.238281,0.570312,0.0,0.923279,0.372925,0.091614,-0.007996,up
231810,-1.46875,7.257812,6.890625,-0.208984,0.583984,0.001953,0.923279,0.372925,0.091614,-0.007996,up
231815,-1.429688,7.179687,6.890625,-0.205078,0.582031,0.013672,0.923279,0.372925,0.091614,-0.007996,up
231821,-1.351563,7.113281,6.851562,-0.201172,0.621094,0.019531,0.923279,0.372925,0.091614,-0.007996,up
231826,-1.316406,7.03125,6.8125,-0.201172,0.621094,0.019531,0.923462,0.371155,0.096985,-0.005676,up
231832,-1.277344,7.03125,6.699219,-0.21875,0.677734,0.015625,0.923462,0.371155,0.096985,-0.005676,up
231837,-1.351563,6.957031,6.542969,-0.244141,0.722656,0.025391,0.923462,0.371155,0.096985,-0.005676,up
231843,-1.390625,6.914062,6.507812,-0.244141,0.722656,0.025391,0.923645,0.36908,0.103516,-0.002686,up
231848,-1.390625,6.914062,6.542969,-0.289063,0.839844,0.044922,0.923645,0.36908,0.103516,-0.002686,up
231853,-1.429688,6.953125,6.621094,-0.277344,0.875,0.056641,0.923645,0.36908,0.103516,-0.002686,up
231860,-1.390625,6.878906,6.699219,-0.277344,0.875,0.056641,0.923706,0.367249,0.109253,0.000183,up
231865,-1.46875,6.835937,6.699219,-0.259766,0.994141,0.064453,0.923706,0.367249,0.109253,0.000183,up
231870,-1.507813,6.875,6.734375,-0.236328,1.052734,0.074219,0.923706,0.367249,0.109253,0.000183,up
231876,-1.660156,6.875,6.734375,-0.226562,1.107422,0.070312,0.923706,0.367249,0.109253,0.000183,up
231881,-1.8125,6.914062,6.773437,-0.226562,1.107422,0.070312,0.92334,0.365173,0.118591,0.004761,up
231887,-1.851563,6.957031,6.851562,-0.162109,1.152344,0.119141,0.92334,0.365173,0.118591,0.004761,up
231892,-1.890625,6.957031,7.0,-0.162109,1.152344,0.119141,0.922729,0.364075,0.126282,0.008789,up
231897,-1.929688,6.992187,7.082031,-0.162109,1.152344,0.119141,0.922485,0.363831,0.128601,0.010193,up
231902,-2.042969,6.992187,7.234375,-0.162109,1.152344,0.119141,0.922485,0.363831,0.128601,0.010193,up
231907,-2.082031,6.957031,7.304687,-0.109375,1.115234,0.220703,0.921875,0.363464,0.133484,0.013367,up
231912,-2.15625,6.917969,7.34375,-0.070312,1.099609,0.275391,0.92157,0.363403,0.135681,0.014893,up
231917,-2.195313,6.800781,7.425781,-0.070312,1.099609,0.275391,0.921265,0.363342,0.137878,0.016479,up
231922,-2.195313,6.6875,7.621094,-0.070312,1.099609,0.275391,0.921265,0.363342,0.137878,0.016479,up
231927,-2.234375,6.496094,7.84375,-0.0625,1.066406,0.310547,0.921265,0.363342,0.137878,0.016479,up
231932,-2.273438,6.417969,7.925781,-0.0625,1.066406,0.310547,0.920227,0.363159,0.144348,0.021545,up
231937,-2.347656,6.304687,7.960937,-0.0625,1.066406,0.310547,0.920227,0.363159,0.144348,0.021545,up
231942,-2.3125,6.1875,8.078125,-0.027344,1.076172,0.326172,0.919434,0.363159,0.148804,0.025085,up
231947,-2.425781,6.113281,8.230469,-0.027344,1.076172,0.326172,0.919006,0.36322,0.151001,0.026733,up
231952,-2.464844,6.074219,8.230469,-0.027344,1.076172,0.326172,0.918579,0.363281,0.153137,0.02832,up
231957,-2.464844,6.035156,8.152344,-0.027344,1.076172,0.326172,0.918579,0.363281,0.153137,0.02832,up
231962,-2.539063,6.035156,8.148438,-0.023437,1.158203,0.291016,0.917664,0.363281,0.157959,0.031799,up
231968,-2.695313,5.84375,8.382813,-0.023437,1.158203,0.291016,0.917175,0.363281,0.160217,0.033447,up
231973,-2.695313,5.84375,8.382813,-0.023437,1.158203,0.291016,0.917175,0.363281,0.160217,0.033447,up
231978,-2.769531,5.804687,8.460938,-0.025391,1.158203,0.283203,0.91626,0.36322,0.165039,0.036865,up
231983,-2.960938,5.84375,8.421875,-0.025391,1.158203,0.283203,0.91626,0.36322,0.165039,0.036865,up
231988,-3.117188,5.769531,8.347656,-0.115234,1.207031,0.287109,0.91626,0.36322,0.165039,0.036865,up
231993,-3.117188,5.769531,8.347656,-0.130859,1.15625,0.285156,0.914917,0.36261,0.172424,0.042175,up
231998,-3.230469,5.730469,8.503906,-0.130859,1.15625,0.285156,0.91449,0.362305,0.174683,0.043823,up
232004,-3.308594,5.960937,8.609375,-0.130859,1.15625,0.285156,0.914124,0.362061,0.176819,0.04541,up
232010,-3.34375,5.996094,8.574219,-0.140625,1.021484,0.242187,0.914124,0.362061,0.176819,0.04541,up
232016,-3.382813,6.074219,8.535156,-0.138672,0.986328,0.220703,0.914124,0.362061,0.176819,0.04541,up
232021,-3.460938,6.113281,8.464844,-0.119141,0.884766,0.169922,0.914124,0.362061,0.176819,0.04541,up
232026,-3.5,6.152344,8.53125,-0.119141,0.884766,0.169922,0.912659,0.36084,0.184875,0.051086,up
232032,-3.5,6.1875,8.421875,-0.140625,0.820312,0.121094,0.912659,0.36084,0.184875,0.051086,up
232037,-3.535156,6.226562,8.304688,-0.140625,0.820312,0.121094,0.912048,0.360291,0.188416,0.053345,up
232042,-3.535156,6.226562,8.304688,-0.289063,0.777344,0.074219,0.911804,0.359802,0.190308,0.054504,up
232047,-3.5,6.226562,8.148438,-0.289063,0.777344,0.074219,0.911621,0.359253,0.191833,0.05542,up
232052,-3.5,6.226562,8.042969,-0.394531,0.757812,0.054687,0.911621,0.359253,0.191833,0.05542,up
232057,-3.5,6.1875,7.882812,-0.537109,0.742187,0.052734,0.911743,0.355896,0.196533,0.058411,up
232062,-3.421875,6.152344,7.847656,-0.537109,0.742187,0.052734,0.911743,0.355896,0.196533,0.058411,up
232067,-3.5,6.113281,7.769531,-0.941406,0.785156,0.048828,0.911743,0.355896,0.196533,0.058411,up
232072,-3.421875,6.074219,7.726562,-1.0625,0.814453,0.052734,0.912415,0.352112,0.199646,0.060669,up
232077,-3.460938,5.769531,7.769531,-1.158203,0.861328,0.039063,0.912903,0.34967,0.201294,0.062012,up
232082,-3.382813,5.730469,7.730469,-1.158203,0.861328,0.039063,0.913391,0.347168,0.202881,0.063293,up
232087,-3.460938,5.691406,7.730469,-1.248047,0.96875,0.007813,0.914001,0.344116,0.204895,0.064819,up
232092,-3.5,5.578125,7.699219,-1.248047,0.96875,0.007813,0.914612,0.341125,0.206848,0.066345,up
232098,-3.574219,5.5,7.730469,-1.248047,0.96875,0.007813,0.915649,0.3349,0.211182,0.069214,up
232103,-3.613281,5.386719,7.730469,-1.28125,1.142578,-0.099609,0.916199,0.331665,0.213623,0.070679,up
232108,-3.652344,5.269531,7.578125,-1.28125,1.142578,-0.099609,0.916626,0.328491,0.216125,0.072021,up
232113,-3.765625,5.308594,7.421875,-1.28125,1.142578,-0.099609,0.916992,0.325745,0.218506,0.073059,up
232119,-3.882813,5.269531,7.382812,-1.199219,1.271484,-0.275391,0.917358,0.322144,0.22168,0.074341,up
232124,-4.113281,5.308594,7.234375,-1.199219,1.271484,-0.275391,0.917603,0.319397,0.224304,0.075134,up
232129,-4.265625,5.347656,7.199219,-1.199219,1.271484,-0.275391,0.917847,0.316162,0.227661,0.075989,up
232134,-4.378906,5.386719,7.121094,-1.199219,1.271484,-0.275391,0.917847,0.316162,0.227661,0.075989,up
232139,-4.457031,5.460937,7.039062,-1.09375,1.355469,-0.539062,0.91803,0.313232,0.230713,0.076599,up
232144,-4.457031,5.460937,7.039062,-1.095703,1.326172,-0.595703,0.91803,0.313232,0.230713,0.076599,up
232149,-4.609375,5.613281,7.195312,-1.095703,1.326172,-0.595703,0.918579,0.303955,0.24054,0.077698,up
232155,-4.722656,5.730469,7.304687,-1.095703,1.326172,-0.595703,0.918762,0.300842,0.243591,0.077698,up
232160,-4.722656,5.769531,7.199219,-1.125,1.160156,-0.755859,0.918762,0.300842,0.243591,0.077698,up
232166,-4.722656,5.578125,7.039062,-1.125,1.160156,-0.755859,0.919312,0.29425,0.249634,0.077271,up
232172,-4.570312,5.539062,7.078125,-1.234375,0.996094,-0.837891,0.919312,0.29425,0.249634,0.077271,up
232177,-4.457031,5.613281,7.234375,-1.291016,0.736328,-0.910156,0.919312,0.29425,0.249634,0.077271,up
232182,-4.339844,5.578125,7.34375,-1.291016,0.736328,-0.910156,0.920776,0.283569,0.25708,0.075623,up
232187,-4.339844,5.5,7.273437,-1.291016,0.736328,-0.910156,0.921448,0.279724,0.259094,0.074768,up
232193,-4.417969,5.421875,7.195312,-1.388672,0.544922,-0.980469,0.921448,0.279724,0.259094,0.074768,up
232198,-4.417969,5.421875,7.195312,-1.544922,0.333984,-1.039063,0.92395,0.267761,0.263672,0.071655,up
232204,-4.570312,4.925781,6.699219,-1.544922,0.333984,-1.039063,0.924988,0.263306,0.264771,0.070435,up
232209,-4.570312,4.808594,6.429687,-1.662109,0.21875,-1.097656,0.924988,0.263306,0.264771,0.070435,up
232214,-4.609375,4.734375,6.3125,-1.695313,0.175781,-1.117188,0.927185,0.254272,0.266602,0.06781,up
232219,-4.648437,4.617187,6.394531,-1.695313,0.175781,-1.117188,0.928467,0.249084,0.267456,0.066223,up
232226,-4.53125,4.464844,6.355469,-1.695313,0.175781,-1.117188,0.928467,0.249084,0.267456,0.066223,up
232231,-4.53125,4.390625,6.433594,-1.607422,0.091797,-1.154297,0.928467,0.249084,0.267456,0.066223,up
232237,-4.457031,4.273437,6.578125,-1.529297,0.082031,-1.15625,0.928467,0.249084,0.267456,0.066223,up
232242,-4.496094,4.160156,6.582031,-1.529297,0.082031,-1.15625,0.932678,0.231567,0.269958,0.059998,up
232247,-4.496094,4.121094,6.660156,-1.193359,0.054687,-1.109375,0.932678,0.231567,0.269958,0.059998,up
232252,-4.496094,4.082031,6.738281,-1.193359,0.054687,-1.109375,0.934448,0.223694,0.271179,0.056458,up
232257,-4.417969,4.121094,6.695312,-1.193359,0.054687,-1.109375,0.935181,0.220337,0.271729,0.054626,up
232262,-4.496094,4.003906,6.8125,-0.994141,0.054687,-1.058594,0.935852,0.217346,0.272278,0.052917,up
232267,-4.496094,4.003906,6.8125,-0.888672,0.03125,-1.025391,0.936462,0.214355,0.272827,0.051086,up
232272,-4.496094,4.121094,6.921875,-0.888672,0.03125,-1.025391,0.937073,0.211731,0.273254,0.049316,up
232278,-4.53125,4.3125,7.0,-0.888672,0.03125,-1.025391,0.938171,0.206726,0.273865,0.045898,up
232283,-4.496094,4.3125,7.082031,-0.742187,-0.130859,-0.849609,0.938171,0.206726,0.273865,0.045898,up
232288,-4.53125,4.351562,7.039062,-0.742187,-0.130859,-0.849609,0.939331,0.201904,0.273926,0.042603,up
232293,-4.609375,4.351562,6.960937,-0.634766,-0.203125,-0.779297,0.939331,0.201904,0.273926,0.042603,up
232298,-4.496094,4.425781,6.855469,-0.634766,-0.203125,-0.779297,0.94043,0.197998,0.27356,0.039551,up
232303,-4.457031,4.425781,6.890625,-0.550781,-0.324219,-0.736328,0.940979,0.196167,0.273193,0.037903,up
232308,-4.417969,4.617187,6.960937,-0.550781,-0.324219,-0.736328,0.940979,0.196167,0.273193,0.037903,up
232313,-4.378906,4.65625,6.925781,-0.550781,-0.324219,-0.736328,0.942139,0.192871,0.271973,0.034973,up
232318,-4.339844,4.582031,6.921875,-0.578125,-0.496094,-0.695312,0.942139,0.192871,0.271973,0.034973,up
232323,-4.339844,4.582031,6.921875,-0.578125,-0.496094,-0.695312,0.943542,0.189148,0.270081,0.031799,up
232328,-4.265625,4.734375,6.851562,-0.578125,-0.496094,-0.695312,0.944214,0.187439,0.269043,0.030457,up
232333,-4.226562,4.734375,6.734375,-0.742187,-0.644531,-0.722656,0.945068,0.185242,0.267761,0.028809,up
232338,-4.1875,4.695312,6.738281,-0.742187,-0.644531,-0.722656,0.945068,0.185242,0.267761,0.028809,up
232343,-4.113281,4.695312,6.777344,-0.859375,-0.689453,-0.759766,0.946899,0.180237,0.265015,0.025635,up
232349,-3.996094,4.390625,7.039062,-0.859375,-0.689453,-0.759766,0.947815,0.177551,0.263672,0.02417,up
232354,-3.996094,4.390625,7.039062,-1.189453,-0.798828,-0.857422,0.948914,0.174316,0.262024,0.022522,up
232359,-3.996094,4.042969,6.921875,-1.189453,-0.798828,-0.857422,0.950012,0.170837,0.260437,0.020935,up
232365,-3.882813,3.8125,6.894531,-1.189453,-0.798828,-0.857422,0.951172,0.167114,0.258789,0.019287,up
232370,-3.804688,3.738281,6.855469,-1.53125,-0.833984,-0.951172,0.951172,0.167114,0.258789,0.019287,up
232376,-3.804688,3.621094,6.925781,-1.611328,-0.830078,-0.982422,0.951172,0.167114,0.258789,0.019287,up
232381,-3.84375,3.507813,7.003906,-1.664063,-0.814453,-1.011719,0.951172,0.167114,0.258789,0.019287,up
232387,-3.765625,3.085938,7.15625,-1.664063,-0.814453,-1.011719,0.955994,0.149597,0.252136,0.012512,up
232392,-3.613281,2.972656,7.234375,-1.691406,-0.765625,-1.074219,0.955994,0.149597,0.252136,0.012512,up
232397,-3.613281,2.972656,7.234375,-1.693359,-0.732422,-1.113281,0.958252,0.140137,0.249146,0.008789,up
232402,-3.613281,2.972656,7.078125,-1.689453,-0.703125,-1.15625,0.958252,0.140137,0.249146,0.008789,up
232407,-3.613281,2.972656,7.078125,-1.707031,-0.707031,-1.232422,0.960266,0.130737,0.24646,0.004822,up
232412,-3.535156,2.972656,7.199219,-1.707031,-0.707031,-1.232422,0.961304,0.125671,0.245056,0.002502,up
232418,-3.652344,3.007813,7.277344,-1.898438,-0.769531,-1.521484,0.961304,0.125671,0.245056,0.002502,up
232423,-3.613281,2.855469,7.34375,-1.898438,-0.769531,-1.521484,0.964417,0.109192,0.240784,-0.005676,up
232428,-3.613281,2.742188,7.347656,-2.181641,-0.890625,-1.732422,0.964417,0.109192,0.240784,-0.005676,up
232433,-3.574219,2.664063,7.382812,-2.181641,-0.890625,-1.732422,0.966431,0.096985,0.237549,-0.01178,up
232438,-3.535156,2.359375,7.464844,-2.505859,-1.050781,-1.955078,0.966431,0.096985,0.237549,-0.01178,up
232443,-3.535156,2.015625,7.621094,-2.505859,-1.050781,-1.955078,0.967529,0.090027,0.235657,-0.015198,up
232448,-3.5,1.554688,7.847656,-2.796875,-1.261719,-2.208984,0.967529,0.090027,0.235657,-0.015198,up
232453,-3.421875,1.132813,7.847656,-2.796875,-1.261719,-2.208984,0.970947,0.06604,0.228333,-0.027039,up
232458,-3.421875,0.863281,7.765625,-2.796875,-1.261719,-2.208984,0.971985,0.058044,0.225586,-0.031311,up
232463,-3.382813,0.671875,7.964844,-2.796875,-1.261719,-2.208984,0.971985,0.058044,0.225586,-0.031311,up
232468,-3.382813,0.632812,8.042969,-2.783203,-1.644531,-2.865234,0.971985,0.058044,0.225586,-0.031311,up
232473,-3.269531,0.671875,7.964844,-2.783203,-1.644531,-2.865234,0.974792,0.032593,0.215637,-0.047424,up
232478,-3.382813,0.25,7.960937,-2.783203,-1.644531,-2.865234,0.975525,0.024048,0.211853,-0.053894,up
232483,-3.152344,-0.324219,7.277344,-2.783203,-1.644531,-2.865234,0.975525,0.024048,0.211853,-0.053894,up
232488,-3.039063,0.480469,6.738281,-2.273438,-1.560547,-3.304688,0.975525,0.024048,0.211853,-0.053894,up
232494,-3.117188,0.941406,6.921875,-2.273438,-1.560547,-3.304688,0.97644,0.008118,0.20459,-0.067871,up
232499,-3.117188,0.941406,6.921875,-2.289063,-1.482422,-3.298828,0.976685,0.000977,0.201416,-0.074524,up
232504,-3.152344,0.214844,7.238281,-2.289063,-1.482422,-3.298828,0.976685,-0.006775,0.198303,-0.081665,up
232509,-2.769531,-0.132812,6.855469,-2.232422,-1.183594,-3.371094,0.976685,-0.006775,0.198303,-0.081665,up
232514,-2.695313,-0.398438,7.0,-2.28125,-1.037109,-3.355469,0.975708,-0.029053,0.191284,-0.102905,up
232519,-2.539063,-0.746094,7.273437,-2.28125,-1.037109,-3.355469,0.974976,-0.036133,0.189697,-0.109924,up
232524,-2.539063,-0.628906,7.308594,-2.015625,-0.513672,-3.359375,0.974976,-0.036133,0.189697,-0.109924,up
232530,-2.503906,-0.746094,7.386719,-2.015625,-0.513672,-3.359375,0.974976,-0.036133,0.189697,-0.109924,up
232535,-2.617188,-0.898437,7.464844,-1.654297,-0.142578,-3.316406,0.974976,-0.036133,0.189697,-0.109924,up
232540,-2.695313,-1.203125,7.382812,-1.476563,0.001953,-3.265625,0.974976,-0.036133,0.189697,-0.109924,up
232546,-2.539063,0.175781,7.273437,-1.066406,0.140625,-3.228516,0.974976,-0.036133,0.189697,-0.109924,up
232551,-2.386719,0.328125,7.886719,-1.046875,0.199219,-3.091797,0.974976,-0.036133,0.189697,-0.109924,up
232557,-2.386719,0.328125,7.886719,-1.107422,0.410156,-2.919922,0.966187,-0.073181,0.188049,-0.160522,up
232562,-2.808594,-0.246094,7.925781,-0.683594,0.425781,-2.734375,0.964661,-0.076416,0.188843,-0.166992,up
232567,-2.808594,-0.246094,7.925781,-0.457031,0.388672,-2.480469,0.963257,-0.078796,0.189575,-0.173035,up
232572,-3.152344,0.058594,7.960937,-0.457031,0.388672,-2.480469,0.963257,-0.078796,0.189575,-0.173035,up
232577,-3.152344,0.058594,7.960937,-0.341797,0.388672,-2.220703,0.960754,-0.082275,0.190735,-0.183716,up
232583,-3.652344,-0.398438,8.382813,-0.054687,0.263672,-1.78125,0.958801,-0.083984,0.191284,-0.192383,up
232588,-3.804688,-0.398438,8.574219,-0.054687,0.263672,-1.78125,0.958801,-0.083984,0.191284,-0.192383,up
232593,-3.957031,-0.398438,8.6875,0.279297,0.058594,-1.369141,0.958801,-0.083984,0.191284,-0.192383,up
232598,-4.148437,-0.398438,8.886719,0.496094,-0.072266,-1.212891,0.958801,-0.083984,0.191284,-0.192383,up
232603,-4.148437,-0.398438,8.886719,0.865234,-0.314453,-1.001953,0.957153,-0.083008,0.189819,-0.202454,up
232608,-4.304687,0.25,8.996094,0.865234,-0.314453,-1.001953,0.956848,-0.081787,0.188599,-0.205261,up
232613,-4.265625,0.558594,9.035156,1.085938,-0.537109,-0.892578,0.956848,-0.081787,0.188599,-0.205261,up
232619,-4.1875,0.828125,8.886719,1.085938,-0.537109,-0.892578,0.956665,-0.076477,0.183044,-0.213135,up
232625,-4.035156,0.902344,8.765625,1.085938,-0.537109,-0.892578,0.956726,-0.074341,0.180603,-0.215759,up
232631,-3.921875,0.941406,8.691406,1.033203,-0.640625,-0.738281,0.956726,-0.074341,0.180603,-0.215759,up
232636,-3.804688,1.132813,8.570313,0.917969,-0.601562,-0.673828,0.956726,-0.074341,0.180603,-0.215759,up
232641,-3.652344,1.132813,8.53125,0.773437,-0.513672,-0.597656,0.956726,-0.074341,0.180603,-0.215759,up
232647,-3.5,1.132813,8.609375,0.609375,-0.423828,-0.529297,0.956726,-0.074341,0.180603,-0.215759,up
232652,-3.382813,0.902344,8.53125,0.410156,-0.308594,-0.445312,0.956726,-0.074341,0.180603,-0.215759,up
232658,-3.230469,0.40625,8.5,0.410156,-0.308594,-0.445312,0.956665,-0.066711,0.170288,-0.226562,up
232663,-3.117188,0.214844,8.5,0.410156,-0.308594,-0.445312,0.956665,-0.066711,0.170288,-0.226562,up
232668,-3.039063,-0.09375,8.574219,0.101563,0.105469,-0.173828,0.956421,-0.066162,0.170532,-0.2276,up
232673,-2.847656,-0.707031,8.726563,0.101563,0.105469,-0.173828,0.956421,-0.066162,0.170532,-0.2276,up
232679,-2.847656,-1.128906,8.769531,0.408203,0.535156,0.068359,0.956421,-0.066162,0.170532,-0.2276,up
232684,-2.769531,-1.28125,8.769531,0.408203,0.535156,0.068359,0.955994,-0.062805,0.173401,-0.228149,up
232690,-2.886719,-1.355469,8.769531,0.408203,0.535156,0.068359,0.955872,-0.060425,0.174744,-0.228333,up
232695,-3.191406,-0.972656,8.917969,0.408203,0.535156,0.068359,0.95575,-0.057556,0.176025,-0.228577,up
232701,-3.308594,-0.515625,8.996094,1.482422,0.970703,0.117188,0.95575,-0.057556,0.176025,-0.228577,up
232706,-3.5,-0.09375,9.03125,1.714844,1.042969,0.109375,0.95575,-0.057556,0.176025,-0.228577,up
232711,-3.691406,0.710937,8.996094,1.714844,1.042969,0.109375,0.9552,-0.044312,0.180542,-0.230347,up
232716,-3.691406,0.710937,8.996094,1.714844,1.042969,0.109375,0.9552,-0.044312,0.180542,-0.230347,up
232721,-3.921875,0.863281,8.957031,1.925781,1.191406,0.044922,0.954529,-0.033875,0.18396,-0.232117,up
232726,-3.921875,0.863281,8.957031,1.841797,1.337891,0.005859,0.954041,-0.028442,0.186035,-0.233093,up
232731,-4.339844,1.402344,9.230469,1.841797,1.337891,0.005859,0.954041,-0.028442,0.186035,-0.233093,up
232737,-4.339844,1.402344,9.230469,1.666016,1.392578,0.009766,0.953003,-0.019043,0.190735,-0.234741,up
232743,-5.109375,1.9375,9.417969,1.666016,1.392578,0.009766,0.953003,-0.019043,0.190735,-0.234741,up
232748,-5.335937,1.628906,9.535156,0.453125,1.460938,0.160156,0.953003,-0.019043,0.190735,-0.234741,up
232753,-5.335937,1.59375,9.296875,0.453125,1.460938,0.160156,0.95105,-0.009399,0.199707,-0.235657,up
232759,-5.527344,1.707031,9.417969,0.169922,1.443359,0.246094,0.94989,-0.006531,0.206238,-0.234802,up
232764,-5.375,1.363281,9.957031,0.169922,1.443359,0.246094,0.949402,-0.005798,0.209351,-0.234009,up
232770,-5.527344,1.171875,10.300781,-0.265625,1.115234,0.431641,0.948975,-0.005371,0.212585,-0.232849,up
232775,-5.644531,0.980469,10.488281,-0.292969,0.980469,0.501953,0.94873,-0.005188,0.214905,-0.23175,up
232781,-5.796875,0.828125,10.300781,-0.292969,0.980469,0.501953,0.948547,-0.005066,0.217346,-0.230347,up
232786,-5.492187,0.671875,10.414063,-0.292969,0.980469,0.501953,0.948547,-0.005066,0.217346,-0.230347,up
232792,-5.566406,0.40625,10.5625,-0.306641,0.664062,0.730469,0.948547,-0.005066,0.217346,-0.230347,up
232797,-5.414062,-0.09375,10.523438,-0.277344,0.578125,0.822266,0.948547,-0.005066,0.217346,-0.230347,up
232802,-5.566406,-0.167969,10.527344,-0.212891,0.511719,0.908203,0.948547,-0.005066,0.217346,-0.230347,up
232807,-5.527344,-0.285156,10.417969,-0.212891,0.511719,0.908203,0.948914,-0.00415,0.225647,-0.220398,up
232812,-5.414062,-0.324219,10.300781,-0.117188,0.431641,1.058594,0.948914,-0.00415,0.225647,-0.220398,up
232817,-5.261719,-0.324219,10.296875,-0.060547,0.402344,1.126953,0.948914,-0.00415,0.225647,-0.220398,up
232822,-5.183594,-0.554687,10.183594,-0.060547,0.402344,1.126953,0.948914,-0.00415,0.225647,-0.220398,up
232828,-5.183594,-0.589844,10.105469,-0.060547,0.402344,1.126953,0.950378,-0.001221,0.229858,-0.209717,up
232834,-5.109375,-0.476562,10.105469,0.125,0.511719,1.296875,0.950378,-0.001221,0.229858,-0.209717,up
232839,-5.222656,-0.554687,10.105469,0.224609,0.572266,1.347656,0.951416,0.003235,0.233459,-0.200684,up
232844,-5.300781,-0.476562,10.035156,0.224609,0.572266,1.347656,0.951416,0.003235,0.233459,-0.200684,up
232849,-5.375,-0.398438,9.914063,0.492187,0.761719,1.421875,0.951416,0.003235,0.233459,-0.200684,up
232854,-5.492187,-0.167969,9.996094,0.492187,0.761719,1.421875,0.952209,0.010071,0.237854,-0.191406,up
232860,-5.988281,0.40625,9.957031,0.492187,0.761719,1.421875,0.952393,0.012634,0.239563,-0.188293,up
232865,-6.179687,0.632812,10.074219,0.501953,0.814453,1.353516,0.952393,0.012634,0.239563,-0.188293,up
232871,-6.21875,0.828125,10.140625,0.453125,0.773437,1.330078,0.952637,0.017395,0.242737,-0.182495,up
232876,-6.371094,0.902344,10.140625,0.453125,0.773437,1.330078,0.952759,0.019592,0.244324,-0.179504,up
232881,-6.371094,0.902344,10.140625,0.283203,0.669922,1.28125,0.952881,0.021545,0.245728,-0.176636,up
232887,-6.410156,1.054688,10.144531,0.283203,0.669922,1.28125,0.953003,0.023132,0.24707,-0.173767,up
232892,-6.449219,1.019531,10.183594,0.283203,0.669922,1.28125,0.953003,0.023132,0.24707,-0.173767,up
232898,-6.449219,1.019531,10.183594,0.027344,0.566406,1.294922,0.95343,0.025391,0.249634,-0.16748,up
232903,-6.488281,1.019531,10.140625,0.027344,0.566406,1.294922,0.95343,0.025391,0.249634,-0.16748,up
232909,-6.488281,0.902344,10.179688,-0.255859,0.439453,1.439453,0.954285,0.027161,0.252869,-0.156921,up
232914,-6.488281,0.863281,10.070313,-0.255859,0.439453,1.439453,0.954285,0.027161,0.252869,-0.156921,up
232919,-6.488281,0.863281,10.035156,-0.208984,0.425781,1.693359,0.954285,0.027161,0.252869,-0.156921,up
232924,-6.601562,0.710937,10.070313,-0.208984,0.425781,1.693359,0.955017,0.02832,0.254822,-0.148804,up
232930,-6.601562,0.710937,10.070313,0.035156,0.490234,1.873047,0.95575,0.030518,0.256836,-0.140198,up
232935,-6.792969,0.902344,9.996094,0.189453,0.527344,1.953125,0.956116,0.03241,0.257935,-0.135193,up
232940,-6.792969,0.902344,9.996094,0.3125,0.556641,2.021484,0.95636,0.034363,0.25885,-0.130981,up
232945,-6.945312,1.09375,9.917969,0.398438,0.572266,2.083984,0.956665,0.036804,0.259949,-0.12616,up
232951,-7.214844,1.515625,9.574219,0.398438,0.572266,2.083984,0.956848,0.039368,0.260986,-0.121399,up
232956,-7.292969,1.667969,9.457031,0.496094,0.595703,2.154297,0.957092,0.042114,0.262024,-0.116577,up
232961,-7.328125,1.976563,9.414063,0.496094,0.595703,2.154297,0.957275,0.045227,0.263123,-0.111206,up
232966,-7.519531,2.242188,9.296875,0.496094,0.595703,2.154297,0.957275,0.045227,0.263123,-0.111206,up
232971,-7.519531,2.320313,9.230469,0.439453,0.541016,2.195313,0.957275,0.045227,0.263123,-0.111206,up
232977,-7.519531,2.320313,9.230469,0.349609,0.511719,2.207031,0.957275,0.045227,0.263123,-0.111206,up
232982,-7.597656,2.242188,9.148438,0.349609,0.511719,2.207031,0.957275,0.045227,0.263123,-0.111206,up
232987,-7.558594,2.242188,9.070313,0.134766,0.441406,2.253906,0.957275,0.045227,0.263123,-0.111206,up
232992,-7.519531,2.167969,9.074219,0.041016,0.402344,2.277344,0.957275,0.045227,0.263123,-0.111206,up
232998,-7.519531,2.167969,9.074219,-0.058594,0.378906,2.302734,0.958374,0.061096,0.268616,-0.075195,up
233003,-7.292969,1.976563,8.996094,-0.058594,0.378906,2.302734,0.958374,0.061096,0.268616,-0.075195,up
233008,-7.214844,1.785156,8.996094,-0.136719,0.353516,2.332031,0.95874,0.063843,0.269653,-0.06366,up
233013,-7.214844,1.785156,8.996094,-0.136719,0.353516,2.332031,0.95874,0.063843,0.269653,-0.06366,up
233019,-6.984375,1.132813,8.914063,-0.076172,0.365234,2.503906,0.95874,0.063843,0.269653,-0.06366,up
233024,-6.90625,1.09375,8.953125,-0.076172,0.365234,2.503906,0.959106,0.067871,0.270996,-0.045654,up
233029,-6.945312,1.09375,8.882813,0.138672,0.445312,2.587891,0.959106,0.067871,0.270996,-0.045654,up
233034,-6.984375,1.09375,8.765625,0.138672,0.445312,2.587891,0.959045,0.071716,0.272034,-0.033081,up
233039,-7.023437,1.210938,8.691406,0.396484,0.541016,2.640625,0.958862,0.074036,0.272644,-0.026978,up
233044,-7.136719,1.363281,8.613281,0.396484,0.541016,2.640625,0.958618,0.076538,0.273315,-0.021118,up
233049,-7.328125,2.015625,8.34375,0.396484,0.541016,2.640625,0.958252,0.079834,0.27417,-0.014343,up
233054,-7.40625,2.28125,8.34375,0.632812,0.613281,2.691406,0.957764,0.083191,0.275024,-0.008118,up
233060,-7.484375,2.550781,8.1875,0.712891,0.619141,2.710938,0.956726,0.090027,0.276733,0.00354,up
233065,-7.484375,2.742188,8.078125,0.689453,0.630859,2.728516,0.955994,0.093933,0.277649,0.010193,up
233070,-7.519531,3.085938,7.921875,0.689453,0.630859,2.728516,0.955322,0.097656,0.278564,0.016785,up
233075,-7.445312,3.085938,7.882812,0.689453,0.630859,2.728516,0.954651,0.100525,0.279236,0.022278,up
233080,-7.367187,3.125,7.804687,0.390625,0.582031,2.765625,0.953918,0.103821,0.280029,0.029297,up
233085,-7.367187,3.046875,7.808594,0.263672,0.560547,2.794922,0.953186,0.106628,0.280701,0.036011,up
233091,-6.90625,2.703125,7.921875,0.263672,0.560547,2.794922,0.952515,0.108765,0.281189,0.04187,up
233096,-6.90625,2.703125,7.921875,0.263672,0.560547,2.794922,0.952515,0.108765,0.281189,0.04187,up
233101,-6.90625,2.703125,7.921875,-0.048828,0.544922,2.869141,0.95105,0.112976,0.282227,0.055725,up
233106,-6.90625,2.703125,7.921875,-0.105469,0.542969,2.890625,0.950256,0.114746,0.282715,0.062683,up
233111,-6.371094,2.167969,8.039063,-0.105469,0.542969,2.890625,0.950256,0.114746,0.282715,0.062683,up
233116,-6.371094,2.167969,8.039063,-0.140625,0.550781,2.912109,0.948547,0.118103,0.283569,0.077148,up
233123,-6.179687,1.859375,8.1875,-0.140625,0.550781,2.912109,0.948547,0.118103,0.283569,0.077148,up
233128,-6.21875,1.9375,8.152344,-0.052734,0.570312,2.923828,0.948547,0.118103,0.283569,0.077148,up
233133,-6.21875,2.015625,8.191406,-0.003906,0.591797,2.900391,0.948547,0.118103,0.283569,0.077148,up
233139,-6.257812,2.128906,8.113281,0.089844,0.617187,2.859375,0.948547,0.118103,0.283569,0.077148,up
233145,-6.296875,2.359375,8.078125,0.089844,0.617187,2.859375,0.941772,0.129761,0.286438,0.119141,up
233150,-6.332031,2.550781,8.082031,0.080078,0.630859,2.814453,0.940308,0.13208,0.287109,0.126587,up
233156,-6.410156,2.550781,7.960937,0.080078,0.630859,2.814453,0.939026,0.133911,0.287598,0.13269,up
233162,-6.410156,3.085938,8.082031,-0.013672,0.648437,2.75,0.939026,0.133911,0.287598,0.13269,up
233168,-6.488281,3.085938,8.191406,-0.074219,0.626953,2.716797,0.939026,0.133911,0.287598,0.13269,up
233173,-6.601562,3.046875,8.269531,-0.150391,0.605469,2.695313,0.939026,0.133911,0.287598,0.13269,up
233179,-6.601562,3.046875,8.269531,-0.222656,0.560547,2.683594,0.933289,0.140381,0.28949,0.159424,up
233184,-6.5625,2.855469,8.460938,-0.222656,0.560547,2.683594,0.933289,0.140381,0.28949,0.159424,up
233189,-6.601562,2.78125,8.648438,-0.351563,0.492187,2.673828,0.930542,0.142456,0.289795,0.172546,up
233194,-6.601562,2.78125,8.648438,-0.375,0.453125,2.689453,0.930542,0.142456,0.289795,0.172546,up
233200,-6.488281,2.703125,8.953125,-0.375,0.453125,2.689453,0.92627,0.145264,0.289368,0.192749,up
233205,-6.371094,2.625,9.074219,-0.375,0.453125,2.689453,0.924683,0.146423,0.289001,0.200012,up
233210,-6.296875,2.625,9.070313,-0.253906,0.328125,2.699219,0.924683,0.146423,0.289001,0.200012,up
233215,-6.257812,2.703125,9.148438,-0.253906,0.328125,2.699219,0.921692,0.148865,0.288208,0.212646,up
233220,-6.21875,2.972656,9.1875,-0.253906,0.328125,2.699219,0.920166,0.150208,0.287842,0.218811,up
233225,-6.179687,3.125,9.1875,-0.253906,0.328125,2.699219,0.918518,0.151611,0.287415,0.225098,up
233230,-6.179687,3.203125,9.152344,-0.162109,0.273438,2.679688,0.918518,0.151611,0.287415,0.225098,up
233235,-6.140625,3.507813,9.035156,-0.162109,0.273438,2.679688,0.915161,0.154541,0.286438,0.237854,up
233240,-6.179687,3.660156,8.996094,-0.162109,0.273438,2.679688,0.915161,0.154541,0.286438,0.237854,up
233245,-6.179687,3.777344,8.957031,-0.185547,0.238281,2.632813,0.911621,0.15741,0.285156,0.250793,up
233250,-6.257812,4.003906,8.804688,-0.185547,0.238281,2.632813,0.909912,0.158691,0.284424,0.256897,up
233255,-6.371094,4.121094,8.691406,-0.185547,0.238281,2.632813,0.908386,0.159851,0.28363,0.26239,up
233260,-6.371094,4.121094,8.691406,-0.185547,0.238281,2.632813,0.908386,0.159851,0.28363,0.26239,up
233265,-6.449219,4.195312,8.6875,-0.326172,0.091797,2.486328,0.908386,0.159851,0.28363,0.26239,up
233270,-6.179687,4.082031,8.6875,-0.40625,0.052734,2.453125,0.905151,0.161865,0.281555,0.274231,up
233275,-6.179687,4.082031,8.6875,-0.40625,0.052734,2.453125,0.905151,0.161865,0.281555,0.274231,up
233280,-6.105469,4.042969,8.726563,-0.632812,-0.048828,2.412109,0.9021,0.163086,0.278931,0.286072,up
233286,-5.949219,3.929688,8.804688,-0.675781,-0.082031,2.390625,0.900635,0.163513,0.277405,0.291809,up
233291,-5.835937,3.777344,8.804688,-0.675781,-0.082031,2.390625,0.897705,0.164062,0.274048,0.303467,up
233297,-5.683594,3.660156,8.765625,-0.675781,-0.082031,2.390625,0.896301,0.164185,0.272217,0.309143,up
233303,-5.566406,3.585938,8.726563,-0.751953,-0.173828,2.339844,0.896301,0.164185,0.272217,0.309143,up
233308,-5.414062,3.621094,8.648438,-0.742187,-0.205078,2.308594,0.896301,0.164185,0.272217,0.309143,up
233313,-5.335937,3.777344,8.648438,-0.724609,-0.222656,2.273438,0.896301,0.164185,0.272217,0.309143,up
233318,-5.261719,3.851563,8.613281,-0.701172,-0.246094,2.232422,0.896301,0.164185,0.272217,0.309143,up
233323,-5.222656,3.929688,8.609375,-0.6875,-0.277344,2.201172,0.896301,0.164185,0.272217,0.309143,up
233328,-5.109375,4.082031,8.421875,-0.6875,-0.277344,2.201172,0.896301,0.164185,0.272217,0.309143,up
233333,-5.03125,4.121094,8.386719,-0.6875,-0.277344,2.201172,0.886475,0.165344,0.257629,0.347046,up
233339,-5.03125,4.121094,8.386719,-0.664062,-0.369141,2.128906,0.885132,0.165588,0.255432,0.351868,up
233344,-4.878906,4.003906,8.34375,-0.671875,-0.384766,2.119141,0.885132,0.165588,0.255432,0.351868,up
233349,-4.878906,4.003906,8.34375,-0.667969,-0.378906,2.111328,0.882385,0.166138,0.250732,0.361816,up
233354,-4.953125,4.003906,8.464844,-0.667969,-0.378906,2.111328,0.881042,0.166321,0.248413,0.366638,up
233359,-4.953125,4.003906,8.464844,-0.697266,-0.394531,2.136719,0.879578,0.166504,0.245972,0.371704,up
233364,-4.496094,3.238281,8.6875,-0.697266,-0.394531,2.136719,0.878113,0.166748,0.24353,0.376587,up
233370,-4.53125,3.238281,8.609375,-0.609375,-0.373047,2.234375,0.878113,0.166748,0.24353,0.376587,up
233375,-4.496094,3.164063,8.84375,-0.609375,-0.373047,2.234375,0.873169,0.167908,0.236328,0.391785,up
233380,-4.457031,3.046875,8.914063,-0.304688,-0.328125,2.257813,0.873169,0.167908,0.236328,0.391785,up
233385,-4.417969,3.203125,8.808594,-0.179687,-0.306641,2.259766,0.871338,0.168762,0.234253,0.396729,up
233390,-4.339844,3.277344,8.882813,-0.179687,-0.306641,2.259766,0.867187,0.171387,0.230408,0.40686,up
233395,-4.265625,3.355469,8.808594,-0.179687,-0.306641,2.259766,0.867187,0.171387,0.230408,0.40686,up
233400,-4.074219,3.660156,8.648438,-0.072266,-0.275391,2.248047,0.863098,0.174194,0.227173,0.416138,up
233405,-3.996094,3.8125,8.535156,-0.072266,-0.275391,2.248047,0.863098,0.174194,0.227173,0.416138,up
233410,-3.957031,3.929688,8.503906,-0.017578,-0.283203,2.191406,0.863098,0.174194,0.227173,0.416138,up
233415,-3.882813,4.082031,8.34375,-0.017578,-0.283203,2.191406,0.856567,0.178772,0.22229,0.429993,up
233420,-3.921875,4.160156,8.082031,-0.017578,-0.283203,2.191406,0.854492,0.180176,0.220642,0.434387,up
233425,-3.804688,4.351562,8.042969,-0.017578,-0.283203,2.191406,0.854492,0.180176,0.220642,0.434387,up
233430,-3.691406,4.3125,8.082031,-0.117188,-0.296875,2.099609,0.850281,0.182739,0.217163,0.443237,up
233435,-3.460938,4.273437,8.082031,-0.117188,-0.296875,2.099609,0.850281,0.182739,0.217163,0.443237,up
233440,-3.460938,4.273437,8.082031,-0.253906,-0.316406,2.076172,0.848267,0.183777,0.215332,0.447571,up
233446,-3.382813,4.234375,8.042969,-0.304688,-0.330078,2.064453,0.848267,0.183777,0.215332,0.447571,up
233451,-3.117188,4.160156,8.152344,-0.345703,-0.34375,2.070313,0.844177,0.185486,0.211304,0.45636,up
233456,-3.117188,4.160156,8.152344,-0.345703,-0.34375,2.070313,0.844177,0.185486,0.211304,0.45636,up
233461,-3.117188,4.160156,8.152344,-0.376953,-0.369141,2.064453,0.838135,0.187805,0.204712,0.469421,up
233466,-2.769531,4.160156,8.308594,-0.376953,-0.369141,2.064453,0.836121,0.18866,0.202454,0.473572,up
233472,-2.65625,4.160156,7.964844,-0.376953,-0.369141,2.064453,0.834045,0.189697,0.200134,0.477844,up
233477,-2.578125,4.195312,8.078125,-0.201172,-0.453125,2.013672,0.83197,0.190796,0.197998,0.481873,up
233482,-2.386719,4.234375,8.039063,-0.138672,-0.486328,2.007813,0.83197,0.190796,0.197998,0.481873,up
233488,-2.234375,4.351562,8.0,-0.099609,-0.501953,1.988281,0.83197,0.190796,0.197998,0.481873,up
233493,-2.3125,4.542969,7.882812,-0.099609,-0.501953,1.988281,0.83197,0.190796,0.197998,0.481873,up
233498,-2.3125,4.582031,7.882812,-0.101563,-0.517578,1.949219,0.83197,0.190796,0.197998,0.481873,up
233503,-2.121094,4.582031,7.84375,-0.117188,-0.523437,1.927734,0.83197,0.190796,0.197998,0.481873,up
233508,-1.964844,4.734375,7.921875,-0.117188,-0.523437,1.927734,0.83197,0.190796,0.197998,0.481873,up
233514,-1.964844,4.734375,8.0,-0.117188,-0.523437,1.927734,0.817139,0.200256,0.182678,0.508789,up
233520,-1.851563,4.773437,8.078125,-0.253906,-0.537109,1.871094,0.817139,0.200256,0.182678,0.508789,up
233526,-1.738281,4.886719,7.960937,-0.253906,-0.537109,1.871094,0.810974,0.203491,0.175659,0.519653,up
233531,-1.8125,5.0,7.886719,-0.349609,-0.537109,1.847656,0.808777,0.204468,0.172974,0.523621,up
233537,-1.621094,5.0,8.078125,-0.349609,-0.537109,1.847656,0.806946,0.2052,0.170593,0.526917,up
233544,-1.621094,4.964844,8.003906,-0.408203,-0.5625,1.849609,0.806946,0.2052,0.170593,0.526917,up
233549,-1.699219,5.117187,8.082031,-0.408203,-0.5625,1.849609,0.806946,0.2052,0.170593,0.526917,up
233554,-1.582031,5.191406,8.003906,-0.367188,-0.619141,1.847656,0.806946,0.2052,0.170593,0.526917,up
233559,-1.582031,5.191406,8.003906,-0.324219,-0.646484,1.845703,0.798889,0.208435,0.159973,0.541016,up
233564,-1.507813,5.230469,8.082031,-0.324219,-0.646484,1.845703,0.798889,0.208435,0.159973,0.541016,up
233569,-1.507813,5.230469,8.082031,-0.238281,-0.699219,1.863281,0.794678,0.210693,0.154541,0.547974,up
233574,-1.429688,5.269531,8.082031,-0.238281,-0.699219,1.863281,0.792419,0.212036,0.151733,0.551453,up
233579,-1.429688,5.269531,8.082031,-0.177734,-0.751953,1.896484,0.790222,0.213379,0.149048,0.55481,up
233585,-1.390625,5.230469,8.1875,-0.177734,-0.751953,1.896484,0.787964,0.214844,0.146301,0.558105,up
233590,-1.316406,5.15625,8.148438,-0.150391,-0.794922,1.923828,0.787964,0.214844,0.146301,0.558105,up
233595,-1.160156,5.039062,8.152344,-0.150391,-0.794922,1.923828,0.783142,0.218018,0.140442,0.565125,up
233601,-1.085938,5.039062,8.113281,-0.140625,-0.792969,1.951172,0.783142,0.218018,0.140442,0.565125,up
233606,-1.046875,5.117187,8.148438,-0.140625,-0.792969,1.951172,0.77594,0.222656,0.131897,0.575256,up
233611,-0.96875,5.117187,8.113281,-0.138672,-0.777344,1.980469,0.773376,0.224243,0.128967,0.578735,up
233617,-0.816406,5.15625,8.042969,-0.138672,-0.777344,1.980469,0.773376,0.224243,0.128967,0.578735,up
233623,-0.777344,5.308594,8.039063,-0.126953,-0.761719,1.986328,0.768494,0.227173,0.123718,0.585266,up
233630,-0.742187,5.460937,8.0,-0.035156,-0.744141,2.009766,0.768494,0.227173,0.123718,0.585266,up
233636,-0.777344,5.5,7.964844,0.046875,-0.734375,2.037109,0.768494,0.227173,0.123718,0.585266,up
233641,-0.777344,5.5,7.964844,0.064453,-0.736328,2.072266,0.757324,0.23407,0.113281,0.598999,up
233647,-0.777344,5.578125,7.964844,0.076172,-0.740234,2.105469,0.754089,0.236145,0.110535,0.602783,up
233652,-0.777344,5.347656,7.769531,0.076172,-0.740234,2.105469,0.751404,0.237793,0.108276,0.605896,up
233658,-0.855469,5.308594,7.726562,0.115234,-0.759766,2.179688,0.74823,0.239807,0.105713,0.609497,up
233663,-0.855469,5.269531,7.699219,0.134766,-0.769531,2.228516,0.74823,0.239807,0.105713,0.609497,up
233668,-0.777344,5.269531,7.730469,0.15625,-0.78125,2.267578,0.74823,0.239807,0.105713,0.609497,up
233674,-0.585937,5.230469,7.84375,0.15625,-0.78125,2.267578,0.73822,0.245972,0.097961,0.620422,up
233679,-0.585937,5.230469,7.84375,0.255859,-0.792969,2.349609,0.734741,0.248169,0.095398,0.624084,up
233685,-0.433594,5.230469,7.808594,0.316406,-0.791016,2.375,0.734741,0.248169,0.095398,0.624084,up
233690,-0.164062,5.230469,7.699219,0.316406,-0.791016,2.375,0.734741,0.248169,0.095398,0.624084,up
233695,-0.164062,5.230469,7.699219,0.435547,-0.785156,2.425781,0.723328,0.255493,0.088196,0.635376,up
233700,0.140625,5.347656,7.542969,0.470703,-0.779297,2.443359,0.723328,0.255493,0.088196,0.635376,up
233705,0.21875,5.308594,7.195312,0.478516,-0.765625,2.462891,0.723328,0.255493,0.088196,0.635376,up
233710,0.292969,5.269531,7.082031,0.478516,-0.765625,2.462891,0.71106,0.263367,0.081543,0.64679,up
233715,0.410156,5.191406,6.960937,0.462891,-0.71875,2.517578,0.71106,0.263367,0.081543,0.64679,up
233721,0.445312,5.15625,6.894531,0.375,-0.681641,2.599609,0.71106,0.263367,0.081543,0.64679,up
233726,0.5625,4.808594,6.921875,0.375,-0.681641,2.599609,0.693298,0.273193,0.072205,0.662903,up
233731,0.5625,4.695312,6.960937,0.375,-0.681641,2.599609,0.693298,0.273193,0.072205,0.662903,up
233736,0.601562,4.582031,6.960937,0.318359,-0.554687,2.75,0.693298,0.273193,0.072205,0.662903,up
233741,0.5625,4.3125,7.0,0.318359,-0.554687,2.75,0.679871,0.278992,0.065552,0.674988,up
233746,0.5625,4.195312,7.039062,0.318359,-0.554687,2.75,0.674255,0.281128,0.063049,0.679993,up
233751,0.523437,4.082031,7.160156,0.318359,-0.554687,2.75,0.674255,0.281128,0.063049,0.679993,up
233756,0.5625,4.121094,7.234375,0.447266,-0.384766,3.085938,0.674255,0.281128,0.063049,0.679993,up
233761,0.601562,4.042969,7.34375,0.447266,-0.384766,3.085938,0.664062,0.284668,0.058899,0.688843,up
233766,0.601562,4.042969,7.34375,0.521484,-0.363281,3.179688,0.65863,0.286499,0.057007,0.69342,up
233771,0.5625,3.851563,7.382812,0.521484,-0.363281,3.179688,0.65863,0.286499,0.057007,0.69342,up
233776,0.5625,3.851563,7.382812,0.707031,-0.28125,3.417969,0.646423,0.290466,0.053162,0.703491,up
233781,0.5625,3.851563,7.382812,0.707031,-0.28125,3.417969,0.640137,0.29248,0.051453,0.708557,up
233786,1.214844,3.316406,7.347656,0.707031,-0.28125,3.417969,0.633301,0.294678,0.049805,0.713867,up
233791,1.328125,3.277344,7.304687,1.066406,-0.300781,3.453125,0.626648,0.296936,0.048401,0.718933,up
233796,1.40625,3.164063,7.304687,1.066406,-0.300781,3.453125,0.619141,0.299622,0.047058,0.724365,up
233801,1.480469,3.046875,7.277344,1.226563,-0.365234,3.455078,0.605225,0.30542,0.045288,0.733765,up
233806,1.519531,3.007813,7.277344,1.226563,-0.365234,3.455078,0.605225,0.30542,0.045288,0.733765,up
233811,1.597656,2.972656,7.304687,1.498047,-0.501953,3.412109,0.590332,0.312561,0.044067,0.742859,up
233816,1.632813,3.125,7.421875,1.498047,-0.501953,3.412109,0.590332,0.312561,0.044067,0.742859,up
233821,1.671875,3.203125,7.34375,1.769531,-0.691406,3.3125,0.590332,0.312561,0.044067,0.742859,up
233826,1.75,3.238281,7.421875,1.769531,-0.691406,3.3125,0.574707,0.321045,0.043213,0.751526,up
233832,2.132813,3.164063,7.347656,1.769531,-0.818359,3.269531,0.5672,0.325256,0.042847,0.755371,up
233837,2.132813,3.164063,7.347656,1.769531,-0.818359,3.269531,0.552795,0.333618,0.041992,0.762451,up
233842,2.132813,3.164063,7.347656,1.769531,-0.818359,3.269531,0.552795,0.333618,0.041992,0.762451,up
233847,2.476563,2.894531,7.238281,1.675781,-0.833984,3.261719,0.552795,0.333618,0.041992,0.762451,up
233852,2.9375,2.78125,6.542969,1.626953,-0.800781,3.257813,0.537903,0.34198,0.040649,0.76947,up
233857,2.9375,2.78125,6.542969,1.626953,-0.800781,3.257813,0.537903,0.34198,0.040649,0.76947,up
233863,3.089844,2.589844,6.773437,1.371094,-0.839844,3.347656,0.515076,0.353516,0.037109,0.779968,up
233868,3.398438,1.976563,7.160156,1.371094,-0.839844,3.347656,0.506592,0.357727,0.035034,0.783691,up
233873,3.433594,1.898438,7.078125,1.193359,-0.960937,3.517578,0.506592,0.357727,0.035034,0.783691,up
233878,3.433594,1.898438,7.078125,1.244141,-0.910156,3.550781,0.491516,0.364746,0.031311,0.790161,up
233883,3.472656,1.476563,7.0,1.244141,-0.910156,3.550781,0.483154,0.36853,0.029419,0.79364,up
233889,3.589844,1.402344,6.960937,1.244141,-0.910156,3.550781,0.474915,0.372375,0.027649,0.796875,up
233894,3.742188,1.402344,7.042969,1.542969,-1.162109,3.677734,0.474915,0.372375,0.027649,0.796875,up
233899,3.894531,1.476563,7.003906,1.664063,-1.25,3.714844,0.474915,0.372375,0.027649,0.796875,up
233904,4.125,1.285156,6.964844,1.814453,-1.318359,3.714844,0.474915,0.372375,0.027649,0.796875,up
233910,4.394531,1.171875,6.855469,1.957031,-1.363281,3.708984,0.474915,0.372375,0.027649,0.796875,up
233915,4.546875,1.171875,6.777344,2.087891,-1.378906,3.677734,0.474915,0.372375,0.027649,0.796875,up
233920,4.546875,1.171875,6.777344,2.207031,-1.367188,3.654297,0.420349,0.401428,0.019714,0.813477,up
233925,4.738281,1.210938,6.695312,2.265625,-1.328125,3.626953,0.420349,0.401428,0.019714,0.813477,up
233930,4.738281,1.210938,6.695312,2.214844,-1.308594,3.609375,0.401062,0.411926,0.018738,0.817993,up
233936,5.082031,1.324219,6.429687,2.214844,-1.308594,3.609375,0.391663,0.416809,0.018311,0.820068,up
233941,5.082031,1.324219,6.429687,2.21875,-1.201172,3.501953,0.381958,0.421753,0.018005,0.822144,up
233946,5.003906,1.820313,6.3125,2.21875,-1.201172,3.501953,0.37262,0.426392,0.017517,0.824036,up
233951,5.003906,1.4375,6.433594,1.525391,-1.402344,3.582031,0.37262,0.426392,0.017517,0.824036,up
233956,5.160156,1.09375,6.394531,1.525391,-1.402344,3.582031,0.345398,0.439758,0.012573,0.828979,up
233961,5.160156,0.828125,6.238281,1.525391,-1.402344,3.582031,0.336487,0.443481,0.009644,0.830627,up
233966,5.273437,0.480469,6.050781,1.525391,-1.402344,3.582031,0.336487,0.443481,0.009644,0.830627,up
233971,5.464844,0.75,5.96875,0.369141,-1.21875,3.611328,0.336487,0.443481,0.009644,0.830627,up
233976,5.386719,0.941406,5.929687,0.369141,-1.21875,3.611328,0.320007,0.449829,0.002136,0.833862,up
233981,5.386719,0.214844,6.117187,0.222656,-1.292969,3.490234,0.320007,0.449829,0.002136,0.833862,up
233986,5.386719,0.214844,6.117187,0.134766,-1.363281,3.369141,0.305115,0.455505,-0.006653,0.836304,up
233991,5.542969,-0.398438,6.199219,0.134766,-1.363281,3.369141,0.297913,0.458496,-0.011292,0.837219,up
233996,5.617187,-0.746094,6.089844,0.173828,-1.423828,3.109375,0.297913,0.458496,-0.011292,0.837219,up
234001,5.617187,-0.746094,6.089844,0.283203,-1.447266,2.949219,0.284302,0.464539,-0.019836,0.83844,up
234007,6.425781,-0.78125,5.894531,0.410156,-1.457031,2.763672,0.270874,0.471313,-0.026917,0.838928,up
234012,6.425781,-0.707031,5.816406,0.410156,-1.457031,2.763672,0.265564,0.474243,-0.029175,0.838867,up
234017,6.386719,-0.972656,5.625,0.410156,-1.457031,2.763672,0.259033,0.478088,-0.031372,0.838684,up
234022,6.460937,-1.050781,5.585937,1.089844,-1.667969,2.048828,0.259033,0.478088,-0.031372,0.838684,up
234027,6.542969,-1.128906,5.703125,1.089844,-1.667969,2.048828,0.24762,0.486267,-0.033875,0.837341,up
234032,6.542969,-1.164063,5.855469,1.089844,-1.667969,2.048828,0.242737,0.490356,-0.034546,0.836304,up
234037,6.609375,-1.128906,6.507812,1.332031,-2.173828,1.779297,0.236694,0.49585,-0.035278,0.834778,up
234043,6.539062,-1.625,6.964844,1.332031,-2.173828,1.779297,0.231628,0.50061,-0.03595,0.833313,up
234048,6.652344,-2.199219,6.890625,1.310547,-2.111328,1.808594,0.231628,0.50061,-0.03595,0.833313,up
234054,6.996094,-2.582031,6.121094,1.310547,-2.111328,1.808594,0.220337,0.510559,-0.037354,0.830261,up
234059,6.996094,-2.582031,6.121094,1.310547,-2.111328,1.808594,0.220337,0.510559,-0.037354,0.830261,up
234064,7.152344,-2.277344,5.585937,1.298828,-1.699219,1.992188,0.208679,0.518616,-0.03894,0.828247,up
234069,7.492187,-1.355469,4.898437,1.298828,-1.699219,1.992188,0.208679,0.518616,-0.03894,0.828247,up
234074,7.492187,-1.355469,4.898437,1.416016,-1.589844,2.072266,0.196167,0.526184,-0.040344,0.826416,up
234081,7.878906,-0.554687,4.515625,1.416016,-1.589844,2.072266,0.196167,0.526184,-0.040344,0.826416,up
234086,7.839844,0.289063,4.246094,1.621094,-1.585938,1.914063,0.196167,0.526184,-0.040344,0.826416,up
234091,7.800781,0.597656,3.863281,1.621094,-1.585938,1.914063,0.177429,0.537598,-0.040588,0.823303,up
234096,7.765625,0.75,3.554688,1.890625,-1.386719,1.585938,0.177429,0.537598,-0.040588,0.823303,up
234101,7.796875,0.828125,3.363281,1.947266,-1.339844,1.384766,0.160217,0.548218,-0.036621,0.820068,up
234106,7.839844,0.710937,3.363281,1.947266,-1.339844,1.384766,0.160217,0.548218,-0.036621,0.820068,up
234112,7.996094,0.789062,3.402344,1.738281,-1.328125,0.814453,0.155334,0.551697,-0.034729,0.818726,up
234117,8.03125,0.863281,3.402344,1.738281,-1.328125,0.814453,0.146973,0.55835,-0.030945,0.815918,up
234122,7.957031,0.519531,3.363281,1.738281,-1.328125,0.814453,0.143555,0.561218,-0.02948,0.814575,up
234128,7.835937,0.40625,3.441406,0.765625,-0.970703,0.564453,0.140869,0.563721,-0.028625,0.813354,up
234133,8.074219,0.289063,3.402344,0.300781,-0.837891,0.529297,0.138977,0.565674,-0.028625,0.812317,up
234138,8.183594,0.097656,3.554688,-0.1875,-0.773437,0.494141,0.137817,0.567383,-0.029541,0.81134,up
234144,8.261719,-0.054687,4.132812,-0.1875,-0.773437,0.494141,0.137451,0.568542,-0.031067,0.810486,up
234149,8.378906,-0.167969,4.324219,-1.054688,-0.628906,0.380859,0.137451,0.568542,-0.031067,0.810486,up
234154,8.457031,-0.359375,4.476562,-1.398438,-0.615234,0.302734,0.137451,0.568542,-0.031067,0.810486,up
234159,8.457031,-0.589844,4.898437,-1.605469,-0.626953,0.195312,0.137451,0.568542,-0.031067,0.810486,up
234164,8.414063,-0.554687,4.898437,-1.646484,-0.607422,0.048828,0.137451,0.568542,-0.031067,0.810486,up
234169,8.339844,-0.515625,4.972656,-1.580078,-0.570312,-0.113281,0.137451,0.568542,-0.031067,0.810486,up
234176,8.109375,-0.398438,4.859375,-1.427734,-0.53125,-0.279297,0.137451,0.568542,-0.031067,0.810486,up
234181,7.917969,-0.09375,4.4375,-1.210938,-0.544922,-0.431641,0.137451,0.568542,-0.031067,0.810486,up
234186,8.113281,-0.054687,4.207031,-0.777344,-0.652344,-0.714844,0.137451,0.568542,-0.031067,0.810486,up
234191,8.113281,-0.015625,4.09375,-0.777344,-0.652344,-0.714844,0.155029,0.575317,-0.055481,0.801208,up
234197,8.222656,0.136719,4.246094,-0.777344,-0.652344,-0.714844,0.157654,0.576599,-0.055969,0.799683,up
234202,8.222656,0.289063,4.359375,-0.398438,-0.757812,-0.933594,0.162292,0.579468,-0.055481,0.796753,up
234207,8.179688,0.480469,4.476562,-0.099609,-0.806641,-1.113281,0.162292,0.579468,-0.055481,0.796753,up
234212,8.179688,0.597656,4.207031,-0.099609,-0.806641,-1.113281,0.164734,0.581238,-0.054504,0.795044,up
234217,8.257813,0.828125,4.09375,-0.099609,-0.806641,-1.113281,0.169067,0.584778,-0.05188,0.791687,up
234222,8.257813,0.828125,4.09375,-0.099609,-0.806641,-1.113281,0.169067,0.584778,-0.05188,0.791687,up
234227,8.300781,0.863281,4.132812,-0.021484,-0.960937,-1.298828,0.169067,0.584778,-0.05188,0.791687,up
234232,8.5625,1.132813,4.09375,-0.076172,-1.037109,-1.335938,0.174072,0.588928,-0.04895,0.787659,up
234237,8.5625,1.132813,4.09375,-0.076172,-1.037109,-1.335938,0.174072,0.588928,-0.04895,0.787659,up
234242,8.5625,1.402344,3.863281,-0.189453,-1.101563,-1.445313,0.179749,0.593384,-0.046326,0.783264,up
234248,8.535156,1.746094,3.441406,-0.189453,-1.101563,-1.445313,0.186218,0.598083,-0.043579,0.77832,up
234253,8.566406,2.050781,3.019531,-0.189453,-1.101563,-1.445313,0.189209,0.600098,-0.042358,0.776062,up
234258,8.566406,2.050781,3.019531,-0.25,-1.113281,-1.570313,0.192444,0.602234,-0.041016,0.773682,up
234264,8.605469,2.433594,2.675781,-0.25,-1.113281,-1.570313,0.19574,0.604431,-0.039673,0.77124,up
234269,8.71875,2.855469,2.523438,-0.25,-1.113281,-1.570313,0.19574,0.604431,-0.039673,0.77124,up
234275,8.71875,3.046875,2.523438,-0.222656,-1.044922,-1.589844,0.19574,0.604431,-0.039673,0.77124,up
234280,8.722656,3.203125,2.558594,-0.21875,-0.96875,-1.576172,0.205872,0.610657,-0.035217,0.763855,up
234285,8.683594,3.394531,2.636719,-0.199219,-0.855469,-1.554688,0.205872,0.610657,-0.035217,0.763855,up
234290,8.644531,3.46875,2.714844,-0.199219,-0.855469,-1.554688,0.212219,0.613953,-0.032166,0.759583,up
234295,8.644531,3.46875,2.714844,-0.234375,-0.685547,-1.511719,0.212219,0.613953,-0.032166,0.759583,up
234300,8.679688,3.46875,2.828125,-0.314453,-0.638672,-1.492188,0.212219,0.613953,-0.032166,0.759583,up
234306,8.800781,3.660156,2.980469,-0.314453,-0.638672,-1.492188,0.212219,0.613953,-0.032166,0.759583,up
234311,8.875,3.621094,2.980469,-0.314453,-0.638672,-1.492188,0.225952,0.618652,-0.026672,0.752014,up
234316,8.957031,3.699219,2.980469,-0.746094,-0.642578,-1.490234,0.225952,0.618652,-0.026672,0.752014,up
234321,9.023438,3.699219,2.945313,-0.908203,-0.671875,-1.5,0.225952,0.618652,-0.026672,0.752014,up
234326,9.300781,3.546875,2.867188,-0.908203,-0.671875,-1.5,0.225952,0.618652,-0.026672,0.752014,up
234331,9.183594,3.585938,2.945313,-0.908203,-0.671875,-1.5,0.242371,0.621826,-0.025452,0.744263,up
234336,9.144531,3.699219,2.90625,-1.115234,-0.626953,-1.492188,0.242371,0.621826,-0.025452,0.744263,up
234341,9.101563,3.621094,2.753906,-1.078125,-0.578125,-1.486328,0.251221,0.622925,-0.025635,0.740417,up
234347,9.101563,3.621094,2.753906,-1.033203,-0.556641,-1.474609,0.255371,0.623352,-0.025635,0.738586,up
234352,9.101563,3.777344,2.753906,-1.033203,-0.556641,-1.474609,0.259766,0.62384,-0.025513,0.736694,up
234357,9.023438,4.003906,2.789063,-0.910156,-0.548828,-1.445313,0.263794,0.624329,-0.02533,0.734863,up
234362,9.023438,4.003906,2.789063,-0.849609,-0.582031,-1.439453,0.267883,0.624878,-0.025085,0.73291,up
234367,9.222656,4.160156,2.675781,-0.849609,-0.582031,-1.439453,0.267883,0.624878,-0.025085,0.73291,up
234372,9.367188,4.234375,2.597656,-0.849609,-0.582031,-1.439453,0.279358,0.626953,-0.023682,0.726868,up
234377,9.5625,4.425781,2.523438,-0.849609,-0.582031,-1.439453,0.279358,0.626953,-0.023682,0.726868,up
234382,9.605469,4.503906,2.558594,-0.535156,-0.603516,-1.361328,0.282532,0.627625,-0.023071,0.725037,up
234387,9.644531,4.617187,2.558594,-0.535156,-0.603516,-1.361328,0.286194,0.628479,-0.022278,0.7229,up
234393,9.71875,4.773437,2.523438,-0.556641,-0.617187,-1.302734,0.28949,0.629272,-0.021545,0.720947,up
234398,9.910156,4.773437,2.484375,-0.556641,-0.617187,-1.302734,0.292603,0.630005,-0.020874,0.719055,up
234403,10.101563,4.847656,2.445313,-0.589844,-0.658203,-1.263672,0.298767,0.631531,-0.019897,0.71521,up
234408,10.253906,4.847656,2.332031,-0.648437,-0.683594,-1.208984,0.302124,0.632324,-0.019592,0.713074,up
234414,10.554688,4.886719,1.910156,-0.648437,-0.683594,-1.208984,0.304993,0.632996,-0.019409,0.711243,up
234419,10.554688,4.964844,1.792969,-0.701172,-0.642578,-1.140625,0.308228,0.633728,-0.019287,0.70929,up
234424,10.554688,5.039062,1.679688,-0.697266,-0.595703,-1.09375,0.308228,0.633728,-0.019287,0.70929,up
234429,10.554688,5.117187,1.566406,-0.664062,-0.541016,-1.060547,0.308228,0.633728,-0.019287,0.70929,up
234434,10.527344,5.269531,1.449219,-0.664062,-0.541016,-1.060547,0.308228,0.633728,-0.019287,0.70929,up
234439,10.445313,5.230469,1.371094,-0.605469,-0.400391,-1.001953,0.308228,0.633728,-0.019287,0.70929,up
234445,10.367188,5.269531,1.335938,-0.550781,-0.332031,-0.976562,0.308228,0.633728,-0.019287,0.70929,up
234450,10.144531,5.386719,1.257813,-0.550781,-0.332031,-0.976562,0.325012,0.635864,-0.018127,0.699829,up
234455,9.988281,5.460937,1.179688,-0.494141,-0.228516,-0.933594,0.325012,0.635864,-0.018127,0.699829,up
234461,9.949219,5.460937,1.144531,-0.457031,-0.216797,-0.927734,0.325012,0.635864,-0.018127,0.699829,up
234466,9.867188,5.421875,1.105469,-0.457031,-0.216797,-0.927734,0.332458,0.635925,-0.016602,0.696289,up
234471,9.644531,5.460937,1.105469,-0.457031,-0.216797,-0.927734,0.332458,0.635925,-0.016602,0.696289,up
234476,9.566406,5.5,1.144531,-0.457031,-0.216797,-0.927734,0.336609,0.635864,-0.015869,0.694336,up
234482,9.566406,5.5,1.144531,-0.484375,-0.212891,-0.769531,0.338684,0.635864,-0.015564,0.693359,up
234487,9.339844,5.652344,1.144531,-0.515625,-0.201172,-0.732422,0.340759,0.635803,-0.015381,0.692383,up
234492,9.339844,5.652344,1.144531,-0.517578,-0.185547,-0.695312,0.342896,0.635681,-0.015259,0.691467,up
234498,9.179688,5.578125,1.144531,-0.517578,-0.171875,-0.646484,0.342896,0.635681,-0.015259,0.691467,up
234503,8.761719,5.613281,1.335938,-0.501953,-0.162109,-0.607422,0.34668,0.635437,-0.015259,0.689758,up
234508,8.679688,5.578125,1.410156,-0.466797,-0.175781,-0.5625,0.350098,0.635254,-0.01532,0.688232,up
234513,8.722656,5.539062,1.410156,-0.466797,-0.175781,-0.5625,0.351624,0.635193,-0.015442,0.6875,up
234519,8.679688,5.5,1.488281,-0.466797,-0.175781,-0.5625,0.35321,0.635071,-0.015625,0.686768,up
234524,8.757813,5.421875,1.527344,-0.466797,-0.175781,-0.5625,0.354675,0.634949,-0.015808,0.686157,up
234529,8.757813,5.386719,1.527344,-0.494141,-0.144531,-0.425781,0.354675,0.634949,-0.015808,0.686157,up
234534,8.683594,5.308594,1.449219,-0.496094,-0.119141,-0.414062,0.354675,0.634949,-0.015808,0.686157,up
234540,8.535156,5.15625,1.335938,-0.496094,-0.119141,-0.414062,0.359192,0.634277,-0.016602,0.684387,up
234546,8.457031,5.039062,1.371094,-0.533203,-0.089844,-0.382813,0.359192,0.634277,-0.016602,0.684387,up
234551,8.414063,4.964844,1.410156,-0.566406,-0.091797,-0.361328,0.359192,0.634277,-0.016602,0.684387,up
234557,8.339844,4.808594,1.488281,-0.587891,-0.107422,-0.330078,0.359192,0.634277,-0.016602,0.684387,up
234562,8.378906,4.808594,1.527344,-0.617187,-0.144531,-0.306641,0.366638,0.632629,-0.019104,0.681946,up
234567,8.375,4.808594,1.640625,-0.617187,-0.144531,-0.306641,0.366638,0.632629,-0.019104,0.681946,up
234572,8.375,4.773437,1.679688,-0.613281,-0.228516,-0.236328,0.366638,0.632629,-0.019104,0.681946,up
234577,8.378906,4.773437,1.71875,-0.613281,-0.228516,-0.236328,0.369507,0.632141,-0.020691,0.680786,up
234583,8.457031,4.65625,1.792969,-0.613281,-0.228516,-0.236328,0.372009,0.631836,-0.022339,0.679626,up
234588,8.457031,4.617187,1.792969,-0.447266,-0.203125,-0.1875,0.372009,0.631836,-0.022339,0.679626,up
234593,8.457031,4.65625,1.832031,-0.447266,-0.203125,-0.1875,0.374084,0.631653,-0.02356,0.67865,up
234598,8.457031,4.65625,1.792969,-0.447266,-0.203125,-0.1875,0.374878,0.631592,-0.023865,0.678223,up
234603,8.496094,4.617187,1.792969,-0.230469,-0.115234,-0.197266,0.374878,0.631592,-0.023865,0.678223,up
234608,8.53125,4.542969,1.832031,-0.230469,-0.115234,-0.197266,0.376343,0.63147,-0.024231,0.67749,up
234613,8.53125,4.503906,1.792969,-0.230469,-0.115234,-0.197266,0.376953,0.63147,-0.024231,0.677185,up
234619,8.644531,4.464844,1.71875,-0.210937,-0.058594,-0.238281,0.377686,0.631348,-0.024231,0.67688,up
234624,8.683594,4.425781,1.679688,-0.210937,-0.058594,-0.238281,0.378418,0.631226,-0.024231,0.676575,up
234630,8.722656,4.503906,1.679688,-0.210937,-0.058594,-0.238281,0.379272,0.631104,-0.024231,0.67627,up
234635,8.640625,4.503906,1.640625,-0.210937,-0.058594,-0.238281,0.380127,0.630859,-0.024292,0.675964,up
234640,8.640625,4.503906,1.679688,-0.335938,-0.056641,-0.291016,0.381165,0.630615,-0.024353,0.675598,up
234646,8.644531,4.425781,1.640625,-0.378906,-0.087891,-0.302734,0.381165,0.630615,-0.024353,0.675598,up
234651,8.640625,4.390625,1.792969,-0.378906,-0.087891,-0.302734,0.381165,0.630615,-0.024353,0.675598,up
234656,8.679688,4.425781,1.832031,-0.378906,-0.087891,-0.302734,0.38446,0.630005,-0.025024,0.674316,up
234661,8.683594,4.351562,1.792969,-0.449219,-0.115234,-0.335938,0.38446,0.630005,-0.025024,0.674316,up
234666,8.679688,4.273437,1.832031,-0.445312,-0.121094,-0.335938,0.38446,0.630005,-0.025024,0.674316,up
234671,8.71875,4.195312,1.910156,-0.445312,-0.121094,-0.335938,0.38446,0.630005,-0.025024,0.674316,up
234676,8.683594,4.273437,1.984375,-0.445312,-0.121094,-0.335938,0.389343,0.629089,-0.026123,0.672302,up
234681,8.757813,4.273437,1.949219,-0.316406,-0.070312,-0.337891,0.389343,0.629089,-0.026123,0.672302,up
234686,8.757813,4.234375,2.023438,-0.316406,-0.070312,-0.337891,0.389343,0.629089,-0.026123,0.672302,up
234691,8.761719,4.273437,2.0625,-0.316406,-0.070312,-0.337891,0.392334,0.62854,-0.026062,0.671082,up
234696,8.761719,4.3125,2.023438,-0.171875,0.007813,-0.324219,0.392334,0.62854,-0.026062,0.671082,up
234701,8.796875,4.3125,1.984375,-0.138672,0.025391,-0.326172,0.392334,0.62854,-0.026062,0.671082,up
234706,8.875,4.390625,1.984375,-0.138672,0.025391,-0.326172,0.392334,0.62854,-0.026062,0.671082,up
234712,8.875,4.425781,1.949219,-0.138672,0.025391,-0.326172,0.395386,0.627808,-0.02478,0.670044,up
